t,lat,lon,alt,vx,vy,vz,ax,ay,az,yaw,mode,ledr,ledg,ledb
10.0,35.69316012666558,51.28329641072136,1297.0014877868816,0.00012555461879060025,5.414565293904084e-06,0.0,-2.10349639892827e-07,7.180460670651327e-08,0.0,16.2,70.0,0.0,255.0,0.0
10.05,35.69316640439966,51.283296681445265,1297.0014872178435,0.0001255441013086056,5.41815552423941e-06,0.0,-3.1552445987491524e-07,1.0770577318984753e-07,0.0,16.243000487337827,70.0,0.0,255.0,0.0
10.100000000000001,35.69317268108197,51.283296952528204,1297.0014866525307,0.00012552306634461274,5.425335871223069e-06,0.0,-4.2069927985721733e-07,1.4360580280481372e-07,0.0,16.285993051627685,70.0,0.0,255.0,0.0
10.150000000000002,35.69317895671256,51.28329722397015,1297.0014860853553,0.00012550203138061988,5.432516104519891e-06,0.0,-4.2069927985721733e-07,1.4360693967319094e-07,0.0,16.328977692869568,70.0,0.0,255.0,0.0
10.200000000000003,35.69318523129138,51.283297495771116,1297.0014855191112,0.00012548099641662702,5.439696565190388e-06,0.0,-4.2069927985721733e-07,1.4360921340994537e-07,0.0,16.371954411063477,70.0,0.0,255.0,0.0
10.250000000000004,35.69319150481846,51.28329776793111,1297.0014849519357,0.00012545996145263416,5.446877025860886e-06,0.0,-4.2069927985721733e-07,1.4360693967319094e-07,0.0,16.414923206209416,70.0,0.0,255.0,0.0
10.300000000000004,35.69319777729378,51.28329804045012,1297.0014843856916,0.0001254389264886413,5.4540572591577074e-06,0.0,-4.206975745546515e-07,1.4360693967318416e-07,0.0,16.457884078307377,70.0,0.0,255.0,0.0
10.350000000000005,35.69320404871736,51.283298313328146,1297.0014838185161,0.0001254178916951787,5.461237719828205e-06,0.0,-4.206975745546515e-07,1.4360807654156138e-07,0.0,16.500837027357367,70.0,0.0,255.0,0.0
10.400000000000006,35.693210319089204,51.28329858656519,1297.0014832513407,0.00012539685673118584,5.468418066811864e-06,0.0,-4.2070041672559455e-07,1.4360693967319094e-07,0.0,16.543782053359386,70.0,0.0,255.0,0.0
10.450000000000006,35.69321658840929,51.28329886016125,1297.0014826850966,0.00012537582165350614,5.475598413795524e-06,0.0,-4.2069984829140594e-07,1.4360693967319094e-07,0.0,16.586719156313432,70.0,0.0,255.0,0.0
10.500000000000007,35.69322285667763,51.283299134116334,1297.0014821179211,0.0001253547867463567,5.482778760779183e-06,0.0,-4.206987114230287e-07,1.4360807654156815e-07,0.0,16.6296483362195,70.0,0.0,255.0,0.0
10.550000000000008,35.69322912389423,51.28329940843043,1297.001481551677,0.00012533375178236383,5.489959221449681e-06,0.0,-4.2069984829140594e-07,1.4360921340994537e-07,0.0,16.672569593077597,70.0,0.0,255.0,0.0
10.600000000000009,35.693235390059066,51.283299683103564,1297.0014809854329,0.00012531271676152755,5.497139682120178e-06,0.0,-4.2069927985721733e-07,1.4360693967319094e-07,0.0,16.715482926887727,70.0,0.0,255.0,0.0
10.65000000000001,35.693241655172166,51.28329995813571,1297.0014804182574,0.0001252916818543781,5.504319915417e-06,0.0,-4.206987114230287e-07,1.4360580280480694e-07,0.0,16.758388337649876,70.0,0.0,255.0,0.0
10.70000000000001,35.69324791923351,51.283300233526866,1297.001479853876,0.00012527064689038525,5.511500262400659e-06,0.0,-4.206981429888401e-07,1.4360693967318416e-07,0.0,16.801285825364054,70.0,0.0,255.0,0.0
10.75000000000001,35.693254182243095,51.28330050927705,1297.0014792867005,0.00012524961204007923,5.518680609384319e-06,0.0,-4.206987114230287e-07,1.4360693967319094e-07,0.0,16.844175390030262,70.0,0.0,255.0,0.0
10.800000000000011,35.693260444200966,51.283300785386245,1297.0014787213877,0.00012522857701924295,5.525860956367978e-06,0.0,-4.2070041672559455e-07,1.4360807654156815e-07,0.0,16.887057031648492,70.0,0.0,255.0,0.0
10.850000000000012,35.693266705107064,51.283301061854466,1297.0014781542122,0.00012520754199840667,5.533041417038476e-06,0.0,-4.206987114230287e-07,1.4360921340994537e-07,0.0,16.929930750218755,70.0,0.0,255.0,0.0
10.900000000000013,35.69327296496142,51.283301338681696,1297.0014775888994,0.00012518650714810065,5.540221877708973e-06,0.0,-4.206981429888401e-07,1.4360693967319094e-07,0.0,16.97279654574104,70.0,0.0,255.0,0.0
10.950000000000014,35.69327922376403,51.283301615867956,1297.001477021724,0.00012516547218410778,5.547402111005795e-06,0.0,-4.2069984829140594e-07,1.4360693967319094e-07,0.0,17.01565441821535,70.0,0.0,255.0,0.0
11.000000000000014,35.693285481514884,51.28330189341324,1297.0014764554799,0.0001251444371632715,5.554582571676292e-06,0.0,-4.2069927985721733e-07,1.4360807654156138e-07,0.0,17.058504367641692,70.0,0.0,255.0,0.0
11.050000000000015,35.69329173821399,51.28330217131754,1297.001475890167,0.00012512340225612206,5.5617629186599515e-06,0.0,-4.206975745546515e-07,1.4360580280480694e-07,0.0,17.10134639402006,70.0,0.0,255.0,0.0
11.100000000000016,35.693297993861364,51.28330244958085,1297.0014753248543,0.00012510236740581604,5.568943151956773e-06,0.0,-4.206987114230287e-07,1.4360693967319094e-07,0.0,17.144180497350455,70.0,0.0,255.0,0.0
11.150000000000016,35.69330424845698,51.28330272820318,1297.0014747595415,0.00012508133238497976,5.576123612627271e-06,0.0,-4.2070041672559455e-07,1.4360807654156815e-07,0.0,17.187006677632873,70.0,0.0,255.0,0.0
11.200000000000017,35.69331050200085,51.28330300718455,1297.001474192366,0.00012506029736414348,5.58330395961093e-06,0.0,-4.2069927985721733e-07,1.4360693967319094e-07,0.0,17.22982493486732,70.0,0.0,255.0,0.0
11.250000000000018,35.69331675449296,51.28330328652491,1297.0014736289158,0.00012503926245699404,5.59048430659459e-06,0.0,-4.206981429888401e-07,1.4360807654156815e-07,0.0,17.272635269053794,70.0,0.0,255.0,0.0
11.300000000000018,35.693323005933344,51.2833035662243,1297.0014730626717,0.0001250182275498446,5.597664767265087e-06,0.0,-4.2069927985721733e-07,1.4360807654156138e-07,0.0,17.315437680192296,70.0,0.0,255.0,0.0
11.35000000000002,35.69332925632197,51.28330384628272,1297.001472497359,0.00012499719252900832,5.6048451142487465e-06,0.0,-4.2069984829140594e-07,1.4360693967318416e-07,0.0,17.358232168282825,70.0,0.0,255.0,0.0
11.40000000000002,35.69333550565884,51.28330412670014,1297.0014719320461,0.00012497615756501546,5.612025461232406e-06,0.0,-4.206987114230287e-07,1.4360807654156815e-07,0.0,17.40101873332538,70.0,0.0,255.0,0.0
11.45000000000002,35.69334175394397,51.28330440747658,1297.0014713667333,0.000124955122657866,5.619205921902903e-06,0.0,-4.206987114230287e-07,1.4360807654156815e-07,0.0,17.443797375319964,70.0,0.0,255.0,0.0
11.500000000000021,35.693348001177355,51.283304688612056,1297.0014708014205,0.00012493408769387315,5.626386268886563e-06,0.0,-4.2069984829140594e-07,1.4360580280481372e-07,0.0,17.48656809426657,70.0,0.0,255.0,0.0
11.550000000000022,35.693354247358975,51.28330497010654,1297.0014702361077,0.00012491305267303687,5.633566502183385e-06,0.0,-4.2069927985721733e-07,1.4360580280481372e-07,0.0,17.52933089016521,70.0,0.0,255.0,0.0
11.600000000000023,35.69336049248886,51.28330525196005,1297.0014696717262,0.00012489201776588743,5.640746849167044e-06,0.0,-4.206981429888401e-07,1.4360921340994537e-07,0.0,17.57208576301587,70.0,0.0,255.0,0.0
11.650000000000023,35.693366736567,51.28330553417257,1297.0014691064134,0.000124870982858738,5.647927423524379e-06,0.0,-4.2069927985721733e-07,1.436092134099386e-07,0.0,17.614832712818558,70.0,0.0,255.0,0.0
11.700000000000024,35.693372979593384,51.28330581674412,1297.0014685411006,0.0001248499478379017,5.655107770508039e-06,0.0,-4.2069927985721733e-07,1.4360580280480694e-07,0.0,17.657571739573275,70.0,0.0,255.0,0.0
11.750000000000025,35.69337922156802,51.28330609967469,1297.0014679757878,0.00012482891293075227,5.662288003804861e-06,0.0,-4.206981429888401e-07,1.4360693967319094e-07,0.0,17.700302843280017,70.0,0.0,255.0,0.0
11.800000000000026,35.69338546249092,51.28330638296428,1297.0014674123377,0.00012480787802360283,5.669468464475358e-06,0.0,-4.2069927985721733e-07,1.4360807654156815e-07,0.0,17.74302602393879,70.0,0.0,255.0,0.0
11.850000000000026,35.69339170236207,51.28330666661287,1297.0014668470249,0.00012478684300276655,5.6766488114590175e-06,0.0,-4.206987114230287e-07,1.4360693967319094e-07,0.0,17.785741281549587,70.0,0.0,255.0,0.0
11.900000000000027,35.693397941181466,51.28330695062049,1297.001466281712,0.00012476580815246052,5.683829158442677e-06,0.0,-4.206981429888401e-07,1.4360807654156815e-07,0.0,17.82844861611241,70.0,0.0,255.0,0.0
11.950000000000028,35.693404178949116,51.28330723498713,1297.001465718262,0.00012474477318846766,5.691009619113174e-06,0.0,-4.2070041672559455e-07,1.4360807654156815e-07,0.0,17.87114802762726,70.0,0.0,255.0,0.0
12.000000000000028,35.69341041566501,51.2833075197128,1297.001465152949,0.00012472373811078796,5.698189966096834e-06,0.0,-4.2069984829140594e-07,1.4360580280480694e-07,0.0,17.913839516094136,70.0,0.0,255.0,0.0
12.05000000000003,35.69341665132916,51.28330780479748,1297.0014645885676,0.00012470270320363852,5.705370199393656e-06,0.0,-4.206981429888401e-07,1.4360693967318416e-07,0.0,17.956523081513044,70.0,0.0,255.0,0.0
12.10000000000003,35.693422885941565,51.28330809024117,1297.0014640251175,0.00012468166829648908,5.712550660064153e-06,0.0,-4.206987114230287e-07,1.4360921340994537e-07,0.0,17.999198723883975,70.0,0.0,255.0,0.0
12.15000000000003,35.69342911950223,51.2833083760439,1297.0014634598047,0.00012466063333249622,5.71973112073465e-06,0.0,-4.2069984829140594e-07,1.4360693967319094e-07,0.0,18.04186644320693,70.0,0.0,255.0,0.0
12.200000000000031,35.69343535201114,51.283308662205634,1297.0014628954232,0.00012463959831165994,5.726911354031472e-06,0.0,-4.2069927985721733e-07,1.4360693967319094e-07,0.0,18.084526239481917,70.0,0.0,255.0,0.0
12.250000000000032,35.6934415834683,51.283308948726386,1297.0014623310417,0.0001246185634045105,5.734091814701969e-06,0.0,-4.206981429888401e-07,1.4360807654156815e-07,0.0,18.12717811270893,70.0,0.0,255.0,0.0
12.300000000000033,35.69344781387372,51.28330923560617,1297.0014617666602,0.00012459752849736105,5.741272161685629e-06,0.0,-4.2069927985721733e-07,1.4360580280480694e-07,0.0,18.16982206288797,70.0,0.0,255.0,0.0
12.350000000000033,35.69345404322737,51.28330952284496,1297.0014612041414,0.00012457649347652477,5.748452394982451e-06,0.0,-4.2069927985721733e-07,1.4360693967318416e-07,0.0,18.212458090019034,70.0,0.0,255.0,0.0
12.400000000000034,35.69346027152928,51.28330981044277,1297.00146063976,0.00012455545856937533,5.755632855652948e-06,0.0,-4.206987114230287e-07,1.4360807654156815e-07,0.0,18.255086194102127,70.0,0.0,255.0,0.0
12.450000000000035,35.69346649877946,51.2833100983996,1297.001460077241,0.00012453442360538247,5.7628132026366075e-06,0.0,-4.2069984829140594e-07,1.4360693967319094e-07,0.0,18.297706375137246,70.0,0.0,255.0,0.0
12.500000000000036,35.69347272497789,51.28331038671545,1297.0014595119283,0.0001245133885845462,5.769993549620267e-06,0.0,-4.2069927985721733e-07,1.4360807654156815e-07,0.0,18.340318633124394,70.0,0.0,255.0,0.0
12.550000000000036,35.693478950124565,51.283310675390325,1297.0014589475468,0.00012449235367739675,5.777174010290764e-06,0.0,-4.206987114230287e-07,1.4360921340994537e-07,0.0,18.382922968063568,70.0,0.0,255.0,0.0
12.600000000000037,35.69348517421948,51.28331096442421,1297.0014583840966,0.0001244713187134039,5.7843544709612615e-06,0.0,-4.206981429888401e-07,1.4360693967319094e-07,0.0,18.425519379954768,70.0,0.0,255.0,0.0
12.650000000000038,35.693491397262655,51.28331125381713,1297.0014578206465,0.00012445028386309787,5.791534704258083e-06,0.0,-4.206975745546515e-07,1.4360580280480694e-07,0.0,18.468107868797993,70.0,0.0,255.0,0.0
12.700000000000038,35.69349761925409,51.28331154356906,1297.001457256265,0.00012442924895594842,5.798715051241743e-06,0.0,-4.2069927985721733e-07,1.4360807654156138e-07,0.0,18.510688434593245,70.0,0.0,255.0,0.0
12.750000000000039,35.693503840193785,51.28331183368,1297.0014566928148,0.00012440821393511214,5.80589551191224e-06,0.0,-4.2070041672559455e-07,1.4360807654156815e-07,0.0,18.553261077340526,70.0,0.0,255.0,0.0
12.80000000000004,35.693510060081714,51.28331212414997,1297.0014561293647,0.00012438717891427586,5.8130758588959e-06,0.0,-4.2069984829140594e-07,1.4360693967319094e-07,0.0,18.595825797039836,70.0,0.0,255.0,0.0
12.85000000000004,35.69351627891789,51.28331241497896,1297.0014555668458,0.000124366143950283,5.820256205879559e-06,0.0,-4.206987114228119e-07,1.4360693967319094e-07,0.0,18.63838259369117,70.0,0.0,255.0,0.0
12.900000000000041,35.69352249670234,51.28331270616697,1297.0014550024644,0.00012434510904313356,5.827436552863219e-06,0.0,-4.206992798570005e-07,1.4360693967319094e-07,0.0,18.68093146729453,70.0,0.0,255.0,0.0
12.950000000000042,35.69352871343502,51.28331299771399,1297.0014544380829,0.00012432407402229728,5.834616899846878e-06,0.0,-4.2069927985721733e-07,1.4360807654156138e-07,0.0,18.72347241784992,70.0,0.0,255.0,0.0
13.000000000000043,35.693534929115955,51.28331328962004,1297.001453875564,0.00012430303911514784,5.841797360517376e-06,0.0,-4.206981429888401e-07,1.436092134099386e-07,0.0,18.766005445357337,70.0,0.0,255.0,0.0
13.050000000000043,35.693541143745165,51.283313581885096,1297.0014533121139,0.0001242820042079984,5.848977821187873e-06,0.0,-4.2069927985721733e-07,1.4360693967319094e-07,0.0,18.80853054981678,70.0,0.0,255.0,0.0
13.100000000000044,35.69354735732261,51.28331387450918,1297.0014527505264,0.00012426096918716212,5.856158054484695e-06,0.0,-4.2069927985721733e-07,1.436046659364365e-07,0.0,18.851047731228245,70.0,0.0,255.0,0.0
13.150000000000045,35.693553569848305,51.283314167492286,1297.001452186145,0.00012423993428001268,5.8633382877815166e-06,0.0,-4.206981429888401e-07,1.4360693967319094e-07,0.0,18.89355698959174,70.0,0.0,255.0,0.0
13.200000000000045,35.69355978132226,51.2833144608344,1297.0014516245574,0.00012421889937286323,5.870518748452014e-06,0.0,-4.2069927985721733e-07,1.4361035027832258e-07,0.0,18.936058324907265,70.0,0.0,255.0,0.0
13.250000000000046,35.69356599174446,51.283314754535546,1297.0014510629699,0.00012419786435202695,5.877699322809349e-06,0.0,-4.2069984829140594e-07,1.4360807654156815e-07,0.0,18.978551737174815,70.0,0.0,255.0,0.0
13.300000000000047,35.69357220111491,51.28331504859571,1297.0014504995197,0.0001241768293880341,5.884879556106171e-06,0.0,-4.206987114230287e-07,1.4360466593642973e-07,0.0,19.02103722639439,70.0,0.0,255.0,0.0
13.350000000000048,35.69357840943362,51.28331534301488,1297.0014499360695,0.00012415579448088465,5.8920597894029925e-06,0.0,-4.206981429888401e-07,1.4360807654156138e-07,0.0,19.063514792565996,70.0,0.0,255.0,0.0
13.400000000000048,35.69358461670058,51.28331563779307,1297.0014493726194,0.0001241347595737352,5.8992403637603275e-06,0.0,-4.206987114230287e-07,1.4360921340994537e-07,0.0,19.105984435689624,70.0,0.0,255.0,0.0
13.450000000000049,35.693590822915795,51.28331593293031,1297.0014488101006,0.00012411372460974235,5.906420710743987e-06,0.0,-4.2069984829140594e-07,1.4360580280481372e-07,0.0,19.148446155765285,70.0,0.0,255.0,0.0
13.50000000000005,35.69359702807926,51.283316228426536,1297.001448248513,0.00012409268958890607,5.913600944040809e-06,0.0,-4.2069984829140594e-07,1.4360693967319094e-07,0.0,19.190899952792968,70.0,0.0,255.0,0.0
13.55000000000005,35.693603232190966,51.283316524281794,1297.0014476859942,0.0001240716546249132,5.920781404711306e-06,0.0,-4.2069927985721733e-07,1.4360807654156815e-07,0.0,19.233345826772677,70.0,0.0,255.0,0.0
13.600000000000051,35.693609435250934,51.28331682049607,1297.0014471216127,0.00012405061966092035,5.927961751694966e-06,0.0,-4.206987114230287e-07,1.4360693967319094e-07,0.0,19.275783777704415,70.0,0.0,255.0,0.0
13.650000000000052,35.69361563725916,51.28331711706936,1297.001446559094,0.0001240295847537709,5.935142098678625e-06,0.0,-4.206987114230287e-07,1.4360807654156138e-07,0.0,19.31821380558818,70.0,0.0,255.0,0.0
13.700000000000053,35.69362183821563,51.283317414001665,1297.0014459984377,0.00012400854978977804,5.9423225593491225e-06,0.0,-4.206987114230287e-07,1.4360807654156138e-07,0.0,19.36063591042397,70.0,0.0,255.0,0.0
13.750000000000053,35.693628038120345,51.28331771129301,1297.0014454359189,0.0001239875148826286,5.949502906332782e-06,0.0,-4.206987114230287e-07,1.4360580280481372e-07,0.0,19.403050092211792,70.0,0.0,255.0,0.0
13.800000000000054,35.693634236973324,51.283318008943354,1297.0014448752627,0.00012396647991863574,5.956683139629604e-06,0.0,-4.2069984829140594e-07,1.4360693967319094e-07,0.0,19.445456350951638,70.0,0.0,255.0,0.0
13.850000000000055,35.693640434774544,51.28331830695272,1297.0014443118125,0.00012394544489779946,5.963863600300101e-06,0.0,-4.2069927985721733e-07,1.4360921340994537e-07,0.0,19.48785468664351,70.0,0.0,255.0,0.0
13.900000000000055,35.69364663152402,51.28331860532113,1297.001443750225,0.00012392440999065002,5.971044060970598e-06,0.0,-4.206987114230287e-07,1.4360693967319094e-07,0.0,19.530245099287406,70.0,0.0,255.0,0.0
13.950000000000056,35.69365282722176,51.28331890404853,1297.0014431886375,0.00012390337502665716,5.97822429426742e-06,0.0,-4.206987114230287e-07,1.4360693967318416e-07,0.0,19.572627588883336,70.0,0.0,255.0,0.0
14.000000000000057,35.693659021867745,51.283319203134944,1297.00144262705,0.00012388234011950772,5.9854047549379175e-06,0.0,-4.206987114230287e-07,1.436092134099386e-07,0.0,19.615002155431288,70.0,0.0,255.0,0.0
14.050000000000058,35.69366521546198,51.283319502580405,1297.0014420645311,0.00012386130515551486,5.992585215608415e-06,0.0,-4.2069984829140594e-07,1.4360693967319094e-07,0.0,19.657368798931266,70.0,0.0,255.0,0.0
14.100000000000058,35.69367140800447,51.28331980238487,1297.0014415020123,0.00012384027013467858,5.9997654489052366e-06,0.0,-4.2069927985721733e-07,1.4360580280481372e-07,0.0,19.699727519383273,70.0,0.0,255.0,0.0
14.150000000000059,35.693677599495196,51.28332010254835,1297.0014409404248,0.00012381923522752913,6.006945795888896e-06,0.0,-4.206975745546515e-07,1.4360807654156815e-07,0.0,19.742078316787303,70.0,0.0,255.0,0.0
14.20000000000006,35.69368378993419,51.28332040307086,1297.001440377906,0.0001237982003772231,6.014126256559393e-06,0.0,-4.206987114230287e-07,1.4360693967319094e-07,0.0,19.78442119114337,70.0,0.0,255.0,0.0
14.25000000000006,35.69368997932145,51.28332070395239,1297.0014398153871,0.00012377716535638683,6.021306489856215e-06,0.0,-4.2070041672559455e-07,1.4360580280481372e-07,0.0,19.826756142451455,70.0,0.0,255.0,0.0
14.300000000000061,35.693696167656945,51.283321005192924,1297.0014392565936,0.00012375613033555055,6.028486836839875e-06,0.0,-4.2069927985721733e-07,1.436092134099386e-07,0.0,19.86908317071157,70.0,0.0,255.0,0.0
14.350000000000062,35.69370235494068,51.28332130679249,1297.0014386931434,0.0001237350954284011,6.03566741119721e-06,0.0,-4.206987114230287e-07,1.436092134099386e-07,0.0,19.91140227592371,70.0,0.0,255.0,0.0
14.400000000000063,35.69370854117268,51.28332160875108,1297.0014381324872,0.00012371406046440825,6.042847758180869e-06,0.0,-4.2069984829140594e-07,1.4360580280481372e-07,0.0,19.95371345808788,70.0,0.0,255.0,0.0
14.450000000000063,35.69371472635294,51.283321911068676,1297.0014375708997,0.00012369302544357197,6.050027991477691e-06,0.0,-4.206987114230287e-07,1.4360693967319094e-07,0.0,19.996016717204075,70.0,0.0,255.0,0.0
14.500000000000064,35.69372091048144,51.28332221374529,1297.0014370111749,0.00012367199059326595,6.057208452148188e-06,0.0,-4.206975745546515e-07,1.4360807654156815e-07,0.0,20.038312053272293,70.0,0.0,255.0,0.0
14.550000000000065,35.6937270935582,51.28332251678094,1297.001436448656,0.0001236509556861165,6.064388799131848e-06,0.0,-4.2069927985721733e-07,1.4360693967319094e-07,0.0,20.080599466292544,70.0,0.0,255.0,0.0
14.600000000000065,35.6937332755832,51.283322820175584,1297.0014358879998,0.00012362992066528022,6.0715691461155075e-06,0.0,-4.2070041672559455e-07,1.4360807654156815e-07,0.0,20.122878956264817,70.0,0.0,255.0,0.0
14.650000000000066,35.693739456556465,51.28332312392928,1297.0014353264123,0.00012360888564444394,6.078749606786005e-06,0.0,-4.2069984829140594e-07,1.4360807654156138e-07,0.0,20.16515052318912,70.0,0.0,255.0,0.0
14.700000000000067,35.69374563647797,51.28332342804197,1297.0014347676188,0.00012358785068045108,6.085929953769664e-06,0.0,-4.206981429888401e-07,1.4360580280480694e-07,0.0,20.20741416706545,70.0,0.0,255.0,0.0
14.750000000000068,35.69375181534773,51.283323732513686,1297.0014342060313,0.00012356681583014506,6.093110187066486e-06,0.0,-4.206975745546515e-07,1.4360693967319094e-07,0.0,20.249669887893806,70.0,0.0,255.0,0.0
14.800000000000068,35.693757993165754,51.28332403734442,1297.001433645375,0.00012354578092299562,6.100290647736983e-06,0.0,-4.2069927985721733e-07,1.4360921340994537e-07,0.0,20.29191768567419,70.0,0.0,255.0,0.0
14.850000000000069,35.693764169932024,51.28332434253418,1297.0014330847189,0.00012352474590215934,6.107471108407481e-06,0.0,-4.2069927985721733e-07,1.4360693967319094e-07,0.0,20.3341575604066,70.0,0.0,255.0,0.0
14.90000000000007,35.69377034564654,51.28332464808295,1297.0014325240627,0.0001235037109950099,6.1146513417043025e-06,0.0,-4.206987114230287e-07,1.4360693967319094e-07,0.0,20.376389512091038,70.0,0.0,255.0,0.0
14.95000000000007,35.69377652030932,51.28332495399074,1297.0014319643378,0.00012348267603101704,6.1218318023748e-06,0.0,-4.2070041672559455e-07,1.4360807654156815e-07,0.0,20.4186135407275,70.0,0.0,255.0,0.0
15.000000000000071,35.69378269392035,51.28332526025756,1297.001431401819,0.00012346164095333734,6.129012149358459e-06,0.0,-4.2069927985721733e-07,1.4360580280481372e-07,0.0,20.46082964631599,70.0,0.0,255.0,0.0
15.050000000000072,35.69378886647961,51.28332556688339,1297.0014308420941,0.00012344060610303131,6.136192382655281e-06,0.0,-4.206975745546515e-07,1.4360693967319094e-07,0.0,20.503037828856506,70.0,0.0,255.0,0.0
15.100000000000072,35.693795037987144,51.28332587386824,1297.001430281438,0.00012341957119588187,6.143372843325778e-06,0.0,-4.2069927985721733e-07,1.4360921340994537e-07,0.0,20.54523808834905,70.0,0.0,255.0,0.0
15.150000000000073,35.69380120844291,51.283326181212104,1297.001429721713,0.0001233985361750456,6.150553303996276e-06,0.0,-4.2069984829140594e-07,1.4360693967317738e-07,0.0,20.58743042479362,70.0,0.0,255.0,0.0
15.200000000000074,35.69380737784695,51.283326488914994,1297.0014291601256,0.00012337750121105273,6.1577335372930975e-06,0.0,-4.206987114230287e-07,1.4360580280480017e-07,0.0,20.62961483819022,70.0,0.0,255.0,0.0
15.250000000000075,35.69381354619924,51.2833267969769,1297.0014285994694,0.0001233564663039033,6.164913884276757e-06,0.0,-4.206987114230287e-07,1.4360921340994537e-07,0.0,20.671791328538845,70.0,0.0,255.0,0.0
15.300000000000075,35.693819713499785,51.283327105397824,1297.0014280397445,0.00012333543133991043,6.172094458634092e-06,0.0,-4.2069984829140594e-07,1.4360921340994537e-07,0.0,20.713959895839498,70.0,0.0,255.0,0.0
15.350000000000076,35.69382587974857,51.28332741417778,1297.001427480951,0.00012331439631907415,6.1792748056177516e-06,0.0,-4.2069927985721733e-07,1.4360580280481372e-07,0.0,20.756120540092176,70.0,0.0,255.0,0.0
15.400000000000077,35.69383204494561,51.28332772331675,1297.001426921226,0.0001232933614119247,6.186455038914573e-06,0.0,-4.206981429888401e-07,1.4360693967319094e-07,0.0,20.79827326129688,70.0,0.0,255.0,0.0
15.450000000000077,35.6938382090909,51.28332803281473,1297.0014263596386,0.00012327232650477526,6.193635499585071e-06,0.0,-4.206987114230287e-07,1.4360807654156815e-07,0.0,20.840418059453615,70.0,0.0,255.0,0.0
15.500000000000078,35.693844372184444,51.28332834267174,1297.001425800845,0.0001232512915407824,6.20081584656873e-06,0.0,-4.2069927985721733e-07,1.4360693967319094e-07,0.0,20.88255493456237,70.0,0.0,255.0,0.0
15.550000000000079,35.69385053422625,51.28332865288776,1297.0014252401888,0.00012323025657678954,6.20799619355239e-06,0.0,-4.2069927985721733e-07,1.4360693967319094e-07,0.0,20.924683886623157,70.0,0.0,255.0,0.0
15.60000000000008,35.6938566952163,51.28332896346281,1297.0014246813953,0.00012320922161279668,6.215176540536049e-06,0.0,-4.2069927985721733e-07,1.4360693967319094e-07,0.0,20.966804915635972,70.0,0.0,255.0,0.0
15.65000000000008,35.6938628551546,51.28332927439687,1297.0014241198078,0.00012318818664880382,6.222356887519709e-06,0.0,-4.206981429888401e-07,1.4360807654156815e-07,0.0,21.008918021600813,70.0,0.0,255.0,0.0
15.700000000000081,35.69386901404114,51.28332958568995,1297.0014235610142,0.0001231671517984978,6.229537348190206e-06,0.0,-4.206981429888401e-07,1.4360921340994537e-07,0.0,21.05102320451768,70.0,0.0,255.0,0.0
15.750000000000082,35.69387517187596,51.28332989734205,1297.0014230012894,0.00012314611683450494,6.236717808860703e-06,0.0,-4.2070041672559455e-07,1.4360693967319094e-07,0.0,21.093120464386573,70.0,0.0,255.0,0.0
15.800000000000082,35.69388132865902,51.283330209353174,1297.0014224424958,0.00012312508175682524,6.243898042157525e-06,0.0,-4.2069984829140594e-07,1.4360580280480017e-07,0.0,21.13520980120749,70.0,0.0,255.0,0.0
15.850000000000083,35.69388748439032,51.28333052172331,1297.0014218837023,0.0001231040468496758,6.251078389141185e-06,0.0,-4.206981429888401e-07,1.436080765415546e-07,0.0,21.177291214980443,70.0,0.0,255.0,0.0
15.900000000000084,35.693893639069884,51.283330834452464,1297.001421323046,0.00012308301194252635,6.258258849811682e-06,0.0,-4.206987114230287e-07,1.4360693967319094e-07,0.0,21.219364705705416,70.0,0.0,255.0,0.0
15.950000000000085,35.6938997926977,51.28333114754064,1297.0014207633212,0.0001230619769785335,6.265439083108504e-06,0.0,-4.2069984829140594e-07,1.4360693967319094e-07,0.0,21.261430273382416,70.0,0.0,255.0,0.0
16.000000000000085,35.69390594527376,51.28333146098784,1297.0014202045277,0.00012304094195769721,6.272619543779001e-06,0.0,-4.2069927985721733e-07,1.4360807654156815e-07,0.0,21.303487918011445,70.0,0.0,255.0,0.0
16.050000000000086,35.69391209679808,51.28333177479406,1297.0014196466655,0.00012301990705054777,6.279799890762661e-06,0.0,-4.206981429888401e-07,1.4360693967319094e-07,0.0,21.3455376395925,70.0,0.0,255.0,0.0
16.100000000000087,35.69391824727065,51.28333208895928,1297.001419087872,0.00012299887214339833,6.28698023774632e-06,0.0,-4.2069927985721733e-07,1.4360807654156815e-07,0.0,21.38757943812558,70.0,0.0,255.0,0.0
16.150000000000087,35.69392439669147,51.28333240348354,1297.001418528147,0.00012297783712256205,6.2941606984168175e-06,0.0,-4.2069927985721733e-07,1.4360807654156815e-07,0.0,21.42961331361069,70.0,0.0,255.0,0.0
16.200000000000088,35.69393054506054,51.283332718366815,1297.0014179684222,0.0001229568022154126,6.301341045400477e-06,0.0,-4.206987114230287e-07,1.4360693967319094e-07,0.0,21.471639266047827,70.0,0.0,255.0,0.0
16.25000000000009,35.693936692377875,51.28333303360911,1297.0014174096286,0.00012293576725141975,6.3085213923841366e-06,0.0,-4.2069984829140594e-07,1.4360693967319094e-07,0.0,21.51365729543699,70.0,0.0,255.0,0.0
16.30000000000009,35.69394283864345,51.28333334921042,1297.001416850835,0.00012291473223058347,6.315701739367796e-06,0.0,-4.2069927985721733e-07,1.4360693967319094e-07,0.0,21.55566740177818,70.0,0.0,255.0,0.0
16.35000000000009,35.69394898385728,51.283333665170744,1297.0014162920415,0.00012289369732343403,6.322882086351456e-06,0.0,-4.206987114230287e-07,1.4360693967319094e-07,0.0,21.597669585071397,70.0,0.0,255.0,0.0
16.40000000000009,35.69395512801936,51.2833339814901,1297.001415733248,0.00012287266235944116,6.330062433335115e-06,0.0,-4.206981429888401e-07,1.4360807654156815e-07,0.0,21.639663845316637,70.0,0.0,255.0,0.0
16.45000000000009,35.693961271129695,51.28333429816847,1297.0014151753858,0.00012285162750913514,6.3372428940056125e-06,0.0,-4.2069757455443467e-07,1.436080765415546e-07,0.0,21.68165018251391,70.0,0.0,255.0,0.0
16.500000000000092,35.69396741318828,51.28333461520586,1297.001414615661,0.0001228305926019857,6.344423240989272e-06,0.0,-4.207004167253777e-07,1.4360693967317738e-07,0.0,21.723628596663204,70.0,0.0,255.0,0.0
16.550000000000093,35.69397355419513,51.283334932602266,1297.0014140568674,0.00012280955746746258,6.3516035879729316e-06,0.0,-4.2070041672559455e-07,1.4360807654156815e-07,0.0,21.765599087764528,70.0,0.0,255.0,0.0
16.600000000000094,35.69397969415021,51.283335250357695,1297.0014135008678,0.00012278852256031314,6.358784048643429e-06,0.0,-4.206981429888401e-07,1.4360807654156815e-07,0.0,21.80756165581788,70.0,0.0,255.0,0.0
16.650000000000095,35.69398583305356,51.28333556847214,1297.0014129402116,0.0001227674876531637,6.365964395627088e-06,0.0,-4.206987114230287e-07,1.4360693967319094e-07,0.0,21.849516300823257,70.0,0.0,255.0,0.0
16.700000000000095,35.69399197090514,51.28333588694561,1297.0014123832807,0.00012274645268917084,6.373144742610748e-06,0.0,-4.2069927985721733e-07,1.4360693967319094e-07,0.0,21.891463022780663,70.0,0.0,255.0,0.0
16.750000000000096,35.69399810770499,51.28333620577809,1297.0014118235558,0.00012272541772517798,6.3803250895944075e-06,0.0,-4.2069927985721733e-07,1.4360693967319094e-07,0.0,21.93340182169009,70.0,0.0,255.0,0.0
16.800000000000097,35.6940042434531,51.2833365249696,1297.0014112675563,0.00012270438276118512,6.387505436578067e-06,0.0,-4.2069927985721733e-07,1.4360693967319094e-07,0.0,21.975332697551554,70.0,0.0,255.0,0.0
16.850000000000097,35.69401037814944,51.283336844520115,1297.0014107078314,0.00012268334779719225,6.3946857835617266e-06,0.0,-4.2069927985721733e-07,1.4360693967319094e-07,0.0,22.017255650365037,70.0,0.0,255.0,0.0
16.900000000000098,35.69401651179405,51.28333716442966,1297.0014101499692,0.0001226623128331994,6.401866130545386e-06,0.0,-4.206981429888401e-07,1.4360807654156815e-07,0.0,22.05917068013055,70.0,0.0,255.0,0.0
16.9500000000001,35.694022644386905,51.283337484698215,1297.001409592107,0.00012264127798289337,6.409046591215883e-06,0.0,-4.206987114230287e-07,1.4360807654156815e-07,0.0,22.101077786848087,70.0,0.0,255.0,0.0
17.0000000000001,35.69402877592801,51.28333780532579,1297.0014090342447,0.0001226202429620571,6.416226938199543e-06,0.0,-4.2069984829140594e-07,1.4360693967319094e-07,0.0,22.14297697051765,70.0,0.0,255.0,0.0
17.0500000000001,35.69403490641738,51.283338126312394,1297.0014084773138,0.00012259920799806423,6.4234072851832025e-06,0.0,-4.206987114230287e-07,1.4360693967319094e-07,0.0,22.184868231139244,70.0,0.0,255.0,0.0
17.1000000000001,35.69404103585498,51.28333844765802,1297.0014079185203,0.0001225781730909148,6.430587632166862e-06,0.0,-4.2069927985721733e-07,1.436080765415546e-07,0.0,22.226751568712867,70.0,0.0,255.0,0.0
17.1500000000001,35.69404716424085,51.28333876936265,1297.0014073615894,0.0001225571380700785,6.437768092837359e-06,0.0,-4.206987114230287e-07,1.4360921340993182e-07,0.0,22.268626983238512,70.0,0.0,255.0,0.0
17.200000000000102,35.69405329157496,51.28333909142631,1297.0014068027958,0.00012253610321977249,6.4449485535078566e-06,0.0,-4.206975745546515e-07,1.4360693967319094e-07,0.0,22.310494474716183,70.0,0.0,255.0,0.0
17.250000000000103,35.69405941785734,51.28333941384899,1297.0014062467963,0.00012251506831262304,6.452128786804678e-06,0.0,-4.2070041672559455e-07,1.436046659364365e-07,0.0,22.352354043145887,70.0,0.0,255.0,0.0
17.300000000000104,35.694065543087945,51.28333973663068,1297.001405688934,0.00012249403317809993,6.4593090201015e-06,0.0,-4.2070041672559455e-07,1.4360693967319094e-07,0.0,22.394205688527613,70.0,0.0,255.0,0.0
17.350000000000104,35.69407166726682,51.2833400597714,1297.0014051310718,0.00012247299827095048,6.4664894807719975e-06,0.0,-4.206981429888401e-07,1.4361035027832258e-07,0.0,22.436049410861365,70.0,0.0,255.0,0.0
17.400000000000105,35.69407779039394,51.28334038327113,1297.001404574141,0.00012245196336380104,6.4736700551293325e-06,0.0,-4.206987114230287e-07,1.4360807654156815e-07,0.0,22.477885210147146,70.0,0.0,255.0,0.0
17.450000000000106,35.69408391246932,51.283340707129895,1297.0014040162787,0.00012243092839980818,6.480850288426154e-06,0.0,-4.2069927985721733e-07,1.4360580280481372e-07,0.0,22.519713086384954,70.0,0.0,255.0,0.0
17.500000000000107,35.694090033492955,51.28334103134765,1297.001403460279,0.00012240989343581532,6.488030635409814e-06,0.0,-4.2069984829140594e-07,1.4360693967319094e-07,0.0,22.561533039574787,70.0,0.0,255.0,0.0
17.550000000000107,35.69409615346482,51.283341355924456,1297.0014029024169,0.00012238885841497904,6.495210982393473e-06,0.0,-4.206987114230287e-07,1.4360693967319094e-07,0.0,22.603345069716653,70.0,0.0,255.0,0.0
17.600000000000108,35.69410227238495,51.28334168086026,1297.001402345486,0.00012236782356467302,6.502391329377133e-06,0.0,-4.206981429888401e-07,1.4360921340994537e-07,0.0,22.645149176810538,70.0,0.0,255.0,0.0
17.65000000000011,35.69410839025334,51.28334200615509,1297.0014017876238,0.00012234678860068016,6.509571903734468e-06,0.0,-4.2069927985721733e-07,1.4360807654156815e-07,0.0,22.686945360856452,70.0,0.0,255.0,0.0
17.70000000000011,35.69411450706997,51.283342331808946,1297.0014012306929,0.0001223257536366873,6.51675213703129e-06,0.0,-4.2069927985721733e-07,1.436046659364365e-07,0.0,22.728733621854396,70.0,0.0,255.0,0.0
17.75000000000011,35.69412062283486,51.28334265782181,1297.001400673762,0.00012230471867269443,6.5239323703281116e-06,0.0,-4.2069927985721733e-07,1.4360807654156815e-07,0.0,22.770513959804365,70.0,0.0,255.0,0.0
17.80000000000011,35.69412673754798,51.283342984193695,1297.001400116831,0.00012228368370870157,6.5311129446854466e-06,0.0,-4.2069927985721733e-07,1.436080765415546e-07,0.0,22.81228637470636,70.0,0.0,255.0,0.0
17.85000000000011,35.69413285120939,51.28334331092461,1297.0013995608315,0.0001222626487447087,6.538293177982268e-06,0.0,-4.2069927985721733e-07,1.4360580280480017e-07,0.0,22.854050866560385,70.0,0.0,255.0,0.0
17.900000000000112,35.694138963819036,51.28334363801453,1297.001399004832,0.00012224161378071585,6.545473524965928e-06,0.0,-4.206975745546515e-07,1.4360807654156815e-07,0.0,22.895807435366432,70.0,0.0,255.0,0.0
17.950000000000113,35.694145075376916,51.28334396546348,1297.001398447901,0.00012222057898725325,6.552653985636425e-06,0.0,-4.206975745546515e-07,1.4360807654156815e-07,0.0,22.93755608112451,70.0,0.0,255.0,0.0
18.000000000000114,35.694151185883086,51.28334429327143,1297.0013978900388,0.0001221995440232604,6.559834332620085e-06,0.0,-4.2070041672559455e-07,1.4360807654156815e-07,0.0,22.97929680383461,70.0,0.0,255.0,0.0
18.050000000000114,35.694157295337476,51.28334462143843,1297.0013973340392,0.0001221785089455807,6.567014793290582e-06,0.0,-4.2069984829140594e-07,1.4360693967319094e-07,0.0,23.021029603496743,70.0,0.0,255.0,0.0
18.100000000000115,35.694163403740134,51.28334494996442,1297.001396776177,0.00012215747403843125,6.574195026587404e-06,0.0,-4.206987114230287e-07,1.4360693967319094e-07,0.0,23.0627544801109,70.0,0.0,255.0,0.0
18.150000000000116,35.69416951109104,51.28334527884945,1297.0013962211087,0.00012213643907443839,6.581375487257901e-06,0.0,-4.2069984829140594e-07,1.4360807654156815e-07,0.0,23.104471433677084,70.0,0.0,255.0,0.0
18.200000000000117,35.694175617390194,51.283345608093505,1297.0013956660405,0.0001221154040536021,6.588555834241561e-06,0.0,-4.2069927985721733e-07,1.4360693967319094e-07,0.0,23.146180464195293,70.0,0.0,255.0,0.0
18.250000000000117,35.6941817226376,51.28334593769655,1297.0013951081783,0.00012209436914645266,6.59573618122522e-06,0.0,-4.206987114230287e-07,1.4360807654156815e-07,0.0,23.187881571665535,70.0,0.0,255.0,0.0
18.300000000000118,35.69418782683326,51.28334626765864,1297.0013945521787,0.0001220733341824598,6.6029166418957175e-06,0.0,-4.2069927985721733e-07,1.4360693967319094e-07,0.0,23.2295747560878,70.0,0.0,255.0,0.0
18.35000000000012,35.69419392997718,51.28334659797974,1297.0013939971104,0.00012205229921846694,6.610096875192539e-06,0.0,-4.206987114230287e-07,1.4360580280481372e-07,0.0,23.27126001746209,70.0,0.0,255.0,0.0
18.40000000000012,35.69420003206933,51.28334692865985,1297.0013934401795,0.0001220312643113175,6.617277222176199e-06,0.0,-4.206987114230287e-07,1.4360807654156815e-07,0.0,23.312937355788407,70.0,0.0,255.0,0.0
18.45000000000012,35.69420613310975,51.283347259698985,1297.0013928832486,0.00012201022934732464,6.624457682846696e-06,0.0,-4.206987114230287e-07,1.436080765415546e-07,0.0,23.354606771066752,70.0,0.0,255.0,0.0
18.50000000000012,35.69421223309842,51.28334759109715,1297.001392327249,0.0001219891944401752,6.631638029830356e-06,0.0,-4.206987114230287e-07,1.4360693967317738e-07,0.0,23.396268263297124,70.0,0.0,255.0,0.0
18.55000000000012,35.69421833203535,51.28334792285432,1297.0013917740434,0.00012196815947618234,6.638818376814015e-06,0.0,-4.2069984829140594e-07,1.4360807654156815e-07,0.0,23.437921832479525,70.0,0.0,255.0,0.0
18.600000000000122,35.69422442992051,51.28334825497051,1297.0013912161812,0.00012194712445534606,6.6459988374845125e-06,0.0,-4.2069927985721733e-07,1.4360807654156815e-07,0.0,23.47956747861395,70.0,0.0,255.0,0.0
18.650000000000123,35.69423052675394,51.28334858744573,1297.0013906601816,0.00012192608954819661,6.653179184468172e-06,0.0,-4.206987114230287e-07,1.4360693967319094e-07,0.0,23.521205201700404,70.0,0.0,255.0,0.0
18.700000000000124,35.69423662253561,51.28334892027996,1297.001390104182,0.00012190505458420375,6.6603595314518316e-06,0.0,-4.206981429888401e-07,1.4360807654156815e-07,0.0,23.562835001738886,70.0,0.0,255.0,0.0
18.750000000000124,35.69424271726554,51.28334925347321,1297.0013895500451,0.00012188401973389773,6.667539992122329e-06,0.0,-4.206981429888401e-07,1.4360807654156815e-07,0.0,23.60445687872939,70.0,0.0,255.0,0.0
18.800000000000125,35.694248810943726,51.28334958702549,1297.0013889949769,0.00012186298476990487,6.674720339105988e-06,0.0,-4.2069984829140594e-07,1.4360580280481372e-07,0.0,23.646070832671924,70.0,0.0,255.0,0.0
18.850000000000126,35.69425490357016,51.28334992093678,1297.0013884371147,0.00012184194974906859,6.68190057240281e-06,0.0,-4.2069984829140594e-07,1.4360580280481372e-07,0.0,23.687676863566484,70.0,0.0,255.0,0.0
18.900000000000126,35.69426099514485,51.28335025520708,1297.001387883909,0.00012182091478507573,6.68908091938647e-06,0.0,-4.2069927985721733e-07,1.4360807654156815e-07,0.0,23.72927497141307,70.0,0.0,255.0,0.0
18.950000000000127,35.694267085667775,51.28335058983641,1297.0013873297721,0.00012179987982108287,6.696261380056967e-06,0.0,-4.206987114230287e-07,1.4360807654156815e-07,0.0,23.770865156211684,70.0,0.0,255.0,0.0
19.000000000000128,35.694273175138974,51.28335092482476,1297.0013867737725,0.00012177884491393343,6.7034417270406266e-06,0.0,-4.2069927985721733e-07,1.4360693967319094e-07,0.0,23.81244741796233,70.0,0.0,255.0,0.0
19.05000000000013,35.694279263558414,51.28335126017214,1297.0013862187043,0.00012175780989309715,6.710622074024286e-06,0.0,-4.2069927985721733e-07,1.4360807654156815e-07,0.0,23.854021756664995,70.0,0.0,255.0,0.0
19.10000000000013,35.69428535092611,51.28335159587852,1297.0013856645674,0.0001217367749859477,6.717802534694783e-06,0.0,-4.206987114230287e-07,1.436080765415546e-07,0.0,23.895588172319687,70.0,0.0,255.0,0.0
19.15000000000013,35.69429143724205,51.283351931943926,1297.0013851085678,0.00012171574002195484,6.724982881678443e-06,0.0,-4.2069984829140594e-07,1.4360693967317738e-07,0.0,23.93714666492641,70.0,0.0,255.0,0.0
19.20000000000013,35.69429752250624,51.283352268368354,1297.0013845525682,0.00012169470500111856,6.7321632286621025e-06,0.0,-4.206987114230287e-07,1.4360693967319094e-07,0.0,23.97869723448516,70.0,0.0,255.0,0.0
19.25000000000013,35.6943036067187,51.283352605151784,1297.0013839984313,0.00012167367015081254,6.739343575645762e-06,0.0,-4.206981429888401e-07,1.4360693967319094e-07,0.0,24.020239880995934,70.0,0.0,255.0,0.0
19.300000000000132,35.694309689879404,51.28335294229426,1297.001383443363,0.00012165263518681968,6.746523922629422e-06,0.0,-4.2070041672559455e-07,1.4360807654156815e-07,0.0,24.061774604458737,70.0,0.0,255.0,0.0
19.350000000000133,35.69431577198836,51.28335327979574,1297.0013828882948,0.00012163160010913998,6.753704383299919e-06,0.0,-4.2069927985721733e-07,1.4360807654156815e-07,0.0,24.103301404873566,70.0,0.0,255.0,0.0
19.400000000000134,35.69432185304555,51.283353617656246,1297.0013823341578,0.00012161056525883396,6.760884730283578e-06,0.0,-4.206975745546515e-07,1.4360693967319094e-07,0.0,24.14482028224042,70.0,0.0,255.0,0.0
19.450000000000134,35.69432793305101,51.28335395587577,1297.001381780021,0.00012158953035168452,6.768065077267238e-06,0.0,-4.206981429888401e-07,1.4360693967319094e-07,0.0,24.1863312365593,70.0,0.0,255.0,0.0
19.500000000000135,35.69433401200473,51.28335429445431,1297.0013812249526,0.00012156849544453507,6.7752454242508975e-06,0.0,-4.206987114230287e-07,1.4360693967319094e-07,0.0,24.227834267830215,70.0,0.0,255.0,0.0
19.550000000000136,35.694340089906696,51.283354633391866,1297.0013806698844,0.00012154746048054221,6.782425771234557e-06,0.0,-4.2069984829140594e-07,1.4360807654156815e-07,0.0,24.26932937605315,70.0,0.0,255.0,0.0
19.600000000000136,35.6943461667569,51.28335497268844,1297.0013801166788,0.00012152642545970593,6.789606231905054e-06,0.0,-4.2069984829140594e-07,1.4360807654156815e-07,0.0,24.310816561228116,70.0,0.0,255.0,0.0
19.650000000000137,35.69435224255537,51.28335531234404,1297.0013795606792,0.00012150539049571307,6.796786578888714e-06,0.0,-4.2069927985721733e-07,1.4360693967319094e-07,0.0,24.352295823355107,70.0,0.0,255.0,0.0
19.700000000000138,35.69435831730208,51.28335565235866,1297.0013790074736,0.00012148435553172021,6.803966925872373e-06,0.0,-4.2069927985721733e-07,1.4360693967319094e-07,0.0,24.393767162434123,70.0,0.0,255.0,0.0
19.75000000000014,35.69436439099706,51.283355992732304,1297.0013784533367,0.00012146332056772735,6.811147272856033e-06,0.0,-4.2069927985721733e-07,1.4360693967319094e-07,0.0,24.435230578465166,70.0,0.0,255.0,0.0
19.80000000000014,35.69437046364027,51.28335633346495,1297.001377897337,0.00012144228560373449,6.8183276198396925e-06,0.0,-4.206981429888401e-07,1.436080765415546e-07,0.0,24.47668607144824,70.0,0.0,255.0,0.0
19.85000000000014,35.694376535231754,51.28335667455663,1297.0013773441315,0.00012142125075342847,6.82550808051019e-06,0.0,-4.206987114230287e-07,1.436080765415546e-07,0.0,24.518133641383336,70.0,0.0,255.0,0.0
19.90000000000014,35.69438260577148,51.28335701600733,1297.0013767909259,0.00012140021573259219,6.832688427493849e-06,0.0,-4.2069984829140594e-07,1.4360693967319094e-07,0.0,24.55957328827046,70.0,0.0,255.0,0.0
19.95000000000014,35.69438867525947,51.283357357817025,1297.0013762358576,0.00012137918076859933,6.839868774477509e-06,0.0,-4.206987114230287e-07,1.4360807654156815e-07,0.0,24.60100501210961,70.0,0.0,255.0,0.0
20.000000000000142,35.69439474369568,51.283357699985764,1297.0013756817207,0.00012135814586144988,6.847049235148006e-06,0.0,-4.206987114230287e-07,1.4360807654156815e-07,0.0,24.642428812900793,70.0,0.0,255.0,0.0
20.050000000000143,35.694400811080165,51.28335804251353,1297.001375128515,0.00012133711089745702,6.854229582131666e-06,0.0,-4.2069927985721733e-07,1.4360693967319094e-07,0.0,24.683844690643998,70.0,0.0,255.0,0.0
20.100000000000144,35.6944068774129,51.2833583854003,1297.0013745743781,0.00012131607593346416,6.861409929115325e-06,0.0,-4.206992798570005e-07,1.4360580280481372e-07,0.0,24.725252645339232,70.0,0.0,255.0,0.0
20.150000000000144,35.69441294269389,51.283358728646085,1297.0013740193099,0.0001212950409694713,6.868590162412147e-06,0.0,-4.206992798570005e-07,1.4360693967319094e-07,0.0,24.76665267698649,70.0,0.0,255.0,0.0
20.200000000000145,35.69441900692313,51.283359072250896,1297.0013734670356,0.00012127400600547844,6.875770623082644e-06,0.0,-4.206987114230287e-07,1.4360921340994537e-07,0.0,24.808044785585775,70.0,0.0,255.0,0.0
20.250000000000146,35.69442507010062,51.28335941621472,1297.00137291383,0.000121252971098329,6.8829510837531416e-06,0.0,-4.206981429888401e-07,1.4360693967319094e-07,0.0,24.849428971137087,70.0,0.0,255.0,0.0
20.300000000000146,35.69443113222637,51.283359760537564,1297.0013723606244,0.00012123193619117956,6.890131317049963e-06,0.0,-4.2069927985721733e-07,1.4360693967319094e-07,0.0,24.890805233640428,70.0,0.0,255.0,0.0
20.350000000000147,35.69443719330036,51.28336010521944,1297.0013718074188,0.00012121090117034328,6.897311777720461e-06,0.0,-4.2069984829140594e-07,1.4360807654156815e-07,0.0,24.932173573095792,70.0,0.0,255.0,0.0
20.400000000000148,35.694443253322596,51.283360450260325,1297.0013712542132,0.00012118986620635042,6.90449212470412e-06,0.0,-4.206987114230287e-07,1.4360693967319094e-07,0.0,24.973533989503185,70.0,0.0,255.0,0.0
20.45000000000015,35.6944493122931,51.28336079566022,1297.0013707000762,0.00012116883129920097,6.91167247168778e-06,0.0,-4.206987114230287e-07,1.436080765415546e-07,0.0,25.01488648286261,70.0,0.0,255.0,0.0
20.50000000000015,35.694455370211855,51.28336114141915,1297.001370147802,0.00012114779633520811,6.918852932358277e-06,0.0,-4.2069927985721733e-07,1.4360693967317738e-07,0.0,25.056231053174056,70.0,0.0,255.0,0.0
20.55000000000015,35.694461427078856,51.2833614875371,1297.001369593665,0.00012112676137121525,6.926033165655099e-06,0.0,-4.2069927985721733e-07,1.4360580280481372e-07,0.0,25.09756770043753,70.0,0.0,255.0,0.0
20.60000000000015,35.694467482894126,51.28336183401405,1297.001369039528,0.00012110572640722239,6.933213512638758e-06,0.0,-4.2069927985721733e-07,1.4360921340994537e-07,0.0,25.138896424653034,70.0,0.0,255.0,0.0
20.65000000000015,35.69447353765762,51.283362180850034,1297.0013684872538,0.00012108469144322953,6.940394086996093e-06,0.0,-4.206987114230287e-07,1.4360807654156815e-07,0.0,25.180217225820563,70.0,0.0,255.0,0.0
20.700000000000152,35.69447959136938,51.283362528045046,1297.0013679331169,0.00012106365653608009,6.947574320292915e-06,0.0,-4.2069927985721733e-07,1.436046659364365e-07,0.0,25.221530103940115,70.0,0.0,255.0,0.0
20.750000000000153,35.6944856440294,51.28336287559905,1297.0013673808426,0.00012104262151524381,6.954754553589737e-06,0.0,-4.2069984829140594e-07,1.4360693967319094e-07,0.0,25.262835059011696,70.0,0.0,255.0,0.0
20.800000000000153,35.694491695637645,51.2833632235121,1297.001366827637,0.00012102158655125095,6.961935014260234e-06,0.0,-4.206987114230287e-07,1.4360921340994537e-07,0.0,25.304132091035306,70.0,0.0,255.0,0.0
20.850000000000154,35.69449774619417,51.28336357178416,1297.001366276294,0.0001210005516441015,6.969115474930732e-06,0.0,-4.206987114230287e-07,1.4360921340994537e-07,0.0,25.34542120001094,70.0,0.0,255.0,0.0
20.900000000000155,35.69450379569893,51.28336392041524,1297.0013657230884,0.00012097951668010865,6.976295935601229e-06,0.0,-4.206987114230287e-07,1.4360693967319094e-07,0.0,25.3867023859386,70.0,0.0,255.0,0.0
20.950000000000156,35.69450984415195,51.28336426940534,1297.001365170814,0.0001209584817729592,6.983476168898051e-06,0.0,-4.206981429888401e-07,1.4360580280481372e-07,0.0,25.427975648818293,70.0,0.0,255.0,0.0
21.000000000000156,35.69451589155323,51.28336461875445,1297.0013646185398,0.00012093744686580976,6.99065651588171e-06,0.0,-4.206987114230287e-07,1.4360807654156815e-07,0.0,25.46924098865001,70.0,0.0,255.0,0.0
21.050000000000157,35.694521937902756,51.28336496846259,1297.0013640653342,0.0001209164119018169,6.9978369765522075e-06,0.0,-4.2069927985721733e-07,1.4360693967319094e-07,0.0,25.510498405433754,70.0,0.0,255.0,0.0
21.100000000000158,35.69452798320054,51.283365318529746,1297.0013635121286,0.00012089537693782404,7.005017209849029e-06,0.0,-4.2069984829140594e-07,1.4360693967317738e-07,0.0,25.551747899169523,70.0,0.0,255.0,0.0
21.15000000000016,35.69453402744655,51.283365668955916,1297.0013629598543,0.00012087434191698776,7.012197670519527e-06,0.0,-4.2069984829140594e-07,1.4360921340993182e-07,0.0,25.592989469857322,70.0,0.0,255.0,0.0
21.20000000000016,35.69454007064083,51.283366019741116,1297.0013624085113,0.0001208533069529949,7.019378131190024e-06,0.0,-4.206987114230287e-07,1.4360693967319094e-07,0.0,25.634223117497143,70.0,0.0,255.0,0.0
21.25000000000016,35.694546112783364,51.283366370885325,1297.001361856237,0.00012083227204584546,7.026558364486846e-06,0.0,-4.206981429888401e-07,1.4360580280481372e-07,0.0,25.675448842088993,70.0,0.0,255.0,0.0
21.30000000000016,35.69455215387415,51.28336672238856,1297.0013613021001,0.00012081123713869601,7.033738711470505e-06,0.0,-4.206987114230287e-07,1.4360807654156815e-07,0.0,25.71666664363287,70.0,0.0,255.0,0.0
21.35000000000016,35.69455819391319,51.28336707425081,1297.0013607526198,0.00012079020217470315,7.0409191721410025e-06,0.0,-4.2069984829140594e-07,1.4360807654156815e-07,0.0,25.757876522128775,70.0,0.0,255.0,0.0
21.400000000000162,35.694564232900476,51.28336742647208,1297.0013602003455,0.00012076916715386687,7.048099519124662e-06,0.0,-4.2069984829140594e-07,1.4360807654156815e-07,0.0,25.799078477576707,70.0,0.0,255.0,0.0
21.450000000000163,35.69457027083602,51.28336777905237,1297.0013596480712,0.00012074813218987401,7.055279979795159e-06,0.0,-4.2069927985721733e-07,1.4360807654156815e-07,0.0,25.840272509976664,70.0,0.0,255.0,0.0
21.500000000000163,35.69457630771981,51.283368131991686,1297.0013590939343,0.00012072709722588115,7.062460326778819e-06,0.0,-4.206987114230287e-07,1.4360580280481372e-07,0.0,25.88145861932865,70.0,0.0,255.0,0.0
21.550000000000164,35.69458234355186,51.28336848529,1297.0013585425913,0.00012070606231873171,7.069640560075641e-06,0.0,-4.206981429888401e-07,1.4360693967319094e-07,0.0,25.922636805632663,70.0,0.0,255.0,0.0
21.600000000000165,35.69458837833214,51.28336883894735,1297.0013579912484,0.00012068502741158227,7.076821020746138e-06,0.0,-4.206987114230287e-07,1.4360807654156815e-07,0.0,25.963807068888702,70.0,0.0,255.0,0.0
21.650000000000166,35.69459441206069,51.283369192963725,1297.0013574399054,0.00012066399244758941,7.0840013677297975e-06,0.0,-4.2069927985721733e-07,1.4360693967319094e-07,0.0,26.004969409096766,70.0,0.0,255.0,0.0
21.700000000000166,35.694600444737496,51.2833695473391,1297.0013568894938,0.00012064295748359655,7.091181714713457e-06,0.0,-4.206987114230287e-07,1.4360693967319094e-07,0.0,26.04612382625686,70.0,0.0,255.0,0.0
21.750000000000167,35.694606476362544,51.2833699020735,1297.0013563362882,0.0001206219225764471,7.098362061697117e-06,0.0,-4.206987114230287e-07,1.436080765415546e-07,0.0,26.08727032036898,70.0,0.0,255.0,0.0
21.800000000000168,35.694612506935854,51.28337025716693,1297.0013557849452,0.00012060088761245424,7.105542522367614e-06,0.0,-4.2069927985721733e-07,1.436080765415546e-07,0.0,26.128408891433125,70.0,0.0,255.0,0.0
21.85000000000017,35.69461853645741,51.28337061261938,1297.0013552354649,0.00012057985264846138,7.112722869351273e-06,0.0,-4.2069984829140594e-07,1.4360580280481372e-07,0.0,26.169539539449296,70.0,0.0,255.0,0.0
21.90000000000017,35.69462456492722,51.28337096843084,1297.0013546822593,0.0001205588176276251,7.119903102648095e-06,0.0,-4.2069927985721733e-07,1.4360693967319094e-07,0.0,26.2106622644175,70.0,0.0,255.0,0.0
21.95000000000017,35.694630592345284,51.28337132460132,1297.0013541309163,0.00012053778272047566,7.1270835633185925e-06,0.0,-4.206981429888401e-07,1.4360921340994537e-07,0.0,26.251777066337727,70.0,0.0,255.0,0.0
22.00000000000017,35.6946366187116,51.283371681130824,1297.0013535795733,0.00012051674781332622,7.13426402398909e-06,0.0,-4.2069984829140594e-07,1.4360807654156815e-07,0.0,26.292883945209983,70.0,0.0,255.0,0.0
22.05000000000017,35.69464264402616,51.28337203801934,1297.0013530282304,0.00012049571273564652,7.141444370972749e-06,0.0,-4.2069984829140594e-07,1.4360693967319094e-07,0.0,26.33398290103426,70.0,0.0,255.0,0.0
22.100000000000172,35.69464866828898,51.28337239526688,1297.0013524768874,0.00012047467782849708,7.148624717956409e-06,0.0,-4.206981429888401e-07,1.4360693967319094e-07,0.0,26.37507393381057,70.0,0.0,255.0,0.0
22.150000000000173,35.69465469150004,51.28337275287343,1297.0013519264758,0.00012045364292134764,7.155805064940068e-06,0.0,-4.2069927985721733e-07,1.4360693967319094e-07,0.0,26.416157043538902,70.0,0.0,255.0,0.0
22.200000000000173,35.69466071365937,51.28337311083901,1297.0013513760641,0.00012043260790051136,7.162985411923728e-06,0.0,-4.2069927985721733e-07,1.4360807654156815e-07,0.0,26.457232230219265,70.0,0.0,255.0,0.0
22.250000000000174,35.694666734766926,51.28337346916361,1297.0013508237898,0.00012041157299336191,7.170165872594225e-06,0.0,-4.206981429888401e-07,1.4360807654156815e-07,0.0,26.49829949385165,70.0,0.0,255.0,0.0
22.300000000000175,35.694672754822754,51.28337382784722,1297.0013502733782,0.00012039053808621247,7.177346219577885e-06,0.0,-4.2069927985721733e-07,1.4360580280481372e-07,0.0,26.539358834436065,70.0,0.0,255.0,0.0
22.350000000000176,35.69467877382684,51.283374186889866,1297.0013497229666,0.0001203695030653762,7.184526452874707e-06,0.0,-4.2069984829140594e-07,1.4360693967319094e-07,0.0,26.58041025197251,70.0,0.0,255.0,0.0
22.400000000000176,35.694684791779174,51.28337454629151,1297.0013491706923,0.00012034846810138333,7.191706913545204e-06,0.0,-4.2069927985721733e-07,1.4360921340994537e-07,0.0,26.62145374646098,70.0,0.0,255.0,0.0
22.450000000000177,35.69469080867975,51.28337490605219,1297.001348621212,0.00012032743313739047,7.198887374215701e-06,0.0,-4.206987114230287e-07,1.436080765415546e-07,0.0,26.662489317901475,70.0,0.0,255.0,0.0
22.500000000000178,35.69469682452858,51.28337526617188,1297.0013480708003,0.00012030639823024103,7.206067721199361e-06,0.0,-4.206970061204629e-07,1.4360693967317738e-07,0.0,26.703516966294,70.0,0.0,255.0,0.0
22.55000000000018,35.69470283932566,51.283375626650596,1297.0013475194573,0.00012028536343677843,7.21324806818302e-06,0.0,-4.206981429888401e-07,1.4360693967319094e-07,0.0,26.744536691638547,70.0,0.0,255.0,0.0
22.60000000000018,35.69470885307101,51.28337598748832,1297.0013469690457,0.00012026432841594215,7.22042841516668e-06,0.0,-4.2070098515978316e-07,1.4360580280481372e-07,0.0,26.785548493935124,70.0,0.0,255.0,0.0
22.65000000000018,35.694714865764595,51.283376348685074,1297.0013464195654,0.00012024329333826245,7.227608648463502e-06,0.0,-4.2069984829140594e-07,1.4360580280481372e-07,0.0,26.826552373183727,70.0,0.0,255.0,0.0
22.70000000000018,35.694720877406446,51.28337671024084,1297.0013458691537,0.000120222258431113,7.234788995447161e-06,0.0,-4.206987114230287e-07,1.4360921340994537e-07,0.0,26.867548329384356,70.0,0.0,255.0,0.0
22.75000000000018,35.69472688799653,51.28337707215563,1297.001345318742,0.00012020122346712014,7.241969569804496e-06,0.0,-4.2069927985721733e-07,1.4361035027832258e-07,0.0,26.908536362537014,70.0,0.0,255.0,0.0
22.800000000000182,35.694732897534884,51.28337743442944,1297.0013447692618,0.00012018018850312728,7.249150030474993e-06,0.0,-4.2069927985721733e-07,1.4360693967319094e-07,0.0,26.949516472641697,70.0,0.0,255.0,0.0
22.850000000000183,35.69473890602147,51.283377797062265,1297.0013442197815,0.00012015915353913442,7.256330263771815e-06,0.0,-4.206987114230287e-07,1.4360580280481372e-07,0.0,26.99048865969841,70.0,0.0,255.0,0.0
22.900000000000183,35.69474491345632,51.28337816005411,1297.0013436684385,0.00012013811863198498,7.263510610755475e-06,0.0,-4.206981429888401e-07,1.4360693967319094e-07,0.0,27.031452923707146,70.0,0.0,255.0,0.0
22.950000000000184,35.69475091983943,51.283378523404984,1297.0013431189582,0.00012011708372483554,7.270690957739134e-06,0.0,-4.2069984829140594e-07,1.4360693967319094e-07,0.0,27.072409264667915,70.0,0.0,255.0,0.0
23.000000000000185,35.69475692517078,51.28337888711487,1297.0013425685465,0.00012009604864715584,7.277871304722794e-06,0.0,-4.2069984829140594e-07,1.4360921340994537e-07,0.0,27.113357682580705,70.0,0.0,255.0,0.0
23.050000000000185,35.694762929450384,51.28337925118377,1297.0013420199975,0.0001200750137400064,7.285051879080129e-06,0.0,-4.206975745546515e-07,1.4360807654156815e-07,0.0,27.154298177445522,70.0,0.0,255.0,0.0
23.100000000000186,35.69476893267825,51.2833796156117,1297.0013414686546,0.00012005397888970037,7.292232112376951e-06,0.0,-4.206987114230287e-07,1.4360466593642295e-07,0.0,27.195230749262368,70.0,0.0,255.0,0.0
23.150000000000187,35.69477493485434,51.283379980398635,1297.0013409191743,0.0001200329438688641,7.2994123456737725e-06,0.0,-4.2070041672559455e-07,1.436080765415546e-07,0.0,27.23615539803124,70.0,0.0,255.0,0.0
23.200000000000188,35.69478093597871,51.28338034554459,1297.001340369694,0.00012001190884802782,7.3065929200311075e-06,0.0,-4.2069927985721733e-07,1.4360921340994537e-07,0.0,27.277072123752138,70.0,0.0,255.0,0.0
23.25000000000019,35.69478693605133,51.28338071104959,1297.0013398202136,0.00011999087394087837,7.313773267014767e-06,0.0,-4.206975745546515e-07,1.4360580280481372e-07,0.0,27.31798092642506,70.0,0.0,255.0,0.0
23.30000000000019,35.69479293507219,51.28338107691358,1297.001339269802,0.00011996983909057235,7.320953500311589e-06,0.0,-4.206981429888401e-07,1.4360693967319094e-07,0.0,27.358881806050015,70.0,0.0,255.0,0.0
23.35000000000019,35.69479893304132,51.2833814431366,1297.0013387203217,0.00011994880412657949,7.328133960982086e-06,0.0,-4.2069984829140594e-07,1.4360807654156815e-07,0.0,27.399774762626997,70.0,0.0,255.0,0.0
23.40000000000019,35.69480492995869,51.28338180971864,1297.001338172704,0.00011992776910574321,7.335314307965746e-06,0.0,-4.2069984829140594e-07,1.4360693967319094e-07,0.0,27.440659796156,70.0,0.0,255.0,0.0
23.45000000000019,35.69481092582431,51.28338217665969,1297.0013376222923,0.00011990673414175035,7.342494654949405e-06,0.0,-4.2069927985721733e-07,1.4360807654156815e-07,0.0,27.48153690663704,70.0,0.0,255.0,0.0
23.500000000000192,35.69481692063819,51.28338254395976,1297.001337072812,0.00011988569917775749,7.3496751156199025e-06,0.0,-4.2069927985721733e-07,1.4360807654156815e-07,0.0,27.5224060940701,70.0,0.0,255.0,0.0
23.550000000000193,35.694822914400305,51.28338291161887,1297.0013365233317,0.00011986466421376463,7.356855462603562e-06,0.0,-4.206987114230287e-07,1.4360693967319094e-07,0.0,27.563267358455185,70.0,0.0,255.0,0.0
23.600000000000193,35.69482890711069,51.28338327963697,1297.0013359747827,0.00011984362930661518,7.364035809587222e-06,0.0,-4.206987114230287e-07,1.4360693967319094e-07,0.0,27.604120699792297,70.0,0.0,255.0,0.0
23.650000000000194,35.69483489876933,51.283383648014116,1297.0013354253024,0.00011982259434262232,7.371216156570881e-06,0.0,-4.2069927985721733e-07,1.4360693967319094e-07,0.0,27.644966118081438,70.0,0.0,255.0,0.0
23.700000000000195,35.6948408893762,51.28338401675027,1297.001334875822,0.00011980155937862946,7.378396503554541e-06,0.0,-4.206992798570005e-07,1.4360807654156815e-07,0.0,27.685803613322605,70.0,0.0,255.0,0.0
23.750000000000195,35.69484687893133,51.283384385845444,1297.001334327273,0.0001197805244146366,7.385576964225038e-06,0.0,-4.206987114228119e-07,1.436080765415546e-07,0.0,27.726633185515798,70.0,0.0,255.0,0.0
23.800000000000196,35.69485286743472,51.28338475529963,1297.001333778724,0.00011975948950748716,7.3927573112086975e-06,0.0,-4.206987114230287e-07,1.4360693967317738e-07,0.0,27.767454834661024,70.0,0.0,255.0,0.0
23.850000000000197,35.69485885488636,51.283385125112844,1297.001333230175,0.0001197384545434943,7.399937658192357e-06,0.0,-4.2069984829140594e-07,1.4360693967319094e-07,0.0,27.808268560758272,70.0,0.0,255.0,0.0
23.900000000000198,35.694864841286254,51.28338549528507,1297.0013326806948,0.00011971741952265802,7.407118005176017e-06,0.0,-4.206987114230287e-07,1.4360693967319094e-07,0.0,27.849074363807546,70.0,0.0,255.0,0.0
23.9500000000002,35.694870826634386,51.28338586581632,1297.001332133077,0.000119696384672352,7.414298352159676e-06,0.0,-4.206981429888401e-07,1.4360807654156815e-07,0.0,27.889872243808853,70.0,0.0,255.0,0.0
24.0000000000002,35.69487681093079,51.28338623670659,1297.001331584528,0.00011967534970835914,7.421478812830173e-06,0.0,-4.2069927985721733e-07,1.4360807654156815e-07,0.0,27.93066220076218,70.0,0.0,255.0,0.0
24.0500000000002,35.694882794175435,51.283386607955876,1297.0013310350478,0.00011965431474436627,7.428659159813833e-06,0.0,-4.206987114230287e-07,1.4360580280481372e-07,0.0,27.971444234667533,70.0,0.0,255.0,0.0
24.1000000000002,35.69488877636835,51.283386979564185,1297.00133048743,0.00011963327983721683,7.435839393110655e-06,0.0,-4.2069927985721733e-07,1.4360807654156815e-07,0.0,28.012218345524918,70.0,0.0,255.0,0.0
24.1500000000002,35.69489475750949,51.2833873515315,1297.0013299398124,0.00011961224481638055,7.44301996746799e-06,0.0,-4.2070041672559455e-07,1.4360921340994537e-07,0.0,28.052984533334325,70.0,0.0,255.0,0.0
24.200000000000202,35.6949007375989,51.28338772385786,1297.001329390332,0.00011959120979554427,7.450200314451649e-06,0.0,-4.2069927985721733e-07,1.4360580280481372e-07,0.0,28.09374279809576,70.0,0.0,255.0,0.0
24.250000000000203,35.69490671663655,51.28338809654323,1297.0013288408518,0.00011957017488839483,7.457380547748471e-06,0.0,-4.206975745546515e-07,1.4360807654156815e-07,0.0,28.134493139809226,70.0,0.0,255.0,0.0
24.300000000000203,35.69491269462246,51.28338846958761,1297.0013282941654,0.00011954914003808881,7.464561122105806e-06,0.0,-4.206987114230287e-07,1.4360807654156815e-07,0.0,28.175235558474718,70.0,0.0,255.0,0.0
24.350000000000204,35.694918671556614,51.283388842991016,1297.001327744685,0.00011952810501725253,7.471741355402628e-06,0.0,-4.2069984829140594e-07,1.436046659364365e-07,0.0,28.215970054092235,70.0,0.0,255.0,0.0
24.400000000000205,35.69492464743903,51.283389216753434,1297.0013271970674,0.00011950707005325967,7.47892158869945e-06,0.0,-4.2069927985721733e-07,1.4360807654156815e-07,0.0,28.256696626661782,70.0,0.0,255.0,0.0
24.450000000000205,35.694930622269695,51.283389590874876,1297.0013266494498,0.0001194860350892668,7.486102163056785e-06,0.0,-4.2069984829140594e-07,1.4360921340993182e-07,0.0,28.29741527618335,70.0,0.0,255.0,0.0
24.500000000000206,35.6949365960486,51.28338996535533,1297.001326101832,0.00011946500006843053,7.493282510040444e-06,0.0,-4.206987114230287e-07,1.4360693967317738e-07,0.0,28.33812600265695,70.0,0.0,255.0,0.0
24.550000000000207,35.694942568775765,51.28339034019482,1297.0013255542144,0.0001194439652181245,7.500462857024104e-06,0.0,-4.206975745546515e-07,1.4360693967319094e-07,0.0,28.378828806082574,70.0,0.0,255.0,0.0
24.600000000000207,35.694948540451186,51.28339071539332,1297.0013250065967,0.00011942293031097506,7.507643204007763e-06,0.0,-4.2069927985721733e-07,1.4360693967319094e-07,0.0,28.419523686460224,70.0,0.0,255.0,0.0
24.650000000000208,35.69495451107487,51.28339109095083,1297.0013244580477,0.00011940189529013878,7.514823550991423e-06,0.0,-4.2069984829140594e-07,1.4360807654156815e-07,0.0,28.460210643789903,70.0,0.0,255.0,0.0
24.70000000000021,35.69496048064679,51.28339146686738,1297.0013239113614,0.00011938086032614592,7.52200401166192e-06,0.0,-4.206987114230287e-07,1.4360693967319094e-07,0.0,28.50088967807161,70.0,0.0,255.0,0.0
24.75000000000021,35.69496644916696,51.28339184314292,1297.0013233628124,0.00011935982541899648,7.529184244958742e-06,0.0,-4.206981429888401e-07,1.4360693967319094e-07,0.0,28.541560789305343,70.0,0.0,255.0,0.0
24.80000000000021,35.694972416635395,51.2833922197775,1297.001322816126,0.00011933879051184704,7.536364705629239e-06,0.0,-4.206987114230287e-07,1.4360807654156815e-07,0.0,28.5822239774911,70.0,0.0,255.0,0.0
24.85000000000021,35.694978383052074,51.283392596771094,1297.001322267577,0.00011931775554785418,7.543545052612899e-06,0.0,-4.2069984829140594e-07,1.4360693967319094e-07,0.0,28.622879242628887,70.0,0.0,255.0,0.0
24.90000000000021,35.69498434841701,51.283392974123714,1297.001321719028,0.0001192967205270179,7.550725399596558e-06,0.0,-4.2069984829140594e-07,1.4360807654156815e-07,0.0,28.663526584718703,70.0,0.0,255.0,0.0
24.950000000000212,35.6949903127302,51.28339335183534,1297.001321173273,0.00011927568556302504,7.557905860267056e-06,0.0,-4.2069927985721733e-07,1.4360807654156815e-07,0.0,28.70416600376054,70.0,0.0,255.0,0.0
25.000000000000213,35.69499627599163,51.283393729906,1297.0013206256554,0.00011925465059903217,7.565086207250715e-06,0.0,-4.206987114230287e-07,1.4360693967319094e-07,0.0,28.744797499754405,70.0,0.0,255.0,0.0
25.050000000000214,35.69500223820131,51.28339410833567,1297.0013200799003,0.00011923361569188273,7.572266554234375e-06,0.0,-4.206987114230287e-07,1.4360693967319094e-07,0.0,28.7854210727003,70.0,0.0,255.0,0.0
25.100000000000215,35.69500819935925,51.28339448712436,1297.0013195322827,0.00011921258072788987,7.579446901218034e-06,0.0,-4.2069984829140594e-07,1.436080765415546e-07,0.0,28.826036722598218,70.0,0.0,255.0,0.0
25.150000000000215,35.695014159465444,51.283394866272076,1297.0013189837337,0.00011919154570705359,7.586627361888532e-06,0.0,-4.206987114230287e-07,1.4360693967317738e-07,0.0,28.866644449448167,70.0,0.0,255.0,0.0
25.200000000000216,35.69502011851989,51.2833952457788,1297.0013184379786,0.00011917051085674757,7.593807595185353e-06,0.0,-4.206975745546515e-07,1.4360580280481372e-07,0.0,28.90724425325014,70.0,0.0,255.0,0.0
25.250000000000217,35.69502607652259,51.28339562564456,1297.0013178912923,0.00011914947594959813,7.600987942169013e-06,0.0,-4.2069927985721733e-07,1.4360807654156815e-07,0.0,28.947836134004145,70.0,0.0,255.0,0.0
25.300000000000217,35.69503203347354,51.283396005869314,1297.0013173436746,0.00011912844092876185,7.60816840283951e-06,0.0,-4.2069984829140594e-07,1.4360807654156815e-07,0.0,28.98842009171017,70.0,0.0,255.0,0.0
25.350000000000218,35.69503798937274,51.283396386453106,1297.001316796057,0.00011910740596476899,7.61534874982317e-06,0.0,-4.2069927985721733e-07,1.4360693967319094e-07,0.0,29.028996126368227,70.0,0.0,255.0,0.0
25.40000000000022,35.695043944220195,51.28339676739591,1297.0013162493706,0.00011908637100077613,7.622529096806829e-06,0.0,-4.2069984829140594e-07,1.4360807654156815e-07,0.0,29.06956423797831,70.0,0.0,255.0,0.0
25.45000000000022,35.695049898015895,51.28339714869773,1297.0013157026842,0.00011906533597993985,7.629709557477327e-06,0.0,-4.2069927985721733e-07,1.4360921340994537e-07,0.0,29.110124426540416,70.0,0.0,255.0,0.0
25.50000000000022,35.69505585075985,51.283397530358585,1297.0013151569292,0.0001190443010727904,7.636890018147824e-06,0.0,-4.206975745546515e-07,1.4360580280481372e-07,0.0,29.150676692054553,70.0,0.0,255.0,0.0
25.55000000000022,35.69506180245205,51.283397912378454,1297.0013146102428,0.00011902326622248438,7.644070137757808e-06,0.0,-4.206975745546515e-07,1.436046659364365e-07,0.0,29.191221034520716,70.0,0.0,255.0,0.0
25.60000000000022,35.69506775309252,51.283398294757326,1297.0013140644878,0.00011900223131533494,7.651250484741468e-06,0.0,-4.2069927985721733e-07,1.4360921340994537e-07,0.0,29.231757453938904,70.0,0.0,255.0,0.0
25.650000000000222,35.69507370268123,51.283398677495235,1297.0013135168701,0.00011898119629449866,7.658431059098803e-06,0.0,-4.2069984829140594e-07,1.4360921340994537e-07,0.0,29.27228595030912,70.0,0.0,255.0,0.0
25.700000000000223,35.6950796512182,51.28339906059215,1297.001312971115,0.0001189601613305058,7.665611406082462e-06,0.0,-4.2069927985721733e-07,1.4360693967319094e-07,0.0,29.312806523631366,70.0,0.0,255.0,0.0
25.750000000000224,35.69508559870343,51.283399444048094,1297.0013124244288,0.00011893912636651294,7.672791753066122e-06,0.0,-4.2069984829140594e-07,1.4360693967317738e-07,0.0,29.353319173905632,70.0,0.0,255.0,0.0
25.800000000000225,35.69509154513688,51.28339982786305,1297.0013118786737,0.00011891809134567666,7.679972100049781e-06,0.0,-4.2069927985721733e-07,1.4360693967317738e-07,0.0,29.39382390113193,70.0,0.0,255.0,0.0
25.850000000000225,35.695097490518606,51.28340021203703,1297.0013113301247,0.00011889705643852722,7.68715244703344e-06,0.0,-4.206987114230287e-07,1.4360807654156815e-07,0.0,29.434320705310256,70.0,0.0,255.0,0.0
25.900000000000226,35.69510343484858,51.283400596570026,1297.0013107862324,0.00011887602147453435,7.694332907703938e-06,0.0,-4.2069927985721733e-07,1.4360693967319094e-07,0.0,29.474809586440607,70.0,0.0,255.0,0.0
25.950000000000227,35.695109378126794,51.28340098146206,1297.001310239546,0.0001188549865105415,7.70151314100076e-06,0.0,-4.206987114230287e-07,1.4360580280481372e-07,0.0,29.515290544522983,70.0,0.0,255.0,0.0
26.000000000000227,35.69511532035328,51.283401366713086,1297.001309693791,0.00011883395160339205,7.70869348798442e-06,0.0,-4.206987114230287e-07,1.4360921340994537e-07,0.0,29.555763579557386,70.0,0.0,255.0,0.0
26.050000000000228,35.69512126152801,51.283401752323144,1297.001309148036,0.00011881291663939919,7.715874062341754e-06,0.0,-4.2069927985721733e-07,1.4360807654156815e-07,0.0,29.596228691543818,70.0,0.0,255.0,0.0
26.10000000000023,35.69512720165099,51.28340213829222,1297.001308602281,0.00011879188167540633,7.723054295638576e-06,0.0,-4.206987114230287e-07,1.4360580280481372e-07,0.0,29.636685880482275,70.0,0.0,255.0,0.0
26.15000000000023,35.69513314072222,51.28340252462031,1297.0013080565259,0.00011877084676825689,7.730234642622236e-06,0.0,-4.206987114230287e-07,1.4360807654156815e-07,0.0,29.67713514637276,70.0,0.0,255.0,0.0
26.20000000000023,35.695139078741704,51.28340291130742,1297.0013075126335,0.00011874981180426403,7.737415103292733e-06,0.0,-4.2069927985721733e-07,1.4360807654156815e-07,0.0,29.717576489215272,70.0,0.0,255.0,0.0
26.25000000000023,35.69514501570946,51.28340329835356,1297.0013069668785,0.00011872877684027117,7.744595450276393e-06,0.0,-4.2069927985721733e-07,1.4360693967319094e-07,0.0,29.75800990900981,70.0,0.0,255.0,0.0
26.30000000000023,35.69515095162544,51.283403685758714,1297.0013064192608,0.0001187077418762783,7.751775797260052e-06,0.0,-4.206987114230287e-07,1.4360580280481372e-07,0.0,29.79843540575638,70.0,0.0,255.0,0.0
26.350000000000232,35.695156886489684,51.28340407352288,1297.001305874437,0.00011868670696912886,7.758956030556874e-06,0.0,-4.206987114230287e-07,1.4360693967319094e-07,0.0,29.838852979454973,70.0,0.0,255.0,0.0
26.400000000000233,35.69516282030218,51.283404461646064,1297.0013053305447,0.000118665672005136,7.766136491227371e-06,0.0,-4.2069984829140594e-07,1.4361035027830903e-07,0.0,29.87926263010559,70.0,0.0,255.0,0.0
26.450000000000234,35.695168753062916,51.283404850128285,1297.0013047838584,0.00011864463698429972,7.773317065584706e-06,0.0,-4.206987114230287e-07,1.436080765415546e-07,0.0,29.919664357708236,70.0,0.0,255.0,0.0
26.500000000000234,35.69517468477192,51.283405238969515,1297.0013042381033,0.0001186236021339937,7.780497298881528e-06,0.0,-4.206981429888401e-07,1.4360580280481372e-07,0.0,29.960058162262907,70.0,0.0,255.0,0.0
26.550000000000235,35.69518061542917,51.28340562816975,1297.001303694211,0.00011860256717000084,7.787677645865188e-06,0.0,-4.2069984829140594e-07,1.4360807654156815e-07,0.0,30.00044404376961,70.0,0.0,255.0,0.0
26.600000000000236,35.69518654503467,51.28340601772903,1297.0013031475246,0.00011858153214916456,7.794858106535685e-06,0.0,-4.2069927985721733e-07,1.4360693967319094e-07,0.0,30.040822002228335,70.0,0.0,255.0,0.0
26.650000000000237,35.69519247358842,51.28340640764731,1297.001302602701,0.00011856049724201512,7.802038339832507e-06,0.0,-4.2069927985721733e-07,1.4360693967319094e-07,0.0,30.08119203763909,70.0,0.0,255.0,0.0
26.700000000000237,35.69519840109044,51.283406797924606,1297.0013020578772,0.00011853946222117884,7.809218800503004e-06,0.0,-4.2069984829140594e-07,1.4360807654156815e-07,0.0,30.12155415000187,70.0,0.0,255.0,0.0
26.750000000000238,35.695204327540694,51.28340718856095,1297.0013015121222,0.00011851842725718598,7.816399147486663e-06,0.0,-4.206981429888401e-07,1.4360580280481372e-07,0.0,30.16190833931668,70.0,0.0,255.0,0.0
26.80000000000024,35.695210252939205,51.28340757955628,1297.001300969161,0.00011849739240687995,7.823579380783485e-06,0.0,-4.206987114230287e-07,1.4360807654156815e-07,0.0,30.202254605583516,70.0,0.0,255.0,0.0
26.85000000000024,35.69521617728596,51.28340797091065,1297.0013004243374,0.00011847635738604367,7.83075995514082e-06,0.0,-4.2069984829140594e-07,1.4360921340994537e-07,0.0,30.242592948802375,70.0,0.0,255.0,0.0
26.90000000000024,35.69522210058098,51.28340836262403,1297.0012998785824,0.00011845532242205081,7.83794030212448e-06,0.0,-4.206987114230287e-07,1.4360580280481372e-07,0.0,30.282923368973265,70.0,0.0,255.0,0.0
26.95000000000024,35.69522802282425,51.28340875469644,1297.00129933469,0.00011843428751490137,7.845120535421302e-06,0.0,-4.206987114230287e-07,1.4360693967319094e-07,0.0,30.323245866096176,70.0,0.0,255.0,0.0
27.00000000000024,35.69523394401576,51.28340914712785,1297.001298788935,0.00011841325255090851,7.852300996091799e-06,0.0,-4.2069927985721733e-07,1.4360807654156815e-07,0.0,30.36356044017112,70.0,0.0,255.0,0.0
27.050000000000242,35.69523986415553,51.28340953991829,1297.0012982450426,0.00011839221758691565,7.859481343075458e-06,0.0,-4.206987114230287e-07,1.4360693967319094e-07,0.0,30.403867091198087,70.0,0.0,255.0,0.0
27.100000000000243,35.695245783243536,51.28340993306775,1297.0012977011502,0.00011837118267976621,7.866661690059118e-06,0.0,-4.206975745546515e-07,1.436080765415546e-07,0.0,30.444165819177083,70.0,0.0,255.0,0.0
27.150000000000244,35.69525170127983,51.28341032657623,1297.0012971563265,0.00011835014782946018,7.873842150729615e-06,0.0,-4.206987114230287e-07,1.436080765415546e-07,0.0,30.48445662410811,70.0,0.0,255.0,0.0
27.200000000000244,35.695257618264364,51.28341072044373,1297.0012966105714,0.0001183291128086239,7.881022497713275e-06,0.0,-4.2070041672559455e-07,1.4360693967319094e-07,0.0,30.524739505991157,70.0,0.0,255.0,0.0
27.250000000000245,35.69526353419715,51.28341111467025,1297.001296066679,0.00011830807778778762,7.888202844696934e-06,0.0,-4.2070041672559455e-07,1.4360693967319094e-07,0.0,30.565014464826234,70.0,0.0,255.0,0.0
27.300000000000246,35.69526944907817,51.283411509255785,1297.001295523718,0.00011828704276695134,7.895383191680594e-06,0.0,-4.2069984829140594e-07,1.4360693967319094e-07,0.0,30.605281500613337,70.0,0.0,255.0,0.0
27.350000000000247,35.69527536290746,51.283411904200335,1297.0012949798256,0.00011826600780295848,7.902563538664253e-06,0.0,-4.206981429886233e-07,1.4360693967319094e-07,0.0,30.645540613352466,70.0,0.0,255.0,0.0
27.400000000000247,35.69528127568499,51.28341229950391,1297.0012944340706,0.00011824497295265246,7.909743885647913e-06,0.0,-4.2069757455443467e-07,1.4360807654156815e-07,0.0,30.685791803043625,70.0,0.0,255.0,0.0
27.450000000000248,35.69528718741078,51.2834126951665,1297.0012938901782,0.00011822393804550302,7.91692434631841e-06,0.0,-4.2069927985721733e-07,1.4360921340994537e-07,0.0,30.72603506968681,70.0,0.0,255.0,0.0
27.50000000000025,35.69529309808481,51.28341309118811,1297.0012933462858,0.00011820290302466674,7.924104806988908e-06,0.0,-4.2069984829140594e-07,1.4360693967319094e-07,0.0,30.76627041328202,70.0,0.0,255.0,0.0
27.55000000000025,35.6952990077071,51.28341348756876,1297.001292804256,0.00011818186806067388,7.93128504028573e-06,0.0,-4.206987114230287e-07,1.436046659364365e-07,0.0,30.806497833829255,70.0,0.0,255.0,0.0
27.60000000000025,35.69530491627765,51.2834138843084,1297.001292258501,0.00011816083315352444,7.938465273582551e-06,0.0,-4.2069927985721733e-07,1.4360693967319094e-07,0.0,30.84671733132852,70.0,0.0,255.0,0.0
27.65000000000025,35.695310823796454,51.28341428140706,1297.0012917146087,0.00011813979813268816,7.945645734253048e-06,0.0,-4.2069927985721733e-07,1.4361035027832258e-07,0.0,30.88692890577981,70.0,0.0,255.0,0.0
27.70000000000025,35.69531673026349,51.28341467886476,1297.0012911716476,0.00011811876322553871,7.952826308610383e-06,0.0,-4.206981429888401e-07,1.4360807654156815e-07,0.0,30.92713255718313,70.0,0.0,255.0,0.0
27.750000000000252,35.69532263567879,51.28341507668148,1297.0012906277552,0.00011809772831838927,7.960006541907205e-06,0.0,-4.2069927985721733e-07,1.4360580280480017e-07,0.0,30.96732828553848,70.0,0.0,255.0,0.0
27.800000000000253,35.69532854004234,51.2834154748572,1297.0012900857255,0.00011807669329755299,7.967186888890865e-06,0.0,-4.2069927985721733e-07,1.436080765415546e-07,0.0,31.00751609084585,70.0,0.0,255.0,0.0
27.850000000000254,35.69533444335414,51.283415873391945,1297.0012895409018,0.00011805565839040355,7.974367349561362e-06,0.0,-4.206981429888401e-07,1.4360693967319094e-07,0.0,31.04769597310525,70.0,0.0,255.0,0.0
27.900000000000254,35.69534034561419,51.283416272285706,1297.0012889979407,0.00011803462348325411,7.981547582858184e-06,0.0,-4.2069927985721733e-07,1.4360693967319094e-07,0.0,31.087867932316673,70.0,0.0,255.0,0.0
27.950000000000255,35.69534624682252,51.283416671538504,1297.0012884540483,0.00011801358846241783,7.988728043528681e-06,0.0,-4.2069984829140594e-07,1.4360807654156815e-07,0.0,31.128031968480126,70.0,0.0,255.0,0.0
28.000000000000256,35.69535214697908,51.28341707115031,1297.0012879110873,0.00011799255349842497,7.99590839051234e-06,0.0,-4.2069927985721733e-07,1.4360693967319094e-07,0.0,31.168188081595602,70.0,0.0,255.0,0.0
28.050000000000257,35.69535804608388,51.283417471121126,1297.0012873681262,0.00011797151853443211,8.003088737496e-06,0.0,-4.206987114230287e-07,1.4360807654156815e-07,0.0,31.20833627166311,70.0,0.0,255.0,0.0
28.100000000000257,35.69536394413694,51.28341787145097,1297.0012868251652,0.00011795048362728267,8.010269198166498e-06,0.0,-4.206981429888401e-07,1.4360693967319094e-07,0.0,31.248476538682645,70.0,0.0,255.0,0.0
28.150000000000258,35.69536984113827,51.28341827213983,1297.001286282204,0.00011792944872013322,8.01744943146332e-06,0.0,-4.2069927985721733e-07,1.4360693967319094e-07,0.0,31.288608882654206,70.0,0.0,255.0,0.0
28.20000000000026,35.695375737087836,51.283418673187704,1297.0012857373804,0.00011790841369929694,8.024629892133817e-06,0.0,-4.2070041672559455e-07,1.4360807654156815e-07,0.0,31.328733303577796,70.0,0.0,255.0,0.0
28.25000000000026,35.695381631985654,51.28341907459462,1297.0012851953506,0.00011788737867846066,8.031810239117476e-06,0.0,-4.2069927985721733e-07,1.4360693967319094e-07,0.0,31.368849801453408,70.0,0.0,255.0,0.0
28.30000000000026,35.69538752583171,51.28341947636053,1297.0012846542522,0.00011786634377131122,8.038990586101136e-06,0.0,-4.206981429888401e-07,1.4360807654156815e-07,0.0,31.40895837628105,70.0,0.0,255.0,0.0
28.35000000000026,35.69539341862604,51.28341987848548,1297.0012841094285,0.00011784530886416178,8.046171046771633e-06,0.0,-4.206987114230287e-07,1.4360693967319094e-07,0.0,31.449059028060717,70.0,0.0,255.0,0.0
28.40000000000026,35.695399310368614,51.28342028096943,1297.0012835664675,0.00011782427390016892,8.053351280068455e-06,0.0,-4.2069927985721733e-07,1.4360693967317738e-07,0.0,31.48915175679241,70.0,0.0,255.0,0.0
28.450000000000262,35.69540520105946,51.28342068381241,1297.0012830263004,0.00011780323893617606,8.060531740738952e-06,0.0,-4.2069927985721733e-07,1.436080765415546e-07,0.0,31.52923656247613,70.0,0.0,255.0,0.0
28.500000000000263,35.695411090698535,51.28342108701441,1297.0012824814767,0.0001177822039721832,8.067712087722612e-06,0.0,-4.206987114230287e-07,1.4360693967319094e-07,0.0,31.569313445111877,70.0,0.0,255.0,0.0
28.550000000000264,35.69541697928586,51.28342149057543,1297.0012819385156,0.00011776116906503376,8.074892434706271e-06,0.0,-4.206981429888401e-07,1.4360807654156815e-07,0.0,31.60938240469965,70.0,0.0,255.0,0.0
28.600000000000264,35.695422866821445,51.28342189449546,1297.0012813964859,0.00011774013415788431,8.082072895376768e-06,0.0,-4.206987114230287e-07,1.4360693967319094e-07,0.0,31.649443441239455,70.0,0.0,255.0,0.0
28.650000000000265,35.695428753305286,51.283422298774525,1297.0012808544561,0.00011771909919389145,8.08925312867359e-06,0.0,-4.2069927985721733e-07,1.4360693967319094e-07,0.0,31.68949655473129,70.0,0.0,255.0,0.0
28.700000000000266,35.69543463873738,51.28342270341259,1297.001280311495,0.00011769806422989859,8.096433589344088e-06,0.0,-4.2069984829140594e-07,1.4360921340994537e-07,0.0,31.729541745175137,70.0,0.0,255.0,0.0
28.750000000000266,35.69544052311772,51.28342310840968,1297.0012797694653,0.00011767702920906231,8.103614050014585e-06,0.0,-4.2069984829140594e-07,1.4360693967319094e-07,0.0,31.76957901257103,70.0,0.0,255.0,0.0
28.800000000000267,35.695446406446315,51.2834235137658,1297.0012792265043,0.00011765599424506945,8.110794283311407e-06,0.0,-4.206987114230287e-07,1.4360580280481372e-07,0.0,31.809608356918936,70.0,0.0,255.0,0.0
28.850000000000268,35.69545228872315,51.283423919480924,1297.0012786854059,0.00011763495933792001,8.117974630295066e-06,0.0,-4.2069927985721733e-07,1.4360807654156815e-07,0.0,31.849629778218873,70.0,0.0,255.0,0.0
28.90000000000027,35.69545816994825,51.283424325555075,1297.0012781424448,0.00011761392431708373,8.125155090965563e-06,0.0,-4.2069927985721733e-07,1.4360807654156815e-07,0.0,31.889643276470835,70.0,0.0,255.0,0.0
28.95000000000027,35.69546405012159,51.283424731988255,1297.0012776022777,0.00011759288940993429,8.132335437949223e-06,0.0,-4.206981429888401e-07,1.4360580280481372e-07,0.0,31.929648851674823,70.0,0.0,255.0,0.0
29.00000000000027,35.695469929243195,51.28342513878044,1297.001277060248,0.00011757185450278484,8.139515671246045e-06,0.0,-4.2069927985721733e-07,1.4360693967319094e-07,0.0,31.969646503830848,70.0,0.0,255.0,0.0
29.05000000000027,35.695475807313045,51.28342554593164,1297.0012765182182,0.00011755081948194857,8.146696131916542e-06,0.0,-4.2069927985721733e-07,1.4360921340994537e-07,0.0,32.00963623293888,70.0,0.0,255.0,0.0
29.10000000000027,35.69548168433114,51.28342595344186,1297.0012759752572,0.00011752978457479912,8.15387659258704e-06,0.0,-4.206987114230287e-07,1.436080765415546e-07,0.0,32.049618038998965,70.0,0.0,255.0,0.0
29.150000000000272,35.695487560297515,51.28342636131112,1297.0012754341587,0.00011750874961080626,8.161056939570699e-06,0.0,-4.2069927985721733e-07,1.4360693967317738e-07,0.0,32.08959192201105,70.0,0.0,255.0,0.0
29.200000000000273,35.69549343521212,51.28342676953938,1297.001274892129,0.0001174877146468134,8.168237286554358e-06,0.0,-4.206987114230287e-07,1.4360693967319094e-07,0.0,32.12955788197518,70.0,0.0,255.0,0.0
29.250000000000274,35.69549930907498,51.283427178126665,1297.001274351962,0.00011746667973966396,8.175417633538018e-06,0.0,-4.2069927985721733e-07,1.4360693967319094e-07,0.0,32.169515918891335,70.0,0.0,255.0,0.0
29.300000000000274,35.6955051818861,51.28342758707298,1297.0012738080695,0.00011744564471882768,8.182597980521678e-06,0.0,-4.2069927985721733e-07,1.4360693967319094e-07,0.0,32.209466032759515,70.0,0.0,255.0,0.0
29.350000000000275,35.69551105364545,51.28342799637829,1297.0012732688338,0.00011742460981167824,8.189778327505337e-06,0.0,-4.206975745546515e-07,1.4360807654156815e-07,0.0,32.249408223579714,70.0,0.0,255.0,0.0
29.400000000000276,35.69551692435308,51.28342840604264,1297.00127272401,0.00011740357496137221,8.196958788175834e-06,0.0,-4.206987114230287e-07,1.4360807654156815e-07,0.0,32.289342491351945,70.0,0.0,255.0,0.0
29.450000000000276,35.69552279400895,51.28342881606601,1297.001272183843,0.00011738253994053593,8.204139135159494e-06,0.0,-4.2070041672559455e-07,1.4360693967319094e-07,0.0,32.32926883607622,70.0,0.0,255.0,0.0
29.500000000000277,35.69552866261307,51.28342922644838,1297.0012716418132,0.00011736150491969966,8.211319482143153e-06,0.0,-4.2069927985721733e-07,1.4360807654156815e-07,0.0,32.36918725775249,70.0,0.0,255.0,0.0
29.550000000000278,35.695534530165446,51.283429637189776,1297.0012711025774,0.00011734047001255021,8.21849994281365e-06,0.0,-4.206987114230287e-07,1.4360693967319094e-07,0.0,32.40909775638081,70.0,0.0,255.0,0.0
29.60000000000028,35.69554039666607,51.28343004829019,1297.0012705624104,0.00011731943504855735,8.225680176110473e-06,0.0,-4.2069984829140594e-07,1.4360580280481372e-07,0.0,32.449000331961145,70.0,0.0,255.0,0.0
29.65000000000028,35.69554626211494,51.28343045974963,1297.0012700203806,0.00011729840002772107,8.232860523094132e-06,0.0,-4.206987114230287e-07,1.4360921340994537e-07,0.0,32.48889498449351,70.0,0.0,255.0,0.0
29.70000000000028,35.69555212651208,51.28343087156809,1297.0012694792822,0.00011727736517741505,8.240041097451467e-06,0.0,-4.206975745546515e-07,1.4360807654156815e-07,0.0,32.52878171397791,70.0,0.0,255.0,0.0
29.75000000000028,35.695557989857456,51.28343128374557,1297.001268939115,0.00011725633027026561,8.247221330748289e-06,0.0,-4.2069927985721733e-07,1.4360580280480017e-07,0.0,32.568660520414326,70.0,0.0,255.0,0.0
29.80000000000028,35.695563852151096,51.283431696282065,1297.0012683970854,0.00011723529524942933,8.254401677731948e-06,0.0,-4.2070041672559455e-07,1.436080765415546e-07,0.0,32.60853140380278,70.0,0.0,255.0,0.0
29.850000000000282,35.695569713392985,51.28343210917758,1297.0012678550556,0.00011721426022859305,8.261582138402446e-06,0.0,-4.2069984829140594e-07,1.4360807654156815e-07,0.0,32.64839436414325,70.0,0.0,255.0,0.0
29.900000000000283,35.69557557358311,51.28343252243212,1297.0012673158199,0.00011719322526460019,8.268762485386105e-06,0.0,-4.206981429888401e-07,1.4360693967319094e-07,0.0,32.68824940143575,70.0,0.0,255.0,0.0
29.950000000000284,35.695581432721504,51.28343293604566,1297.0012667747214,0.00011717219041429416,8.275942832369765e-06,0.0,-4.206987114230287e-07,1.4360693967319094e-07,0.0,32.72809651568028,70.0,0.0,255.0,0.0
30.000000000000284,35.69558729080815,51.28343335001824,1297.0012662345544,0.00011715115539345788,8.283123179353424e-06,0.0,-4.2069984829140594e-07,1.4360693967319094e-07,0.0,32.76793570687684,70.0,0.0,255.0,0.0
30.050000000000285,35.695593147843034,51.283433764349844,1297.0012656925246,0.00011713012042946502,8.290303526337084e-06,0.0,-4.206987114230287e-07,1.4360693967319094e-07,0.0,32.80776697502541,70.0,0.0,255.0,0.0
30.100000000000286,35.69559900382619,51.28343417904045,1297.0012651532888,0.00011710908552231558,8.297483873320743e-06,0.0,-4.206975745546515e-07,1.4360693967319094e-07,0.0,32.847590320126024,70.0,0.0,255.0,0.0
30.150000000000286,35.695604858757584,51.28343459409008,1297.0012646121904,0.00011708805067200956,8.304664220304403e-06,0.0,-4.206981429888401e-07,1.4360807654156815e-07,0.0,32.88740574217866,70.0,0.0,255.0,0.0
30.200000000000287,35.69561071263725,51.28343500949872,1297.001264071092,0.0001170670157080167,8.3118446809749e-06,0.0,-4.2069984829140594e-07,1.4360921340994537e-07,0.0,32.927213241183324,70.0,0.0,255.0,0.0
30.250000000000288,35.695616565465144,51.2834354252664,1297.0012635318562,0.00011704598068718042,8.319025141645398e-06,0.0,-4.2069984829140594e-07,1.4360693967319094e-07,0.0,32.96701281714001,70.0,0.0,255.0,0.0
30.30000000000029,35.695622417241296,51.28343584139308,1297.0012629926205,0.00011702494572318756,8.32620537494222e-06,0.0,-4.2069927985721733e-07,1.4360693967319094e-07,0.0,33.00680447004873,70.0,0.0,255.0,0.0
30.35000000000029,35.695628267965695,51.28343625787879,1297.0012624524534,0.0001170039107591947,8.333385835612717e-06,0.0,-4.206987114230287e-07,1.4360921340994537e-07,0.0,33.04658819990947,70.0,0.0,255.0,0.0
30.40000000000029,35.69563411763837,51.283436674723525,1297.0012619104236,0.00011698287585204525,8.340566296283214e-06,0.0,-4.2069927985721733e-07,1.4360580280480017e-07,0.0,33.08636400672224,70.0,0.0,255.0,0.0
30.45000000000029,35.69563996625928,51.283437091927276,1297.0012613693252,0.00011696184083120897,8.347746415893198e-06,0.0,-4.2070041672559455e-07,1.4360580280480017e-07,0.0,33.126131890487045,70.0,0.0,255.0,0.0
30.50000000000029,35.695645813828435,51.28343750949003,1297.0012608310208,0.0001169408058103727,8.354926876563695e-06,0.0,-4.2069927985721733e-07,1.4360921340994537e-07,0.0,33.16589185120386,70.0,0.0,255.0,0.0
30.550000000000292,35.69565166034586,51.28343792741182,1297.0012602899224,0.00011691977090322325,8.362107337234193e-06,0.0,-4.206975745546515e-07,1.4360693967319094e-07,0.0,33.205643888872714,70.0,0.0,255.0,0.0
30.600000000000293,35.69565750581152,51.28343834569262,1297.0012597506866,0.00011689873605291723,8.369287570531014e-06,0.0,-4.206987114230287e-07,1.4360693967319094e-07,0.0,33.24538800349359,70.0,0.0,255.0,0.0
30.650000000000293,35.695663350225445,51.28343876433243,1297.0012592095882,0.00011687770103208095,8.376468031201512e-06,0.0,-4.2069927985721733e-07,1.4360807654156815e-07,0.0,33.285124195066494,70.0,0.0,255.0,0.0
30.700000000000294,35.695669193587605,51.283439183331275,1297.0012586712837,0.00011685666612493151,8.383648378185171e-06,0.0,-4.206987114230287e-07,1.4360693967319094e-07,0.0,33.32485246359143,70.0,0.0,255.0,0.0
30.750000000000295,35.69567503589803,51.283439602689135,1297.001258132048,0.00011683563116093865,8.39082872516883e-06,0.0,-4.2069927985721733e-07,1.4360807654156815e-07,0.0,33.364572809068385,70.0,0.0,255.0,0.0
30.800000000000296,35.69568087715671,51.28344002240602,1297.0012575909495,0.00011681459619694579,8.398009185839328e-06,0.0,-4.206987114230287e-07,1.4360807654156815e-07,0.0,33.40428523149737,70.0,0.0,255.0,0.0
30.850000000000296,35.69568671736363,51.283440442481925,1297.0012570535764,0.00011679356128979634,8.405189532822988e-06,0.0,-4.206981429888401e-07,1.4360580280481372e-07,0.0,33.44398973087838,70.0,0.0,255.0,0.0
30.900000000000297,35.695692556518814,51.283440862916834,1297.0012565143406,0.0001167725263826469,8.41236976611981e-06,0.0,-4.206987114230287e-07,1.4360693967319094e-07,0.0,33.48368630721142,70.0,0.0,255.0,0.0
30.950000000000298,35.69569839462225,51.283441283710765,1297.0012559751049,0.00011675149141865404,8.419550226790307e-06,0.0,-4.2070041672559455e-07,1.4360921340994537e-07,0.0,33.52337496049648,70.0,0.0,255.0,0.0
31.0000000000003,35.69570423167393,51.28344170486373,1297.001255435869,0.00011673045634097434,8.426730687460804e-06,0.0,-4.206998482911891e-07,1.4360693967319094e-07,0.0,33.56305569073358,70.0,0.0,255.0,0.0
31.0500000000003,35.695710067673865,51.28344212637571,1297.0012548947707,0.0001167094214338249,8.433910920757626e-06,0.0,-4.206992798570005e-07,1.4360580280480017e-07,0.0,33.60272849792269,70.0,0.0,255.0,0.0
31.1000000000003,35.69571590262205,51.283442548246704,1297.0012543564662,0.00011668838641298862,8.441091267741285e-06,0.0,-4.2069927985721733e-07,1.436080765415546e-07,0.0,33.642393382063844,70.0,0.0,255.0,0.0
31.1500000000003,35.69572173651849,51.28344297047672,1297.0012538172305,0.00011666735150583918,8.448271728411783e-06,0.0,-4.206975745546515e-07,1.4360807654156815e-07,0.0,33.682050343157016,70.0,0.0,255.0,0.0
31.2000000000003,35.695727569363186,51.28344339306575,1297.001253278926,0.00011664631665553316,8.455452075395442e-06,0.0,-4.206987114230287e-07,1.4360693967319094e-07,0.0,33.721699381202214,70.0,0.0,255.0,0.0
31.250000000000302,35.69573340115613,51.28344381601381,1297.0012527396902,0.00011662528163469688,8.462632422379102e-06,0.0,-4.2070041672559455e-07,1.4360807654156815e-07,0.0,33.761340496199445,70.0,0.0,255.0,0.0
31.300000000000303,35.69573923189731,51.28344423932088,1297.0012522023171,0.0001166042466138606,8.469812883049599e-06,0.0,-4.2069927985721733e-07,1.4360807654156815e-07,0.0,33.800973688148694,70.0,0.0,255.0,0.0
31.350000000000303,35.695745061586756,51.283444662986966,1297.00125166215,0.00011658321170671115,8.476993230033258e-06,0.0,-4.206981429888401e-07,1.4360693967319094e-07,0.0,33.84059895704998,70.0,0.0,255.0,0.0
31.400000000000304,35.695750890224474,51.28344508701208,1297.0012511229143,0.00011656217679956171,8.484173577016918e-06,0.0,-4.2069927985721733e-07,1.4360693967319094e-07,0.0,33.880216302903285,70.0,0.0,255.0,0.0
31.450000000000305,35.695756717810426,51.28344551139621,1297.0012505846098,0.00011654114177872543,8.491353924000578e-06,0.0,-4.2069927985721733e-07,1.4360693967319094e-07,0.0,33.91982572570862,70.0,0.0,255.0,0.0
31.500000000000306,35.69576254434461,51.28344593613936,1297.0012500463054,0.00011652010687157599,8.498534270984237e-06,0.0,-4.206981429888401e-07,1.4360693967319094e-07,0.0,33.95942722546597,70.0,0.0,255.0,0.0
31.550000000000306,35.69576836982708,51.28344636124152,1297.0012495070696,0.00011649907196442655,8.505714617967897e-06,0.0,-4.2069927985721733e-07,1.4360807654156815e-07,0.0,33.99902080217537,70.0,0.0,255.0,0.0
31.600000000000307,35.69577419425779,51.283446786702726,1297.0012489678338,0.00011647803694359027,8.512895078638394e-06,0.0,-4.2069927985721733e-07,1.4360921340994537e-07,0.0,34.038606455836785,70.0,0.0,255.0,0.0
31.650000000000308,35.69578001763675,51.28344721252293,1297.001248428598,0.00011645700203644083,8.520075539308891e-06,0.0,-4.206981429888401e-07,1.4360693967319094e-07,0.0,34.07818418645023,70.0,0.0,255.0,0.0
31.70000000000031,35.69578583996396,51.28344763870216,1297.0012478902936,0.00011643596712929138,8.527255772605713e-06,0.0,-4.2069927985721733e-07,1.4360580280481372e-07,0.0,34.11775399401569,70.0,0.0,255.0,0.0
31.75000000000031,35.695791661239426,51.283448065240385,1297.0012473538518,0.0001164149321084551,8.534436119589373e-06,0.0,-4.2069984829140594e-07,1.4360693967317738e-07,0.0,34.15731587853319,70.0,0.0,255.0,0.0
31.80000000000031,35.69579748146314,51.28344849213766,1297.0012468155473,0.00011639389714446224,8.541616466573032e-06,0.0,-4.2069927985721733e-07,1.436080765415546e-07,0.0,34.19686984000271,70.0,0.0,255.0,0.0
31.85000000000031,35.695803300635106,51.28344891939394,1297.0012462763116,0.00011637286218046938,8.54879692724353e-06,0.0,-4.206987114230287e-07,1.4360921340994537e-07,0.0,34.23641587842426,70.0,0.0,255.0,0.0
31.90000000000031,35.695809118755335,51.28344934700924,1297.0012457380071,0.00011635182727331994,8.555977387914027e-06,0.0,-4.206981429888401e-07,1.4360693967319094e-07,0.0,34.27595399379784,70.0,0.0,255.0,0.0
31.950000000000312,35.695814935823805,51.28344977498357,1297.001245200634,0.0001163307923661705,8.563157621210848e-06,0.0,-4.2069927985721733e-07,1.436046659364365e-07,-1.8189894035458306e-11,34.31548418612344,70.0,0.0,255.0,0.0
32.00000000000031,35.695820751840536,51.28345020331691,1297.0012446632609,0.00011630975734533422,8.57033785450767e-06,-1.8189894035458565e-12,-4.2069984829140594e-07,1.4360580280481372e-07,2.5849394142283217e-24,34.355006455401075,70.0,0.0,255.0,0.0
32.05000000000031,35.6958265668055,51.28345063200926,1297.0012441249564,0.00011628872238134136,8.57751820149133e-06,0.0,-4.2069984829140594e-07,1.4360921340994537e-07,1.818989403546089e-11,34.394520801630726,70.0,0.0,255.0,0.0
32.100000000000314,35.695832380718734,51.28345106106064,1297.001243586652,0.00011626768736050508,8.584698775848665e-06,0.0,-4.2069927985721733e-07,1.4361035027830903e-07,0.0,34.43402722481241,70.0,0.0,255.0,0.0
32.15000000000032,35.69583819358021,51.28345149047104,1297.0012430502102,0.00011624665245335564,8.591879236519162e-06,0.0,-4.206981429888401e-07,1.4360693967319094e-07,0.0,34.47352572494613,70.0,0.0,255.0,0.0
32.200000000000315,35.69584400538994,51.28345192024046,1297.0012425119057,0.0001162256175462062,8.599059469815984e-06,0.0,-4.206981429888401e-07,1.4360580280482727e-07,0.0,34.513016302031865,70.0,0.0,255.0,0.0
32.25000000000031,35.69584981614793,51.2834523503689,1297.0012419745326,0.00011620458263905675,8.606239816799643e-06,0.0,-4.206992798574342e-07,1.4360693967317738e-07,0.0,34.55249895606962,70.0,0.0,255.0,0.0
32.30000000000032,35.695855625854165,51.28345278085636,1297.0012414352968,0.00011618354761822047,8.613420163783303e-06,0.0,-4.2069984829140594e-07,1.436080765415546e-07,0.0,34.591973687059415,70.0,0.0,255.0,0.0
32.35000000000032,35.69586143450865,51.283453211702835,1297.0012408997864,0.00011616251265422761,8.6206006244538e-06,0.0,-4.206987114230287e-07,1.4360807654156815e-07,0.0,34.63144049500124,70.0,0.0,255.0,0.0
32.40000000000032,35.69586724211139,51.28345364290831,1297.001240361482,0.00011614147774707817,8.62778097143746e-06,0.0,-4.2069814298905696e-07,1.4360693967319094e-07,0.0,34.670899379895076,70.0,0.0,255.0,0.0
32.450000000000315,35.69587304866239,51.28345407447284,1297.0012398241088,0.00011612044283992873,8.63496131842112e-06,0.0,-4.2069927985721733e-07,1.4360693967319094e-07,0.0,34.71035034174095,70.0,0.0,255.0,0.0
32.50000000000032,35.69587885416165,51.28345450639637,1297.0012392858043,0.00011609940781909245,8.642141665404779e-06,0.0,-4.206998482911891e-07,1.436080765415546e-07,0.0,34.74979338053885,70.0,0.0,255.0,0.0
32.550000000000324,35.695884658609124,51.28345493867893,1297.0012387493625,0.00011607837285509959,8.649322126075276e-06,0.0,-4.206981429886233e-07,1.4360693967319094e-07,0.0,34.78922849628878,70.0,0.0,255.0,0.0
32.60000000000032,35.69589046200489,51.2834553713205,1297.0012382119894,0.00011605733800479356,8.656502359372098e-06,0.0,-4.206981429888401e-07,1.4360693967319094e-07,0.0,34.82865568899073,70.0,0.0,255.0,0.0
32.65000000000032,35.695896264348875,51.28345580432108,1297.0012376746163,0.0001160363030408007,8.663682820042595e-06,0.0,-4.2069984829140594e-07,1.4360921340994537e-07,0.0,34.86807495864471,70.0,0.0,255.0,0.0
32.70000000000032,35.695902065641135,51.283456237680696,1297.0012371381745,0.00011601526801996442,8.670863280713093e-06,0.0,-4.2070041672559455e-07,1.4360693967317738e-07,0.0,34.907486305250714,70.0,0.0,255.0,0.0
32.75000000000033,35.695907865881644,51.28345667139933,1297.0012366008013,0.00011599423299912814,8.678043514009914e-06,0.0,-4.206987114230287e-07,1.4360580280481372e-07,0.0,34.94688972880875,70.0,0.0,255.0,0.0
32.800000000000324,35.69591366507039,51.28345710547697,1297.0012360643595,0.00011597319814882212,8.685223860993574e-06,0.0,-4.206987114230287e-07,1.436080765415817e-07,0.0,34.98628522931882,70.0,0.0,255.0,0.0
32.85000000000032,35.69591946320741,51.28345753991364,1297.0012355279177,0.00011595216312798584,8.692404321664071e-06,0.0,-4.2069984829140594e-07,1.4360807654156815e-07,0.0,35.0256728067809,70.0,0.0,255.0,0.0
32.900000000000325,35.69592526029266,51.283457974709336,1297.0012349905446,0.00011593112816399298,8.69958466864773e-06,0.0,-4.206987114230287e-07,1.4360693967317738e-07,0.0,35.065052461195016,70.0,0.0,255.0,0.0
32.95000000000033,35.69593105632618,51.28345840986403,1297.0012344531715,0.00011591009325684354,8.70676501563139e-06,0.0,-4.206981429886233e-07,1.4360580280480017e-07,0.0,35.104424192561154,70.0,0.0,255.0,0.0
33.00000000000033,35.69593685130795,51.28345884537775,1297.0012339157984,0.0001158890583496941,8.713945248928212e-06,0.0,-4.206987114230287e-07,1.436080765415817e-07,0.0,35.143788000879326,70.0,0.0,255.0,0.0
33.050000000000324,35.69594264523797,51.283459281250494,1297.0012333812192,0.00011586802338570124,8.721125823285547e-06,0.0,-4.2069984829140594e-07,1.4360921340994537e-07,0.0,35.18314388614951,70.0,0.0,255.0,0.0
33.10000000000033,35.69594843811623,51.28345971748227,1297.0012328429148,0.00011584698836486496,8.728306170269207e-06,0.0,-4.206998482911891e-07,1.4360693967317738e-07,0.0,35.22249184837174,70.0,0.0,255.0,0.0
33.15000000000033,35.69595422994275,51.28346015407304,1297.001232309267,0.0001158259534008721,8.735486517252866e-06,0.0,-4.206975745546515e-07,1.4360807654156815e-07,0.0,35.261831887545995,70.0,0.0,255.0,0.0
33.20000000000033,35.69596002071752,51.283460591022845,1297.0012317709625,0.00011580491860740949,8.742666977923363e-06,0.0,-4.206975745546515e-07,1.436069396732045e-07,0.0,35.30116400367226,70.0,0.0,255.0,0.0
33.25000000000033,35.69596581044057,51.28346102833167,1297.001231235452,0.00011578388364341663,8.749847211220185e-06,0.0,-4.2070098515978316e-07,1.4360580280481372e-07,0.0,35.34048819675056,70.0,0.0,255.0,0.0
33.30000000000033,35.69597159911184,51.28346146599951,1297.0012306980789,0.00011576284850889351,8.757027558203845e-06,0.0,-4.2070041672559455e-07,1.4360921340993182e-07,0.0,35.37980446678089,70.0,0.0,255.0,0.0
33.350000000000335,35.695977386731364,51.28346190402636,1297.0012301625684,0.00011574181360174407,8.76420813256118e-06,0.0,-4.206987114228119e-07,1.4360921340994537e-07,0.0,35.41911281376325,70.0,0.0,255.0,0.0
33.40000000000033,35.695983173299155,51.28346234241225,1297.001229627058,0.00011572077863775121,8.77138847954484e-06,0.0,-4.206981429888401e-07,1.436046659364365e-07,0.0,35.45841323769763,70.0,0.0,255.0,0.0
33.45000000000033,35.69598895881518,51.283462781157155,1297.001229090616,0.00011569974378744519,8.778568599154823e-06,0.0,-4.2069871142324557e-07,1.4360580280481372e-07,0.0,35.49770573858404,70.0,0.0,255.0,0.0
33.500000000000334,35.69599474327947,51.28346322026106,1297.0012285541743,0.0001156787087666089,8.78574905982532e-06,0.0,-4.2069984829140594e-07,1.4360921340993182e-07,0.0,35.53699031642247,70.0,0.0,255.0,0.0
33.55000000000034,35.696000526692,51.28346365972399,1297.0012280186638,0.00011565767380261605,8.792929520495818e-06,0.0,-4.206987114230287e-07,1.436080765415546e-07,0.0,35.57626697121294,70.0,0.0,255.0,0.0
33.600000000000335,35.6960063090528,51.283464099545945,1297.001227482222,0.0001156366388954666,8.800109867479478e-06,0.0,-4.206987114230287e-07,1.4360693967319094e-07,0.0,35.615535702955434,70.0,0.0,255.0,0.0
33.65000000000033,35.69601209036183,51.283464539726936,1297.0012269457802,0.00011561560393147374,8.807290214463137e-06,0.0,-4.206987114230287e-07,1.4360693967319094e-07,0.0,35.65479651164995,70.0,0.0,255.0,0.0
33.70000000000034,35.69601787061912,51.28346498026693,1297.001226411201,0.0001155945690243243,8.814470561446797e-06,0.0,-4.206992798570005e-07,1.4360693967317738e-07,0.0,35.69404939729649,70.0,0.0,255.0,0.0
33.75000000000034,35.69602364982469,51.28346542116593,1297.0012258747593,0.00011557353400348802,8.821650908430456e-06,0.0,-4.2069984829140594e-07,1.4360807654156815e-07,0.0,35.73329435989506,70.0,0.0,255.0,0.0
33.80000000000034,35.69602942797847,51.28346586242397,1297.0012253392488,0.00011555249903949516,8.828831369100953e-06,0.0,-4.206987114230287e-07,1.436080765415817e-07,0.0,35.77253139944566,70.0,0.0,255.0,0.0
33.850000000000335,35.696035205080534,51.28346630404102,1297.0012248037383,0.00011553146413234572,8.836011716084613e-06,0.0,-4.2069871142324557e-07,1.4360693967319094e-07,0.0,35.81176051594828,70.0,0.0,255.0,0.0
33.90000000000034,35.69604098113083,51.28346674601708,1297.0012242682278,0.00011551042916835286,8.843192063068273e-06,0.0,-4.206987114230287e-07,1.436080765415546e-07,0.0,35.85098170940294,70.0,0.0,255.0,0.0
33.950000000000344,35.696046756129384,51.283467188352176,1297.0012237336487,0.00011548939426120342,8.85037252373877e-06,0.0,-4.206987114230287e-07,1.4360807654156815e-07,0.0,35.890194979809614,70.0,0.0,255.0,0.0
34.00000000000034,35.6960525300762,51.283467631046285,1297.0012231972069,0.00011546835929721055,8.85755287072243e-06,0.0,-4.2069927985721733e-07,1.4360580280482727e-07,0.0,35.929400327168324,70.0,0.0,255.0,0.0
34.05000000000034,35.69605830297125,51.28346807409942,1297.0012226626277,0.0001154473243332177,8.864733104019251e-06,0.0,-4.2069927985721733e-07,1.4360580280481372e-07,0.0,35.968597751479045,70.0,0.0,255.0,0.0
34.10000000000034,35.696064074814565,51.283468517511565,1297.0012221271172,0.00011542628936922483,8.87191345100291e-06,0.0,-4.2069927985721733e-07,1.4360921340993182e-07,0.0,36.007787252741814,70.0,0.0,255.0,0.0
34.15000000000035,35.69606984560613,51.28346896128272,1297.001221592538,0.00011540525440523197,8.879094025360246e-06,0.0,-4.2069927985721733e-07,1.4360921340994537e-07,0.0,36.0469688309566,70.0,0.0,255.0,0.0
34.200000000000344,35.69607561534594,51.283469405412916,1297.0012210560963,0.00011538421944123911,8.886274372343905e-06,0.0,-4.2069871142324557e-07,1.4360580280482727e-07,0.0,36.08614248612341,70.0,0.0,255.0,0.0
34.25000000000034,35.69608138403401,51.28346984990212,1297.001220521517,0.00011536318453408967,8.893454605640727e-06,0.0,-4.206987114230287e-07,1.4360580280480017e-07,0.0,36.125308218242246,70.0,0.0,255.0,0.0
34.300000000000345,35.69608715167034,51.283470294750344,1297.001219986938,0.00011534214957009681,8.900634952624387e-06,0.0,-4.206998482911891e-07,1.4360807654156815e-07,0.0,36.16446602731311,70.0,0.0,255.0,0.0
34.35000000000035,35.6960929182549,51.283470739957586,1297.0012194514275,0.00011532111454926053,8.907815413294884e-06,0.0,-4.2069871142324557e-07,1.4360807654156815e-07,0.0,36.203615913336016,70.0,0.0,255.0,0.0
34.40000000000035,35.69609868378773,51.28347118552385,1297.0012189168483,0.0001153000796989545,8.914995760278543e-06,0.0,-4.206981429888401e-07,1.4360807654156815e-07,0.0,36.242757876310925,70.0,0.0,255.0,0.0
34.450000000000344,35.6961044482688,51.28347163144913,1297.0012183832005,0.00011527904473496164,8.92217622094904e-06,0.0,-4.2069984829140594e-07,1.4360807654156815e-07,0.0,36.28189191623788,70.0,0.0,255.0,0.0
34.50000000000035,35.69611021169813,51.28347207773344,1297.0012178467587,0.00011525800971412536,8.9293565679327e-06,0.0,-4.2069927985721733e-07,1.4360580280480017e-07,0.0,36.32101803311686,70.0,0.0,255.0,0.0
34.55000000000035,35.696115974075695,51.283472524376755,1297.0012173131108,0.00011523697480697592,8.936536801229522e-06,0.0,-4.206987114228119e-07,1.4360693967319094e-07,0.0,36.36013622694785,70.0,0.0,255.0,0.0
34.60000000000035,35.69612173540153,51.28347297137909,1297.0012167776003,0.00011521593984298306,8.94371726190002e-06,0.0,-4.2069984829140594e-07,1.4360807654156815e-07,0.0,36.39924649773088,70.0,0.0,255.0,0.0
34.65000000000035,35.69612749567562,51.283473418740456,1297.0012162448838,0.00011519490482214678,8.950897608883679e-06,0.0,-4.206981429888401e-07,1.4360693967319094e-07,0.0,36.43834884546594,70.0,0.0,255.0,0.0
34.70000000000035,35.69613325489795,51.28347386646083,1297.0012157093734,0.00011517387002868418,8.958077955867338e-06,0.0,-4.206975745546515e-07,1.436080765415546e-07,0.0,36.477443270153024,70.0,0.0,255.0,0.0
34.750000000000355,35.69613901306855,51.28347431454022,1297.0012151757255,0.00011515283506469132,8.965258416537836e-06,0.0,-4.2070041672559455e-07,1.4360807654156815e-07,0.0,36.51652977179213,70.0,0.0,255.0,0.0
34.80000000000035,35.69614477018739,51.28347476297865,1297.001214640215,0.00011513179998701162,8.972438763521495e-06,0.0,-4.2069984829140594e-07,1.436069396732045e-07,0.0,36.55560835038327,70.0,0.0,255.0,0.0
34.85000000000035,35.69615052625448,51.283475211776086,1297.0012141074985,0.00011511076507986218,8.979619110505155e-06,0.0,-4.206981429888401e-07,1.4360693967317738e-07,0.0,36.59467900592642,70.0,0.0,255.0,0.0
34.900000000000354,35.69615628126982,51.28347566093253,1297.001213571988,0.00011508973017271273,8.986799457488814e-06,0.0,-4.206992798570005e-07,1.436080765415546e-07,0.0,36.63374173842162,70.0,0.0,255.0,0.0
34.95000000000036,35.69616203523342,51.28347611044801,1297.0012130392715,0.00011506869515187645,8.993979918159312e-06,0.0,-4.206992798570005e-07,1.4360807654156815e-07,0.0,36.672796547868835,70.0,0.0,255.0,0.0
35.000000000000355,35.69616778814527,51.283476560322505,1297.0012125056237,0.00011504766024472701,9.001160265142971e-06,0.0,-4.206987114230287e-07,1.4360580280482727e-07,0.0,36.711843434268076,70.0,0.0,255.0,0.0
35.05000000000035,35.69617354000537,51.283477010556005,1297.0012119710445,0.00011502662528073415,9.008340498439793e-06,0.0,-4.2069927985721733e-07,1.4360693967319094e-07,0.0,36.750882397619336,70.0,0.0,255.0,0.0
35.10000000000036,35.69617929081371,51.28347746114854,1297.0012114364654,0.00011500559031674129,9.01552095911029e-06,0.0,-4.2069927985721733e-07,1.436080765415546e-07,0.0,36.78991343792264,70.0,0.0,255.0,0.0
35.15000000000036,35.69618504057032,51.283477912100096,1297.0012109046802,0.00011498455535274843,9.02270130609395e-06,0.0,-4.2069927985721733e-07,1.4360693967319094e-07,0.0,36.82893655517797,70.0,0.0,255.0,0.0
35.20000000000036,35.69619078927517,51.28347836341067,1297.0012103691697,0.00011496352038875557,9.02988165307761e-06,0.0,-4.206987114230287e-07,1.436080765415817e-07,0.0,36.86795174938531,70.0,0.0,255.0,0.0
35.250000000000355,35.696196536928284,51.28347881508026,1297.0012098364532,0.00011494248548160613,9.037062113748107e-06,0.0,-4.206992798570005e-07,1.4360807654156815e-07,0.0,36.90695902054469,70.0,0.0,255.0,0.0
35.30000000000036,35.69620228352964,51.283479267108866,1297.0012093028054,0.00011492145046076985,9.044242460731766e-06,0.0,-4.2069927985721733e-07,1.4360693967319094e-07,0.0,36.94595836865609,70.0,0.0,255.0,0.0
35.350000000000364,35.696208029079266,51.2834797194965,1297.0012087682262,0.0001149004155536204,9.051422807715426e-06,0.0,-4.206981429888401e-07,1.4360807654156815e-07,0.0,36.98494979371953,70.0,0.0,255.0,0.0
35.40000000000036,35.69621377357712,51.28348017224313,1297.0012082355097,0.00011487938064647096,9.058603268385923e-06,0.0,-4.206987114230287e-07,1.4360807654156815e-07,0.0,37.02393329573498,70.0,0.0,255.0,0.0
35.45000000000036,35.69621951702323,51.28348062534881,1297.0012077027932,0.0001148583456824781,9.065783615369583e-06,0.0,-4.2069814298905696e-07,1.4360580280480017e-07,0.0,37.06290887470247,70.0,0.0,255.0,0.0
35.50000000000036,35.69622525941761,51.283481078813494,1297.001207168214,0.00011483731083217208,9.072963848666404e-06,0.0,-4.206992798570005e-07,1.4360580280480017e-07,0.0,37.10187653062198,70.0,0.0,255.0,0.0
35.55000000000037,35.696231000760235,51.2834815326372,1297.0012066345662,0.00011481627575449238,9.080144195650064e-06,0.0,-4.2069984829140594e-07,1.436080765415817e-07,0.0,37.14083626349352,70.0,0.0,255.0,0.0
35.600000000000364,35.69623674105111,51.28348198681993,1297.0012061018497,0.00011479524084734294,9.087324656320561e-06,0.0,-4.206987114230287e-07,1.4360807654156815e-07,0.0,37.179788073317084,70.0,0.0,255.0,0.0
35.65000000000036,35.69624248029023,51.28348244136166,1297.0012055691332,0.00011477420588335008,9.09450500330422e-06,0.0,-4.2069927985721733e-07,1.4360693967317738e-07,0.0,37.218731960092676,70.0,0.0,255.0,0.0
35.700000000000365,35.696248218477606,51.28348289626242,1297.0012050364166,0.00011475317091935722,9.10168535028788e-06,0.0,-4.2069927985721733e-07,1.4360921340993182e-07,0.0,37.2576679238203,70.0,0.0,255.0,0.0
35.75000000000037,35.696253955613244,51.28348335152221,1297.0012045037001,0.00011473213595536436,9.108865924645215e-06,0.0,-4.2069927985721733e-07,1.4360807654156815e-07,0.0,37.29659596449995,70.0,0.0,255.0,0.0
35.80000000000037,35.696259691697115,51.283483807141,1297.0012039700523,0.0001147111009913715,9.116046157942037e-06,0.0,-4.2069927985721733e-07,1.4360466593645006e-07,0.0,37.33551608213162,70.0,0.0,255.0,0.0
35.850000000000364,35.69626542672925,51.28348426311882,1297.001203438267,0.00011469006602737863,9.123226391238859e-06,0.0,-4.206998482916228e-07,1.4360807654156815e-07,0.0,37.374428276715314,70.0,0.0,255.0,0.0
35.90000000000037,35.69627116070964,51.283484719455664,1297.001202903688,0.00011466903100654235,9.130406965596194e-06,0.0,-4.2069927985721733e-07,1.4360921340993182e-07,0.0,37.41333254825105,70.0,0.0,255.0,0.0
35.95000000000037,35.69627689363827,51.28348517615153,1297.001202372834,0.00011464799609939291,9.137587312579853e-06,0.0,-4.206975745546515e-07,1.4360580280481372e-07,0.0,37.45222889673881,70.0,0.0,255.0,0.0
36.00000000000037,35.69628262551516,51.283485633206396,1297.0012018391863,0.00011462696124908689,9.144767545876675e-06,0.0,-4.2069871142324557e-07,1.436069396732045e-07,0.0,37.49111732217858,70.0,0.0,255.0,0.0
36.05000000000037,35.6962883563403,51.28348609062029,1297.001201307401,0.00011460592622825061,9.151948006547173e-06,0.0,-4.2069984829140594e-07,1.4360807654156815e-07,0.0,37.52999782457038,70.0,0.0,255.0,0.0
36.10000000000037,35.696294086113696,51.28348654839321,1297.0012007718906,0.00011458489126425775,9.159128353530832e-06,0.0,-4.206992798570005e-07,1.4360693967317738e-07,0.0,37.56887040391422,70.0,0.0,255.0,0.0
36.150000000000375,35.696299814835335,51.28348700652514,1297.001200241968,0.00011456385630026489,9.166308700514492e-06,0.0,-4.206987114230287e-07,1.4360807654156815e-07,0.0,37.60773506021009,70.0,0.0,255.0,0.0
36.20000000000037,35.69630554250523,51.2834874650161,1297.0011997092515,0.00011454282139311545,9.173489161184989e-06,0.0,-4.206975745546515e-07,1.436080765415817e-07,0.0,37.646591793457965,70.0,0.0,255.0,0.0
36.25000000000037,35.69631126912338,51.283487923866076,1297.001199176535,0.00011452178654280942,9.180669508168648e-06,0.0,-4.206987114230287e-07,1.4360693967317738e-07,0.0,37.68544060365788,70.0,0.0,255.0,0.0
36.300000000000374,35.696316994689795,51.28348838307507,1297.0011986438185,0.00011450075152197314,9.187849855152308e-06,0.0,-4.2070041672559455e-07,1.4360693967317738e-07,0.0,37.72428149080982,70.0,0.0,255.0,0.0
36.35000000000038,35.69632271920444,51.28348884264308,1297.0011981120333,0.00011447971650113686,9.195030202135968e-06,0.0,-4.206992798574342e-07,1.4360693967319094e-07,0.0,37.7631144549138,70.0,0.0,255.0,0.0
36.400000000000375,35.69632844266735,51.28348930257011,1297.0011975811794,0.00011445868159398742,9.202210549119627e-06,0.0,-4.2069927985721733e-07,1.4360693967319094e-07,0.0,37.80193949596979,70.0,0.0,255.0,0.0
36.45000000000037,35.69633416507851,51.28348976285615,1297.001197048463,0.00011443764657315114,9.209390896103287e-06,0.0,-4.2069927985721733e-07,1.4360807654156815e-07,0.0,37.84075661397782,70.0,0.0,255.0,0.0
36.50000000000038,35.69633988643791,51.283490223501225,1297.0011965157464,0.0001144166116660017,9.216571356773784e-06,0.0,-4.206981429888401e-07,1.436080765415546e-07,0.0,37.87956580893786,70.0,0.0,255.0,0.0
36.55000000000038,35.696345606745574,51.28349068450532,1297.0011959848925,0.00011439557675885226,9.223751703757443e-06,0.0,-4.206987114228119e-07,1.4360693967319094e-07,0.0,37.91836708084994,70.0,0.0,255.0,0.0
36.60000000000038,35.69635132600149,51.283491145868425,1297.0011954531074,0.0001143745417948594,9.230932050741103e-06,0.0,-4.2069984829140594e-07,1.4360693967319094e-07,0.0,37.957160429714044,70.0,0.0,255.0,0.0
36.650000000000375,35.69635704420565,51.28349160759055,1297.0011949213222,0.00011435350677402312,9.238112397724763e-06,0.0,-4.2069984829140594e-07,1.4360807654156815e-07,0.0,37.995945855530174,70.0,0.0,255.0,0.0
36.70000000000038,35.69636276135808,51.283492069671695,1297.0011943876743,0.00011433247181003026,9.24529285839526e-06,0.0,-4.206987114228119e-07,1.436080765415546e-07,0.0,38.034723358298336,70.0,0.0,255.0,0.0
36.750000000000384,35.69636847745874,51.283492532111865,1297.0011938577518,0.00011431143690288081,9.25247320537892e-06,0.0,-4.206981429888401e-07,1.4360693967319094e-07,0.0,38.07349293801852,70.0,0.0,255.0,0.0
36.80000000000038,35.69637419250766,51.28349299491105,1297.0011933259666,0.00011429040199573137,9.259653552362579e-06,0.0,-4.206987114230287e-07,1.436069396732045e-07,0.0,38.112254594690725,70.0,0.0,255.0,0.0
36.85000000000038,35.696379906504845,51.283493458069245,1297.0011927923188,0.00011426936703173851,9.266833899346238e-06,0.0,-4.2069927985721733e-07,1.4360693967317738e-07,0.0,38.15100832831496,70.0,0.0,255.0,0.0
36.90000000000038,35.69638561945027,51.28349392158647,1297.0011922633275,0.00011424833206774565,9.274014246329898e-06,0.0,-4.2069984829140594e-07,1.436080765415546e-07,0.0,38.18975413889123,70.0,0.0,255.0,0.0
36.95000000000039,35.69639133134394,51.28349438546272,1297.0011917315423,0.00011422729704690937,9.281194707000395e-06,0.0,-4.206992798570005e-07,1.436080765415817e-07,0.0,38.228492026419524,70.0,0.0,255.0,0.0
37.000000000000384,35.69639704218587,51.28349484969797,1297.0011911997572,0.00011420626213975993,9.288375053984055e-06,0.0,-4.206981429888401e-07,1.436069396732045e-07,0.0,38.267221990899834,70.0,0.0,255.0,0.0
37.05000000000038,35.69640275197606,51.28349531429225,1297.0011906689033,0.00011418522723261049,9.295555400967714e-06,0.0,-4.206987114230287e-07,1.4360580280480017e-07,0.0,38.30594403233217,70.0,0.0,255.0,0.0
37.100000000000385,35.6964084607145,51.283495779245555,1297.0011901380494,0.00011416419226861763,9.302735634264536e-06,0.0,-4.2069927985721733e-07,1.4360693967317738e-07,0.0,38.344658150716555,70.0,0.0,255.0,0.0
37.15000000000039,35.69641416840118,51.28349624455787,1297.001189605333,0.00011414315730462476,9.309916094935033e-06,0.0,-4.2069927985721733e-07,1.4360921340994537e-07,0.0,38.38336434605296,70.0,0.0,255.0,0.0
37.20000000000039,35.69641987503612,51.28349671022921,1297.0011890763417,0.0001141221223406319,9.31709655560553e-06,0.0,-4.206987114230287e-07,1.436080765415817e-07,0.0,38.42206261834138,70.0,0.0,255.0,0.0
37.250000000000384,35.69642558061931,51.283497176259566,1297.0011885445565,0.00011410108743348246,9.32427690258919e-06,0.0,-4.206992798570005e-07,1.4360693967319094e-07,0.0,38.460752967581826,70.0,0.0,255.0,0.0
37.30000000000039,35.69643128515076,51.283497642648946,1297.0011880127713,0.00011408005241264618,9.33145724957285e-06,0.0,-4.207004167253777e-07,1.4360693967317738e-07,0.0,38.499435393774306,70.0,0.0,255.0,0.0
37.35000000000039,35.69643698863044,51.28349810939735,1297.0011874828488,0.0001140590173918099,9.33863759655651e-06,0.0,-4.206987114230287e-07,1.4360693967319094e-07,0.0,38.53810989691882,70.0,0.0,255.0,0.0
37.40000000000039,35.696442691058394,51.283498576504755,1297.0011869510636,0.00011403798254150388,9.345817943540169e-06,0.0,-4.206981429888401e-07,1.4360807654156815e-07,0.0,38.57677647701535,70.0,0.0,255.0,0.0
37.45000000000039,35.6964483924346,51.28349904397118,1297.001186421141,0.00011401694757751102,9.352998404210666e-06,0.0,-4.206998482916228e-07,1.436080765415546e-07,0.0,38.61543513406391,70.0,0.0,255.0,0.0
37.50000000000039,35.69645409275904,51.28349951179664,1297.0011858902872,0.00011399591255667474,9.360178751194326e-06,0.0,-4.206987114230287e-07,1.4360693967317738e-07,0.0,38.6540858680645,70.0,0.0,255.0,0.0
37.550000000000395,35.696459792031746,51.283499979981116,1297.0011853594333,0.00011397487770636872,9.367359098177985e-06,0.0,-4.206987114230287e-07,1.4360580280482727e-07,0.0,38.69272867901711,70.0,0.0,255.0,0.0
37.60000000000039,35.6964654902527,51.283500448524606,1297.0011848285794,0.00011395384268553244,9.374539331474807e-06,0.0,-4.2069927985721733e-07,1.4360693967319094e-07,0.0,38.73136356692176,70.0,0.0,255.0,0.0
37.65000000000039,35.696471187421906,51.28350091742711,1297.0011842986569,0.000113932807778383,9.381719792145304e-06,0.0,-4.206987114230287e-07,1.4360921340993182e-07,0.0,38.76999053177842,70.0,0.0,255.0,0.0
37.700000000000394,35.69647688353936,51.28350138668864,1297.001183767803,0.00011391177281439013,9.388900252815802e-06,0.0,-4.206987114230287e-07,1.436080765415546e-07,0.0,38.80860957358712,70.0,0.0,255.0,0.0
37.7500000000004,35.69648257860508,51.283501856309194,1297.0011832378805,0.00011389073790724069,9.396080599799461e-06,0.0,-4.206981429888401e-07,1.436080765415546e-07,0.0,38.84722069234784,70.0,0.0,255.0,0.0
37.800000000000395,35.69648827261906,51.28350232628877,1297.0011827060953,0.00011386970300009125,9.403261060469958e-06,0.0,-4.206992798574342e-07,1.436080765415817e-07,0.0,38.885823888060585,70.0,0.0,255.0,0.0
37.85000000000039,35.69649396558126,51.283502796627346,1297.0011821780354,0.00011384866797925497,9.410441407453618e-06,0.0,-4.207004167258114e-07,1.436069396732045e-07,0.0,38.92441916072536,70.0,0.0,255.0,0.0
37.9000000000004,35.69649965749172,51.28350326732496,1297.0011816481128,0.00011382763295841869,9.417621754437278e-06,0.0,-4.2069927985721733e-07,1.4360580280480017e-07,0.0,38.96300651034216,70.0,0.0,255.0,0.0
37.9500000000004,35.69650534835045,51.28350373838158,1297.001181117259,0.00011380659805126925,9.4248019877341e-06,0.0,-4.206981429888401e-07,1.4360693967317738e-07,0.0,39.001585936911,70.0,0.0,255.0,0.0
38.0000000000004,35.69651103815742,51.28350420979723,1297.0011805873364,0.0001137855631441198,9.431982448404597e-06,0.0,-4.2069927985721733e-07,1.436080765415817e-07,0.0,39.04015744043185,70.0,0.0,255.0,0.0
38.050000000000395,35.69651672691264,51.28350468157189,1297.0011800574139,0.00011376452812328353,9.439162795388256e-06,0.0,-4.2069984829140594e-07,1.4360693967319094e-07,0.0,39.07872102090473,70.0,0.0,255.0,0.0
38.1000000000004,35.69652241461612,51.283505153705576,1297.00117952656,0.00011374349315929067,9.446343142371916e-06,0.0,-4.2069927985721733e-07,1.436080765415546e-07,0.0,39.11727667832964,70.0,0.0,255.0,0.0
38.150000000000404,35.696528101267845,51.28350562619828,1297.0011789975688,0.0001137224581952978,9.453523603042413e-06,0.0,-4.206987114230287e-07,1.4360693967319094e-07,0.0,39.15582441270658,70.0,0.0,255.0,0.0
38.2000000000004,35.696533786867825,51.28350609905,1297.001178466715,0.00011370142328814836,9.460703836339235e-06,0.0,-4.206987114230287e-07,1.4360693967319094e-07,0.0,39.19436422403554,70.0,0.0,255.0,0.0
38.2500000000004,35.69653947141605,51.28350657226075,1297.0011779395863,0.0001136803883241555,9.467884297009732e-06,0.0,-4.2069927985721733e-07,1.4360807654156815e-07,0.0,39.23289611231653,70.0,0.0,255.0,0.0
38.3000000000004,35.696545154912535,51.283507045830504,1297.0011774087325,0.00011365935336016264,9.475064643993392e-06,0.0,-4.206987114230287e-07,1.4360693967317738e-07,0.0,39.27142007754955,70.0,0.0,255.0,0.0
38.350000000000406,35.696550837357265,51.28350751975928,1297.00117687881,0.0001136383184530132,9.482244990977051e-06,0.0,-4.206987114230287e-07,1.4360807654156815e-07,0.0,39.309936119734594,70.0,0.0,255.0,0.0
38.400000000000404,35.69655651875026,51.28350799404708,1297.001176347956,0.00011361728348902034,9.489425451647548e-06,0.0,-4.2069927985721733e-07,1.4360807654156815e-07,0.0,39.348444238871664,70.0,0.0,255.0,0.0
