t,lat,lon,alt,vx,vy,vz,ax,ay,az,yaw,mode,ledr,ledg,ledb
10.0,35.69326855903817,51.28328217712881,1298.0000914279372,0.00012555461879060025,5.414565293904084e-06,0.0,-2.10349639892827e-07,7.180460670651327e-08,0.0,16.2,70.0,0.0,255.0,0.0
10.05,35.69327487927848,51.28328250617313,1298.000090743415,0.0001255441013086056,5.41815552423941e-06,0.0,-3.1552445987491524e-07,1.0770577318984753e-07,0.0,16.243000487337827,70.0,0.0,255.0,0.0
10.100000000000001,35.693281198423506,51.28328283560483,1298.0000900607556,0.00012552306634461274,5.425335871223069e-06,0.0,-4.2069927985721733e-07,1.4360580280481372e-07,0.0,16.285993051627685,70.0,0.0,255.0,0.0
10.150000000000002,35.693287516473255,51.28328316542382,1298.0000893790275,0.00012550203138061988,5.432516104519891e-06,0.0,-4.2069927985721733e-07,1.4360693967319094e-07,0.0,16.328977692869568,70.0,0.0,255.0,0.0
10.200000000000003,35.69329383342769,51.28328349563007,1298.0000886982307,0.00012548099641662702,5.439696565190388e-06,0.0,-4.2069927985721733e-07,1.4360921340994537e-07,0.0,16.371954411063477,70.0,0.0,255.0,0.0
10.250000000000004,35.69330014928682,51.28328382622352,1298.0000880192965,0.00012545996145263416,5.446877025860886e-06,0.0,-4.2069927985721733e-07,1.4360693967319094e-07,0.0,16.414923206209416,70.0,0.0,255.0,0.0
10.300000000000004,35.69330646405066,51.28328415720412,1298.0000873412937,0.0001254389264886413,5.4540572591577074e-06,0.0,-4.206975745546515e-07,1.4360693967318416e-07,0.0,16.457884078307377,70.0,0.0,255.0,0.0
10.350000000000005,35.693312777719186,51.2832844885718,1298.0000866651535,0.0001254178916951787,5.461237719828205e-06,0.0,-4.206975745546515e-07,1.4360807654156138e-07,0.0,16.500837027357367,70.0,0.0,255.0,0.0
10.400000000000006,35.6933190902924,51.28328482032653,1298.0000859871507,0.00012539685673118584,5.468418066811864e-06,0.0,-4.2070041672559455e-07,1.4360693967319094e-07,0.0,16.543782053359386,70.0,0.0,255.0,0.0
10.450000000000006,35.69332540177031,51.28328515246823,1298.0000853128731,0.00012537582165350614,5.475598413795524e-06,0.0,-4.2069984829140594e-07,1.4360693967319094e-07,0.0,16.586719156313432,70.0,0.0,255.0,0.0
10.500000000000007,35.69333171215287,51.28328548499686,1298.000084639527,0.0001253547867463567,5.482778760779183e-06,0.0,-4.206987114230287e-07,1.4360807654156815e-07,0.0,16.6296483362195,70.0,0.0,255.0,0.0
10.550000000000008,35.693338021440134,51.28328581791236,1298.0000839661807,0.00012533375178236383,5.489959221449681e-06,0.0,-4.2069984829140594e-07,1.4360921340994537e-07,0.0,16.672569593077597,70.0,0.0,255.0,0.0
10.600000000000009,35.69334432963204,51.283286151214696,1298.0000832956284,0.00012531271676152755,5.497139682120178e-06,0.0,-4.2069927985721733e-07,1.4360693967319094e-07,0.0,16.715482926887727,70.0,0.0,255.0,0.0
10.65000000000001,35.693350636728645,51.28328648490378,1298.0000826241449,0.0001252916818543781,5.504319915417e-06,0.0,-4.206987114230287e-07,1.4360580280480694e-07,0.0,16.758388337649876,70.0,0.0,255.0,0.0
10.70000000000001,35.6933569427299,51.28328681897958,1298.0000819563866,0.00012527064689038525,5.511500262400659e-06,0.0,-4.206981429888401e-07,1.4360693967318416e-07,0.0,16.801285825364054,70.0,0.0,255.0,0.0
10.75000000000001,35.6933632476358,51.28328715344204,1298.0000812895596,0.00012524961204007923,5.518680609384319e-06,0.0,-4.206987114230287e-07,1.4360693967319094e-07,0.0,16.844175390030262,70.0,0.0,255.0,0.0
10.800000000000011,35.693369551446395,51.28328748829111,1298.0000806227326,0.00012522857701924295,5.525860956367978e-06,0.0,-4.2070041672559455e-07,1.4360807654156815e-07,0.0,16.887057031648492,70.0,0.0,255.0,0.0
10.850000000000012,35.69337585416162,51.28328782352671,1298.0000799559057,0.00012520754199840667,5.533041417038476e-06,0.0,-4.206987114230287e-07,1.4360921340994537e-07,0.0,16.929930750218755,70.0,0.0,255.0,0.0
10.900000000000013,35.6933821557815,51.28328815914881,1298.0000792918727,0.00012518650714810065,5.540221877708973e-06,0.0,-4.206981429888401e-07,1.4360693967319094e-07,0.0,16.97279654574104,70.0,0.0,255.0,0.0
10.950000000000014,35.69338845630602,51.28328849515736,1298.000078628771,0.00012516547218410778,5.547402111005795e-06,0.0,-4.2069984829140594e-07,1.4360693967319094e-07,0.0,17.01565441821535,70.0,0.0,255.0,0.0
11.000000000000014,35.69339475573519,51.28328883155229,1298.0000779666007,0.0001251444371632715,5.554582571676292e-06,0.0,-4.2069927985721733e-07,1.4360807654156138e-07,0.0,17.058504367641692,70.0,0.0,255.0,0.0
11.050000000000015,35.693401054069,51.283289168333546,1298.0000773044303,0.00012512340225612206,5.5617629186599515e-06,0.0,-4.206975745546515e-07,1.4360580280480694e-07,0.0,17.10134639402006,70.0,0.0,255.0,0.0
11.100000000000016,35.69340735130745,51.28328950550108,1298.0000766459852,0.00012510236740581604,5.568943151956773e-06,0.0,-4.206987114230287e-07,1.4360693967319094e-07,0.0,17.144180497350455,70.0,0.0,255.0,0.0
11.150000000000016,35.69341364745053,51.283289843054845,1298.0000759866089,0.00012508133238497976,5.576123612627271e-06,0.0,-4.2070041672559455e-07,1.4360807654156815e-07,0.0,17.187006677632873,70.0,0.0,255.0,0.0
11.200000000000017,35.69341994249823,51.28329018099478,1298.0000753290951,0.00012506029736414348,5.58330395961093e-06,0.0,-4.2069927985721733e-07,1.4360693967319094e-07,0.0,17.22982493486732,70.0,0.0,255.0,0.0
11.250000000000018,35.69342623645057,51.283290519320815,1298.0000746753067,0.00012503926245699404,5.59048430659459e-06,0.0,-4.206981429888401e-07,1.4360807654156815e-07,0.0,17.272635269053794,70.0,0.0,255.0,0.0
11.300000000000018,35.69343252930753,51.28329085803291,1298.0000740187243,0.0001250182275498446,5.597664767265087e-06,0.0,-4.2069927985721733e-07,1.4360807654156138e-07,0.0,17.315437680192296,70.0,0.0,255.0,0.0
11.35000000000002,35.69343882106911,51.28329119713104,1298.0000733621418,0.00012499719252900832,5.6048451142487465e-06,0.0,-4.2069984829140594e-07,1.4360693967318416e-07,0.0,17.358232168282825,70.0,0.0,255.0,0.0
11.40000000000002,35.69344511173531,51.283291536615096,1298.0000727092847,0.00012497615756501546,5.612025461232406e-06,0.0,-4.206987114230287e-07,1.4360807654156815e-07,0.0,17.40101873332538,70.0,0.0,255.0,0.0
11.45000000000002,35.69345140130611,51.28329187648505,1298.000072060153,0.000124955122657866,5.619205921902903e-06,0.0,-4.206987114230287e-07,1.4360807654156815e-07,0.0,17.443797375319964,70.0,0.0,255.0,0.0
11.500000000000021,35.69345768978154,51.283292216740875,1298.0000714072958,0.00012493408769387315,5.626386268886563e-06,0.0,-4.2069984829140594e-07,1.4360580280481372e-07,0.0,17.48656809426657,70.0,0.0,255.0,0.0
11.550000000000022,35.69346397716156,51.283292557382474,1298.000070758164,0.00012491305267303687,5.633566502183385e-06,0.0,-4.2069927985721733e-07,1.4360580280481372e-07,0.0,17.52933089016521,70.0,0.0,255.0,0.0
11.600000000000023,35.6934702634462,51.28329289840981,1298.000070109032,0.00012489201776588743,5.640746849167044e-06,0.0,-4.206981429888401e-07,1.4360921340994537e-07,0.0,17.57208576301587,70.0,0.0,255.0,0.0
11.650000000000023,35.69347654863544,51.28329323982283,1298.0000694636256,0.000124870982858738,5.647927423524379e-06,0.0,-4.2069927985721733e-07,1.436092134099386e-07,0.0,17.614832712818558,70.0,0.0,255.0,0.0
11.700000000000024,35.69348283272927,51.2832935816215,1298.000068815425,0.0001248499478379017,5.655107770508039e-06,0.0,-4.2069927985721733e-07,1.4360580280480694e-07,0.0,17.657571739573275,70.0,0.0,255.0,0.0
11.750000000000025,35.693489115727715,51.28329392380573,1298.0000681718811,0.00012482891293075227,5.662288003804861e-06,0.0,-4.206981429888401e-07,1.4360693967319094e-07,0.0,17.700302843280017,70.0,0.0,255.0,0.0
11.800000000000026,35.69349539763074,51.283294266375485,1298.000067527406,0.00012480787802360283,5.669468464475358e-06,0.0,-4.2069927985721733e-07,1.4360807654156815e-07,0.0,17.74302602393879,70.0,0.0,255.0,0.0
11.850000000000026,35.69350167843836,51.283294609330696,1298.000066883862,0.00012478684300276655,5.6766488114590175e-06,0.0,-4.206987114230287e-07,1.4360693967319094e-07,0.0,17.785741281549587,70.0,0.0,255.0,0.0
11.900000000000027,35.693507958150555,51.28329495267133,1298.000066243112,0.00012476580815246052,5.683829158442677e-06,0.0,-4.206981429888401e-07,1.4360807654156815e-07,0.0,17.82844861611241,70.0,0.0,255.0,0.0
11.950000000000028,35.69351423676737,51.28329529639733,1298.0000656023622,0.00012474477318846766,5.691009619113174e-06,0.0,-4.2070041672559455e-07,1.4360807654156815e-07,0.0,17.87114802762726,70.0,0.0,255.0,0.0
12.000000000000028,35.69352051428874,51.28329564050864,1298.0000649616122,0.00012472373811078796,5.698189966096834e-06,0.0,-4.2069984829140594e-07,1.4360580280480694e-07,0.0,17.913839516094136,70.0,0.0,255.0,0.0
12.05000000000003,35.69352679071469,51.2832959850052,1298.0000643245876,0.00012470270320363852,5.705370199393656e-06,0.0,-4.206981429888401e-07,1.4360693967318416e-07,0.0,17.956523081513044,70.0,0.0,255.0,0.0
12.10000000000003,35.69353306604523,51.28329632988695,1298.0000636884943,0.00012468166829648908,5.712550660064153e-06,0.0,-4.206987114230287e-07,1.4360921340994537e-07,0.0,17.999198723883975,70.0,0.0,255.0,0.0
12.15000000000003,35.693539340280346,51.28329667515386,1298.0000630514696,0.00012466063333249622,5.71973112073465e-06,0.0,-4.2069984829140594e-07,1.4360693967319094e-07,0.0,18.04186644320693,70.0,0.0,255.0,0.0
12.200000000000031,35.693545613420035,51.283297020805854,1298.0000624163076,0.00012463959831165994,5.726911354031472e-06,0.0,-4.2069927985721733e-07,1.4360693967319094e-07,0.0,18.084526239481917,70.0,0.0,255.0,0.0
12.250000000000032,35.693551885464295,51.28329736684289,1298.000061782077,0.0001246185634045105,5.734091814701969e-06,0.0,-4.206981429888401e-07,1.4360807654156815e-07,0.0,18.12717811270893,70.0,0.0,255.0,0.0
12.300000000000033,35.69355815641312,51.283297713264915,1298.0000611487776,0.00012459752849736105,5.741272161685629e-06,0.0,-4.2069927985721733e-07,1.4360580280480694e-07,0.0,18.16982206288797,70.0,0.0,255.0,0.0
12.350000000000033,35.6935644262665,51.28329806007186,1298.0000605192035,0.00012457649347652477,5.748452394982451e-06,0.0,-4.2069927985721733e-07,1.4360693967318416e-07,0.0,18.212458090019034,70.0,0.0,255.0,0.0
12.400000000000034,35.693570695024455,51.283298407263686,1298.0000598877668,0.00012455545856937533,5.755632855652948e-06,0.0,-4.206987114230287e-07,1.4360807654156815e-07,0.0,18.255086194102127,70.0,0.0,255.0,0.0
12.450000000000035,35.693576962686976,51.28329875484033,1298.0000592581928,0.00012453442360538247,5.7628132026366075e-06,0.0,-4.2069984829140594e-07,1.4360693967319094e-07,0.0,18.297706375137246,70.0,0.0,255.0,0.0
12.500000000000036,35.69358322925406,51.28329910280176,1298.00005862955,0.0001245133885845462,5.769993549620267e-06,0.0,-4.2069927985721733e-07,1.4360807654156815e-07,0.0,18.340318633124394,70.0,0.0,255.0,0.0
12.550000000000036,35.693589494725686,51.2832994511479,1298.0000580037013,0.00012449235367739675,5.777174010290764e-06,0.0,-4.206987114230287e-07,1.4360921340994537e-07,0.0,18.382922968063568,70.0,0.0,255.0,0.0
12.600000000000037,35.69359575910188,51.283299799878705,1298.0000573769212,0.0001244713187134039,5.7843544709612615e-06,0.0,-4.206981429888401e-07,1.4360693967319094e-07,0.0,18.425519379954768,70.0,0.0,255.0,0.0
12.650000000000038,35.69360202238263,51.28330014899413,1298.0000567520037,0.00012445028386309787,5.791534704258083e-06,0.0,-4.206975745546515e-07,1.4360580280480694e-07,0.0,18.468107868797993,70.0,0.0,255.0,0.0
12.700000000000038,35.69360828456791,51.28330049849411,1298.0000561280176,0.00012442924895594842,5.798715051241743e-06,0.0,-4.2069927985721733e-07,1.4360807654156138e-07,0.0,18.510688434593245,70.0,0.0,255.0,0.0
12.750000000000039,35.693614545657766,51.28330084837857,1298.0000555058941,0.00012440821393511214,5.80589551191224e-06,0.0,-4.2070041672559455e-07,1.4360807654156815e-07,0.0,18.553261077340526,70.0,0.0,255.0,0.0
12.80000000000004,35.69362080565215,51.2833011986475,1298.0000548837706,0.00012438717891427586,5.8130758588959e-06,0.0,-4.2069984829140594e-07,1.4360693967319094e-07,0.0,18.595825797039836,70.0,0.0,255.0,0.0
12.85000000000004,35.69362706455109,51.28330154930082,1298.0000542644411,0.000124366143950283,5.820256205879559e-06,0.0,-4.206987114228119e-07,1.4360693967319094e-07,0.0,18.63838259369117,70.0,0.0,255.0,0.0
12.900000000000041,35.69363332235457,51.28330190033849,1298.0000536451116,0.00012434510904313356,5.827436552863219e-06,0.0,-4.206992798570005e-07,1.4360693967319094e-07,0.0,18.68093146729453,70.0,0.0,255.0,0.0
12.950000000000042,35.69363957906259,51.28330225176045,1298.0000530267134,0.00012432407402229728,5.834616899846878e-06,0.0,-4.2069927985721733e-07,1.4360807654156138e-07,0.0,18.72347241784992,70.0,0.0,255.0,0.0
13.000000000000043,35.69364583467515,51.28330260356664,1298.0000524092466,0.00012430303911514784,5.841797360517376e-06,0.0,-4.206981429888401e-07,1.436092134099386e-07,0.0,18.766005445357337,70.0,0.0,255.0,0.0
13.050000000000043,35.693652089192256,51.28330295575702,1298.0000517945737,0.0001242820042079984,5.848977821187873e-06,0.0,-4.2069927985721733e-07,1.4360693967319094e-07,0.0,18.80853054981678,70.0,0.0,255.0,0.0
13.100000000000044,35.693658342613894,51.283303308331526,1298.0000511799008,0.00012426096918716212,5.856158054484695e-06,0.0,-4.2069927985721733e-07,1.436046659364365e-07,0.0,18.851047731228245,70.0,0.0,255.0,0.0
13.150000000000045,35.69366459494006,51.28330366129011,1298.0000505642965,0.00012423993428001268,5.8633382877815166e-06,0.0,-4.206981429888401e-07,1.4360693967319094e-07,0.0,18.89355698959174,70.0,0.0,255.0,0.0
13.200000000000045,35.693670846170775,51.28330401463272,1298.0000499524176,0.00012421889937286323,5.870518748452014e-06,0.0,-4.2069927985721733e-07,1.4361035027832258e-07,0.0,18.936058324907265,70.0,0.0,255.0,0.0
13.250000000000046,35.693677096306004,51.2833043683593,1298.00004934147,0.00012419786435202695,5.877699322809349e-06,0.0,-4.2069984829140594e-07,1.4360807654156815e-07,0.0,18.978551737174815,70.0,0.0,255.0,0.0
13.300000000000047,35.69368334534577,51.28330472246979,1298.000048729591,0.0001241768293880341,5.884879556106171e-06,0.0,-4.206987114230287e-07,1.4360466593642973e-07,0.0,19.02103722639439,70.0,0.0,255.0,0.0
13.350000000000048,35.69368959329007,51.28330507696414,1298.0000481214374,0.00012415579448088465,5.8920597894029925e-06,0.0,-4.206981429888401e-07,1.4360807654156138e-07,0.0,19.063514792565996,70.0,0.0,255.0,0.0
13.400000000000048,35.6936958401389,51.28330543184231,1298.0000475123525,0.0001241347595737352,5.8992403637603275e-06,0.0,-4.206987114230287e-07,1.4360921340994537e-07,0.0,19.105984435689624,70.0,0.0,255.0,0.0
13.450000000000049,35.69370208589226,51.28330578710425,1298.0000469041988,0.00012411372460974235,5.906420710743987e-06,0.0,-4.2069984829140594e-07,1.4360580280481372e-07,0.0,19.148446155765285,70.0,0.0,255.0,0.0
13.50000000000005,35.69370833055012,51.28330614274987,1298.0000462988392,0.00012409268958890607,5.913600944040809e-06,0.0,-4.2069984829140594e-07,1.4360693967319094e-07,0.0,19.190899952792968,70.0,0.0,255.0,0.0
13.55000000000005,35.69371457411252,51.283306498779154,1298.0000456944108,0.0001240716546249132,5.920781404711306e-06,0.0,-4.2069927985721733e-07,1.4360807654156815e-07,0.0,19.233345826772677,70.0,0.0,255.0,0.0
13.600000000000051,35.69372081657944,51.28330685519204,1298.0000450899825,0.00012405061966092035,5.927961751694966e-06,0.0,-4.206987114230287e-07,1.4360693967319094e-07,0.0,19.275783777704415,70.0,0.0,255.0,0.0
13.650000000000052,35.69372705795087,51.283307211988465,1298.0000444874167,0.0001240295847537709,5.935142098678625e-06,0.0,-4.206987114230287e-07,1.4360807654156138e-07,0.0,19.31821380558818,70.0,0.0,255.0,0.0
13.700000000000053,35.69373329822684,51.28330756916838,1298.0000438857824,0.00012400854978977804,5.9423225593491225e-06,0.0,-4.206987114230287e-07,1.4360807654156138e-07,0.0,19.36063591042397,70.0,0.0,255.0,0.0
13.750000000000053,35.69373953740731,51.283307926731744,1298.000043284148,0.0001239875148826286,5.949502906332782e-06,0.0,-4.206987114230287e-07,1.4360580280481372e-07,0.0,19.403050092211792,70.0,0.0,255.0,0.0
13.800000000000054,35.69374577549231,51.283308284678476,1298.0000426843762,0.00012396647991863574,5.956683139629604e-06,0.0,-4.2069984829140594e-07,1.4360693967319094e-07,0.0,19.445456350951638,70.0,0.0,255.0,0.0
13.850000000000055,35.69375201248181,51.283308643008546,1298.0000420864671,0.00012394544489779946,5.963863600300101e-06,0.0,-4.2069927985721733e-07,1.4360921340994537e-07,0.0,19.48785468664351,70.0,0.0,255.0,0.0
13.900000000000055,35.69375824837583,51.28330900172192,1298.0000414894894,0.00012392440999065002,5.971044060970598e-06,0.0,-4.206987114230287e-07,1.4360693967319094e-07,0.0,19.530245099287406,70.0,0.0,255.0,0.0
13.950000000000056,35.69376448317438,51.2833093608185,1298.000040893443,0.00012390337502665716,5.97822429426742e-06,0.0,-4.206987114230287e-07,1.4360693967318416e-07,0.0,19.572627588883336,70.0,0.0,255.0,0.0
14.000000000000057,35.69377071687743,51.28330972029825,1298.0000402983278,0.00012388234011950772,5.9854047549379175e-06,0.0,-4.206987114230287e-07,1.436092134099386e-07,0.0,19.615002155431288,70.0,0.0,255.0,0.0
14.050000000000058,35.693776949485,51.28331008016114,1298.0000397050753,0.00012386130515551486,5.992585215608415e-06,0.0,-4.2069984829140594e-07,1.4360693967319094e-07,0.0,19.657368798931266,70.0,0.0,255.0,0.0
14.100000000000058,35.69378318099707,51.28331044040708,1298.0000391118228,0.00012384027013467858,5.9997654489052366e-06,0.0,-4.2069927985721733e-07,1.4360580280481372e-07,0.0,19.699727519383273,70.0,0.0,255.0,0.0
14.150000000000059,35.693789411413654,51.28331080103605,1298.0000385185704,0.00012381923522752913,6.006945795888896e-06,0.0,-4.206975745546515e-07,1.4360807654156815e-07,0.0,19.742078316787303,70.0,0.0,255.0,0.0
14.20000000000006,35.69379564073475,51.28331116204797,1298.0000379271805,0.0001237982003772231,6.014126256559393e-06,0.0,-4.206987114230287e-07,1.4360693967319094e-07,0.0,19.78442119114337,70.0,0.0,255.0,0.0
14.25000000000006,35.693801868960364,51.28331152344281,1298.0000373376533,0.00012377716535638683,6.021306489856215e-06,0.0,-4.2070041672559455e-07,1.4360580280481372e-07,0.0,19.826756142451455,70.0,0.0,255.0,0.0
14.300000000000061,35.69380809609048,51.2833118852205,1298.0000367490575,0.00012375613033555055,6.028486836839875e-06,0.0,-4.2069927985721733e-07,1.436092134099386e-07,0.0,19.86908317071157,70.0,0.0,255.0,0.0
14.350000000000062,35.693814322125085,51.28331224738099,1298.0000361623242,0.0001237350954284011,6.03566741119721e-06,0.0,-4.206987114230287e-07,1.436092134099386e-07,0.0,19.91140227592371,70.0,0.0,255.0,0.0
14.400000000000063,35.69382054706422,51.28331260992426,1298.000035575591,0.00012371406046440825,6.042847758180869e-06,0.0,-4.2069984829140594e-07,1.4360580280481372e-07,0.0,19.95371345808788,70.0,0.0,255.0,0.0
14.450000000000063,35.693826770907854,51.2833129728502,1298.0000349897891,0.00012369302544357197,6.050027991477691e-06,0.0,-4.206987114230287e-07,1.4360693967319094e-07,0.0,19.996016717204075,70.0,0.0,255.0,0.0
14.500000000000064,35.69383299365598,51.2833133361588,1298.0000344077125,0.00012367199059326595,6.057208452148188e-06,0.0,-4.206975745546515e-07,1.4360807654156815e-07,0.0,20.038312053272293,70.0,0.0,255.0,0.0
14.550000000000065,35.693839215308635,51.28331369985,1298.0000338209793,0.0001236509556861165,6.064388799131848e-06,0.0,-4.2069927985721733e-07,1.4360693967319094e-07,0.0,20.080599466292544,70.0,0.0,255.0,0.0
14.600000000000065,35.693845435865775,51.28331406392371,1298.0000332407653,0.00012362992066528022,6.0715691461155075e-06,0.0,-4.2070041672559455e-07,1.4360807654156815e-07,0.0,20.122878956264817,70.0,0.0,255.0,0.0
14.650000000000066,35.693851655327435,51.283314428379946,1298.00003265962,0.00012360888564444394,6.078749606786005e-06,0.0,-4.2069984829140594e-07,1.4360807654156138e-07,0.0,20.16515052318912,70.0,0.0,255.0,0.0
14.700000000000067,35.69385787369358,51.2833147932186,1298.000032079406,0.00012358785068045108,6.085929953769664e-06,0.0,-4.206981429888401e-07,1.4360580280480694e-07,0.0,20.20741416706545,70.0,0.0,255.0,0.0
14.750000000000068,35.69386409096424,51.283315158439635,1298.0000315010548,0.00012356681583014506,6.093110187066486e-06,0.0,-4.206975745546515e-07,1.4360693967319094e-07,0.0,20.249669887893806,70.0,0.0,255.0,0.0
14.800000000000068,35.693870307139406,51.283315524043,1298.0000309236348,0.00012354578092299562,6.100290647736983e-06,0.0,-4.2069927985721733e-07,1.4360921340994537e-07,0.0,20.29191768567419,70.0,0.0,255.0,0.0
14.850000000000069,35.69387652221907,51.28331589002865,1298.000030347146,0.00012352474590215934,6.107471108407481e-06,0.0,-4.2069927985721733e-07,1.4360693967319094e-07,0.0,20.3341575604066,70.0,0.0,255.0,0.0
14.90000000000007,35.69388273620325,51.283316256396525,1298.0000297687948,0.0001235037109950099,6.1146513417043025e-06,0.0,-4.206987114230287e-07,1.4360693967319094e-07,0.0,20.376389512091038,70.0,0.0,255.0,0.0
14.95000000000007,35.693888949091914,51.28331662314656,1298.0000291969627,0.00012348267603101704,6.1218318023748e-06,0.0,-4.2070041672559455e-07,1.4360807654156815e-07,0.0,20.4186135407275,70.0,0.0,255.0,0.0
15.000000000000071,35.6938951608851,51.283316990278735,1298.000028623268,0.00012346164095333734,6.129012149358459e-06,0.0,-4.2069927985721733e-07,1.4360580280481372e-07,0.0,20.46082964631599,70.0,0.0,255.0,0.0
15.050000000000072,35.69390137158275,51.283317357792974,1298.0000280495733,0.00012344060610303131,6.136192382655281e-06,0.0,-4.206975745546515e-07,1.4360693967319094e-07,0.0,20.503037828856506,70.0,0.0,255.0,0.0
15.100000000000072,35.69390758118493,51.28331772568922,1298.0000274786726,0.00012341957119588187,6.143372843325778e-06,0.0,-4.2069927985721733e-07,1.4360921340994537e-07,0.0,20.54523808834905,70.0,0.0,255.0,0.0
15.150000000000073,35.69391378969161,51.283318093967424,1298.0000269068405,0.0001233985361750456,6.150553303996276e-06,0.0,-4.2069984829140594e-07,1.4360693967317738e-07,0.0,20.58743042479362,70.0,0.0,255.0,0.0
15.200000000000074,35.69391999710279,51.28331846262755,1298.0000263378024,0.00012337750121105273,6.1577335372930975e-06,0.0,-4.206987114230287e-07,1.4360580280480017e-07,0.0,20.62961483819022,70.0,0.0,255.0,0.0
15.250000000000075,35.69392620341847,51.28331883166953,1298.0000257687643,0.0001233564663039033,6.164913884276757e-06,0.0,-4.206987114230287e-07,1.4360921340994537e-07,0.0,20.671791328538845,70.0,0.0,255.0,0.0
15.300000000000075,35.69393240863866,51.28331920109331,1298.0000252025202,0.00012333543133991043,6.172094458634092e-06,0.0,-4.2069984829140594e-07,1.4360921340994537e-07,0.0,20.713959895839498,70.0,0.0,255.0,0.0
15.350000000000076,35.69393861276334,51.28331957089886,1298.0000246353447,0.00012331439631907415,6.1792748056177516e-06,0.0,-4.2069927985721733e-07,1.4360580280481372e-07,0.0,20.756120540092176,70.0,0.0,255.0,0.0
15.400000000000077,35.69394481579251,51.28331994108611,1298.0000240718946,0.0001232933614119247,6.186455038914573e-06,0.0,-4.206981429888401e-07,1.4360693967319094e-07,0.0,20.79827326129688,70.0,0.0,255.0,0.0
15.450000000000077,35.693951017726214,51.283320311655,1298.000023507513,0.00012327232650477526,6.193635499585071e-06,0.0,-4.206987114230287e-07,1.4360807654156815e-07,0.0,20.840418059453615,70.0,0.0,255.0,0.0
15.500000000000078,35.6939572185644,51.28332068260549,1298.0000229449943,0.0001232512915407824,6.20081584656873e-06,0.0,-4.2069927985721733e-07,1.4360693967319094e-07,0.0,20.88255493456237,70.0,0.0,255.0,0.0
15.550000000000079,35.693963418307106,51.28332105393752,1298.0000223824754,0.00012323025657678954,6.20799619355239e-06,0.0,-4.2069927985721733e-07,1.4360693967319094e-07,0.0,20.924683886623157,70.0,0.0,255.0,0.0
15.60000000000008,35.693969616954305,51.28332142565105,1298.000021820888,0.00012320922161279668,6.215176540536049e-06,0.0,-4.2069927985721733e-07,1.4360693967319094e-07,0.0,20.966804915635972,70.0,0.0,255.0,0.0
15.65000000000008,35.693975814506,51.28332179774603,1298.000021261163,0.00012318818664880382,6.222356887519709e-06,0.0,-4.206981429888401e-07,1.4360807654156815e-07,0.0,21.008918021600813,70.0,0.0,255.0,0.0
15.700000000000081,35.6939820109622,51.28332217022238,1298.0000207033008,0.0001231671517984978,6.229537348190206e-06,0.0,-4.206981429888401e-07,1.4360921340994537e-07,0.0,21.05102320451768,70.0,0.0,255.0,0.0
15.750000000000082,35.69398820632293,51.28332254308007,1298.0000201445073,0.00012314611683450494,6.236717808860703e-06,0.0,-4.2070041672559455e-07,1.4360693967319094e-07,0.0,21.093120464386573,70.0,0.0,255.0,0.0
15.800000000000082,35.69399440058814,51.28332291631906,1298.0000195885077,0.00012312508175682524,6.243898042157525e-06,0.0,-4.2069984829140594e-07,1.4360580280480017e-07,0.0,21.13520980120749,70.0,0.0,255.0,0.0
15.850000000000083,35.69400059375785,51.283323289939254,1298.0000190334395,0.0001231040468496758,6.251078389141185e-06,0.0,-4.206981429888401e-07,1.436080765415546e-07,0.0,21.177291214980443,70.0,0.0,255.0,0.0
15.900000000000084,35.69400678583208,51.28332366394064,1298.0000184783712,0.00012308301194252635,6.258258849811682e-06,0.0,-4.206987114230287e-07,1.4360693967319094e-07,0.0,21.219364705705416,70.0,0.0,255.0,0.0
15.950000000000085,35.6940129768108,51.283324038323165,1298.000017926097,0.0001230619769785335,6.265439083108504e-06,0.0,-4.2069984829140594e-07,1.4360693967319094e-07,0.0,21.261430273382416,70.0,0.0,255.0,0.0
16.000000000000085,35.69401916669404,51.283324413086746,1298.00001737196,0.00012304094195769721,6.272619543779001e-06,0.0,-4.2069927985721733e-07,1.4360807654156815e-07,0.0,21.303487918011445,70.0,0.0,255.0,0.0
16.050000000000086,35.69402535548178,51.28332478823137,1298.0000168224797,0.00012301990705054777,6.279799890762661e-06,0.0,-4.206981429888401e-07,1.4360693967319094e-07,0.0,21.3455376395925,70.0,0.0,255.0,0.0
16.100000000000087,35.69403154317404,51.283325163756935,1298.0000162711367,0.00012299887214339833,6.28698023774632e-06,0.0,-4.2069927985721733e-07,1.4360807654156815e-07,0.0,21.38757943812558,70.0,0.0,255.0,0.0
16.150000000000087,35.6940377297708,51.28332553966345,1298.0000157225877,0.00012297783712256205,6.2941606984168175e-06,0.0,-4.2069927985721733e-07,1.4360807654156815e-07,0.0,21.42961331361069,70.0,0.0,255.0,0.0
16.200000000000088,35.69404391527207,51.283325915950826,1298.000015172176,0.0001229568022154126,6.301341045400477e-06,0.0,-4.206987114230287e-07,1.4360693967319094e-07,0.0,21.471639266047827,70.0,0.0,255.0,0.0
16.25000000000009,35.69405009967786,51.283326292619016,1298.0000146254897,0.00012293576725141975,6.3085213923841366e-06,0.0,-4.2069984829140594e-07,1.4360693967319094e-07,0.0,21.51365729543699,70.0,0.0,255.0,0.0
16.30000000000009,35.69405628298815,51.28332666966797,1298.0000140788034,0.00012291473223058347,6.315701739367796e-06,0.0,-4.2069927985721733e-07,1.4360693967319094e-07,0.0,21.55566740177818,70.0,0.0,255.0,0.0
16.35000000000009,35.694062465202954,51.28332704709763,1298.0000135339797,0.00012289369732343403,6.322882086351456e-06,0.0,-4.206987114230287e-07,1.4360693967319094e-07,0.0,21.597669585071397,70.0,0.0,255.0,0.0
16.40000000000009,35.69406864632228,51.28332742490795,1298.0000129910186,0.00012287266235944116,6.330062433335115e-06,0.0,-4.206981429888401e-07,1.4360807654156815e-07,0.0,21.639663845316637,70.0,0.0,255.0,0.0
16.45000000000009,35.69407482634611,51.2833278030989,1298.0000124480575,0.00012285162750913514,6.3372428940056125e-06,0.0,-4.2069757455443467e-07,1.436080765415546e-07,0.0,21.68165018251391,70.0,0.0,255.0,0.0
16.500000000000092,35.69408100527446,51.28332818167039,1298.0000119050965,0.0001228305926019857,6.344423240989272e-06,0.0,-4.207004167253777e-07,1.4360693967317738e-07,0.0,21.723628596663204,70.0,0.0,255.0,0.0
16.550000000000093,35.69408718310732,51.28332856062239,1298.0000113649294,0.00012280955746746258,6.3516035879729316e-06,0.0,-4.2070041672559455e-07,1.4360807654156815e-07,0.0,21.765599087764528,70.0,0.0,255.0,0.0
16.600000000000094,35.69409335984471,51.283328939954835,1298.000010826625,0.00012278852256031314,6.358784048643429e-06,0.0,-4.206981429888401e-07,1.4360807654156815e-07,0.0,21.80756165581788,70.0,0.0,255.0,0.0
16.650000000000095,35.69409953548661,51.283329319667686,1298.0000102864578,0.0001227674876531637,6.365964395627088e-06,0.0,-4.206987114230287e-07,1.4360693967319094e-07,0.0,21.849516300823257,70.0,0.0,255.0,0.0
16.700000000000095,35.69410571003301,51.283329699760884,1298.0000097490847,0.00012274645268917084,6.373144742610748e-06,0.0,-4.2069927985721733e-07,1.4360693967319094e-07,0.0,21.891463022780663,70.0,0.0,255.0,0.0
16.750000000000096,35.69411188348397,51.28333008023438,1298.0000092117116,0.00012272541772517798,6.3803250895944075e-06,0.0,-4.2069927985721733e-07,1.4360693967319094e-07,0.0,21.93340182169009,70.0,0.0,255.0,0.0
16.800000000000097,35.69411805583943,51.28333046108812,1298.000008676201,0.00012270438276118512,6.387505436578067e-06,0.0,-4.2069927985721733e-07,1.4360693967319094e-07,0.0,21.975332697551554,70.0,0.0,255.0,0.0
16.850000000000097,35.694124227099415,51.28333084232206,1298.0000081406906,0.00012268334779719225,6.3946857835617266e-06,0.0,-4.2069927985721733e-07,1.4360693967319094e-07,0.0,22.017255650365037,70.0,0.0,255.0,0.0
16.900000000000098,35.69413039726391,51.283331223936145,1298.000007607974,0.0001226623128331994,6.401866130545386e-06,0.0,-4.206981429888401e-07,1.4360807654156815e-07,0.0,22.05917068013055,70.0,0.0,255.0,0.0
16.9500000000001,35.69413656633296,51.28333160593031,1298.0000070743263,0.00012264127798289337,6.409046591215883e-06,0.0,-4.206987114230287e-07,1.4360807654156815e-07,0.0,22.101077786848087,70.0,0.0,255.0,0.0
17.0000000000001,35.69414273430652,51.28333198830452,1298.0000065416098,0.0001226202429620571,6.416226938199543e-06,0.0,-4.2069984829140594e-07,1.4360693967319094e-07,0.0,22.14297697051765,70.0,0.0,255.0,0.0
17.0500000000001,35.69414890118461,51.28333237105872,1298.0000060126185,0.00012259920799806423,6.4234072851832025e-06,0.0,-4.206987114230287e-07,1.4360693967319094e-07,0.0,22.184868231139244,70.0,0.0,255.0,0.0
17.1000000000001,35.694155066967234,51.28333275419286,1298.000005482696,0.0001225781730909148,6.430587632166862e-06,0.0,-4.2069927985721733e-07,1.436080765415546e-07,0.0,22.226751568712867,70.0,0.0,255.0,0.0
17.1500000000001,35.694161231654384,51.28333313770688,1298.000004954636,0.0001225571380700785,6.437768092837359e-06,0.0,-4.206987114230287e-07,1.4360921340993182e-07,0.0,22.268626983238512,70.0,0.0,255.0,0.0
17.200000000000102,35.69416739524606,51.28333352160074,1298.0000044275075,0.00012253610321977249,6.4449485535078566e-06,0.0,-4.206975745546515e-07,1.4360693967319094e-07,0.0,22.310494474716183,70.0,0.0,255.0,0.0
17.250000000000103,35.694173557742296,51.283333905874386,1298.0000039013103,0.00012251506831262304,6.452128786804678e-06,0.0,-4.2070041672559455e-07,1.436046659364365e-07,0.0,22.352354043145887,70.0,0.0,255.0,0.0
17.300000000000104,35.69417971914305,51.283334290527755,1298.0000033741817,0.00012249403317809993,6.4593090201015e-06,0.0,-4.2070041672559455e-07,1.4360693967319094e-07,0.0,22.394205688527613,70.0,0.0,255.0,0.0
17.350000000000104,35.69418587944834,51.2833346755608,1298.0000028507784,0.00012247299827095048,6.4664894807719975e-06,0.0,-4.206981429888401e-07,1.4361035027832258e-07,0.0,22.436049410861365,70.0,0.0,255.0,0.0
17.400000000000105,35.69419203865817,51.28333506097348,1298.0000023264438,0.00012245196336380104,6.4736700551293325e-06,0.0,-4.206987114230287e-07,1.4360807654156815e-07,0.0,22.477885210147146,70.0,0.0,255.0,0.0
17.450000000000106,35.69419819677255,51.28333544676574,1298.0000018030405,0.00012243092839980818,6.480850288426154e-06,0.0,-4.2069927985721733e-07,1.4360580280481372e-07,0.0,22.519713086384954,70.0,0.0,255.0,0.0
17.500000000000107,35.69420435379147,51.28333583293751,1298.0000012833625,0.00012240989343581532,6.488030635409814e-06,0.0,-4.2069984829140594e-07,1.4360693967319094e-07,0.0,22.561533039574787,70.0,0.0,255.0,0.0
17.550000000000107,35.69421050971492,51.283336219488774,1298.0000007627532,0.00012238885841497904,6.495210982393473e-06,0.0,-4.206987114230287e-07,1.4360693967319094e-07,0.0,22.603345069716653,70.0,0.0,255.0,0.0
17.600000000000108,35.69421666454293,51.28333660641944,1298.0000002430752,0.00012236782356467302,6.502391329377133e-06,0.0,-4.206981429888401e-07,1.4360921340994537e-07,0.0,22.645149176810538,70.0,0.0,255.0,0.0
17.65000000000011,35.6942228182755,51.28333699372949,1297.9999997233972,0.00012234678860068016,6.509571903734468e-06,0.0,-4.2069927985721733e-07,1.4360807654156815e-07,0.0,22.686945360856452,70.0,0.0,255.0,0.0
17.70000000000011,35.69422897091259,51.28333738141887,1297.9999992065132,0.0001223257536366873,6.51675213703129e-06,0.0,-4.2069927985721733e-07,1.436046659364365e-07,0.0,22.728733621854396,70.0,0.0,255.0,0.0
17.75000000000011,35.69423512245426,51.2833377694875,1297.9999986896291,0.00012230471867269443,6.5239323703281116e-06,0.0,-4.2069927985721733e-07,1.4360807654156815e-07,0.0,22.770513959804365,70.0,0.0,255.0,0.0
17.80000000000011,35.694241272900456,51.283338157935354,1297.999998175539,0.00012228368370870157,6.5311129446854466e-06,0.0,-4.2069927985721733e-07,1.436080765415546e-07,0.0,22.81228637470636,70.0,0.0,255.0,0.0
17.85000000000011,35.69424742225124,51.28333854676238,1297.9999976623803,0.0001222626487447087,6.538293177982268e-06,0.0,-4.2069927985721733e-07,1.4360580280480017e-07,0.0,22.854050866560385,70.0,0.0,255.0,0.0
17.900000000000112,35.69425357050657,51.283338935968516,1297.999997147359,0.00012224161378071585,6.545473524965928e-06,0.0,-4.206975745546515e-07,1.4360807654156815e-07,0.0,22.895807435366432,70.0,0.0,255.0,0.0
17.950000000000113,35.69425971766645,51.28333932555372,1297.9999966369942,0.00012222057898725325,6.552653985636425e-06,0.0,-4.206975745546515e-07,1.4360807654156815e-07,0.0,22.93755608112451,70.0,0.0,255.0,0.0
18.000000000000114,35.69426586373091,51.28333971551793,1297.9999961247668,0.0001221995440232604,6.559834332620085e-06,0.0,-4.2070041672559455e-07,1.4360807654156815e-07,0.0,22.97929680383461,70.0,0.0,255.0,0.0
18.050000000000114,35.69427200869992,51.28334010586112,1297.9999956153333,0.0001221785089455807,6.567014793290582e-06,0.0,-4.2069984829140594e-07,1.4360693967319094e-07,0.0,23.021029603496743,70.0,0.0,255.0,0.0
18.100000000000115,35.69427815257352,51.28334049658321,1297.9999951040372,0.00012215747403843125,6.574195026587404e-06,0.0,-4.206987114230287e-07,1.4360693967319094e-07,0.0,23.0627544801109,70.0,0.0,255.0,0.0
18.150000000000116,35.69428429535166,51.28334088768416,1297.9999945973977,0.00012213643907443839,6.581375487257901e-06,0.0,-4.2069984829140594e-07,1.4360807654156815e-07,0.0,23.104471433677084,70.0,0.0,255.0,0.0
18.200000000000117,35.69429043703438,51.283341279163935,1297.9999940907583,0.0001221154040536021,6.588555834241561e-06,0.0,-4.2069927985721733e-07,1.4360693967319094e-07,0.0,23.146180464195293,70.0,0.0,255.0,0.0
18.250000000000117,35.69429657762167,51.283341671022434,1297.9999935841188,0.00012209436914645266,6.59573618122522e-06,0.0,-4.206987114230287e-07,1.4360807654156815e-07,0.0,23.187881571665535,70.0,0.0,255.0,0.0
18.300000000000118,35.69430271711355,51.28334206325967,1297.9999930784106,0.0001220733341824598,6.6029166418957175e-06,0.0,-4.2069927985721733e-07,1.4360693967319094e-07,0.0,23.2295747560878,70.0,0.0,255.0,0.0
18.35000000000012,35.69430885551,51.28334245587555,1297.999992574565,0.00012205229921846694,6.610096875192539e-06,0.0,-4.206987114230287e-07,1.4360580280481372e-07,0.0,23.27126001746209,70.0,0.0,255.0,0.0
18.40000000000012,35.69431499281102,51.283342848870035,1297.999992071651,0.0001220312643113175,6.617277222176199e-06,0.0,-4.206987114230287e-07,1.4360807654156815e-07,0.0,23.312937355788407,70.0,0.0,255.0,0.0
18.45000000000012,35.69432112901666,51.28334324224307,1297.999991569668,0.00012201022934732464,6.624457682846696e-06,0.0,-4.206987114230287e-07,1.436080765415546e-07,0.0,23.354606771066752,70.0,0.0,255.0,0.0
18.50000000000012,35.69432726412685,51.28334363599462,1297.9999910676852,0.0001219891944401752,6.631638029830356e-06,0.0,-4.206987114230287e-07,1.4360693967317738e-07,0.0,23.396268263297124,70.0,0.0,255.0,0.0
18.55000000000012,35.694333398141644,51.28334403012462,1297.9999905684963,0.00012196815947618234,6.638818376814015e-06,0.0,-4.2069984829140594e-07,1.4360807654156815e-07,0.0,23.437921832479525,70.0,0.0,255.0,0.0
18.600000000000122,35.69433953106101,51.28334442463302,1297.999990068376,0.00012194712445534606,6.6459988374845125e-06,0.0,-4.2069927985721733e-07,1.4360807654156815e-07,0.0,23.47956747861395,70.0,0.0,255.0,0.0
18.650000000000123,35.69434566288499,51.283344819519776,1297.9999895691872,0.00012192608954819661,6.653179184468172e-06,0.0,-4.206987114230287e-07,1.4360693967319094e-07,0.0,23.521205201700404,70.0,0.0,255.0,0.0
18.700000000000124,35.694351793613556,51.28334521478482,1297.9999890709296,0.00012190505458420375,6.6603595314518316e-06,0.0,-4.206981429888401e-07,1.4360807654156815e-07,0.0,23.562835001738886,70.0,0.0,255.0,0.0
18.750000000000124,35.69435792324673,51.28334561042813,1297.999988575466,0.00012188401973389773,6.667539992122329e-06,0.0,-4.206981429888401e-07,1.4360807654156815e-07,0.0,23.60445687872939,70.0,0.0,255.0,0.0
18.800000000000125,35.694364051784504,51.28334600644963,1297.999988081865,0.00012186298476990487,6.674720339105988e-06,0.0,-4.2069984829140594e-07,1.4360580280481372e-07,0.0,23.646070832671924,70.0,0.0,255.0,0.0
18.850000000000126,35.69437017922688,51.28334640284928,1297.99998758547,0.00012184194974906859,6.68190057240281e-06,0.0,-4.2069984829140594e-07,1.4360580280481372e-07,0.0,23.687676863566484,70.0,0.0,255.0,0.0
18.900000000000126,35.69437630557386,51.283346799627026,1297.9999870937318,0.00012182091478507573,6.68908091938647e-06,0.0,-4.2069927985721733e-07,1.4360807654156815e-07,0.0,23.72927497141307,70.0,0.0,255.0,0.0
18.950000000000127,35.69438243082544,51.28334719678282,1297.9999866029248,0.00012179987982108287,6.696261380056967e-06,0.0,-4.206987114230287e-07,1.4360807654156815e-07,0.0,23.770865156211684,70.0,0.0,255.0,0.0
19.000000000000128,35.69438855498166,51.283347594316616,1297.9999861111864,0.00012177884491393343,6.7034417270406266e-06,0.0,-4.2069927985721733e-07,1.4360693967319094e-07,0.0,23.81244741796233,70.0,0.0,255.0,0.0
19.05000000000013,35.69439467804247,51.283347992228364,1297.9999856213108,0.00012175780989309715,6.710622074024286e-06,0.0,-4.2069927985721733e-07,1.4360807654156815e-07,0.0,23.854021756664995,70.0,0.0,255.0,0.0
19.10000000000013,35.69440080000791,51.28334839051799,1297.999985131435,0.0001217367749859477,6.717802534694783e-06,0.0,-4.206987114230287e-07,1.436080765415546e-07,0.0,23.895588172319687,70.0,0.0,255.0,0.0
19.15000000000013,35.69440692087797,51.28334878918547,1297.999984643422,0.00012171574002195484,6.724982881678443e-06,0.0,-4.2069984829140594e-07,1.4360693967317738e-07,0.0,23.93714666492641,70.0,0.0,255.0,0.0
19.20000000000013,35.694413040652655,51.283349188230744,1297.9999841535464,0.00012169470500111856,6.7321632286621025e-06,0.0,-4.206987114230287e-07,1.4360693967319094e-07,0.0,23.97869723448516,70.0,0.0,255.0,0.0
19.25000000000013,35.694419159331964,51.28334958765375,1297.9999836683273,0.00012167367015081254,6.739343575645762e-06,0.0,-4.206981429888401e-07,1.4360693967319094e-07,0.0,24.020239880995934,70.0,0.0,255.0,0.0
19.300000000000132,35.694425276915915,51.28334998745447,1297.9999831831083,0.00012165263518681968,6.746523922629422e-06,0.0,-4.2070041672559455e-07,1.4360807654156815e-07,0.0,24.061774604458737,70.0,0.0,255.0,0.0
19.350000000000133,35.694431393404486,51.28335038763283,1297.9999826997519,0.00012163160010913998,6.753704383299919e-06,0.0,-4.2069927985721733e-07,1.4360807654156815e-07,0.0,24.103301404873566,70.0,0.0,255.0,0.0
19.400000000000134,35.69443750879769,51.28335078818878,1297.9999822145328,0.00012161056525883396,6.760884730283578e-06,0.0,-4.206975745546515e-07,1.4360693967319094e-07,0.0,24.14482028224042,70.0,0.0,255.0,0.0
19.450000000000134,35.69444362309554,51.283351189122264,1297.9999817339703,0.00012158953035168452,6.768065077267238e-06,0.0,-4.206981429888401e-07,1.4360693967319094e-07,0.0,24.1863312365593,70.0,0.0,255.0,0.0
19.500000000000135,35.69444973629805,51.28335159043325,1297.9999812515453,0.00012156849544453507,6.7752454242508975e-06,0.0,-4.206987114230287e-07,1.4360693967319094e-07,0.0,24.227834267830215,70.0,0.0,255.0,0.0
19.550000000000136,35.6944558484052,51.283351992121666,1297.9999807709828,0.00012154746048054221,6.782425771234557e-06,0.0,-4.2069984829140594e-07,1.4360807654156815e-07,0.0,24.26932937605315,70.0,0.0,255.0,0.0
19.600000000000136,35.694461959416984,51.28335239418748,1297.999980292283,0.00012152642545970593,6.789606231905054e-06,0.0,-4.2069984829140594e-07,1.4360807654156815e-07,0.0,24.310816561228116,70.0,0.0,255.0,0.0
19.650000000000137,35.694468069333425,51.28335279663064,1297.9999798126519,0.00012150539049571307,6.796786578888714e-06,0.0,-4.2069927985721733e-07,1.4360693967319094e-07,0.0,24.352295823355107,70.0,0.0,255.0,0.0
19.700000000000138,35.69447417815453,51.283353199451085,1297.9999793376774,0.00012148435553172021,6.803966925872373e-06,0.0,-4.2069927985721733e-07,1.4360693967319094e-07,0.0,24.393767162434123,70.0,0.0,255.0,0.0
19.75000000000014,35.694480285880296,51.28335360264877,1297.9999788599089,0.00012146332056772735,6.811147272856033e-06,0.0,-4.2069927985721733e-07,1.4360693967319094e-07,0.0,24.435230578465166,70.0,0.0,255.0,0.0
19.80000000000014,35.69448639251072,51.28335400622365,1297.999978384003,0.00012144228560373449,6.8183276198396925e-06,0.0,-4.206981429888401e-07,1.436080765415546e-07,0.0,24.47668607144824,70.0,0.0,255.0,0.0
19.85000000000014,35.69449249804581,51.28335441017566,1297.9999779090285,0.00012142125075342847,6.82550808051019e-06,0.0,-4.206987114230287e-07,1.436080765415546e-07,0.0,24.518133641383336,70.0,0.0,255.0,0.0
19.90000000000014,35.69449860248558,51.283354814504776,1297.9999774349853,0.00012140021573259219,6.832688427493849e-06,0.0,-4.2069984829140594e-07,1.4360693967319094e-07,0.0,24.55957328827046,70.0,0.0,255.0,0.0
19.95000000000014,35.69450470583001,51.28335521921091,1297.9999769628048,0.00012137918076859933,6.839868774477509e-06,0.0,-4.206987114230287e-07,1.4360807654156815e-07,0.0,24.60100501210961,70.0,0.0,255.0,0.0
20.000000000000142,35.69451080807912,51.28335562429405,1297.999976492487,0.00012135814586144988,6.847049235148006e-06,0.0,-4.206987114230287e-07,1.4360807654156815e-07,0.0,24.642428812900793,70.0,0.0,255.0,0.0
20.050000000000143,35.69451690923292,51.28335602975414,1297.999976022169,0.00012133711089745702,6.854229582131666e-06,0.0,-4.2069927985721733e-07,1.4360693967319094e-07,0.0,24.683844690643998,70.0,0.0,255.0,0.0
20.100000000000144,35.694523009291395,51.28335643559111,1297.9999755509198,0.00012131607593346416,6.861409929115325e-06,0.0,-4.206992798570005e-07,1.4360580280481372e-07,0.0,24.725252645339232,70.0,0.0,255.0,0.0
20.150000000000144,35.694529108254564,51.2833568418049,1297.9999750824645,0.0001212950409694713,6.868590162412147e-06,0.0,-4.206992798570005e-07,1.4360693967319094e-07,0.0,24.76665267698649,70.0,0.0,255.0,0.0
20.200000000000145,35.69453520612243,51.283357248395504,1297.9999746149406,0.00012127400600547844,6.875770623082644e-06,0.0,-4.206987114230287e-07,1.4360921340994537e-07,0.0,24.808044785585775,70.0,0.0,255.0,0.0
20.250000000000146,35.694541302895,51.28335765536284,1297.9999741464853,0.000121252971098329,6.8829510837531416e-06,0.0,-4.206981429888401e-07,1.4360693967319094e-07,0.0,24.849428971137087,70.0,0.0,255.0,0.0
20.300000000000146,35.694547398572254,51.28335806270685,1297.999973680824,0.00012123193619117956,6.890131317049963e-06,0.0,-4.2069927985721733e-07,1.4360693967319094e-07,0.0,24.890805233640428,70.0,0.0,255.0,0.0
20.350000000000147,35.69455349315421,51.28335847042753,1297.9999732170254,0.00012121090117034328,6.897311777720461e-06,0.0,-4.2069984829140594e-07,1.4360807654156815e-07,0.0,24.932173573095792,70.0,0.0,255.0,0.0
20.400000000000148,35.69455958664087,51.28335887852478,1297.9999727532268,0.00012118986620635042,6.90449212470412e-06,0.0,-4.206987114230287e-07,1.4360693967319094e-07,0.0,24.973533989503185,70.0,0.0,255.0,0.0
20.45000000000015,35.69456567903225,51.28335928699857,1297.9999722894281,0.00012116883129920097,6.91167247168778e-06,0.0,-4.206987114230287e-07,1.436080765415546e-07,0.0,25.01488648286261,70.0,0.0,255.0,0.0
20.50000000000015,35.694571770328345,51.28335969584886,1297.9999718293548,0.00012114779633520811,6.918852932358277e-06,0.0,-4.2069927985721733e-07,1.4360693967317738e-07,0.0,25.056231053174056,70.0,0.0,255.0,0.0
20.55000000000015,35.69457786052917,51.28336010507559,1297.9999713664874,0.00012112676137121525,6.926033165655099e-06,0.0,-4.2069927985721733e-07,1.4360580280481372e-07,0.0,25.09756770043753,70.0,0.0,255.0,0.0
20.60000000000015,35.69458394963471,51.2833605146787,1297.999970906414,0.00012110572640722239,6.933213512638758e-06,0.0,-4.2069927985721733e-07,1.4360921340994537e-07,0.0,25.138896424653034,70.0,0.0,255.0,0.0
20.65000000000015,35.694590037644964,51.28336092465815,1297.999970447272,0.00012108469144322953,6.940394086996093e-06,0.0,-4.206987114230287e-07,1.4360807654156815e-07,0.0,25.180217225820563,70.0,0.0,255.0,0.0
20.700000000000152,35.69459612455995,51.28336133501391,1297.9999699890614,0.00012106365653608009,6.947574320292915e-06,0.0,-4.2069927985721733e-07,1.436046659364365e-07,0.0,25.221530103940115,70.0,0.0,255.0,0.0
20.750000000000153,35.6946022103797,51.28336174574588,1297.9999695308506,0.00012104262151524381,6.954754553589737e-06,0.0,-4.2069984829140594e-07,1.4360693967319094e-07,0.0,25.262835059011696,70.0,0.0,255.0,0.0
20.800000000000153,35.69460829510415,51.28336215685407,1297.9999690763652,0.00012102158655125095,6.961935014260234e-06,0.0,-4.206987114230287e-07,1.4360921340994537e-07,0.0,25.304132091035306,70.0,0.0,255.0,0.0
20.850000000000154,35.69461437873338,51.28336256833838,1297.9999686209485,0.0001210005516441015,6.969115474930732e-06,0.0,-4.206987114230287e-07,1.4360921340994537e-07,0.0,25.34542120001094,70.0,0.0,255.0,0.0
20.900000000000155,35.69462046126734,51.28336298019881,1297.999968166463,0.00012097951668010865,6.976295935601229e-06,0.0,-4.206987114230287e-07,1.4360693967319094e-07,0.0,25.3867023859386,70.0,0.0,255.0,0.0
20.950000000000156,35.694626542706054,51.283363392435255,1297.9999677138403,0.0001209584817729592,6.983476168898051e-06,0.0,-4.206981429888401e-07,1.4360580280481372e-07,0.0,25.427975648818293,70.0,0.0,255.0,0.0
21.000000000000156,35.69463262304953,51.283363805047706,1297.9999672612175,0.00012093744686580976,6.99065651588171e-06,0.0,-4.206987114230287e-07,1.4360807654156815e-07,0.0,25.46924098865001,70.0,0.0,255.0,0.0
21.050000000000157,35.69463870229776,51.283364218036105,1297.9999668085948,0.0001209164119018169,6.9978369765522075e-06,0.0,-4.2069927985721733e-07,1.4360693967319094e-07,0.0,25.510498405433754,70.0,0.0,255.0,0.0
21.100000000000158,35.694644780450766,51.283364631400396,1297.999966358766,0.00012089537693782404,7.005017209849029e-06,0.0,-4.2069984829140594e-07,1.4360693967317738e-07,0.0,25.551747899169523,70.0,0.0,255.0,0.0
21.15000000000016,35.69465085750853,51.28336504514051,1297.9999659089372,0.00012087434191698776,7.012197670519527e-06,0.0,-4.2069984829140594e-07,1.4360921340993182e-07,0.0,25.592989469857322,70.0,0.0,255.0,0.0
21.20000000000016,35.694656933471066,51.28336545925645,1297.9999654619023,0.0001208533069529949,7.019378131190024e-06,0.0,-4.206987114230287e-07,1.4360693967319094e-07,0.0,25.634223117497143,70.0,0.0,255.0,0.0
21.25000000000016,35.69466300833838,51.28336587374812,1297.9999650130048,0.00012083227204584546,7.026558364486846e-06,0.0,-4.206981429888401e-07,1.4360580280481372e-07,0.0,25.675448842088993,70.0,0.0,255.0,0.0
21.30000000000016,35.69466908211049,51.28336628861548,1297.9999645650387,0.00012081123713869601,7.033738711470505e-06,0.0,-4.206987114230287e-07,1.4360807654156815e-07,0.0,25.71666664363287,70.0,0.0,255.0,0.0
21.35000000000016,35.69467515478738,51.2833667038585,1297.9999641207978,0.00012079020217470315,7.0409191721410025e-06,0.0,-4.2069984829140594e-07,1.4360807654156815e-07,0.0,25.757876522128775,70.0,0.0,255.0,0.0
21.400000000000162,35.694681226369056,51.28336711947711,1297.999963676557,0.00012076916715386687,7.048099519124662e-06,0.0,-4.2069984829140594e-07,1.4360807654156815e-07,0.0,25.799078477576707,70.0,0.0,255.0,0.0
21.450000000000163,35.69468729685554,51.28336753547127,1297.9999632313848,0.00012074813218987401,7.055279979795159e-06,0.0,-4.2069927985721733e-07,1.4360807654156815e-07,0.0,25.840272509976664,70.0,0.0,255.0,0.0
21.500000000000163,35.69469336624682,51.28336795184093,1297.9999627880752,0.00012072709722588115,7.062460326778819e-06,0.0,-4.206987114230287e-07,1.4360580280481372e-07,0.0,25.88145861932865,70.0,0.0,255.0,0.0
21.550000000000164,35.694699434542905,51.283368368586025,1297.9999623466283,0.00012070606231873171,7.069640560075641e-06,0.0,-4.206981429888401e-07,1.4360693967319094e-07,0.0,25.922636805632663,70.0,0.0,255.0,0.0
21.600000000000165,35.69470550174379,51.283368785706536,1297.9999619051814,0.00012068502741158227,7.076821020746138e-06,0.0,-4.206987114230287e-07,1.4360807654156815e-07,0.0,25.963807068888702,70.0,0.0,255.0,0.0
21.650000000000166,35.69471156784951,51.2833692032024,1297.9999614646658,0.00012066399244758941,7.0840013677297975e-06,0.0,-4.2069927985721733e-07,1.4360693967319094e-07,0.0,26.004969409096766,70.0,0.0,255.0,0.0
21.700000000000166,35.69471763286005,51.28336962107356,1297.999961026013,0.00012064295748359655,7.091181714713457e-06,0.0,-4.206987114230287e-07,1.4360693967319094e-07,0.0,26.04612382625686,70.0,0.0,255.0,0.0
21.750000000000167,35.6947236967754,51.28337003931996,1297.9999605864286,0.0001206219225764471,7.098362061697117e-06,0.0,-4.206987114230287e-07,1.436080765415546e-07,0.0,26.08727032036898,70.0,0.0,255.0,0.0
21.800000000000168,35.694729759595596,51.28337045794158,1297.9999601496384,0.00012060088761245424,7.105542522367614e-06,0.0,-4.2069927985721733e-07,1.436080765415546e-07,0.0,26.128408891433125,70.0,0.0,255.0,0.0
21.85000000000017,35.69473582132062,51.283370876938356,1297.9999597137794,0.00012057985264846138,7.112722869351273e-06,0.0,-4.2069984829140594e-07,1.4360580280481372e-07,0.0,26.169539539449296,70.0,0.0,255.0,0.0
21.90000000000017,35.69474188195048,51.28337129631023,1297.999959276989,0.0001205588176276251,7.119903102648095e-06,0.0,-4.2069927985721733e-07,1.4360693967319094e-07,0.0,26.2106622644175,70.0,0.0,255.0,0.0
21.95000000000017,35.69474794148518,51.28337171605715,1297.9999588429928,0.00012053778272047566,7.1270835633185925e-06,0.0,-4.206981429888401e-07,1.4360921340994537e-07,0.0,26.251777066337727,70.0,0.0,255.0,0.0
22.00000000000017,35.694753999924735,51.28337213617909,1297.9999584089965,0.00012051674781332622,7.13426402398909e-06,0.0,-4.2069984829140594e-07,1.4360807654156815e-07,0.0,26.292883945209983,70.0,0.0,255.0,0.0
22.05000000000017,35.69476005726916,51.283372556675985,1297.9999579768628,0.00012049571273564652,7.141444370972749e-06,0.0,-4.2069984829140594e-07,1.4360693967319094e-07,0.0,26.33398290103426,70.0,0.0,255.0,0.0
22.100000000000172,35.69476611351841,51.283372977547785,1297.9999575456604,0.00012047467782849708,7.148624717956409e-06,0.0,-4.206981429888401e-07,1.4360693967319094e-07,0.0,26.37507393381057,70.0,0.0,255.0,0.0
22.150000000000173,35.69477216867255,51.28337339879444,1297.9999571135268,0.00012045364292134764,7.155805064940068e-06,0.0,-4.2069927985721733e-07,1.4360693967319094e-07,0.0,26.416157043538902,70.0,0.0,255.0,0.0
22.200000000000173,35.69477822273156,51.28337382041591,1297.999956684187,0.00012043260790051136,7.162985411923728e-06,0.0,-4.2069927985721733e-07,1.4360807654156815e-07,0.0,26.457232230219265,70.0,0.0,255.0,0.0
22.250000000000174,35.694784275695426,51.283374242412144,1297.9999562557787,0.00012041157299336191,7.170165872594225e-06,0.0,-4.206981429888401e-07,1.4360807654156815e-07,0.0,26.49829949385165,70.0,0.0,255.0,0.0
22.300000000000175,35.694790327564185,51.283374664783096,1297.999955826439,0.00012039053808621247,7.177346219577885e-06,0.0,-4.2069927985721733e-07,1.4360580280481372e-07,0.0,26.539358834436065,70.0,0.0,255.0,0.0
22.350000000000176,35.69479637833783,51.28337508752872,1297.9999553998932,0.0001203695030653762,7.184526452874707e-06,0.0,-4.2069984829140594e-07,1.4360693967319094e-07,0.0,26.58041025197251,70.0,0.0,255.0,0.0
22.400000000000176,35.69480242801638,51.28337551064893,1297.9999549733475,0.00012034846810138333,7.191706913545204e-06,0.0,-4.2069927985721733e-07,1.4360921340994537e-07,0.0,26.62145374646098,70.0,0.0,255.0,0.0
22.450000000000177,35.694808476599796,51.28337593414372,1297.999954547733,0.00012032743313739047,7.198887374215701e-06,0.0,-4.206987114230287e-07,1.436080765415546e-07,0.0,26.662489317901475,70.0,0.0,255.0,0.0
22.500000000000178,35.69481452408813,51.28337635801303,1297.9999541239813,0.00012030639823024103,7.206067721199361e-06,0.0,-4.206970061204629e-07,1.4360693967317738e-07,0.0,26.703516966294,70.0,0.0,255.0,0.0
22.55000000000018,35.694820570481355,51.283376782256816,1297.9999537011608,0.00012028536343677843,7.21324806818302e-06,0.0,-4.206981429888401e-07,1.4360693967319094e-07,0.0,26.744536691638547,70.0,0.0,255.0,0.0
22.60000000000018,35.694826615779526,51.283377206875,1297.999953277409,0.00012026432841594215,7.22042841516668e-06,0.0,-4.2070098515978316e-07,1.4360580280481372e-07,0.0,26.785548493935124,70.0,0.0,255.0,0.0
22.65000000000018,35.69483265998259,51.28337763186758,1297.9999528573826,0.00012024329333826245,7.227608648463502e-06,0.0,-4.2069984829140594e-07,1.4360580280481372e-07,0.0,26.826552373183727,70.0,0.0,255.0,0.0
22.70000000000018,35.69483870309059,51.28337805723445,1297.9999524354935,0.000120222258431113,7.234788995447161e-06,0.0,-4.206987114230287e-07,1.4360921340994537e-07,0.0,26.867548329384356,70.0,0.0,255.0,0.0
22.75000000000018,35.6948447451035,51.28337848297563,1297.999952015467,0.00012020122346712014,7.241969569804496e-06,0.0,-4.2069927985721733e-07,1.4361035027832258e-07,0.0,26.908536362537014,70.0,0.0,255.0,0.0
22.800000000000182,35.694850786021355,51.28337890909103,1297.9999515963718,0.00012018018850312728,7.249150030474993e-06,0.0,-4.2069927985721733e-07,1.4360693967319094e-07,0.0,26.949516472641697,70.0,0.0,255.0,0.0
22.850000000000183,35.69485682584414,51.28337933558059,1297.999951181002,0.00012015915353913442,7.256330263771815e-06,0.0,-4.206987114230287e-07,1.4360580280481372e-07,0.0,26.99048865969841,70.0,0.0,255.0,0.0
22.900000000000183,35.69486286457188,51.28337976244428,1297.9999507619068,0.00012013811863198498,7.263510610755475e-06,0.0,-4.206981429888401e-07,1.4360693967319094e-07,0.0,27.031452923707146,70.0,0.0,255.0,0.0
22.950000000000184,35.69486890220457,51.283380189682056,1297.999950346537,0.00012011708372483554,7.270690957739134e-06,0.0,-4.2069984829140594e-07,1.4360693967319094e-07,0.0,27.072409264667915,70.0,0.0,255.0,0.0
23.000000000000185,35.69487493874221,51.283380617293865,1297.9999499320984,0.00012009604864715584,7.277871304722794e-06,0.0,-4.2069984829140594e-07,1.4360921340994537e-07,0.0,27.113357682580705,70.0,0.0,255.0,0.0
23.050000000000185,35.69488097418482,51.28338104527964,1297.9999495167285,0.0001200750137400064,7.285051879080129e-06,0.0,-4.206975745546515e-07,1.4360807654156815e-07,0.0,27.154298177445522,70.0,0.0,255.0,0.0
23.100000000000186,35.6948870085324,51.28338147363937,1297.9999491041526,0.00012005397888970037,7.292232112376951e-06,0.0,-4.206987114230287e-07,1.4360466593642295e-07,0.0,27.195230749262368,70.0,0.0,255.0,0.0
23.150000000000187,35.69489304178493,51.283381902372966,1297.9999486915767,0.0001200329438688641,7.2994123456737725e-06,0.0,-4.2070041672559455e-07,1.436080765415546e-07,0.0,27.23615539803124,70.0,0.0,255.0,0.0
23.200000000000188,35.694899073942466,51.28338233148041,1297.9999482790008,0.00012001190884802782,7.3065929200311075e-06,0.0,-4.2069927985721733e-07,1.4360921340994537e-07,0.0,27.277072123752138,70.0,0.0,255.0,0.0
23.25000000000019,35.69490510500497,51.283382760961665,1297.9999478682876,0.00011999087394087837,7.313773267014767e-06,0.0,-4.206975745546515e-07,1.4360580280481372e-07,0.0,27.31798092642506,70.0,0.0,255.0,0.0
23.30000000000019,35.69491113497246,51.283383190816615,1297.9999474585056,0.00011996983909057235,7.320953500311589e-06,0.0,-4.206981429888401e-07,1.4360693967319094e-07,0.0,27.358881806050015,70.0,0.0,255.0,0.0
23.35000000000019,35.69491716384497,51.28338362104528,1297.999947049655,0.00011994880412657949,7.328133960982086e-06,0.0,-4.2069984829140594e-07,1.4360807654156815e-07,0.0,27.399774762626997,70.0,0.0,255.0,0.0
23.40000000000019,35.69492319162247,51.283384051647595,1297.9999466435984,0.00011992776910574321,7.335314307965746e-06,0.0,-4.2069984829140594e-07,1.4360693967319094e-07,0.0,27.440659796156,70.0,0.0,255.0,0.0
23.45000000000019,35.69492921830498,51.28338448262349,1297.9999462347478,0.00011990673414175035,7.342494654949405e-06,0.0,-4.2069927985721733e-07,1.4360807654156815e-07,0.0,27.48153690663704,70.0,0.0,255.0,0.0
23.500000000000192,35.69493524389251,51.28338491397293,1297.9999458296224,0.00011988569917775749,7.3496751156199025e-06,0.0,-4.2069927985721733e-07,1.4360807654156815e-07,0.0,27.5224060940701,70.0,0.0,255.0,0.0
23.550000000000193,35.694941268385044,51.28338534569589,1297.9999454235658,0.00011986466421376463,7.356855462603562e-06,0.0,-4.206987114230287e-07,1.4360693967319094e-07,0.0,27.563267358455185,70.0,0.0,255.0,0.0
23.600000000000193,35.69494729178261,51.283385777792276,1297.9999450212345,0.00011984362930661518,7.364035809587222e-06,0.0,-4.206987114230287e-07,1.4360693967319094e-07,0.0,27.604120699792297,70.0,0.0,255.0,0.0
23.650000000000194,35.69495331408522,51.28338621026209,1297.9999446151778,0.00011982259434262232,7.371216156570881e-06,0.0,-4.2069927985721733e-07,1.4360693967319094e-07,0.0,27.644966118081438,70.0,0.0,255.0,0.0
23.700000000000195,35.69495933529286,51.283386643105246,1297.9999442128465,0.00011980155937862946,7.378396503554541e-06,0.0,-4.206992798570005e-07,1.4360807654156815e-07,0.0,27.685803613322605,70.0,0.0,255.0,0.0
23.750000000000195,35.69496535540554,51.2833870763217,1297.999943810515,0.0001197805244146366,7.385576964225038e-06,0.0,-4.206987114228119e-07,1.436080765415546e-07,0.0,27.726633185515798,70.0,0.0,255.0,0.0
23.800000000000196,35.69497137442328,51.28338750991142,1297.999943409115,0.00011975948950748716,7.3927573112086975e-06,0.0,-4.206987114230287e-07,1.4360693967317738e-07,0.0,27.767454834661024,70.0,0.0,255.0,0.0
23.850000000000197,35.69497739234608,51.28338794387435,1297.999943010509,0.0001197384545434943,7.399937658192357e-06,0.0,-4.2069984829140594e-07,1.4360693967319094e-07,0.0,27.808268560758272,70.0,0.0,255.0,0.0
23.900000000000198,35.69498340917393,51.28338837821043,1297.9999426109716,0.00011971741952265802,7.407118005176017e-06,0.0,-4.206987114230287e-07,1.4360693967319094e-07,0.0,27.849074363807546,70.0,0.0,255.0,0.0
23.9500000000002,35.69498942490686,51.28338881291964,1297.9999422123656,0.000119696384672352,7.414298352159676e-06,0.0,-4.206981429888401e-07,1.4360807654156815e-07,0.0,27.889872243808853,70.0,0.0,255.0,0.0
24.0000000000002,35.69499543954487,51.28338924800191,1297.9999418156222,0.00011967534970835914,7.421478812830173e-06,0.0,-4.2069927985721733e-07,1.4360807654156815e-07,0.0,27.93066220076218,70.0,0.0,255.0,0.0
24.0500000000002,35.69500145308795,51.2833896834572,1297.9999414207414,0.00011965431474436627,7.428659159813833e-06,0.0,-4.206987114230287e-07,1.4360580280481372e-07,0.0,27.971444234667533,70.0,0.0,255.0,0.0
24.1000000000002,35.695007465536136,51.28339011928546,1297.9999410249293,0.00011963327983721683,7.435839393110655e-06,0.0,-4.2069927985721733e-07,1.4360807654156815e-07,0.0,28.012218345524918,70.0,0.0,255.0,0.0
24.1500000000002,35.69501347688941,51.28339055548662,1297.9999406309798,0.00011961224481638055,7.44301996746799e-06,0.0,-4.2070041672559455e-07,1.4360921340994537e-07,0.0,28.052984533334325,70.0,0.0,255.0,0.0
24.200000000000202,35.695019487147775,51.28339099206069,1297.9999402379617,0.00011959120979554427,7.450200314451649e-06,0.0,-4.2069927985721733e-07,1.4360580280481372e-07,0.0,28.09374279809576,70.0,0.0,255.0,0.0
24.250000000000203,35.69502549631125,51.28339142900757,1297.9999398449436,0.00011957017488839483,7.457380547748471e-06,0.0,-4.206975745546515e-07,1.4360807654156815e-07,0.0,28.134493139809226,70.0,0.0,255.0,0.0
24.300000000000203,35.695031504379855,51.28339186632723,1297.9999394519255,0.00011954914003808881,7.464561122105806e-06,0.0,-4.206987114230287e-07,1.4360807654156815e-07,0.0,28.175235558474718,70.0,0.0,255.0,0.0
24.350000000000204,35.69503751135356,51.28339230401962,1297.9999390598387,0.00011952810501725253,7.471741355402628e-06,0.0,-4.2069984829140594e-07,1.436046659364365e-07,0.0,28.215970054092235,70.0,0.0,255.0,0.0
24.400000000000205,35.69504351723241,51.28339274208469,1297.9999386714771,0.00011950707005325967,7.47892158869945e-06,0.0,-4.2069927985721733e-07,1.4360807654156815e-07,0.0,28.256696626661782,70.0,0.0,255.0,0.0
24.450000000000205,35.69504952201639,51.2833931805224,1297.999938281253,0.0001194860350892668,7.486102163056785e-06,0.0,-4.2069984829140594e-07,1.4360921340993182e-07,0.0,28.29741527618335,70.0,0.0,255.0,0.0
24.500000000000206,35.695055525705506,51.28339361933269,1297.9999378928915,0.00011946500006843053,7.493282510040444e-06,0.0,-4.206987114230287e-07,1.4360693967317738e-07,0.0,28.33812600265695,70.0,0.0,255.0,0.0
24.550000000000207,35.69506152829976,51.283394058515526,1297.9999375063926,0.0001194439652181245,7.500462857024104e-06,0.0,-4.206975745546515e-07,1.4360693967319094e-07,0.0,28.378828806082574,70.0,0.0,255.0,0.0
24.600000000000207,35.69506752979919,51.28339449807085,1297.999937120825,0.00011942293031097506,7.507643204007763e-06,0.0,-4.2069927985721733e-07,1.4360693967319094e-07,0.0,28.419523686460224,70.0,0.0,255.0,0.0
24.650000000000208,35.69507353020378,51.283394937998615,1297.9999367333949,0.00011940189529013878,7.514823550991423e-06,0.0,-4.2069984829140594e-07,1.4360807654156815e-07,0.0,28.460210643789903,70.0,0.0,255.0,0.0
24.70000000000021,35.69507952951353,51.28339537829879,1297.9999363487586,0.00011938086032614592,7.52200401166192e-06,0.0,-4.206987114230287e-07,1.4360693967319094e-07,0.0,28.50088967807161,70.0,0.0,255.0,0.0
24.75000000000021,35.69508552772846,51.2833958189713,1297.9999359650537,0.00011935982541899648,7.529184244958742e-06,0.0,-4.206981429888401e-07,1.4360693967319094e-07,0.0,28.541560789305343,70.0,0.0,255.0,0.0
24.80000000000021,35.695091524848564,51.28339626001612,1297.9999355813488,0.00011933879051184704,7.536364705629239e-06,0.0,-4.206987114230287e-07,1.4360807654156815e-07,0.0,28.5822239774911,70.0,0.0,255.0,0.0
24.85000000000021,35.695097520873865,51.28339670143319,1297.9999351985753,0.00011931775554785418,7.543545052612899e-06,0.0,-4.2069984829140594e-07,1.4360693967319094e-07,0.0,28.622879242628887,70.0,0.0,255.0,0.0
24.90000000000021,35.69510351580436,51.28339714322247,1297.999934816733,0.0001192967205270179,7.550725399596558e-06,0.0,-4.2069984829140594e-07,1.4360807654156815e-07,0.0,28.663526584718703,70.0,0.0,255.0,0.0
24.950000000000212,35.69510950964005,51.28339758538391,1297.9999344367534,0.00011927568556302504,7.557905860267056e-06,0.0,-4.2069927985721733e-07,1.4360807654156815e-07,0.0,28.70416600376054,70.0,0.0,255.0,0.0
25.000000000000213,35.69511550238094,51.283398027917464,1297.9999340586364,0.00011925465059903217,7.565086207250715e-06,0.0,-4.206987114230287e-07,1.4360693967319094e-07,0.0,28.744797499754405,70.0,0.0,255.0,0.0
25.050000000000214,35.69512149402706,51.28339847082308,1297.9999336805195,0.00011923361569188273,7.572266554234375e-06,0.0,-4.206987114230287e-07,1.4360693967319094e-07,0.0,28.7854210727003,70.0,0.0,255.0,0.0
25.100000000000215,35.69512748457841,51.28339891410071,1297.9999333024025,0.00011921258072788987,7.579446901218034e-06,0.0,-4.2069984829140594e-07,1.436080765415546e-07,0.0,28.826036722598218,70.0,0.0,255.0,0.0
25.150000000000215,35.695133474034975,51.28339935775031,1297.9999329242855,0.00011919154570705359,7.586627361888532e-06,0.0,-4.206987114230287e-07,1.4360693967317738e-07,0.0,28.866644449448167,70.0,0.0,255.0,0.0
25.200000000000216,35.69513946239679,51.28339980177183,1297.9999325480312,0.00011917051085674757,7.593807595185353e-06,0.0,-4.206975745546515e-07,1.4360580280481372e-07,0.0,28.90724425325014,70.0,0.0,255.0,0.0
25.250000000000217,35.69514544966385,51.283400246165236,1297.9999321736395,0.00011914947594959813,7.600987942169013e-06,0.0,-4.2069927985721733e-07,1.4360807654156815e-07,0.0,28.947836134004145,70.0,0.0,255.0,0.0
25.300000000000217,35.695151435836145,51.283400690930456,1297.9999317992479,0.00011912844092876185,7.60816840283951e-06,0.0,-4.2069984829140594e-07,1.4360807654156815e-07,0.0,28.98842009171017,70.0,0.0,255.0,0.0
25.350000000000218,35.695157420913716,51.28340113606746,1297.9999314239249,0.00011910740596476899,7.61534874982317e-06,0.0,-4.2069927985721733e-07,1.4360693967319094e-07,0.0,29.028996126368227,70.0,0.0,255.0,0.0
25.40000000000022,35.69516340489654,51.2834015815762,1297.9999310532585,0.00011908637100077613,7.622529096806829e-06,0.0,-4.2069984829140594e-07,1.4360807654156815e-07,0.0,29.06956423797831,70.0,0.0,255.0,0.0
25.45000000000022,35.69516938778464,51.283402027456624,1297.9999306807294,0.00011906533597993985,7.629709557477327e-06,0.0,-4.2069927985721733e-07,1.4360921340994537e-07,0.0,29.110124426540416,70.0,0.0,255.0,0.0
25.50000000000022,35.69517536957803,51.28340247370869,1297.9999303091317,0.0001190443010727904,7.636890018147824e-06,0.0,-4.206975745546515e-07,1.4360580280481372e-07,0.0,29.150676692054553,70.0,0.0,255.0,0.0
25.55000000000022,35.69518135027669,51.28340292033235,1297.9999299393967,0.00011902326622248438,7.644070137757808e-06,0.0,-4.206975745546515e-07,1.436046659364365e-07,0.0,29.191221034520716,70.0,0.0,255.0,0.0
25.60000000000022,35.69518732988066,51.283403367327544,1297.999929570593,0.00011900223131533494,7.651250484741468e-06,0.0,-4.2069927985721733e-07,1.4360921340994537e-07,0.0,29.231757453938904,70.0,0.0,255.0,0.0
25.650000000000222,35.69519330838992,51.28340381469425,1297.9999292027205,0.00011898119629449866,7.658431059098803e-06,0.0,-4.2069984829140594e-07,1.4360921340994537e-07,0.0,29.27228595030912,70.0,0.0,255.0,0.0
25.700000000000223,35.69519928580451,51.28340426243239,1297.999928834848,0.0001189601613305058,7.665611406082462e-06,0.0,-4.2069927985721733e-07,1.4360693967319094e-07,0.0,29.312806523631366,70.0,0.0,255.0,0.0
25.750000000000224,35.69520526212441,51.28340471054195,1297.9999284669757,0.00011893912636651294,7.672791753066122e-06,0.0,-4.2069984829140594e-07,1.4360693967317738e-07,0.0,29.353319173905632,70.0,0.0,255.0,0.0
25.800000000000225,35.69521123734963,51.28340515902286,1297.999928100966,0.00011891809134567666,7.679972100049781e-06,0.0,-4.2069927985721733e-07,1.4360693967317738e-07,0.0,29.39382390113193,70.0,0.0,255.0,0.0
25.850000000000225,35.69521721148019,51.283405607875075,1297.9999277368188,0.00011889705643852722,7.68715244703344e-06,0.0,-4.206987114230287e-07,1.4360807654156815e-07,0.0,29.434320705310256,70.0,0.0,255.0,0.0
25.900000000000226,35.695223184516074,51.28340605709855,1297.9999273726717,0.00011887602147453435,7.694332907703938e-06,0.0,-4.2069927985721733e-07,1.4360693967319094e-07,0.0,29.474809586440607,70.0,0.0,255.0,0.0
25.950000000000227,35.6952291564573,51.28340650669327,1297.9999270103872,0.0001188549865105415,7.70151314100076e-06,0.0,-4.206987114230287e-07,1.4360580280481372e-07,0.0,29.515290544522983,70.0,0.0,255.0,0.0
26.000000000000227,35.69523512730391,51.28340695665913,1297.9999266471714,0.00011883395160339205,7.70869348798442e-06,0.0,-4.206987114230287e-07,1.4360921340994537e-07,0.0,29.555763579557386,70.0,0.0,255.0,0.0
26.050000000000228,35.69524109705587,51.283407406996105,1297.9999262867495,0.00011881291663939919,7.715874062341754e-06,0.0,-4.2069927985721733e-07,1.4360807654156815e-07,0.0,29.596228691543818,70.0,0.0,255.0,0.0
26.10000000000023,35.6952470657132,51.28340785770418,1297.9999259253964,0.00011879188167540633,7.723054295638576e-06,0.0,-4.206987114230287e-07,1.4360580280481372e-07,0.0,29.636685880482275,70.0,0.0,255.0,0.0
26.15000000000023,35.69525303327589,51.283408308783265,1297.9999255668372,0.00011877084676825689,7.730234642622236e-06,0.0,-4.206987114230287e-07,1.4360807654156815e-07,0.0,29.67713514637276,70.0,0.0,255.0,0.0
26.20000000000023,35.695258999743984,51.283408760233335,1297.9999252064154,0.00011874981180426403,7.737415103292733e-06,0.0,-4.2069927985721733e-07,1.4360807654156815e-07,0.0,29.717576489215272,70.0,0.0,255.0,0.0
26.25000000000023,35.69526496511749,51.28340921205435,1297.9999248497188,0.00011872877684027117,7.744595450276393e-06,0.0,-4.2069927985721733e-07,1.4360693967319094e-07,0.0,29.75800990900981,70.0,0.0,255.0,0.0
26.30000000000023,35.695270929396365,51.28340966424626,1297.9999244911596,0.0001187077418762783,7.751775797260052e-06,0.0,-4.206987114230287e-07,1.4360580280481372e-07,0.0,29.79843540575638,70.0,0.0,255.0,0.0
26.350000000000232,35.69527689258065,51.28341011680898,1297.9999241353944,0.00011868670696912886,7.758956030556874e-06,0.0,-4.206987114230287e-07,1.4360693967319094e-07,0.0,29.838852979454973,70.0,0.0,255.0,0.0
26.400000000000233,35.695282854670374,51.283410569742514,1297.9999237805605,0.000118665672005136,7.766136491227371e-06,0.0,-4.2069984829140594e-07,1.4361035027830903e-07,0.0,29.87926263010559,70.0,0.0,255.0,0.0
26.450000000000234,35.6952888156655,51.2834110230468,1297.9999234257266,0.00011864463698429972,7.773317065584706e-06,0.0,-4.206987114230287e-07,1.436080765415546e-07,0.0,29.919664357708236,70.0,0.0,255.0,0.0
26.500000000000234,35.695294775566076,51.28341147672178,1297.9999230708927,0.0001186236021339937,7.780497298881528e-06,0.0,-4.206981429888401e-07,1.4360580280481372e-07,0.0,29.960058162262907,70.0,0.0,255.0,0.0
26.550000000000235,35.69530073437209,51.28341193076742,1297.9999227188528,0.00011860256717000084,7.787677645865188e-06,0.0,-4.2069984829140594e-07,1.4360807654156815e-07,0.0,30.00044404376961,70.0,0.0,255.0,0.0
26.600000000000236,35.69530669208354,51.283412385183674,1297.9999223658815,0.00011858153214916456,7.794858106535685e-06,0.0,-4.2069927985721733e-07,1.4360693967319094e-07,0.0,30.040822002228335,70.0,0.0,255.0,0.0
26.650000000000237,35.69531264870046,51.28341283997048,1297.9999220129102,0.00011856049724201512,7.802038339832507e-06,0.0,-4.2069927985721733e-07,1.4360693967319094e-07,0.0,30.08119203763909,70.0,0.0,255.0,0.0
26.700000000000237,35.695318604222834,51.283413295127794,1297.9999216636643,0.00011853946222117884,7.809218800503004e-06,0.0,-4.2069984829140594e-07,1.4360807654156815e-07,0.0,30.12155415000187,70.0,0.0,255.0,0.0
26.750000000000238,35.69532455865068,51.2834137506556,1297.9999213125557,0.00011851842725718598,7.816399147486663e-06,0.0,-4.206981429888401e-07,1.4360580280481372e-07,0.0,30.16190833931668,70.0,0.0,255.0,0.0
26.80000000000024,35.69533051198401,51.283414206553815,1297.9999209661037,0.00011849739240687995,7.823579380783485e-06,0.0,-4.206987114230287e-07,1.4360807654156815e-07,0.0,30.202254605583516,70.0,0.0,255.0,0.0
26.85000000000024,35.695336464222834,51.2834146628224,1297.9999206168577,0.00011847635738604367,7.83075995514082e-06,0.0,-4.2069984829140594e-07,1.4360921340994537e-07,0.0,30.242592948802375,70.0,0.0,255.0,0.0
26.90000000000024,35.69534241536715,51.28341511946133,1297.9999202704057,0.00011845532242205081,7.83794030212448e-06,0.0,-4.206987114230287e-07,1.4360580280481372e-07,0.0,30.282923368973265,70.0,0.0,255.0,0.0
26.95000000000024,35.695348365416976,51.28341557647054,1297.9999199230224,0.00011843428751490137,7.845120535421302e-06,0.0,-4.206987114230287e-07,1.4360693967319094e-07,0.0,30.323245866096176,70.0,0.0,255.0,0.0
27.00000000000024,35.6953543143723,51.28341603384997,1297.9999195775017,0.00011841325255090851,7.852300996091799e-06,0.0,-4.2069927985721733e-07,1.4360807654156815e-07,0.0,30.36356044017112,70.0,0.0,255.0,0.0
27.050000000000242,35.69536026223317,51.28341649159961,1297.9999192329124,0.00011839221758691565,7.859481343075458e-06,0.0,-4.206987114230287e-07,1.4360693967319094e-07,0.0,30.403867091198087,70.0,0.0,255.0,0.0
27.100000000000243,35.69536620899953,51.283416949719395,1297.999918888323,0.00011837118267976621,7.866661690059118e-06,0.0,-4.206975745546515e-07,1.436080765415546e-07,0.0,30.444165819177083,70.0,0.0,255.0,0.0
27.150000000000244,35.69537215467147,51.283417408209274,1297.9999185465276,0.00011835014782946018,7.873842150729615e-06,0.0,-4.206987114230287e-07,1.436080765415546e-07,0.0,30.48445662410811,70.0,0.0,255.0,0.0
27.200000000000244,35.69537809924895,51.28341786706921,1297.999918203801,0.0001183291128086239,7.881022497713275e-06,0.0,-4.2070041672559455e-07,1.4360693967319094e-07,0.0,30.524739505991157,70.0,0.0,255.0,0.0
27.250000000000245,35.69538404273197,51.28341832629915,1297.9999178610742,0.00011830807778778762,7.888202844696934e-06,0.0,-4.2070041672559455e-07,1.4360693967319094e-07,0.0,30.565014464826234,70.0,0.0,255.0,0.0
27.300000000000246,35.695389985120556,51.28341878589904,1297.9999175230041,0.00011828704276695134,7.895383191680594e-06,0.0,-4.2069984829140594e-07,1.4360693967319094e-07,0.0,30.605281500613337,70.0,0.0,255.0,0.0
27.350000000000247,35.69539592641472,51.28341924586885,1297.9999171830714,0.00011826600780295848,7.902563538664253e-06,0.0,-4.206981429886233e-07,1.4360693967319094e-07,0.0,30.645540613352466,70.0,0.0,255.0,0.0
27.400000000000247,35.69540186661445,51.28341970620853,1297.999916841276,0.00011824497295265246,7.909743885647913e-06,0.0,-4.2069757455443467e-07,1.4360807654156815e-07,0.0,30.685791803043625,70.0,0.0,255.0,0.0
27.450000000000248,35.695407805719775,51.28342016691803,1297.9999165050685,0.00011822393804550302,7.91692434631841e-06,0.0,-4.2069927985721733e-07,1.4360921340994537e-07,0.0,30.72603506968681,70.0,0.0,255.0,0.0
27.50000000000025,35.695413743730704,51.28342062799731,1297.9999161679298,0.00011820290302466674,7.924104806988908e-06,0.0,-4.2069984829140594e-07,1.4360693967319094e-07,0.0,30.76627041328202,70.0,0.0,255.0,0.0
27.55000000000025,35.69541968064723,51.28342108944633,1297.999915833585,0.00011818186806067388,7.93128504028573e-06,0.0,-4.206987114230287e-07,1.436046659364365e-07,0.0,30.806497833829255,70.0,0.0,255.0,0.0
27.60000000000025,35.69542561646938,51.28342155126501,1297.9999154955149,0.00011816083315352444,7.938465273582551e-06,0.0,-4.2069927985721733e-07,1.4360693967319094e-07,0.0,30.84671733132852,70.0,0.0,255.0,0.0
27.65000000000025,35.695431551197146,51.28342201345333,1297.9999151593074,0.00011813979813268816,7.945645734253048e-06,0.0,-4.2069927985721733e-07,1.4361035027832258e-07,0.0,30.88692890577981,70.0,0.0,255.0,0.0
27.70000000000025,35.69543748483054,51.28342247601126,1297.9999148277566,0.00011811876322553871,7.952826308610383e-06,0.0,-4.206981429888401e-07,1.4360807654156815e-07,0.0,30.92713255718313,70.0,0.0,255.0,0.0
27.750000000000252,35.695443417369574,51.283422938938735,1297.9999144934118,0.00011809772831838927,7.960006541907205e-06,0.0,-4.2069927985721733e-07,1.4360580280480017e-07,0.0,30.96732828553848,70.0,0.0,255.0,0.0
27.800000000000253,35.69544934881426,51.28342340223569,1297.999914161861,0.00011807669329755299,7.967186888890865e-06,0.0,-4.2069927985721733e-07,1.436080765415546e-07,0.0,31.00751609084585,70.0,0.0,255.0,0.0
27.850000000000254,35.6954552791646,51.28342386590212,1297.9999138293788,0.00011805565839040355,7.974367349561362e-06,0.0,-4.206981429888401e-07,1.4360693967319094e-07,0.0,31.04769597310525,70.0,0.0,255.0,0.0
27.900000000000254,35.69546120842061,51.283424329937944,1297.9999134996906,0.00011803462348325411,7.981547582858184e-06,0.0,-4.2069927985721733e-07,1.4360693967319094e-07,0.0,31.087867932316673,70.0,0.0,255.0,0.0
27.950000000000255,35.695467136582295,51.28342479434314,1297.999913169071,0.00011801358846241783,7.988728043528681e-06,0.0,-4.2069984829140594e-07,1.4360807654156815e-07,0.0,31.128031968480126,70.0,0.0,255.0,0.0
28.000000000000256,35.695473063649665,51.283425259117664,1297.9999128412455,0.00011799255349842497,7.99590839051234e-06,0.0,-4.2069927985721733e-07,1.4360693967319094e-07,0.0,31.168188081595602,70.0,0.0,255.0,0.0
28.050000000000257,35.69547898962272,51.28342572426144,1297.9999125124887,0.00011797151853443211,8.003088737496e-06,0.0,-4.206987114230287e-07,1.4360807654156815e-07,0.0,31.20833627166311,70.0,0.0,255.0,0.0
28.100000000000257,35.69548491450148,51.283426189774445,1297.9999121855944,0.00011795048362728267,8.010269198166498e-06,0.0,-4.206981429888401e-07,1.4360693967319094e-07,0.0,31.248476538682645,70.0,0.0,255.0,0.0
28.150000000000258,35.69549083828596,51.28342665565664,1297.9999118559062,0.00011792944872013322,8.01744943146332e-06,0.0,-4.2069927985721733e-07,1.4360693967319094e-07,0.0,31.288608882654206,70.0,0.0,255.0,0.0
28.20000000000026,35.69549676097614,51.28342712190796,1297.999911531806,0.00011790841369929694,8.024629892133817e-06,0.0,-4.2070041672559455e-07,1.4360807654156815e-07,0.0,31.328733303577796,70.0,0.0,255.0,0.0
28.25000000000026,35.69550268257206,51.28342758852838,1297.9999112067744,0.00011788737867846066,8.031810239117476e-06,0.0,-4.2069927985721733e-07,1.4360693967319094e-07,0.0,31.368849801453408,70.0,0.0,255.0,0.0
28.30000000000026,35.69550860307371,51.28342805551783,1297.9999108836055,0.00011786634377131122,8.038990586101136e-06,0.0,-4.206981429888401e-07,1.4360807654156815e-07,0.0,31.40895837628105,70.0,0.0,255.0,0.0
28.35000000000026,35.6955145224811,51.2834285228763,1297.9999105595052,0.00011784530886416178,8.046171046771633e-06,0.0,-4.206987114230287e-07,1.4360693967319094e-07,0.0,31.449059028060717,70.0,0.0,255.0,0.0
28.40000000000026,35.695520440794255,51.2834289906037,1297.9999102372676,0.00011782427390016892,8.053351280068455e-06,0.0,-4.2069927985721733e-07,1.4360693967317738e-07,0.0,31.48915175679241,70.0,0.0,255.0,0.0
28.450000000000262,35.69552635801319,51.28342945870002,1297.9999099159613,0.00011780323893617606,8.060531740738952e-06,0.0,-4.2069927985721733e-07,1.436080765415546e-07,0.0,31.52923656247613,70.0,0.0,255.0,0.0
28.500000000000263,35.69553227413788,51.2834299271652,1297.9999095927924,0.0001177822039721832,8.067712087722612e-06,0.0,-4.206987114230287e-07,1.4360693967319094e-07,0.0,31.569313445111877,70.0,0.0,255.0,0.0
28.550000000000264,35.69553818916835,51.2834303959992,1297.99990927428,0.00011776116906503376,8.074892434706271e-06,0.0,-4.206981429888401e-07,1.4360807654156815e-07,0.0,31.60938240469965,70.0,0.0,255.0,0.0
28.600000000000264,35.69554410310462,51.28343086520196,1297.999908953905,0.00011774013415788431,8.082072895376768e-06,0.0,-4.206987114230287e-07,1.4360693967319094e-07,0.0,31.649443441239455,70.0,0.0,255.0,0.0
28.650000000000265,35.69555001594669,51.28343133477346,1297.9999086353928,0.00011771909919389145,8.08925312867359e-06,0.0,-4.2069927985721733e-07,1.4360693967319094e-07,0.0,31.68949655473129,70.0,0.0,255.0,0.0
28.700000000000266,35.69555592769457,51.283431804713615,1297.9999083159491,0.00011769806422989859,8.096433589344088e-06,0.0,-4.2069984829140594e-07,1.4360921340994537e-07,0.0,31.729541745175137,70.0,0.0,255.0,0.0
28.750000000000266,35.69556183834827,51.28343227502242,1297.9999079992995,0.00011767702920906231,8.103614050014585e-06,0.0,-4.2069984829140594e-07,1.4360693967319094e-07,0.0,31.76957901257103,70.0,0.0,255.0,0.0
28.800000000000267,35.69556774790779,51.28343274569982,1297.9999076835811,0.00011765599424506945,8.110794283311407e-06,0.0,-4.206987114230287e-07,1.4360580280481372e-07,0.0,31.809608356918936,70.0,0.0,255.0,0.0
28.850000000000268,35.69557365637314,51.283433216745756,1297.999907368794,0.00011763495933792001,8.117974630295066e-06,0.0,-4.2069927985721733e-07,1.4360807654156815e-07,0.0,31.849629778218873,70.0,0.0,255.0,0.0
28.90000000000027,35.695579563744346,51.2834336881602,1297.9999070530757,0.00011761392431708373,8.125155090965563e-06,0.0,-4.2069927985721733e-07,1.4360807654156815e-07,0.0,31.889643276470835,70.0,0.0,255.0,0.0
28.95000000000027,35.69558547002141,51.283434159943106,1297.999906742014,0.00011759288940993429,8.132335437949223e-06,0.0,-4.206981429888401e-07,1.4360580280481372e-07,0.0,31.929648851674823,70.0,0.0,255.0,0.0
29.00000000000027,35.69559137520434,51.283434632094405,1297.9999064281583,0.00011757185450278484,8.139515671246045e-06,0.0,-4.2069927985721733e-07,1.4360693967319094e-07,0.0,31.969646503830848,70.0,0.0,255.0,0.0
29.05000000000027,35.695597279293146,51.283435104614064,1297.999906115234,0.00011755081948194857,8.146696131916542e-06,0.0,-4.2069927985721733e-07,1.4360921340994537e-07,0.0,32.00963623293888,70.0,0.0,255.0,0.0
29.10000000000027,35.695603182287826,51.283435577502054,1297.9999058032408,0.00011752978457479912,8.15387659258704e-06,0.0,-4.206987114230287e-07,1.436080765415546e-07,0.0,32.049618038998965,70.0,0.0,255.0,0.0
29.150000000000272,35.69560908418842,51.28343605075832,1297.9999054940417,0.00011750874961080626,8.161056939570699e-06,0.0,-4.2069927985721733e-07,1.4360693967317738e-07,0.0,32.08959192201105,70.0,0.0,255.0,0.0
29.200000000000273,35.69561498499491,51.28343652438281,1297.99990518298,0.0001174877146468134,8.168237286554358e-06,0.0,-4.206987114230287e-07,1.4360693967319094e-07,0.0,32.12955788197518,70.0,0.0,255.0,0.0
29.250000000000274,35.69562088470732,51.28343699837547,1297.999904873781,0.00011746667973966396,8.175417633538018e-06,0.0,-4.2069927985721733e-07,1.4360693967319094e-07,0.0,32.169515918891335,70.0,0.0,255.0,0.0
29.300000000000274,35.69562678332563,51.28343747273629,1297.9999045664445,0.00011744564471882768,8.182597980521678e-06,0.0,-4.2069927985721733e-07,1.4360693967319094e-07,0.0,32.209466032759515,70.0,0.0,255.0,0.0
29.350000000000275,35.69563268084989,51.28343794746519,1297.9999042572454,0.00011742460981167824,8.189778327505337e-06,0.0,-4.206975745546515e-07,1.4360807654156815e-07,0.0,32.249408223579714,70.0,0.0,255.0,0.0
29.400000000000276,35.69563857728009,51.28343842256215,1297.9999039489776,0.00011740357496137221,8.196958788175834e-06,0.0,-4.206987114230287e-07,1.4360807654156815e-07,0.0,32.289342491351945,70.0,0.0,255.0,0.0
29.450000000000276,35.695644472616245,51.28343889802711,1297.999903644435,0.00011738253994053593,8.204139135159494e-06,0.0,-4.2070041672559455e-07,1.4360693967319094e-07,0.0,32.32926883607622,70.0,0.0,255.0,0.0
29.500000000000277,35.69565036685836,51.28343937386003,1297.99990333803,0.00011736150491969966,8.211319482143153e-06,0.0,-4.2069927985721733e-07,1.4360807654156815e-07,0.0,32.36918725775249,70.0,0.0,255.0,0.0
29.550000000000278,35.69565626000644,51.28343985006085,1297.9999030344188,0.00011734047001255021,8.21849994281365e-06,0.0,-4.206987114230287e-07,1.4360693967319094e-07,0.0,32.40909775638081,70.0,0.0,255.0,0.0
29.60000000000028,35.69566215206049,51.28344032662955,1297.9999027336016,0.00011731943504855735,8.225680176110473e-06,0.0,-4.2069984829140594e-07,1.4360580280481372e-07,0.0,32.449000331961145,70.0,0.0,255.0,0.0
29.65000000000028,35.69566804302055,51.28344080356608,1297.9999024290591,0.00011729840002772107,8.232860523094132e-06,0.0,-4.206987114230287e-07,1.4360921340994537e-07,0.0,32.48889498449351,70.0,0.0,255.0,0.0
29.70000000000028,35.6956739328866,51.28344128087039,1297.9999021263793,0.00011727736517741505,8.240041097451467e-06,0.0,-4.206975745546515e-07,1.4360807654156815e-07,0.0,32.52878171397791,70.0,0.0,255.0,0.0
29.75000000000028,35.695679821658665,51.28344175854244,1297.9999018255621,0.00011725633027026561,8.247221330748289e-06,0.0,-4.2069927985721733e-07,1.4360580280480017e-07,0.0,32.568660520414326,70.0,0.0,255.0,0.0
29.80000000000028,35.69568570933675,51.28344223658216,1297.999901524745,0.00011723529524942933,8.254401677731948e-06,0.0,-4.2070041672559455e-07,1.436080765415546e-07,0.0,32.60853140380278,70.0,0.0,255.0,0.0
29.850000000000282,35.69569159592086,51.28344271498955,1297.9999012257904,0.00011721426022859305,8.261582138402446e-06,0.0,-4.2069984829140594e-07,1.4360807654156815e-07,0.0,32.64839436414325,70.0,0.0,255.0,0.0
29.900000000000283,35.695697481411,51.28344319376453,1297.9999009259045,0.00011719322526460019,8.268762485386105e-06,0.0,-4.206981429888401e-07,1.4360693967319094e-07,0.0,32.68824940143575,70.0,0.0,255.0,0.0
29.950000000000284,35.69570336580721,51.28344367290706,1297.99990062695,0.00011717219041429416,8.275942832369765e-06,0.0,-4.206987114230287e-07,1.4360693967319094e-07,0.0,32.72809651568028,70.0,0.0,255.0,0.0
30.000000000000284,35.69570924910948,51.28344415241712,1297.9999003307894,0.00011715115539345788,8.283123179353424e-06,0.0,-4.2069984829140594e-07,1.4360693967319094e-07,0.0,32.76793570687684,70.0,0.0,255.0,0.0
30.050000000000285,35.695715131317804,51.283444632294646,1297.9999000336975,0.00011713012042946502,8.290303526337084e-06,0.0,-4.206987114230287e-07,1.4360693967319094e-07,0.0,32.80776697502541,70.0,0.0,255.0,0.0
30.100000000000286,35.6957210124322,51.28344511253958,1297.9998997384682,0.00011710908552231558,8.297483873320743e-06,0.0,-4.206975745546515e-07,1.4360693967319094e-07,0.0,32.847590320126024,70.0,0.0,255.0,0.0
30.150000000000286,35.6957268924527,51.28344559315191,1297.999899443239,0.00011708805067200956,8.304664220304403e-06,0.0,-4.206981429888401e-07,1.4360807654156815e-07,0.0,32.88740574217866,70.0,0.0,255.0,0.0
30.200000000000287,35.69573277137931,51.283446074131554,1297.999899148941,0.0001170670157080167,8.3118446809749e-06,0.0,-4.2069984829140594e-07,1.4360921340994537e-07,0.0,32.927213241183324,70.0,0.0,255.0,0.0
30.250000000000288,35.69573864921201,51.28344655547852,1297.999898854643,0.00011704598068718042,8.319025141645398e-06,0.0,-4.2069984829140594e-07,1.4360693967319094e-07,0.0,32.96701281714001,70.0,0.0,255.0,0.0
30.30000000000029,35.69574452595084,51.2834470371927,1297.9998985631391,0.00011702494572318756,8.32620537494222e-06,0.0,-4.2069927985721733e-07,1.4360693967319094e-07,0.0,33.00680447004873,70.0,0.0,255.0,0.0
30.35000000000029,35.69575040159579,51.2834475192741,1297.9998982707039,0.0001170039107591947,8.333385835612717e-06,0.0,-4.206987114230287e-07,1.4360921340994537e-07,0.0,33.04658819990947,70.0,0.0,255.0,0.0
30.40000000000029,35.695756276146916,51.28344800172266,1297.9998979782686,0.00011698287585204525,8.340566296283214e-06,0.0,-4.2069927985721733e-07,1.4360580280480017e-07,0.0,33.08636400672224,70.0,0.0,255.0,0.0
30.45000000000029,35.695762149604164,51.283448484538326,1297.9998976858333,0.00011696184083120897,8.347746415893198e-06,0.0,-4.2070041672559455e-07,1.4360580280480017e-07,0.0,33.126131890487045,70.0,0.0,255.0,0.0
30.50000000000029,35.69576802196756,51.28344896772106,1297.9998973980546,0.0001169408058103727,8.354926876563695e-06,0.0,-4.2069927985721733e-07,1.4360921340994537e-07,0.0,33.16589185120386,70.0,0.0,255.0,0.0
30.550000000000292,35.695773893237146,51.28344945127082,1297.9998971084133,0.00011691977090322325,8.362107337234193e-06,0.0,-4.206975745546515e-07,1.4360693967319094e-07,0.0,33.205643888872714,70.0,0.0,255.0,0.0
30.600000000000293,35.695779763412894,51.28344993518756,1297.9998968206346,0.00011689873605291723,8.369287570531014e-06,0.0,-4.206987114230287e-07,1.4360693967319094e-07,0.0,33.24538800349359,70.0,0.0,255.0,0.0
30.650000000000293,35.695785632494854,51.28345041947123,1297.9998965319246,0.00011687770103208095,8.376468031201512e-06,0.0,-4.2069927985721733e-07,1.4360807654156815e-07,0.0,33.285124195066494,70.0,0.0,255.0,0.0
30.700000000000294,35.695791500483,51.28345090412179,1297.99989624694,0.00011685666612493151,8.383648378185171e-06,0.0,-4.206987114230287e-07,1.4360693967319094e-07,0.0,33.32485246359143,70.0,0.0,255.0,0.0
30.750000000000295,35.69579736737737,51.28345138913921,1297.9998959610239,0.00011683563116093865,8.39082872516883e-06,0.0,-4.2069927985721733e-07,1.4360807654156815e-07,0.0,33.364572809068385,70.0,0.0,255.0,0.0
30.800000000000296,35.69580323317796,51.28345187452343,1297.9998956732452,0.00011681459619694579,8.398009185839328e-06,0.0,-4.206987114230287e-07,1.4360807654156815e-07,0.0,33.40428523149737,70.0,0.0,255.0,0.0
30.850000000000296,35.69580909788478,51.283452360274424,1297.9998953910545,0.00011679356128979634,8.405189532822988e-06,0.0,-4.206981429888401e-07,1.4360580280481372e-07,0.0,33.44398973087838,70.0,0.0,255.0,0.0
30.900000000000297,35.69581496149785,51.28345284639211,1297.9998951079324,0.0001167725263826469,8.41236976611981e-06,0.0,-4.206987114230287e-07,1.4360693967319094e-07,0.0,33.48368630721142,70.0,0.0,255.0,0.0
30.950000000000298,35.695820824017176,51.28345333287647,1297.9998948248103,0.00011675149141865404,8.419550226790307e-06,0.0,-4.2070041672559455e-07,1.4360921340994537e-07,0.0,33.52337496049648,70.0,0.0,255.0,0.0
31.0000000000003,35.695826685442746,51.28345381972748,1297.999894543551,0.00011673045634097434,8.426730687460804e-06,0.0,-4.206998482911891e-07,1.4360693967319094e-07,0.0,33.56305569073358,70.0,0.0,255.0,0.0
31.0500000000003,35.695832545774614,51.28345430694505,1297.9998942604288,0.0001167094214338249,8.433910920757626e-06,0.0,-4.206992798570005e-07,1.4360580280480017e-07,0.0,33.60272849792269,70.0,0.0,255.0,0.0
31.1000000000003,35.69583840501276,51.28345479452917,1297.9998939801008,0.00011668838641298862,8.441091267741285e-06,0.0,-4.2069927985721733e-07,1.436080765415546e-07,0.0,33.642393382063844,70.0,0.0,255.0,0.0
31.1500000000003,35.6958442631572,51.28345528247979,1297.999893700704,0.00011666735150583918,8.448271728411783e-06,0.0,-4.206975745546515e-07,1.4360807654156815e-07,0.0,33.682050343157016,70.0,0.0,255.0,0.0
31.2000000000003,35.69585012020795,51.283455770796856,1297.9998934222385,0.00011664631665553316,8.455452075395442e-06,0.0,-4.206987114230287e-07,1.4360693967319094e-07,0.0,33.721699381202214,70.0,0.0,255.0,0.0
31.250000000000302,35.69585597616502,51.283456259480346,1297.999893143773,0.00011662528163469688,8.462632422379102e-06,0.0,-4.2070041672559455e-07,1.4360807654156815e-07,0.0,33.761340496199445,70.0,0.0,255.0,0.0
31.300000000000303,35.6958618310284,51.283456748530185,1297.999892866239,0.0001166042466138606,8.469812883049599e-06,0.0,-4.2069927985721733e-07,1.4360807654156815e-07,0.0,33.800973688148694,70.0,0.0,255.0,0.0
31.350000000000303,35.69586768479813,51.28345723794635,1297.9998925896361,0.00011658321170671115,8.476993230033258e-06,0.0,-4.206981429888401e-07,1.4360693967319094e-07,0.0,33.84059895704998,70.0,0.0,255.0,0.0
31.400000000000304,35.69587353747422,51.28345772772879,1297.9998923130333,0.00011656217679956171,8.484173577016918e-06,0.0,-4.2069927985721733e-07,1.4360693967319094e-07,0.0,33.880216302903285,70.0,0.0,255.0,0.0
31.450000000000305,35.695879389056664,51.28345821787747,1297.9998920364305,0.00011654114177872543,8.491353924000578e-06,0.0,-4.2069927985721733e-07,1.4360693967319094e-07,0.0,33.91982572570862,70.0,0.0,255.0,0.0
31.500000000000306,35.69588523954547,51.28345870839234,1297.999891760759,0.00011652010687157599,8.498534270984237e-06,0.0,-4.206981429888401e-07,1.4360693967319094e-07,0.0,33.95942722546597,70.0,0.0,255.0,0.0
31.550000000000306,35.69589108894066,51.28345919927335,1297.9998914878815,0.00011649907196442655,8.505714617967897e-06,0.0,-4.2069927985721733e-07,1.4360807654156815e-07,0.0,33.99902080217537,70.0,0.0,255.0,0.0
31.600000000000307,35.69589693724226,51.28345969052048,1297.9998912140727,0.00011647803694359027,8.512895078638394e-06,0.0,-4.2069927985721733e-07,1.4360921340994537e-07,0.0,34.038606455836785,70.0,0.0,255.0,0.0
31.650000000000308,35.69590278445025,51.28346018213366,1297.9998909402639,0.00011645700203644083,8.520075539308891e-06,0.0,-4.206981429888401e-07,1.4360693967319094e-07,0.0,34.07818418645023,70.0,0.0,255.0,0.0
31.70000000000031,35.69590863056465,51.283460674112845,1297.9998906701803,0.00011643596712929138,8.527255772605713e-06,0.0,-4.2069927985721733e-07,1.4360580280481372e-07,0.0,34.11775399401569,70.0,0.0,255.0,0.0
31.75000000000031,35.69591447558549,51.283461166458004,1297.9998904000968,0.0001164149321084551,8.534436119589373e-06,0.0,-4.2069984829140594e-07,1.4360693967317738e-07,0.0,34.15731587853319,70.0,0.0,255.0,0.0
31.80000000000031,35.69592031951275,51.283461659169106,1297.9998901309446,0.00011639389714446224,8.541616466573032e-06,0.0,-4.2069927985721733e-07,1.436080765415546e-07,0.0,34.19686984000271,70.0,0.0,255.0,0.0
31.85000000000031,35.69592616234647,51.28346215224609,1297.9998898589984,0.00011637286218046938,8.54879692724353e-06,0.0,-4.206987114230287e-07,1.4360921340994537e-07,0.0,34.23641587842426,70.0,0.0,255.0,0.0
31.90000000000031,35.69593200408664,51.28346264568891,1297.9998895898461,0.00011635182727331994,8.555977387914027e-06,0.0,-4.206981429888401e-07,1.4360693967319094e-07,0.0,34.27595399379784,70.0,0.0,255.0,0.0
31.950000000000312,35.6959378447333,51.28346313949754,1297.9998893225566,0.0001163307923661705,8.563157621210848e-06,0.0,-4.2069927985721733e-07,1.436046659364365e-07,-1.8189894035458306e-11,34.31548418612344,70.0,0.0,255.0,0.0
32.00000000000031,35.69594368428641,51.28346363367191,1297.9998890571296,0.00011630975734533422,8.57033785450767e-06,-1.8189894035458565e-12,-4.2069984829140594e-07,1.4360580280481372e-07,2.5849394142283217e-24,34.355006455401075,70.0,0.0,255.0,0.0
32.05000000000031,35.69594952274603,51.283464128211996,1297.99988878984,0.00011628872238134136,8.57751820149133e-06,0.0,-4.2069984829140594e-07,1.4360921340994537e-07,1.818989403546089e-11,34.394520801630726,70.0,0.0,255.0,0.0
32.100000000000314,35.69595536011214,51.283464623117744,1297.999888524413,0.00011626768736050508,8.584698775848665e-06,0.0,-4.2069927985721733e-07,1.4361035027830903e-07,0.0,34.43402722481241,70.0,0.0,255.0,0.0
32.15000000000032,35.69596119638478,51.28346511838914,1297.9998882599175,0.00011624665245335564,8.591879236519162e-06,0.0,-4.206981429888401e-07,1.4360693967319094e-07,0.0,34.47352572494613,70.0,0.0,255.0,0.0
32.200000000000315,35.69596703156393,51.283465614026106,1297.9998879935592,0.0001162256175462062,8.599059469815984e-06,0.0,-4.206981429888401e-07,1.4360580280482727e-07,0.0,34.513016302031865,70.0,0.0,255.0,0.0
32.25000000000031,35.69597286564963,51.28346611002863,1297.999887729995,0.00011620458263905675,8.606239816799643e-06,0.0,-4.206992798574342e-07,1.4360693967317738e-07,0.0,34.55249895606962,70.0,0.0,255.0,0.0
32.30000000000032,35.695978698641866,51.28346660639663,1297.999887467362,0.00011618354761822047,8.613420163783303e-06,0.0,-4.2069984829140594e-07,1.436080765415546e-07,0.0,34.591973687059415,70.0,0.0,255.0,0.0
32.35000000000032,35.69598453054066,51.283467103130086,1297.999887204729,0.00011616251265422761,8.6206006244538e-06,0.0,-4.206987114230287e-07,1.4360807654156815e-07,0.0,34.63144049500124,70.0,0.0,255.0,0.0
32.40000000000032,35.69599036134604,51.28346760022894,1297.9998869430274,0.00011614147774707817,8.62778097143746e-06,0.0,-4.2069814298905696e-07,1.4360693967319094e-07,0.0,34.670899379895076,70.0,0.0,255.0,0.0
32.450000000000315,35.69599619105798,51.283468097693195,1297.999886682257,0.00011612044283992873,8.63496131842112e-06,0.0,-4.2069927985721733e-07,1.4360693967319094e-07,0.0,34.71035034174095,70.0,0.0,255.0,0.0
32.50000000000032,35.69600201967654,51.283468595522734,1297.999886422418,0.00011609940781909245,8.642141665404779e-06,0.0,-4.206998482911891e-07,1.436080765415546e-07,0.0,34.74979338053885,70.0,0.0,255.0,0.0
32.550000000000324,35.69600784720166,51.283469093717585,1297.9998861635104,0.00011607837285509959,8.649322126075276e-06,0.0,-4.206981429886233e-07,1.4360693967319094e-07,0.0,34.78922849628878,70.0,0.0,255.0,0.0
32.60000000000032,35.69601367363344,51.28346959227767,1297.9998859036714,0.00011605733800479356,8.656502359372098e-06,0.0,-4.206981429888401e-07,1.4360693967319094e-07,0.0,34.82865568899073,70.0,0.0,255.0,0.0
32.65000000000032,35.696019498971815,51.28347009120293,1297.9998856466264,0.0001160363030408007,8.663682820042595e-06,0.0,-4.2069984829140594e-07,1.4360921340994537e-07,0.0,34.86807495864471,70.0,0.0,255.0,0.0
32.70000000000032,35.69602532321685,51.28347059049336,1297.9998853905126,0.00011601526801996442,8.670863280713093e-06,0.0,-4.2070041672559455e-07,1.4360693967317738e-07,0.0,34.907486305250714,70.0,0.0,255.0,0.0
32.75000000000033,35.69603114636852,51.2834710901489,1297.9998851334676,0.00011599423299912814,8.678043514009914e-06,0.0,-4.206987114230287e-07,1.4360580280481372e-07,0.0,34.94688972880875,70.0,0.0,255.0,0.0
32.800000000000324,35.69603696842685,51.28347159016949,1297.9998848782852,0.00011597319814882212,8.685223860993574e-06,0.0,-4.206987114230287e-07,1.436080765415817e-07,0.0,34.98628522931882,70.0,0.0,255.0,0.0
32.85000000000032,35.69604278939186,51.28347209055512,1297.9998846221715,0.00011595216312798584,8.692404321664071e-06,0.0,-4.2069984829140594e-07,1.4360807654156815e-07,0.0,35.0256728067809,70.0,0.0,255.0,0.0
32.900000000000325,35.69604860926355,51.28347259130574,1297.9998843679205,0.00011593112816399298,8.69958466864773e-06,0.0,-4.206987114230287e-07,1.4360693967317738e-07,0.0,35.065052461195016,70.0,0.0,255.0,0.0
32.95000000000033,35.69605442804194,51.283473092421275,1297.9998841146007,0.00011591009325684354,8.70676501563139e-06,0.0,-4.206981429886233e-07,1.4360580280480017e-07,0.0,35.104424192561154,70.0,0.0,255.0,0.0
33.00000000000033,35.69606024572704,51.28347359390171,1297.999883861281,0.0001158890583496941,8.713945248928212e-06,0.0,-4.206987114230287e-07,1.436080765415817e-07,0.0,35.143788000879326,70.0,0.0,255.0,0.0
33.050000000000324,35.696066062318856,51.283474095747,1297.9998836088926,0.00011586802338570124,8.721125823285547e-06,0.0,-4.2069984829140594e-07,1.4360921340994537e-07,0.0,35.18314388614951,70.0,0.0,255.0,0.0
33.10000000000033,35.69607187781738,51.28347459795712,1297.9998833574355,0.00011584698836486496,8.728306170269207e-06,0.0,-4.206998482911891e-07,1.4360693967317738e-07,0.0,35.22249184837174,70.0,0.0,255.0,0.0
33.15000000000033,35.696077692222666,51.28347510053197,1297.9998831097037,0.0001158259534008721,8.735486517252866e-06,0.0,-4.206975745546515e-07,1.4360807654156815e-07,0.0,35.261831887545995,70.0,0.0,255.0,0.0
33.20000000000033,35.69608350553472,51.28347560347157,1297.999882856384,0.00011580491860740949,8.742666977923363e-06,0.0,-4.206975745546515e-07,1.436069396732045e-07,0.0,35.30116400367226,70.0,0.0,255.0,0.0
33.25000000000033,35.69608931775354,51.28347610677586,1297.9998826086521,0.00011578388364341663,8.749847211220185e-06,0.0,-4.2070098515978316e-07,1.4360580280481372e-07,0.0,35.34048819675056,70.0,0.0,255.0,0.0
33.30000000000033,35.69609512887911,51.28347661044477,1297.999882359989,0.00011576284850889351,8.757027558203845e-06,0.0,-4.2070041672559455e-07,1.4360921340993182e-07,0.0,35.37980446678089,70.0,0.0,255.0,0.0
33.350000000000335,35.696100938911485,51.28347711447828,1297.9998821113259,0.00011574181360174407,8.76420813256118e-06,0.0,-4.206987114228119e-07,1.4360921340994537e-07,0.0,35.41911281376325,70.0,0.0,255.0,0.0
33.40000000000033,35.69610674785065,51.283477618876354,1297.9998818654567,0.00011572077863775121,8.77138847954484e-06,0.0,-4.206981429888401e-07,1.436046659364365e-07,0.0,35.45841323769763,70.0,0.0,255.0,0.0
33.45000000000033,35.69611255569664,51.28347812363895,1297.9998816186562,0.00011569974378744519,8.778568599154823e-06,0.0,-4.2069871142324557e-07,1.4360580280481372e-07,0.0,35.49770573858404,70.0,0.0,255.0,0.0
33.500000000000334,35.69611836244944,51.283478628766,1297.999881372787,0.0001156787087666089,8.78574905982532e-06,0.0,-4.2069984829140594e-07,1.4360921340993182e-07,0.0,35.53699031642247,70.0,0.0,255.0,0.0
33.55000000000034,35.69612416810909,51.283479134257476,1297.9998811287805,0.00011565767380261605,8.792929520495818e-06,0.0,-4.206987114230287e-07,1.436080765415546e-07,0.0,35.57626697121294,70.0,0.0,255.0,0.0
33.600000000000335,35.696129972675585,51.28347964011334,1297.9998808829114,0.0001156366388954666,8.800109867479478e-06,0.0,-4.206987114230287e-07,1.4360693967319094e-07,0.0,35.615535702955434,70.0,0.0,255.0,0.0
33.65000000000033,35.69613577614892,51.28348014633355,1297.9998806389049,0.00011561560393147374,8.807290214463137e-06,0.0,-4.206987114230287e-07,1.4360693967319094e-07,0.0,35.65479651164995,70.0,0.0,255.0,0.0
33.70000000000034,35.696141578529144,51.283480652918065,1297.999880396761,0.0001155945690243243,8.814470561446797e-06,0.0,-4.206992798570005e-07,1.4360693967317738e-07,0.0,35.69404939729649,70.0,0.0,255.0,0.0
33.75000000000034,35.696147379816274,51.28348115986683,1297.9998801555485,0.00011557353400348802,8.821650908430456e-06,0.0,-4.2069984829140594e-07,1.4360807654156815e-07,0.0,35.73329435989506,70.0,0.0,255.0,0.0
33.80000000000034,35.69615318001026,51.28348166717982,1297.9998799124733,0.00011555249903949516,8.828831369100953e-06,0.0,-4.206987114230287e-07,1.436080765415817e-07,0.0,35.77253139944566,70.0,0.0,255.0,0.0
33.850000000000335,35.696158979111175,51.28348217485698,1297.9998796731234,0.00011553146413234572,8.836011716084613e-06,0.0,-4.2069871142324557e-07,1.4360693967319094e-07,0.0,35.81176051594828,70.0,0.0,255.0,0.0
33.90000000000034,35.69616477711901,51.28348268289827,1297.9998794309795,0.00011551042916835286,8.843192063068273e-06,0.0,-4.206987114230287e-07,1.436080765415546e-07,0.0,35.85098170940294,70.0,0.0,255.0,0.0
33.950000000000344,35.69617057403377,51.28348319130365,1297.999879192561,0.00011548939426120342,8.85037252373877e-06,0.0,-4.206987114230287e-07,1.4360807654156815e-07,0.0,35.890194979809614,70.0,0.0,255.0,0.0
34.00000000000034,35.69617636985549,51.28348370007308,1297.999878953211,0.00011546835929721055,8.85755287072243e-06,0.0,-4.2069927985721733e-07,1.4360580280482727e-07,0.0,35.929400327168324,70.0,0.0,255.0,0.0
34.05000000000034,35.69618216458415,51.28348420920652,1297.9998787157238,0.0001154473243332177,8.864733104019251e-06,0.0,-4.2069927985721733e-07,1.4360580280481372e-07,0.0,35.968597751479045,70.0,0.0,255.0,0.0
34.10000000000034,35.69618795821979,51.2834847187039,1297.9998784791678,0.00011542628936922483,8.87191345100291e-06,0.0,-4.2069927985721733e-07,1.4360921340993182e-07,0.0,36.007787252741814,70.0,0.0,255.0,0.0
34.15000000000035,35.6961937507624,51.28348522856523,1297.9998782407492,0.00011540525440523197,8.879094025360246e-06,0.0,-4.2069927985721733e-07,1.4360921340994537e-07,0.0,36.0469688309566,70.0,0.0,255.0,0.0
34.200000000000344,35.696199542212,51.28348573879043,1297.9998780051246,0.00011538421944123911,8.886274372343905e-06,0.0,-4.2069871142324557e-07,1.4360580280482727e-07,0.0,36.08614248612341,70.0,0.0,255.0,0.0
34.25000000000034,35.6962053325686,51.283486249379465,1297.9998777695,0.00011536318453408967,8.893454605640727e-06,0.0,-4.206987114230287e-07,1.4360580280480017e-07,0.0,36.125308218242246,70.0,0.0,255.0,0.0
34.300000000000345,35.69621112183224,51.283486760332295,1297.999877535738,0.00011534214957009681,8.900634952624387e-06,0.0,-4.206998482911891e-07,1.4360807654156815e-07,0.0,36.16446602731311,70.0,0.0,255.0,0.0
34.35000000000035,35.6962169100029,51.28348727164889,1297.9998773001134,0.00011532111454926053,8.907815413294884e-06,0.0,-4.2069871142324557e-07,1.4360807654156815e-07,0.0,36.203615913336016,70.0,0.0,255.0,0.0
34.40000000000035,35.69622269708059,51.283487783329186,1297.9998770682141,0.0001153000796989545,8.914995760278543e-06,0.0,-4.206981429888401e-07,1.4360807654156815e-07,0.0,36.242757876310925,70.0,0.0,255.0,0.0
34.450000000000344,35.69622848306535,51.283488295373154,1297.9998768353835,0.00011527904473496164,8.92217622094904e-06,0.0,-4.2069984829140594e-07,1.4360807654156815e-07,0.0,36.28189191623788,70.0,0.0,255.0,0.0
34.50000000000035,35.69623426795717,51.28348880778076,1297.9998766025528,0.00011525800971412536,8.9293565679327e-06,0.0,-4.2069927985721733e-07,1.4360580280480017e-07,0.0,36.32101803311686,70.0,0.0,255.0,0.0
34.55000000000035,35.69624005175606,51.28348932055194,1297.9998763734475,0.00011523697480697592,8.936536801229522e-06,0.0,-4.206987114228119e-07,1.4360693967319094e-07,0.0,36.36013622694785,70.0,0.0,255.0,0.0
34.60000000000035,35.69624583446204,51.28348983368667,1297.9998761415482,0.00011521593984298306,8.94371726190002e-06,0.0,-4.2069984829140594e-07,1.4360807654156815e-07,0.0,36.39924649773088,70.0,0.0,255.0,0.0
34.65000000000035,35.69625161607515,51.28349034718491,1297.9998759124428,0.00011519490482214678,8.950897608883679e-06,0.0,-4.206981429888401e-07,1.4360693967319094e-07,0.0,36.43834884546594,70.0,0.0,255.0,0.0
34.70000000000035,35.69625739659535,51.2834908610466,1297.9998756833375,0.00011517387002868418,8.958077955867338e-06,0.0,-4.206975745546515e-07,1.436080765415546e-07,0.0,36.477443270153024,70.0,0.0,255.0,0.0
34.750000000000355,35.696263176022704,51.28349137527171,1297.999875454232,0.00011515283506469132,8.965258416537836e-06,0.0,-4.2070041672559455e-07,1.4360807654156815e-07,0.0,36.51652977179213,70.0,0.0,255.0,0.0
34.80000000000035,35.696268954357166,51.28349188986021,1297.9998752251267,0.00011513179998701162,8.972438763521495e-06,0.0,-4.2069984829140594e-07,1.436069396732045e-07,0.0,36.55560835038327,70.0,0.0,255.0,0.0
34.85000000000035,35.6962747315988,51.28349240481204,1297.9998749997467,0.00011511076507986218,8.979619110505155e-06,0.0,-4.206981429888401e-07,1.4360693967317738e-07,0.0,36.59467900592642,70.0,0.0,255.0,0.0
34.900000000000354,35.696280507747595,51.28349292012716,1297.999874772504,0.00011508973017271273,8.986799457488814e-06,0.0,-4.206992798570005e-07,1.436080765415546e-07,0.0,36.63374173842162,70.0,0.0,255.0,0.0
34.95000000000036,35.69628628280357,51.28349343580554,1297.9998745480552,0.00011506869515187645,8.993979918159312e-06,0.0,-4.206992798570005e-07,1.4360807654156815e-07,0.0,36.672796547868835,70.0,0.0,255.0,0.0
35.000000000000355,35.69629205676674,51.283493951847134,1297.9998743236065,0.00011504766024472701,9.001160265142971e-06,0.0,-4.206987114230287e-07,1.4360580280482727e-07,0.0,36.711843434268076,70.0,0.0,255.0,0.0
35.05000000000035,35.6962978296371,51.28349446825189,1297.9998740982264,0.00011502662528073415,9.008340498439793e-06,0.0,-4.2069927985721733e-07,1.4360693967319094e-07,0.0,36.750882397619336,70.0,0.0,255.0,0.0
35.10000000000036,35.69630360141469,51.283494985019786,1297.9998738728464,0.00011500559031674129,9.01552095911029e-06,0.0,-4.2069927985721733e-07,1.436080765415546e-07,0.0,36.78991343792264,70.0,0.0,255.0,0.0
35.15000000000036,35.69630937209951,51.28349550215077,1297.999873652123,0.00011498455535274843,9.02270130609395e-06,0.0,-4.2069927985721733e-07,1.4360693967319094e-07,0.0,36.82893655517797,70.0,0.0,255.0,0.0
35.20000000000036,35.696315141691564,51.2834960196448,1297.9998734286055,0.00011496352038875557,9.02988165307761e-06,0.0,-4.206987114230287e-07,1.436080765415817e-07,0.0,36.86795174938531,70.0,0.0,255.0,0.0
35.250000000000355,35.696320910190884,51.28349653750183,1297.9998732069507,0.00011494248548160613,9.037062113748107e-06,0.0,-4.206992798570005e-07,1.4360807654156815e-07,0.0,36.90695902054469,70.0,0.0,255.0,0.0
35.30000000000036,35.696326677597455,51.28349705572183,1297.999872985296,0.00011492145046076985,9.044242460731766e-06,0.0,-4.2069927985721733e-07,1.4360693967319094e-07,0.0,36.94595836865609,70.0,0.0,255.0,0.0
35.350000000000364,35.696332443911324,51.283497574304754,1297.9998727655038,0.0001149004155536204,9.051422807715426e-06,0.0,-4.206981429888401e-07,1.4360807654156815e-07,0.0,36.98494979371953,70.0,0.0,255.0,0.0
35.40000000000036,35.69633820913247,51.28349809325055,1297.999872546643,0.00011487938064647096,9.058603268385923e-06,0.0,-4.206987114230287e-07,1.4360807654156815e-07,0.0,37.02393329573498,70.0,0.0,255.0,0.0
35.45000000000036,35.69634397326092,51.28349861255919,1297.9998723277822,0.0001148583456824781,9.065783615369583e-06,0.0,-4.2069814298905696e-07,1.4360580280480017e-07,0.0,37.06290887470247,70.0,0.0,255.0,0.0
35.50000000000036,35.69634973629671,51.28349913223064,1297.9998721070588,0.00011483731083217208,9.072963848666404e-06,0.0,-4.206992798570005e-07,1.4360580280480017e-07,0.0,37.10187653062198,70.0,0.0,255.0,0.0
35.55000000000037,35.69635549823982,51.283499652264844,1297.9998718900606,0.00011481627575449238,9.080144195650064e-06,0.0,-4.2069984829140594e-07,1.436080765415817e-07,0.0,37.14083626349352,70.0,0.0,255.0,0.0
35.600000000000364,35.69636125909027,51.28350017266176,1297.999871674925,0.00011479524084734294,9.087324656320561e-06,0.0,-4.206987114230287e-07,1.4360807654156815e-07,0.0,37.179788073317084,70.0,0.0,255.0,0.0
35.65000000000036,35.69636701884808,51.28350069342135,1297.999871457927,0.00011477420588335008,9.09450500330422e-06,0.0,-4.2069927985721733e-07,1.4360693967317738e-07,0.0,37.218731960092676,70.0,0.0,255.0,0.0
35.700000000000365,35.69637277751325,51.28350121454358,1297.9998712427914,0.00011475317091935722,9.10168535028788e-06,0.0,-4.2069927985721733e-07,1.4360921340993182e-07,0.0,37.2576679238203,70.0,0.0,255.0,0.0
35.75000000000037,35.69637853508582,51.28350173602841,1297.9998710285872,0.00011473213595536436,9.108865924645215e-06,0.0,-4.2069927985721733e-07,1.4360807654156815e-07,0.0,37.29659596449995,70.0,0.0,255.0,0.0
35.80000000000037,35.69638429156578,51.28350225787578,1297.9998708134517,0.0001147111009913715,9.116046157942037e-06,0.0,-4.2069927985721733e-07,1.4360466593645006e-07,0.0,37.33551608213162,70.0,0.0,255.0,0.0
35.850000000000364,35.696390046953134,51.28350278008566,1297.9998706011102,0.00011469006602737863,9.123226391238859e-06,0.0,-4.206998482916228e-07,1.4360807654156815e-07,0.0,37.374428276715314,70.0,0.0,255.0,0.0
35.90000000000037,35.69639580124793,51.283503302658026,1297.9998703859746,0.00011466903100654235,9.130406965596194e-06,0.0,-4.2069927985721733e-07,1.4360921340993182e-07,0.0,37.41333254825105,70.0,0.0,255.0,0.0
35.95000000000037,35.69640155445015,51.28350382559282,1297.9998701745644,0.00011464799609939291,9.137587312579853e-06,0.0,-4.206975745546515e-07,1.4360580280481372e-07,0.0,37.45222889673881,70.0,0.0,255.0,0.0
36.00000000000037,35.69640730655983,51.28350434889,1297.9998699622229,0.00011462696124908689,9.144767545876675e-06,0.0,-4.2069871142324557e-07,1.436069396732045e-07,0.0,37.49111732217858,70.0,0.0,255.0,0.0
36.05000000000037,35.69641305757695,51.28350487254952,1297.999869751744,0.00011460592622825061,9.151948006547173e-06,0.0,-4.2069984829140594e-07,1.4360807654156815e-07,0.0,37.52999782457038,70.0,0.0,255.0,0.0
36.10000000000037,35.69641880750156,51.28350539657137,1297.9998695394024,0.00011458489126425775,9.159128353530832e-06,0.0,-4.206992798570005e-07,1.4360693967317738e-07,0.0,37.56887040391422,70.0,0.0,255.0,0.0
36.150000000000375,35.696424556333646,51.28350592095547,1297.9998693307862,0.00011456385630026489,9.166308700514492e-06,0.0,-4.206987114230287e-07,1.4360807654156815e-07,0.0,37.60773506021009,70.0,0.0,255.0,0.0
36.20000000000037,35.69643030407323,51.2835064457018,1297.99986912217,0.00011454282139311545,9.173489161184989e-06,0.0,-4.206975745546515e-07,1.436080765415817e-07,0.0,37.646591793457965,70.0,0.0,255.0,0.0
36.25000000000037,35.696436050720344,51.283506970810315,1297.9998689126223,0.00011452178654280942,9.180669508168648e-06,0.0,-4.206987114230287e-07,1.4360693967317738e-07,0.0,37.68544060365788,70.0,0.0,255.0,0.0
36.300000000000374,35.696441796274996,51.28350749628098,1297.999868704006,0.00011450075152197314,9.187849855152308e-06,0.0,-4.2070041672559455e-07,1.4360693967317738e-07,0.0,37.72428149080982,70.0,0.0,255.0,0.0
36.35000000000038,35.69644754073716,51.28350802211375,1297.9998684981838,0.00011447971650113686,9.195030202135968e-06,0.0,-4.206992798574342e-07,1.4360693967319094e-07,0.0,37.7631144549138,70.0,0.0,255.0,0.0
36.400000000000375,35.69645328410689,51.28350854830858,1297.9998682914302,0.00011445868159398742,9.202210549119627e-06,0.0,-4.2069927985721733e-07,1.4360693967319094e-07,0.0,37.80193949596979,70.0,0.0,255.0,0.0
36.45000000000037,35.6964590263842,51.28350907486543,1297.9998680865392,0.00011443764657315114,9.209390896103287e-06,0.0,-4.2069927985721733e-07,1.4360807654156815e-07,0.0,37.84075661397782,70.0,0.0,255.0,0.0
36.50000000000038,35.696464767569054,51.28350960178427,1297.9998678797856,0.0001144166116660017,9.216571356773784e-06,0.0,-4.206981429888401e-07,1.436080765415546e-07,0.0,37.87956580893786,70.0,0.0,255.0,0.0
36.55000000000038,35.69647050766153,51.28351012906505,1297.9998676748946,0.00011439557675885226,9.223751703757443e-06,0.0,-4.206987114228119e-07,1.4360693967319094e-07,0.0,37.91836708084994,70.0,0.0,255.0,0.0
36.60000000000038,35.6964762466616,51.283510656707726,1297.9998674727976,0.0001143745417948594,9.230932050741103e-06,0.0,-4.2069984829140594e-07,1.4360693967319094e-07,0.0,37.957160429714044,70.0,0.0,255.0,0.0
36.650000000000375,35.69648198456929,51.283511184712275,1297.999867268838,0.00011435350677402312,9.238112397724763e-06,0.0,-4.2069984829140594e-07,1.4360807654156815e-07,0.0,37.995945855530174,70.0,0.0,255.0,0.0
36.70000000000038,35.69648772138462,51.28351171307864,1297.9998670648783,0.00011433247181003026,9.24529285839526e-06,0.0,-4.206987114228119e-07,1.436080765415546e-07,0.0,38.034723358298336,70.0,0.0,255.0,0.0
36.750000000000384,35.69649345710759,51.28351224180679,1297.999866864644,0.00011431143690288081,9.25247320537892e-06,0.0,-4.206981429888401e-07,1.4360693967319094e-07,0.0,38.07349293801852,70.0,0.0,255.0,0.0
36.80000000000038,35.696499191738226,51.28351277089667,1297.999866662547,0.00011429040199573137,9.259653552362579e-06,0.0,-4.206987114230287e-07,1.436069396732045e-07,0.0,38.112254594690725,70.0,0.0,255.0,0.0
36.85000000000038,35.69650492527655,51.283513300348254,1297.9998664613813,0.00011426936703173851,9.266833899346238e-06,0.0,-4.2069927985721733e-07,1.4360693967317738e-07,0.0,38.15100832831496,70.0,0.0,255.0,0.0
36.90000000000038,35.696510657722534,51.283513830161496,1297.9998662620783,0.00011424833206774565,9.274014246329898e-06,0.0,-4.2069984829140594e-07,1.436080765415546e-07,0.0,38.18975413889123,70.0,0.0,255.0,0.0
36.95000000000039,35.69651638907623,51.28351436033637,1297.9998660627753,0.00011422729704690937,9.281194707000395e-06,0.0,-4.206992798570005e-07,1.436080765415817e-07,0.0,38.228492026419524,70.0,0.0,255.0,0.0
37.000000000000384,35.696522119337644,51.28351489087281,1297.9998658634722,0.00011420626213975993,9.288375053984055e-06,0.0,-4.206981429888401e-07,1.436069396732045e-07,0.0,38.267221990899834,70.0,0.0,255.0,0.0
37.05000000000038,35.6965278485068,51.2835154217708,1297.9998656660318,0.00011418522723261049,9.295555400967714e-06,0.0,-4.206987114230287e-07,1.4360580280480017e-07,0.0,38.30594403233217,70.0,0.0,255.0,0.0
37.100000000000385,35.69653357658367,51.28351595303028,1297.9998654685915,0.00011416419226861763,9.302735634264536e-06,0.0,-4.2069927985721733e-07,1.4360693967317738e-07,0.0,38.344658150716555,70.0,0.0,255.0,0.0
37.15000000000039,35.69653930356831,51.28351648465121,1297.9998652702197,0.00011414315730462476,9.309916094935033e-06,0.0,-4.2069927985721733e-07,1.4360921340994537e-07,0.0,38.38336434605296,70.0,0.0,255.0,0.0
37.20000000000039,35.69654502946071,51.28351701663359,1297.999865074642,0.0001141221223406319,9.31709655560553e-06,0.0,-4.206987114230287e-07,1.436080765415817e-07,0.0,38.42206261834138,70.0,0.0,255.0,0.0
37.250000000000384,35.69655075426089,51.28351754897733,1297.9998648790643,0.00011410108743348246,9.32427690258919e-06,0.0,-4.206992798570005e-07,1.4360693967319094e-07,0.0,38.460752967581826,70.0,0.0,255.0,0.0
37.30000000000039,35.696556477968876,51.28351808168241,1297.9998646834865,0.00011408005241264618,9.33145724957285e-06,0.0,-4.207004167253777e-07,1.4360693967317738e-07,0.0,38.499435393774306,70.0,0.0,255.0,0.0
37.35000000000039,35.696562200584665,51.283518614748786,1297.9998644907027,0.0001140590173918099,9.33863759655651e-06,0.0,-4.206987114230287e-07,1.4360693967319094e-07,0.0,38.53810989691882,70.0,0.0,255.0,0.0
37.40000000000039,35.69656792210829,51.28351914817642,1297.9998642960563,0.00011403798254150388,9.345817943540169e-06,0.0,-4.206981429888401e-07,1.4360807654156815e-07,0.0,38.57677647701535,70.0,0.0,255.0,0.0
37.45000000000039,35.69657364253975,51.28351968196528,1297.9998641023412,0.00011401694757751102,9.352998404210666e-06,0.0,-4.206998482916228e-07,1.436080765415546e-07,0.0,38.61543513406391,70.0,0.0,255.0,0.0
37.50000000000039,35.696579361879046,51.28352021611531,1297.9998639104888,0.00011399591255667474,9.360178751194326e-06,0.0,-4.206987114230287e-07,1.4360693967317738e-07,0.0,38.6540858680645,70.0,0.0,255.0,0.0
37.550000000000395,35.69658508012621,51.28352075062649,1297.9998637195677,0.00011397487770636872,9.367359098177985e-06,0.0,-4.206987114230287e-07,1.4360580280482727e-07,0.0,38.69272867901711,70.0,0.0,255.0,0.0
37.60000000000039,35.69659079728126,51.283521285498765,1297.9998635267839,0.00011395384268553244,9.374539331474807e-06,0.0,-4.2069927985721733e-07,1.4360693967319094e-07,0.0,38.73136356692176,70.0,0.0,255.0,0.0
37.65000000000039,35.696596513344204,51.2835218207321,1297.9998633377254,0.000113932807778383,9.381719792145304e-06,0.0,-4.206987114230287e-07,1.4360921340993182e-07,0.0,38.76999053177842,70.0,0.0,255.0,0.0
37.700000000000394,35.69660222831505,51.28352235632645,1297.999863145873,0.00011391177281439013,9.388900252815802e-06,0.0,-4.206987114230287e-07,1.436080765415546e-07,0.0,38.80860957358712,70.0,0.0,255.0,0.0
37.7500000000004,35.69660794219382,51.28352289228179,1297.9998629577458,0.00011389073790724069,9.396080599799461e-06,0.0,-4.206981429888401e-07,1.436080765415546e-07,0.0,38.84722069234784,70.0,0.0,255.0,0.0
37.800000000000395,35.696613654980524,51.283523428598066,1297.9998627696186,0.00011386970300009125,9.403261060469958e-06,0.0,-4.206992798574342e-07,1.436080765415817e-07,0.0,38.885823888060585,70.0,0.0,255.0,0.0
37.85000000000039,35.69661936667517,51.28352396527523,1297.9998625814915,0.00011384866797925497,9.410441407453618e-06,0.0,-4.207004167258114e-07,1.436069396732045e-07,0.0,38.92441916072536,70.0,0.0,255.0,0.0
37.9000000000004,35.69662507727779,51.28352450231328,1297.9998623933643,0.00011382763295841869,9.417621754437278e-06,0.0,-4.2069927985721733e-07,1.4360580280480017e-07,0.0,38.96300651034216,70.0,0.0,255.0,0.0
37.9500000000004,35.69663078678837,51.28352503971213,1297.9998622070998,0.00011380659805126925,9.4248019877341e-06,0.0,-4.206981429888401e-07,1.4360693967317738e-07,0.0,39.001585936911,70.0,0.0,255.0,0.0
38.0000000000004,35.696636495206945,51.28352557747177,1297.999862019904,0.0001137855631441198,9.431982448404597e-06,0.0,-4.2069927985721733e-07,1.436080765415817e-07,0.0,39.04015744043185,70.0,0.0,255.0,0.0
38.050000000000395,35.696642202533525,51.28352611559216,1297.9998618345708,0.00011376452812328353,9.439162795388256e-06,0.0,-4.2069984829140594e-07,1.4360693967319094e-07,0.0,39.07872102090473,70.0,0.0,255.0,0.0
38.1000000000004,35.69664790876813,51.28352665407324,1297.9998616492376,0.00011374349315929067,9.446343142371916e-06,0.0,-4.2069927985721733e-07,1.436080765415546e-07,0.0,39.11727667832964,70.0,0.0,255.0,0.0
38.150000000000404,35.69665361391075,51.28352719291499,1297.999861465767,0.0001137224581952978,9.453523603042413e-06,0.0,-4.206987114230287e-07,1.4360693967319094e-07,0.0,39.15582441270658,70.0,0.0,255.0,0.0
38.2000000000004,35.696659317961426,51.28352773211737,1297.9998612813652,0.00011370142328814836,9.460703836339235e-06,0.0,-4.206987114230287e-07,1.4360693967319094e-07,0.0,39.19436422403554,70.0,0.0,255.0,0.0
38.2500000000004,35.696665020920165,51.28352827168033,1297.9998610997573,0.0001136803883241555,9.467884297009732e-06,0.0,-4.2069927985721733e-07,1.4360807654156815e-07,0.0,39.23289611231653,70.0,0.0,255.0,0.0
38.3000000000004,35.696670722786976,51.28352881160383,1297.9998609162867,0.00011365935336016264,9.475064643993392e-06,0.0,-4.206987114230287e-07,1.4360693967317738e-07,0.0,39.27142007754955,70.0,0.0,255.0,0.0
38.350000000000406,35.696676423561875,51.28352935188784,1297.9998607346788,0.0001136383184530132,9.482244990977051e-06,0.0,-4.206987114230287e-07,1.4360807654156815e-07,0.0,39.309936119734594,70.0,0.0,255.0,0.0
38.400000000000404,35.696682123244884,51.283529892532314,1297.999860553071,0.00011361728348902034,9.489425451647548e-06,0.0,-4.2069927985721733e-07,1.4360807654156815e-07,0.0,39.348444238871664,70.0,0.0,255.0,0.0
38.4500000000004,35.696687821835994,51.28353043353722,1297.9998603723943,0.00011359624852502748,9.496605798631208e-06,0.0,-4.206981429888401e-07,1.4360693967319094e-07,0.0,39.38694443496076,70.0,0.0,255.0,0.0
