t,lat,lon,alt,vx,vy,vz,ax,ay,az,yaw,mode,ledr,ledg,ledb
10.0,35.693169154923666,51.283395835761006,1303.9999810308218,0.00012555461879060025,5.414565293904084e-06,0.0,-2.10349639892827e-07,7.180460670651327e-08,0.0,16.2,70.0,0.0,255.0,0.0
10.05,35.69317543265059,51.28339610649243,1303.99998060707,0.0001255441013086056,5.41815552423941e-06,0.0,-3.1552445987491524e-07,1.0770577318984753e-07,0.0,16.243000487337827,70.0,0.0,255.0,0.0
10.100000000000001,35.69318170932576,51.283396377582896,1303.999980185181,0.00012552306634461274,5.425335871223069e-06,0.0,-4.2069927985721733e-07,1.4360580280481372e-07,0.0,16.285993051627685,70.0,0.0,255.0,0.0
10.150000000000002,35.693187984949205,51.28339664903236,1303.9999797623605,0.00012550203138061988,5.432516104519891e-06,0.0,-4.2069927985721733e-07,1.4360693967319094e-07,0.0,16.328977692869568,70.0,0.0,255.0,0.0
10.200000000000003,35.693194259520894,51.28339692084086,1303.99997933954,0.00012548099641662702,5.439696565190388e-06,0.0,-4.2069927985721733e-07,1.4360921340994537e-07,0.0,16.371954411063477,70.0,0.0,255.0,0.0
10.250000000000004,35.69320053304082,51.28339719300836,1303.9999789176509,0.00012545996145263416,5.446877025860886e-06,0.0,-4.2069927985721733e-07,1.4360693967319094e-07,0.0,16.414923206209416,70.0,0.0,255.0,0.0
10.300000000000004,35.69320680550902,51.28339746553489,1303.9999784957618,0.0001254389264886413,5.4540572591577074e-06,0.0,-4.206975745546515e-07,1.4360693967318416e-07,0.0,16.457884078307377,70.0,0.0,255.0,0.0
10.350000000000005,35.69321307692546,51.283397738420426,1303.9999780738726,0.0001254178916951787,5.461237719828205e-06,0.0,-4.206975745546515e-07,1.4360807654156138e-07,0.0,16.500837027357367,70.0,0.0,255.0,0.0
10.400000000000006,35.69321934729017,51.283398011664985,1303.9999776510522,0.00012539685673118584,5.468418066811864e-06,0.0,-4.2070041672559455e-07,1.4360693967319094e-07,0.0,16.543782053359386,70.0,0.0,255.0,0.0
10.450000000000006,35.69322561660313,51.28339828526856,1303.9999772282317,0.00012537582165350614,5.475598413795524e-06,0.0,-4.2069984829140594e-07,1.4360693967319094e-07,0.0,16.586719156313432,70.0,0.0,255.0,0.0
10.500000000000007,35.693231884864325,51.28339855923115,1303.999976807274,0.0001253547867463567,5.482778760779183e-06,0.0,-4.206987114230287e-07,1.4360807654156815e-07,0.0,16.6296483362195,70.0,0.0,255.0,0.0
10.550000000000008,35.69323815207378,51.28339883355276,1303.9999763844535,0.00012533375178236383,5.489959221449681e-06,0.0,-4.2069984829140594e-07,1.4360921340994537e-07,0.0,16.672569593077597,70.0,0.0,255.0,0.0
10.600000000000009,35.693244418231494,51.2833991082334,1303.9999759634957,0.00012531271676152755,5.497139682120178e-06,0.0,-4.2069927985721733e-07,1.4360693967319094e-07,0.0,16.715482926887727,70.0,0.0,255.0,0.0
10.65000000000001,35.69325068333746,51.28339938327304,1303.999975539744,0.0001252916818543781,5.504319915417e-06,0.0,-4.206987114230287e-07,1.4360580280480694e-07,0.0,16.758388337649876,70.0,0.0,255.0,0.0
10.70000000000001,35.69325694739166,51.28339965867171,1303.9999751225114,0.00012527064689038525,5.511500262400659e-06,0.0,-4.206981429888401e-07,1.4360693967318416e-07,0.0,16.801285825364054,70.0,0.0,255.0,0.0
10.75000000000001,35.693263210394136,51.28339993442939,1303.999974699691,0.00012524961204007923,5.518680609384319e-06,0.0,-4.206987114230287e-07,1.4360693967319094e-07,0.0,16.844175390030262,70.0,0.0,255.0,0.0
10.800000000000011,35.69326947234486,51.2834002105461,1303.9999742778018,0.00012522857701924295,5.525860956367978e-06,0.0,-4.2070041672559455e-07,1.4360807654156815e-07,0.0,16.887057031648492,70.0,0.0,255.0,0.0
10.850000000000012,35.69327573324384,51.283400487021815,1303.9999738559127,0.00012520754199840667,5.533041417038476e-06,0.0,-4.206987114230287e-07,1.4360921340994537e-07,0.0,16.929930750218755,70.0,0.0,255.0,0.0
10.900000000000013,35.69328199309106,51.28340076385654,1303.9999734349549,0.00012518650714810065,5.540221877708973e-06,0.0,-4.206981429888401e-07,1.4360693967319094e-07,0.0,16.97279654574104,70.0,0.0,255.0,0.0
10.950000000000014,35.693288251886536,51.2834010410503,1303.999973013997,0.00012516547218410778,5.547402111005795e-06,0.0,-4.2069984829140594e-07,1.4360693967319094e-07,0.0,17.01565441821535,70.0,0.0,255.0,0.0
11.000000000000014,35.69329450963027,51.283401318603076,1303.999972592108,0.0001251444371632715,5.554582571676292e-06,0.0,-4.2069927985721733e-07,1.4360807654156138e-07,0.0,17.058504367641692,70.0,0.0,255.0,0.0
11.050000000000015,35.69330076632225,51.28340159651486,1303.9999721720815,0.00012512340225612206,5.5617629186599515e-06,0.0,-4.206975745546515e-07,1.4360580280480694e-07,0.0,17.10134639402006,70.0,0.0,255.0,0.0
11.100000000000016,35.693307021962504,51.28340187478567,1303.9999717511237,0.00012510236740581604,5.568943151956773e-06,0.0,-4.206987114230287e-07,1.4360693967319094e-07,0.0,17.144180497350455,70.0,0.0,255.0,0.0
11.150000000000016,35.693313276550995,51.28340215341549,1303.9999713301659,0.00012508133238497976,5.576123612627271e-06,0.0,-4.2070041672559455e-07,1.4360807654156815e-07,0.0,17.187006677632873,70.0,0.0,255.0,0.0
11.200000000000017,35.69331953008774,51.28340243240434,1303.9999709082767,0.00012506029736414348,5.58330395961093e-06,0.0,-4.2069927985721733e-07,1.4360693967319094e-07,0.0,17.22982493486732,70.0,0.0,255.0,0.0
11.250000000000018,35.69332578257273,51.28340271175218,1303.9999704891816,0.00012503926245699404,5.59048430659459e-06,0.0,-4.206981429888401e-07,1.4360807654156815e-07,0.0,17.272635269053794,70.0,0.0,255.0,0.0
11.300000000000018,35.69333203400599,51.283402991459056,1303.9999700682238,0.0001250182275498446,5.597664767265087e-06,0.0,-4.2069927985721733e-07,1.4360807654156138e-07,0.0,17.315437680192296,70.0,0.0,255.0,0.0
11.35000000000002,35.693338284387494,51.28340327152496,1303.9999696481973,0.00012499719252900832,5.6048451142487465e-06,0.0,-4.2069984829140594e-07,1.4360693967318416e-07,0.0,17.358232168282825,70.0,0.0,255.0,0.0
11.40000000000002,35.69334453371725,51.28340355194986,1303.9999692272395,0.00012497615756501546,5.612025461232406e-06,0.0,-4.206987114230287e-07,1.4360807654156815e-07,0.0,17.40101873332538,70.0,0.0,255.0,0.0
11.45000000000002,35.69335078199525,51.28340383273378,1303.9999688081443,0.000124955122657866,5.619205921902903e-06,0.0,-4.206987114230287e-07,1.4360807654156815e-07,0.0,17.443797375319964,70.0,0.0,255.0,0.0
11.500000000000021,35.69335702922152,51.283404113876735,1303.9999683862552,0.00012493408769387315,5.626386268886563e-06,0.0,-4.2069984829140594e-07,1.4360580280481372e-07,0.0,17.48656809426657,70.0,0.0,255.0,0.0
11.550000000000022,35.693363275396024,51.283404395378696,1303.9999679680914,0.00012491305267303687,5.633566502183385e-06,0.0,-4.2069927985721733e-07,1.4360580280481372e-07,0.0,17.52933089016521,70.0,0.0,255.0,0.0
11.600000000000023,35.69336952051881,51.28340467723968,1303.9999675471336,0.00012489201776588743,5.640746849167044e-06,0.0,-4.206981429888401e-07,1.4360921340994537e-07,0.0,17.57208576301587,70.0,0.0,255.0,0.0
11.650000000000023,35.693375764589824,51.28340495945967,1303.999967127107,0.000124870982858738,5.647927423524379e-06,0.0,-4.2069927985721733e-07,1.436092134099386e-07,0.0,17.614832712818558,70.0,0.0,255.0,0.0
11.700000000000024,35.6933820076091,51.28340524203869,1303.999966708012,0.0001248499478379017,5.655107770508039e-06,0.0,-4.2069927985721733e-07,1.4360580280480694e-07,0.0,17.657571739573275,70.0,0.0,255.0,0.0
11.750000000000025,35.69338824957663,51.28340552497673,1303.9999662889168,0.00012482891293075227,5.662288003804861e-06,0.0,-4.206981429888401e-07,1.4360693967319094e-07,0.0,17.700302843280017,70.0,0.0,255.0,0.0
11.800000000000026,35.69339449049241,51.283405808273784,1303.9999658688903,0.00012480787802360283,5.669468464475358e-06,0.0,-4.2069927985721733e-07,1.4360807654156815e-07,0.0,17.74302602393879,70.0,0.0,255.0,0.0
11.850000000000026,35.69340073035644,51.28340609192984,1303.9999654497951,0.00012478684300276655,5.6766488114590175e-06,0.0,-4.206987114230287e-07,1.4360693967319094e-07,0.0,17.785741281549587,70.0,0.0,255.0,0.0
11.900000000000027,35.69340696916873,51.28340637594493,1303.9999650307,0.00012476580815246052,5.683829158442677e-06,0.0,-4.206981429888401e-07,1.4360807654156815e-07,0.0,17.82844861611241,70.0,0.0,255.0,0.0
11.950000000000028,35.69341320692927,51.283406660319024,1303.9999646116048,0.00012474477318846766,5.691009619113174e-06,0.0,-4.2070041672559455e-07,1.4360807654156815e-07,0.0,17.87114802762726,70.0,0.0,255.0,0.0
12.000000000000028,35.69341944363806,51.283406945052164,1303.999964190647,0.00012472373811078796,5.698189966096834e-06,0.0,-4.2069984829140594e-07,1.4360580280480694e-07,0.0,17.913839516094136,70.0,0.0,255.0,0.0
12.05000000000003,35.6934256792951,51.2834072301443,1303.9999637734145,0.00012470270320363852,5.705370199393656e-06,0.0,-4.206981429888401e-07,1.4360693967318416e-07,0.0,17.956523081513044,70.0,0.0,255.0,0.0
12.10000000000003,35.693431913900405,51.28340751559545,1303.999963353388,0.00012468166829648908,5.712550660064153e-06,0.0,-4.206987114230287e-07,1.4360921340994537e-07,0.0,17.999198723883975,70.0,0.0,255.0,0.0
12.15000000000003,35.69343814745395,51.28340780140563,1303.9999629342929,0.00012466063333249622,5.71973112073465e-06,0.0,-4.2069984829140594e-07,1.4360693967319094e-07,0.0,18.04186644320693,70.0,0.0,255.0,0.0
12.200000000000031,35.69344437995576,51.28340808757482,1303.999962516129,0.00012463959831165994,5.726911354031472e-06,0.0,-4.2069927985721733e-07,1.4360693967319094e-07,0.0,18.084526239481917,70.0,0.0,255.0,0.0
12.250000000000032,35.69345061140582,51.283408374103026,1303.9999620979652,0.0001246185634045105,5.734091814701969e-06,0.0,-4.206981429888401e-07,1.4360807654156815e-07,0.0,18.12717811270893,70.0,0.0,255.0,0.0
12.300000000000033,35.69345684180412,51.28340866099026,1303.99996167887,0.00012459752849736105,5.741272161685629e-06,0.0,-4.2069927985721733e-07,1.4360580280480694e-07,0.0,18.16982206288797,70.0,0.0,255.0,0.0
12.350000000000033,35.69346307115068,51.2834089482365,1303.9999612616375,0.00012457649347652477,5.748452394982451e-06,0.0,-4.2069927985721733e-07,1.4360693967318416e-07,0.0,18.212458090019034,70.0,0.0,255.0,0.0
12.400000000000034,35.69346929944549,51.28340923584176,1303.999960841611,0.00012455545856937533,5.755632855652948e-06,0.0,-4.206987114230287e-07,1.4360807654156815e-07,0.0,18.255086194102127,70.0,0.0,255.0,0.0
12.450000000000035,35.693475526688566,51.28340952380603,1303.9999604243785,0.00012453442360538247,5.7628132026366075e-06,0.0,-4.2069984829140594e-07,1.4360693967319094e-07,0.0,18.297706375137246,70.0,0.0,255.0,0.0
12.500000000000036,35.6934817528799,51.28340981212932,1303.9999600052834,0.0001245133885845462,5.769993549620267e-06,0.0,-4.2069927985721733e-07,1.4360807654156815e-07,0.0,18.340318633124394,70.0,0.0,255.0,0.0
12.550000000000036,35.69348797801947,51.283410100811636,1303.9999595861882,0.00012449235367739675,5.777174010290764e-06,0.0,-4.206987114230287e-07,1.4360921340994537e-07,0.0,18.382922968063568,70.0,0.0,255.0,0.0
12.600000000000037,35.69349420210729,51.28341038985297,1303.999959169887,0.0001244713187134039,5.7843544709612615e-06,0.0,-4.206981429888401e-07,1.4360693967319094e-07,0.0,18.425519379954768,70.0,0.0,255.0,0.0
12.650000000000038,35.69350042514336,51.28341067925332,1303.9999587517232,0.00012445028386309787,5.791534704258083e-06,0.0,-4.206975745546515e-07,1.4360580280480694e-07,0.0,18.468107868797993,70.0,0.0,255.0,0.0
12.700000000000038,35.6935066471277,51.28341096901269,1303.999958332628,0.00012442924895594842,5.798715051241743e-06,0.0,-4.2069927985721733e-07,1.4360807654156138e-07,0.0,18.510688434593245,70.0,0.0,255.0,0.0
12.750000000000039,35.693512868060296,51.283411259131064,1303.9999579153955,0.00012440821393511214,5.80589551191224e-06,0.0,-4.2070041672559455e-07,1.4360807654156815e-07,0.0,18.553261077340526,70.0,0.0,255.0,0.0
12.80000000000004,35.693519087941134,51.28341154960847,1303.999957498163,0.00012438717891427586,5.8130758588959e-06,0.0,-4.2069984829140594e-07,1.4360693967319094e-07,0.0,18.595825797039836,70.0,0.0,255.0,0.0
12.85000000000004,35.69352530677022,51.28341184044489,1303.9999570809305,0.000124366143950283,5.820256205879559e-06,0.0,-4.206987114228119e-07,1.4360693967319094e-07,0.0,18.63838259369117,70.0,0.0,255.0,0.0
12.900000000000041,35.69353152454757,51.28341213164033,1303.9999566627666,0.00012434510904313356,5.827436552863219e-06,0.0,-4.206992798570005e-07,1.4360693967319094e-07,0.0,18.68093146729453,70.0,0.0,255.0,0.0
12.950000000000042,35.69353774127316,51.2834124231948,1303.9999562446028,0.00012432407402229728,5.834616899846878e-06,0.0,-4.2069927985721733e-07,1.4360807654156138e-07,0.0,18.72347241784992,70.0,0.0,255.0,0.0
13.000000000000043,35.693543956947,51.283412715108255,1303.9999558273703,0.00012430303911514784,5.841797360517376e-06,0.0,-4.206981429888401e-07,1.436092134099386e-07,0.0,18.766005445357337,70.0,0.0,255.0,0.0
13.050000000000043,35.693550171569115,51.28341300738075,1303.999955411069,0.0001242820042079984,5.848977821187873e-06,0.0,-4.2069927985721733e-07,1.4360693967319094e-07,0.0,18.80853054981678,70.0,0.0,255.0,0.0
13.100000000000044,35.693556385139466,51.283413300012256,1303.999954994768,0.00012426096918716212,5.856158054484695e-06,0.0,-4.2069927985721733e-07,1.436046659364365e-07,0.0,18.851047731228245,70.0,0.0,255.0,0.0
13.150000000000045,35.69356259765808,51.28341359300278,1303.9999545756727,0.00012423993428001268,5.8633382877815166e-06,0.0,-4.206981429888401e-07,1.4360693967319094e-07,0.0,18.89355698959174,70.0,0.0,255.0,0.0
13.200000000000045,35.69356880912494,51.283413886352314,1303.9999541603029,0.00012421889937286323,5.870518748452014e-06,0.0,-4.2069927985721733e-07,1.4361035027832258e-07,0.0,18.936058324907265,70.0,0.0,255.0,0.0
13.250000000000046,35.693575019540056,51.28341418006089,1303.999953744933,0.00012419786435202695,5.877699322809349e-06,0.0,-4.2069984829140594e-07,1.4360807654156815e-07,0.0,18.978551737174815,70.0,0.0,255.0,0.0
13.300000000000047,35.693581228903426,51.283414474128456,1303.9999533267692,0.0001241768293880341,5.884879556106171e-06,0.0,-4.206987114230287e-07,1.4360466593642973e-07,0.0,19.02103722639439,70.0,0.0,255.0,0.0
13.350000000000048,35.69358743721505,51.283414768555055,1303.999952910468,0.00012415579448088465,5.8920597894029925e-06,0.0,-4.206981429888401e-07,1.4360807654156138e-07,0.0,19.063514792565996,70.0,0.0,255.0,0.0
13.400000000000048,35.69359364447492,51.28341506334066,1303.9999524932355,0.0001241347595737352,5.8992403637603275e-06,0.0,-4.206987114230287e-07,1.4360921340994537e-07,0.0,19.105984435689624,70.0,0.0,255.0,0.0
13.450000000000049,35.69359985068306,51.2834153584853,1303.999952076003,0.00012411372460974235,5.906420710743987e-06,0.0,-4.2069984829140594e-07,1.4360580280481372e-07,0.0,19.148446155765285,70.0,0.0,255.0,0.0
13.50000000000005,35.693606055839425,51.283415653988946,1303.999951660633,0.00012409268958890607,5.913600944040809e-06,0.0,-4.2069984829140594e-07,1.4360693967319094e-07,0.0,19.190899952792968,70.0,0.0,255.0,0.0
13.55000000000005,35.69361225994406,51.28341594985161,1303.9999512452632,0.0001240716546249132,5.920781404711306e-06,0.0,-4.2069927985721733e-07,1.4360807654156815e-07,0.0,19.233345826772677,70.0,0.0,255.0,0.0
13.600000000000051,35.693618462996945,51.28341624607329,1303.9999508270994,0.00012405061966092035,5.927961751694966e-06,0.0,-4.206987114230287e-07,1.4360693967319094e-07,0.0,19.275783777704415,70.0,0.0,255.0,0.0
13.650000000000052,35.69362466499808,51.28341654265399,1303.9999504126608,0.0001240295847537709,5.935142098678625e-06,0.0,-4.206987114230287e-07,1.4360807654156138e-07,0.0,19.31821380558818,70.0,0.0,255.0,0.0
13.700000000000053,35.693630865947476,51.283416839593706,1303.9999499963596,0.00012400854978977804,5.9423225593491225e-06,0.0,-4.206987114230287e-07,1.4360807654156138e-07,0.0,19.36063591042397,70.0,0.0,255.0,0.0
13.750000000000053,35.69363706584512,51.28341713689245,1303.9999495800585,0.0001239875148826286,5.949502906332782e-06,0.0,-4.206987114230287e-07,1.4360580280481372e-07,0.0,19.403050092211792,70.0,0.0,255.0,0.0
13.800000000000054,35.69364326469102,51.283417434550195,1303.9999491646886,0.00012396647991863574,5.956683139629604e-06,0.0,-4.2069984829140594e-07,1.4360693967319094e-07,0.0,19.445456350951638,70.0,0.0,255.0,0.0
13.850000000000055,35.69364946248516,51.28341773256696,1303.999948747456,0.00012394544489779946,5.963863600300101e-06,0.0,-4.2069927985721733e-07,1.4360921340994537e-07,0.0,19.48785468664351,70.0,0.0,255.0,0.0
13.900000000000055,35.69365565922756,51.283418030942755,1303.9999483339489,0.00012392440999065002,5.971044060970598e-06,0.0,-4.206987114230287e-07,1.4360693967319094e-07,0.0,19.530245099287406,70.0,0.0,255.0,0.0
13.950000000000056,35.693661854918226,51.28341832967756,1303.9999479195103,0.00012390337502665716,5.97822429426742e-06,0.0,-4.206987114230287e-07,1.4360693967318416e-07,0.0,19.572627588883336,70.0,0.0,255.0,0.0
14.000000000000057,35.69366804955713,51.28341862877137,1303.9999475032091,0.00012388234011950772,5.9854047549379175e-06,0.0,-4.206987114230287e-07,1.436092134099386e-07,0.0,19.615002155431288,70.0,0.0,255.0,0.0
14.050000000000058,35.693674243144294,51.283418928224215,1303.9999470887706,0.00012386130515551486,5.992585215608415e-06,0.0,-4.2069984829140594e-07,1.4360693967319094e-07,0.0,19.657368798931266,70.0,0.0,255.0,0.0
14.100000000000058,35.69368043567971,51.283419228036074,1303.9999466724694,0.00012384027013467858,5.9997654489052366e-06,0.0,-4.2069927985721733e-07,1.4360580280481372e-07,0.0,19.699727519383273,70.0,0.0,255.0,0.0
14.150000000000059,35.69368662716337,51.283419528206956,1303.9999462561682,0.00012381923522752913,6.006945795888896e-06,0.0,-4.206975745546515e-07,1.4360807654156815e-07,0.0,19.742078316787303,70.0,0.0,255.0,0.0
14.20000000000006,35.69369281759529,51.28341982873685,1303.9999458417296,0.0001237982003772231,6.014126256559393e-06,0.0,-4.206987114230287e-07,1.4360693967319094e-07,0.0,19.78442119114337,70.0,0.0,255.0,0.0
14.25000000000006,35.69369900697547,51.28342012962576,1303.999945427291,0.00012377716535638683,6.021306489856215e-06,0.0,-4.2070041672559455e-07,1.4360580280481372e-07,0.0,19.826756142451455,70.0,0.0,255.0,0.0
14.300000000000061,35.693705195303906,51.28342043087368,1303.99994501099,0.00012375613033555055,6.028486836839875e-06,0.0,-4.2069927985721733e-07,1.436092134099386e-07,0.0,19.86908317071157,70.0,0.0,255.0,0.0
14.350000000000062,35.693711382580574,51.28342073248063,1303.9999445965514,0.0001237350954284011,6.03566741119721e-06,0.0,-4.206987114230287e-07,1.436092134099386e-07,0.0,19.91140227592371,70.0,0.0,255.0,0.0
14.400000000000063,35.69371756880552,51.2834210344466,1303.9999441811815,0.00012371406046440825,6.042847758180869e-06,0.0,-4.2069984829140594e-07,1.4360580280481372e-07,0.0,19.95371345808788,70.0,0.0,255.0,0.0
14.450000000000063,35.6937237539787,51.283421336771575,1303.9999437676743,0.00012369302544357197,6.050027991477691e-06,0.0,-4.206987114230287e-07,1.4360693967319094e-07,0.0,19.996016717204075,70.0,0.0,255.0,0.0
14.500000000000064,35.693729938100134,51.28342163945557,1303.9999433532357,0.00012367199059326595,6.057208452148188e-06,0.0,-4.206975745546515e-07,1.4360807654156815e-07,0.0,20.038312053272293,70.0,0.0,255.0,0.0
14.550000000000065,35.69373612116983,51.2834219424986,1303.9999429387972,0.0001236509556861165,6.064388799131848e-06,0.0,-4.2069927985721733e-07,1.4360693967319094e-07,0.0,20.080599466292544,70.0,0.0,255.0,0.0
14.600000000000065,35.69374230318776,51.28342224590062,1303.99994252529,0.00012362992066528022,6.0715691461155075e-06,0.0,-4.2070041672559455e-07,1.4360807654156815e-07,0.0,20.122878956264817,70.0,0.0,255.0,0.0
14.650000000000066,35.693748484153964,51.28342254966168,1303.9999421108514,0.00012360888564444394,6.078749606786005e-06,0.0,-4.2069984829140594e-07,1.4360807654156138e-07,0.0,20.16515052318912,70.0,0.0,255.0,0.0
14.700000000000067,35.69375466406841,51.283422853781744,1303.9999416973442,0.00012358785068045108,6.085929953769664e-06,0.0,-4.206981429888401e-07,1.4360580280480694e-07,0.0,20.20741416706545,70.0,0.0,255.0,0.0
14.750000000000068,35.69376084293111,51.28342315826083,1303.9999412819743,0.00012356681583014506,6.093110187066486e-06,0.0,-4.206975745546515e-07,1.4360693967319094e-07,0.0,20.249669887893806,70.0,0.0,255.0,0.0
14.800000000000068,35.693767020742065,51.28342346309893,1303.9999408693984,0.00012354578092299562,6.100290647736983e-06,0.0,-4.2069927985721733e-07,1.4360921340994537e-07,0.0,20.29191768567419,70.0,0.0,255.0,0.0
14.850000000000069,35.69377319750128,51.28342376829605,1303.9999404558912,0.00012352474590215934,6.107471108407481e-06,0.0,-4.2069927985721733e-07,1.4360693967319094e-07,0.0,20.3341575604066,70.0,0.0,255.0,0.0
14.90000000000007,35.693779373208734,51.283424073852196,1303.9999400405213,0.0001235037109950099,6.1146513417043025e-06,0.0,-4.206987114230287e-07,1.4360693967319094e-07,0.0,20.376389512091038,70.0,0.0,255.0,0.0
14.95000000000007,35.69378554786446,51.28342437976735,1303.999939627014,0.00012348267603101704,6.1218318023748e-06,0.0,-4.2070041672559455e-07,1.4360807654156815e-07,0.0,20.4186135407275,70.0,0.0,255.0,0.0
15.000000000000071,35.69379172146843,51.28342468604153,1303.9999392144382,0.00012346164095333734,6.129012149358459e-06,0.0,-4.2069927985721733e-07,1.4360580280481372e-07,0.0,20.46082964631599,70.0,0.0,255.0,0.0
15.050000000000072,35.69379789402063,51.28342499267472,1303.999938800931,0.00012344060610303131,6.136192382655281e-06,0.0,-4.206975745546515e-07,1.4360693967319094e-07,0.0,20.503037828856506,70.0,0.0,255.0,0.0
15.100000000000072,35.693804065521114,51.28342529966692,1303.9999383874238,0.00012341957119588187,6.143372843325778e-06,0.0,-4.2069927985721733e-07,1.4360921340994537e-07,0.0,20.54523808834905,70.0,0.0,255.0,0.0
15.150000000000073,35.69381023596984,51.283425607018145,1303.9999379739165,0.0001233985361750456,6.150553303996276e-06,0.0,-4.2069984829140594e-07,1.4360693967317738e-07,0.0,20.58743042479362,70.0,0.0,255.0,0.0
15.200000000000074,35.693816405366825,51.28342591472839,1303.999937559478,0.00012337750121105273,6.1577335372930975e-06,0.0,-4.206987114230287e-07,1.4360580280480017e-07,0.0,20.62961483819022,70.0,0.0,255.0,0.0
15.250000000000075,35.693822573712055,51.28342622279765,1303.999937146902,0.0001233564663039033,6.164913884276757e-06,0.0,-4.206987114230287e-07,1.4360921340994537e-07,0.0,20.671791328538845,70.0,0.0,255.0,0.0
15.300000000000075,35.69382874100555,51.28342653122593,1303.9999367343262,0.00012333543133991043,6.172094458634092e-06,0.0,-4.2069984829140594e-07,1.4360921340994537e-07,0.0,20.713959895839498,70.0,0.0,255.0,0.0
15.350000000000076,35.69383490724728,51.28342684001323,1303.9999363217503,0.00012331439631907415,6.1792748056177516e-06,0.0,-4.2069927985721733e-07,1.4360580280481372e-07,0.0,20.756120540092176,70.0,0.0,255.0,0.0
15.400000000000077,35.693841072437266,51.28342714915954,1303.999935911037,0.0001232933614119247,6.186455038914573e-06,0.0,-4.206981429888401e-07,1.4360693967319094e-07,0.0,20.79827326129688,70.0,0.0,255.0,0.0
15.450000000000077,35.6938472365755,51.283427458664875,1303.9999354975298,0.00012327232650477526,6.193635499585071e-06,0.0,-4.206987114230287e-07,1.4360807654156815e-07,0.0,20.840418059453615,70.0,0.0,255.0,0.0
15.500000000000078,35.693853399662,51.28342776852923,1303.9999350840226,0.0001232512915407824,6.20081584656873e-06,0.0,-4.2069927985721733e-07,1.4360693967319094e-07,0.0,20.88255493456237,70.0,0.0,255.0,0.0
15.550000000000079,35.69385956169675,51.283428078752586,1303.9999346714467,0.00012323025657678954,6.20799619355239e-06,0.0,-4.2069927985721733e-07,1.4360693967319094e-07,0.0,20.924683886623157,70.0,0.0,255.0,0.0
15.60000000000008,35.69386572267976,51.28342838933498,1303.999934259802,0.00012320922161279668,6.215176540536049e-06,0.0,-4.2069927985721733e-07,1.4360693967319094e-07,0.0,20.966804915635972,70.0,0.0,255.0,0.0
15.65000000000008,35.69387188261101,51.283428700276374,1303.9999338453636,0.00012318818664880382,6.222356887519709e-06,0.0,-4.206981429888401e-07,1.4360807654156815e-07,0.0,21.008918021600813,70.0,0.0,255.0,0.0
15.700000000000081,35.693878041490514,51.2834290115768,1303.9999334346503,0.0001231671517984978,6.229537348190206e-06,0.0,-4.206981429888401e-07,1.4360921340994537e-07,0.0,21.05102320451768,70.0,0.0,255.0,0.0
15.750000000000082,35.69388419931828,51.28342932323623,1303.9999330230057,0.00012314611683450494,6.236717808860703e-06,0.0,-4.2070041672559455e-07,1.4360693967319094e-07,0.0,21.093120464386573,70.0,0.0,255.0,0.0
15.800000000000082,35.6938903560943,51.2834296352547,1303.9999326113611,0.00012312508175682524,6.243898042157525e-06,0.0,-4.2069984829140594e-07,1.4360580280480017e-07,0.0,21.13520980120749,70.0,0.0,255.0,0.0
15.850000000000083,35.69389651181856,51.28342994763216,1303.9999321987852,0.0001231040468496758,6.251078389141185e-06,0.0,-4.206981429888401e-07,1.436080765415546e-07,0.0,21.177291214980443,70.0,0.0,255.0,0.0
15.900000000000084,35.693902666491084,51.28343026036865,1303.9999317871407,0.00012308301194252635,6.258258849811682e-06,0.0,-4.206987114230287e-07,1.4360693967319094e-07,0.0,21.219364705705416,70.0,0.0,255.0,0.0
15.950000000000085,35.69390882011185,51.28343057346416,1303.9999313745648,0.0001230619769785335,6.265439083108504e-06,0.0,-4.2069984829140594e-07,1.4360693967319094e-07,0.0,21.261430273382416,70.0,0.0,255.0,0.0
16.000000000000085,35.69391497268088,51.28343088691868,1303.9999309619889,0.00012304094195769721,6.272619543779001e-06,0.0,-4.2069927985721733e-07,1.4360807654156815e-07,0.0,21.303487918011445,70.0,0.0,255.0,0.0
16.050000000000086,35.693921124198155,51.283431200732224,1303.9999305531383,0.00012301990705054777,6.279799890762661e-06,0.0,-4.206981429888401e-07,1.4360693967319094e-07,0.0,21.3455376395925,70.0,0.0,255.0,0.0
16.100000000000087,35.69392727466369,51.28343151490477,1303.999930139631,0.00012299887214339833,6.28698023774632e-06,0.0,-4.2069927985721733e-07,1.4360807654156815e-07,0.0,21.38757943812558,70.0,0.0,255.0,0.0
16.150000000000087,35.693933424077485,51.28343182943635,1303.9999297289178,0.00012297783712256205,6.2941606984168175e-06,0.0,-4.2069927985721733e-07,1.4360807654156815e-07,0.0,21.42961331361069,70.0,0.0,255.0,0.0
16.200000000000088,35.69393957243951,51.28343214432695,1303.9999293163419,0.0001229568022154126,6.301341045400477e-06,0.0,-4.206987114230287e-07,1.4360693967319094e-07,0.0,21.471639266047827,70.0,0.0,255.0,0.0
16.25000000000009,35.6939457197498,51.28343245957657,1303.99992890656,0.00012293576725141975,6.3085213923841366e-06,0.0,-4.2069984829140594e-07,1.4360693967319094e-07,0.0,21.51365729543699,70.0,0.0,255.0,0.0
16.30000000000009,35.69395186600834,51.2834327751852,1303.9999284949154,0.00012291473223058347,6.315701739367796e-06,0.0,-4.2069927985721733e-07,1.4360693967319094e-07,0.0,21.55566740177818,70.0,0.0,255.0,0.0
16.35000000000009,35.69395801121514,51.28343309115284,1303.9999280832708,0.00012289369732343403,6.322882086351456e-06,0.0,-4.206987114230287e-07,1.4360693967319094e-07,0.0,21.597669585071397,70.0,0.0,255.0,0.0
16.40000000000009,35.69396415537019,51.28343340747951,1303.9999276725575,0.00012287266235944116,6.330062433335115e-06,0.0,-4.206981429888401e-07,1.4360807654156815e-07,0.0,21.639663845316637,70.0,0.0,255.0,0.0
16.45000000000009,35.69397029847349,51.28343372416519,1303.9999272627756,0.00012285162750913514,6.3372428940056125e-06,0.0,-4.2069757455443467e-07,1.436080765415546e-07,0.0,21.68165018251391,70.0,0.0,255.0,0.0
16.500000000000092,35.69397644052504,51.283434041209894,1303.999926851131,0.0001228305926019857,6.344423240989272e-06,0.0,-4.207004167253777e-07,1.4360693967317738e-07,0.0,21.723628596663204,70.0,0.0,255.0,0.0
16.550000000000093,35.69398258152486,51.28343435861361,1303.9999264404178,0.00012280955746746258,6.3516035879729316e-06,0.0,-4.2070041672559455e-07,1.4360807654156815e-07,0.0,21.765599087764528,70.0,0.0,255.0,0.0
16.600000000000094,35.69398872147291,51.283434676376345,1303.9999260315672,0.00012278852256031314,6.358784048643429e-06,0.0,-4.206981429888401e-07,1.4360807654156815e-07,0.0,21.80756165581788,70.0,0.0,255.0,0.0
16.650000000000095,35.69399486036923,51.283434994498094,1303.9999256199226,0.0001227674876531637,6.365964395627088e-06,0.0,-4.206987114230287e-07,1.4360693967319094e-07,0.0,21.849516300823257,70.0,0.0,255.0,0.0
16.700000000000095,35.69400099821379,51.28343531297887,1303.9999252101406,0.00012274645268917084,6.373144742610748e-06,0.0,-4.2069927985721733e-07,1.4360693967319094e-07,0.0,21.891463022780663,70.0,0.0,255.0,0.0
16.750000000000096,35.694007135006615,51.283435631818655,1303.999924798496,0.00012272541772517798,6.3803250895944075e-06,0.0,-4.2069927985721733e-07,1.4360693967319094e-07,0.0,21.93340182169009,70.0,0.0,255.0,0.0
16.800000000000097,35.69401327074769,51.28343595101746,1303.9999243905768,0.00012270438276118512,6.387505436578067e-06,0.0,-4.2069927985721733e-07,1.4360693967319094e-07,0.0,21.975332697551554,70.0,0.0,255.0,0.0
16.850000000000097,35.69401940543701,51.28343627057528,1303.9999239789322,0.00012268334779719225,6.3946857835617266e-06,0.0,-4.2069927985721733e-07,1.4360693967319094e-07,0.0,22.017255650365037,70.0,0.0,255.0,0.0
16.900000000000098,35.69402553907459,51.28343659049213,1303.9999235691503,0.0001226623128331994,6.401866130545386e-06,0.0,-4.206981429888401e-07,1.4360807654156815e-07,0.0,22.05917068013055,70.0,0.0,255.0,0.0
16.9500000000001,35.69403167166042,51.283436910767975,1303.9999231602997,0.00012264127798289337,6.409046591215883e-06,0.0,-4.206987114230287e-07,1.4360807654156815e-07,0.0,22.101077786848087,70.0,0.0,255.0,0.0
17.0000000000001,35.69403780319451,51.28343723140285,1303.999922748655,0.0001226202429620571,6.416226938199543e-06,0.0,-4.2069984829140594e-07,1.4360693967319094e-07,0.0,22.14297697051765,70.0,0.0,255.0,0.0
17.0500000000001,35.69404393367684,51.28343755239674,1303.9999223416671,0.00012259920799806423,6.4234072851832025e-06,0.0,-4.206987114230287e-07,1.4360693967319094e-07,0.0,22.184868231139244,70.0,0.0,255.0,0.0
17.1000000000001,35.69405006310743,51.28343787374966,1303.9999219300225,0.0001225781730909148,6.430587632166862e-06,0.0,-4.2069927985721733e-07,1.436080765415546e-07,0.0,22.226751568712867,70.0,0.0,255.0,0.0
17.1500000000001,35.69405619148628,51.283438195461585,1303.9999215230346,0.0001225571380700785,6.437768092837359e-06,0.0,-4.206987114230287e-07,1.4360921340993182e-07,0.0,22.268626983238512,70.0,0.0,255.0,0.0
17.200000000000102,35.694062318813366,51.283438517532524,1303.9999211132526,0.00012253610321977249,6.4449485535078566e-06,0.0,-4.206975745546515e-07,1.4360693967319094e-07,0.0,22.310494474716183,70.0,0.0,255.0,0.0
17.250000000000103,35.694068445088725,51.2834388399625,1303.9999207034707,0.00012251506831262304,6.452128786804678e-06,0.0,-4.2070041672559455e-07,1.436046659364365e-07,0.0,22.352354043145887,70.0,0.0,255.0,0.0
17.300000000000104,35.69407457031234,51.28343916275148,1303.9999202927575,0.00012249403317809993,6.4593090201015e-06,0.0,-4.2070041672559455e-07,1.4360693967319094e-07,0.0,22.394205688527613,70.0,0.0,255.0,0.0
17.350000000000104,35.694080694484185,51.28343948589947,1303.9999198839068,0.00012247299827095048,6.4664894807719975e-06,0.0,-4.206981429888401e-07,1.4361035027832258e-07,0.0,22.436049410861365,70.0,0.0,255.0,0.0
17.400000000000105,35.69408681760428,51.28343980940649,1303.999919474125,0.00012245196336380104,6.4736700551293325e-06,0.0,-4.206987114230287e-07,1.4360807654156815e-07,0.0,22.477885210147146,70.0,0.0,255.0,0.0
17.450000000000106,35.69409293967265,51.28344013327253,1303.9999190662056,0.00012243092839980818,6.480850288426154e-06,0.0,-4.2069927985721733e-07,1.4360580280481372e-07,0.0,22.519713086384954,70.0,0.0,255.0,0.0
17.500000000000107,35.69409906068926,51.283440457497576,1303.999918657355,0.00012240989343581532,6.488030635409814e-06,0.0,-4.2069984829140594e-07,1.4360693967319094e-07,0.0,22.561533039574787,70.0,0.0,255.0,0.0
17.550000000000107,35.69410518065413,51.28344078208165,1303.999918247573,0.00012238885841497904,6.495210982393473e-06,0.0,-4.206987114230287e-07,1.4360693967319094e-07,0.0,22.603345069716653,70.0,0.0,255.0,0.0
17.600000000000108,35.69411129956724,51.28344110702473,1303.9999178387225,0.00012236782356467302,6.502391329377133e-06,0.0,-4.206981429888401e-07,1.4360921340994537e-07,0.0,22.645149176810538,70.0,0.0,255.0,0.0
17.65000000000011,35.694117417428615,51.283441432326825,1303.9999174308032,0.00012234678860068016,6.509571903734468e-06,0.0,-4.2069927985721733e-07,1.4360807654156815e-07,0.0,22.686945360856452,70.0,0.0,255.0,0.0
17.70000000000011,35.69412353423824,51.28344175798796,1303.999917022884,0.0001223257536366873,6.51675213703129e-06,0.0,-4.2069927985721733e-07,1.436046659364365e-07,0.0,22.728733621854396,70.0,0.0,255.0,0.0
17.75000000000011,35.69412964999612,51.283442084008094,1303.9999166140333,0.00012230471867269443,6.5239323703281116e-06,0.0,-4.2069927985721733e-07,1.4360807654156815e-07,0.0,22.770513959804365,70.0,0.0,255.0,0.0
17.80000000000011,35.694135764702224,51.28344241038725,1303.9999162051827,0.00012228368370870157,6.5311129446854466e-06,0.0,-4.2069927985721733e-07,1.436080765415546e-07,0.0,22.81228637470636,70.0,0.0,255.0,0.0
17.85000000000011,35.69414187835663,51.283442737125426,1303.9999157981947,0.0001222626487447087,6.538293177982268e-06,0.0,-4.2069927985721733e-07,1.4360580280480017e-07,0.0,22.854050866560385,70.0,0.0,255.0,0.0
17.900000000000112,35.694147990959266,51.28344306422261,1303.999915389344,0.00012224161378071585,6.545473524965928e-06,0.0,-4.206975745546515e-07,1.4360807654156815e-07,0.0,22.895807435366432,70.0,0.0,255.0,0.0
17.950000000000113,35.69415410251015,51.28344339167882,1303.9999149832875,0.00012222057898725325,6.552653985636425e-06,0.0,-4.206975745546515e-07,1.4360807654156815e-07,0.0,22.93755608112451,70.0,0.0,255.0,0.0
18.000000000000114,35.69416021300931,51.283443719494045,1303.9999145725742,0.0001221995440232604,6.559834332620085e-06,0.0,-4.2070041672559455e-07,1.4360807654156815e-07,0.0,22.97929680383461,70.0,0.0,255.0,0.0
18.050000000000114,35.694166322456695,51.2834440476683,1303.9999141655862,0.0001221785089455807,6.567014793290582e-06,0.0,-4.2069984829140594e-07,1.4360693967319094e-07,0.0,23.021029603496743,70.0,0.0,255.0,0.0
18.100000000000115,35.694172430852355,51.28344437620155,1303.9999137558043,0.00012215747403843125,6.574195026587404e-06,0.0,-4.206987114230287e-07,1.4360693967319094e-07,0.0,23.0627544801109,70.0,0.0,255.0,0.0
18.150000000000116,35.69417853819625,51.283444705093835,1303.999913350679,0.00012213643907443839,6.581375487257901e-06,0.0,-4.2069984829140594e-07,1.4360807654156815e-07,0.0,23.104471433677084,70.0,0.0,255.0,0.0
18.200000000000117,35.6941846444884,51.28344503434514,1303.999912943691,0.0001221154040536021,6.588555834241561e-06,0.0,-4.2069927985721733e-07,1.4360693967319094e-07,0.0,23.146180464195293,70.0,0.0,255.0,0.0
18.250000000000117,35.694190749728804,51.283445363955444,1303.9999125357717,0.00012209436914645266,6.59573618122522e-06,0.0,-4.206987114230287e-07,1.4360807654156815e-07,0.0,23.187881571665535,70.0,0.0,255.0,0.0
18.300000000000118,35.69419685391747,51.28344569392478,1303.9999121278524,0.0001220733341824598,6.6029166418957175e-06,0.0,-4.2069927985721733e-07,1.4360693967319094e-07,0.0,23.2295747560878,70.0,0.0,255.0,0.0
18.35000000000012,35.69420295705438,51.28344602425313,1303.9999117217958,0.00012205229921846694,6.610096875192539e-06,0.0,-4.206987114230287e-07,1.4360580280481372e-07,0.0,23.27126001746209,70.0,0.0,255.0,0.0
18.40000000000012,35.69420905913954,51.283446354940494,1303.9999113148078,0.0001220312643113175,6.617277222176199e-06,0.0,-4.206987114230287e-07,1.4360807654156815e-07,0.0,23.312937355788407,70.0,0.0,255.0,0.0
18.45000000000012,35.694215160172966,51.28344668598688,1303.9999109068885,0.00012201022934732464,6.624457682846696e-06,0.0,-4.206987114230287e-07,1.436080765415546e-07,0.0,23.354606771066752,70.0,0.0,255.0,0.0
18.50000000000012,35.69422126015464,51.283447017392284,1303.9999104999006,0.0001219891944401752,6.631638029830356e-06,0.0,-4.206987114230287e-07,1.4360693967317738e-07,0.0,23.396268263297124,70.0,0.0,255.0,0.0
18.55000000000012,35.69422735908456,51.2834473491567,1303.9999100947753,0.00012196815947618234,6.638818376814015e-06,0.0,-4.2069984829140594e-07,1.4360807654156815e-07,0.0,23.437921832479525,70.0,0.0,255.0,0.0
18.600000000000122,35.694233456962735,51.28344768128014,1303.999909686856,0.00012194712445534606,6.6459988374845125e-06,0.0,-4.2069927985721733e-07,1.4360807654156815e-07,0.0,23.47956747861395,70.0,0.0,255.0,0.0
18.650000000000123,35.69423955378917,51.283448013762595,1303.9999092789367,0.00012192608954819661,6.653179184468172e-06,0.0,-4.206987114230287e-07,1.4360693967319094e-07,0.0,23.521205201700404,70.0,0.0,255.0,0.0
18.700000000000124,35.694245649563854,51.28344834660406,1303.99990887288,0.00012190505458420375,6.6603595314518316e-06,0.0,-4.206981429888401e-07,1.4360807654156815e-07,0.0,23.562835001738886,70.0,0.0,255.0,0.0
18.750000000000124,35.69425174428678,51.28344867980455,1303.9999084668234,0.00012188401973389773,6.667539992122329e-06,0.0,-4.206981429888401e-07,1.4360807654156815e-07,0.0,23.60445687872939,70.0,0.0,255.0,0.0
18.800000000000125,35.694257837957984,51.283449013364056,1303.9999080607668,0.00012186298476990487,6.674720339105988e-06,0.0,-4.2069984829140594e-07,1.4360580280481372e-07,0.0,23.646070832671924,70.0,0.0,255.0,0.0
18.850000000000126,35.694263930577435,51.283449347282584,1303.9999076528475,0.00012184194974906859,6.68190057240281e-06,0.0,-4.2069984829140594e-07,1.4360580280481372e-07,0.0,23.687676863566484,70.0,0.0,255.0,0.0
18.900000000000126,35.69427002214512,51.28344968156012,1303.9999072477221,0.00012182091478507573,6.68908091938647e-06,0.0,-4.2069927985721733e-07,1.4360807654156815e-07,0.0,23.72927497141307,70.0,0.0,255.0,0.0
18.950000000000127,35.69427611266106,51.28345001619668,1303.9999068435282,0.00012179987982108287,6.696261380056967e-06,0.0,-4.206987114230287e-07,1.4360807654156815e-07,0.0,23.770865156211684,70.0,0.0,255.0,0.0
19.000000000000128,35.69428220212527,51.283450351192265,1303.9999064356089,0.00012177884491393343,6.7034417270406266e-06,0.0,-4.2069927985721733e-07,1.4360693967319094e-07,0.0,23.81244741796233,70.0,0.0,255.0,0.0
19.05000000000013,35.69428829053773,51.283450686546864,1303.9999060304835,0.00012175780989309715,6.710622074024286e-06,0.0,-4.2069927985721733e-07,1.4360807654156815e-07,0.0,23.854021756664995,70.0,0.0,255.0,0.0
19.10000000000013,35.69429437789843,51.28345102226047,1303.9999056234956,0.0001217367749859477,6.717802534694783e-06,0.0,-4.206987114230287e-07,1.436080765415546e-07,0.0,23.895588172319687,70.0,0.0,255.0,0.0
19.15000000000013,35.69430046420738,51.2834513583331,1303.9999052193016,0.00012171574002195484,6.724982881678443e-06,0.0,-4.2069984829140594e-07,1.4360693967317738e-07,0.0,23.93714666492641,70.0,0.0,255.0,0.0
19.20000000000013,35.6943065494646,51.28345169476475,1303.9999048113823,0.00012169470500111856,6.7321632286621025e-06,0.0,-4.206987114230287e-07,1.4360693967319094e-07,0.0,23.97869723448516,70.0,0.0,255.0,0.0
19.25000000000013,35.69431263367005,51.283452031555406,1303.9999044071883,0.00012167367015081254,6.739343575645762e-06,0.0,-4.206981429888401e-07,1.4360693967319094e-07,0.0,24.020239880995934,70.0,0.0,255.0,0.0
19.300000000000132,35.69431871682379,51.2834523687051,1303.999904002063,0.00012165263518681968,6.746523922629422e-06,0.0,-4.2070041672559455e-07,1.4360807654156815e-07,0.0,24.061774604458737,70.0,0.0,255.0,0.0
19.350000000000133,35.69432479892575,51.2834527062138,1303.9999035969377,0.00012163160010913998,6.753704383299919e-06,0.0,-4.2069927985721733e-07,1.4360807654156815e-07,0.0,24.103301404873566,70.0,0.0,255.0,0.0
19.400000000000134,35.69433087997597,51.28345304408151,1303.9999031899497,0.00012161056525883396,6.760884730283578e-06,0.0,-4.206975745546515e-07,1.4360693967319094e-07,0.0,24.14482028224042,70.0,0.0,255.0,0.0
19.450000000000134,35.69433695997445,51.28345338230825,1303.9999027857557,0.00012158953035168452,6.768065077267238e-06,0.0,-4.206981429888401e-07,1.4360693967319094e-07,0.0,24.1863312365593,70.0,0.0,255.0,0.0
19.500000000000135,35.69434303892118,51.283453720894,1303.999902379699,0.00012156849544453507,6.7752454242508975e-06,0.0,-4.206987114230287e-07,1.4360693967319094e-07,0.0,24.227834267830215,70.0,0.0,255.0,0.0
19.550000000000136,35.69434911681617,51.28345405983877,1303.9999019745737,0.00012154746048054221,6.782425771234557e-06,0.0,-4.2069984829140594e-07,1.4360807654156815e-07,0.0,24.26932937605315,70.0,0.0,255.0,0.0
19.600000000000136,35.6943551936594,51.28345439914256,1303.999901571311,0.00012152642545970593,6.789606231905054e-06,0.0,-4.2069984829140594e-07,1.4360807654156815e-07,0.0,24.310816561228116,70.0,0.0,255.0,0.0
19.650000000000137,35.694361269450894,51.28345473880537,1303.9999011661857,0.00012150539049571307,6.796786578888714e-06,0.0,-4.2069927985721733e-07,1.4360693967319094e-07,0.0,24.352295823355107,70.0,0.0,255.0,0.0
19.700000000000138,35.69436734419063,51.283455078827195,1303.999900762923,0.00012148435553172021,6.803966925872373e-06,0.0,-4.2069927985721733e-07,1.4360693967319094e-07,0.0,24.393767162434123,70.0,0.0,255.0,0.0
19.75000000000014,35.69437341787864,51.28345541920803,1303.9999003550038,0.00012146332056772735,6.811147272856033e-06,0.0,-4.2069927985721733e-07,1.4360693967319094e-07,0.0,24.435230578465166,70.0,0.0,255.0,0.0
19.80000000000014,35.69437949051487,51.283455759947884,1303.9998999526724,0.00012144228560373449,6.8183276198396925e-06,0.0,-4.206981429888401e-07,1.436080765415546e-07,0.0,24.47668607144824,70.0,0.0,255.0,0.0
19.85000000000014,35.694385562099384,51.28345610104675,1303.9998995466158,0.00012142125075342847,6.82550808051019e-06,0.0,-4.206987114230287e-07,1.436080765415546e-07,0.0,24.518133641383336,70.0,0.0,255.0,0.0
19.90000000000014,35.69439163263214,51.28345644250466,1303.9998991424218,0.00012140021573259219,6.832688427493849e-06,0.0,-4.2069984829140594e-07,1.4360693967319094e-07,0.0,24.55957328827046,70.0,0.0,255.0,0.0
19.95000000000014,35.69439770211314,51.28345678432156,1303.999898739159,0.00012137918076859933,6.839868774477509e-06,0.0,-4.206987114230287e-07,1.4360807654156815e-07,0.0,24.60100501210961,70.0,0.0,255.0,0.0
20.000000000000142,35.694403770542394,51.28345712649749,1303.999898334965,0.00012135814586144988,6.847049235148006e-06,0.0,-4.206987114230287e-07,1.4360807654156815e-07,0.0,24.642428812900793,70.0,0.0,255.0,0.0
20.050000000000143,35.694409837919906,51.28345746903244,1303.999897930771,0.00012133711089745702,6.854229582131666e-06,0.0,-4.2069927985721733e-07,1.4360693967319094e-07,0.0,24.683844690643998,70.0,0.0,255.0,0.0
20.100000000000144,35.69441590424567,51.28345781192641,1303.9998975256458,0.00012131607593346416,6.861409929115325e-06,0.0,-4.206992798570005e-07,1.4360580280481372e-07,0.0,24.725252645339232,70.0,0.0,255.0,0.0
20.150000000000144,35.69442196951969,51.28345815517939,1303.9998971214518,0.0001212950409694713,6.868590162412147e-06,0.0,-4.206992798570005e-07,1.4360693967319094e-07,0.0,24.76665267698649,70.0,0.0,255.0,0.0
20.200000000000145,35.694428033741964,51.28345849879138,1303.9998967181891,0.00012127400600547844,6.875770623082644e-06,0.0,-4.206987114230287e-07,1.4360921340994537e-07,0.0,24.808044785585775,70.0,0.0,255.0,0.0
20.250000000000146,35.69443409691249,51.2834588427624,1303.9998963149264,0.000121252971098329,6.8829510837531416e-06,0.0,-4.206981429888401e-07,1.4360693967319094e-07,0.0,24.849428971137087,70.0,0.0,255.0,0.0
20.300000000000146,35.69444015903127,51.28345918709243,1303.9998959116638,0.00012123193619117956,6.890131317049963e-06,0.0,-4.2069927985721733e-07,1.4360693967319094e-07,0.0,24.890805233640428,70.0,0.0,255.0,0.0
20.350000000000147,35.6944462200983,51.28345953178149,1303.999895508401,0.00012121090117034328,6.897311777720461e-06,0.0,-4.2069984829140594e-07,1.4360807654156815e-07,0.0,24.932173573095792,70.0,0.0,255.0,0.0
20.400000000000148,35.69445228011357,51.28345987682955,1303.9998951060697,0.00012118986620635042,6.90449212470412e-06,0.0,-4.206987114230287e-07,1.4360693967319094e-07,0.0,24.973533989503185,70.0,0.0,255.0,0.0
20.45000000000015,35.694458339077116,51.283460222236634,1303.9998947009444,0.00012116883129920097,6.91167247168778e-06,0.0,-4.206987114230287e-07,1.436080765415546e-07,0.0,25.01488648286261,70.0,0.0,255.0,0.0
20.50000000000015,35.6944643969889,51.283460568002745,1303.999894298613,0.00012114779633520811,6.918852932358277e-06,0.0,-4.2069927985721733e-07,1.4360693967317738e-07,0.0,25.056231053174056,70.0,0.0,255.0,0.0
20.55000000000015,35.69447045384894,51.283460914127865,1303.9998938934878,0.00012112676137121525,6.926033165655099e-06,0.0,-4.2069927985721733e-07,1.4360580280481372e-07,0.0,25.09756770043753,70.0,0.0,255.0,0.0
20.60000000000015,35.69447650965724,51.283461260612,1303.9998934911564,0.00012110572640722239,6.933213512638758e-06,0.0,-4.2069927985721733e-07,1.4360921340994537e-07,0.0,25.138896424653034,70.0,0.0,255.0,0.0
20.65000000000015,35.694482564413775,51.28346160745516,1303.9998930897564,0.00012108469144322953,6.940394086996093e-06,0.0,-4.206987114230287e-07,1.4360807654156815e-07,0.0,25.180217225820563,70.0,0.0,255.0,0.0
20.700000000000152,35.694488618118584,51.283461954657334,1303.9998926855624,0.00012106365653608009,6.947574320292915e-06,0.0,-4.2069927985721733e-07,1.436046659364365e-07,0.0,25.221530103940115,70.0,0.0,255.0,0.0
20.750000000000153,35.69449467077165,51.28346230221852,1303.999892283231,0.00012104262151524381,6.954754553589737e-06,0.0,-4.2069984829140594e-07,1.4360693967319094e-07,0.0,25.262835059011696,70.0,0.0,255.0,0.0
20.800000000000153,35.694500722372936,51.28346265013873,1303.9998918808997,0.00012102158655125095,6.961935014260234e-06,0.0,-4.206987114230287e-07,1.4360921340994537e-07,0.0,25.304132091035306,70.0,0.0,255.0,0.0
20.850000000000154,35.6945067729225,51.28346299841795,1303.999891477637,0.0001210005516441015,6.969115474930732e-06,0.0,-4.206987114230287e-07,1.4360921340994537e-07,0.0,25.34542120001094,70.0,0.0,255.0,0.0
20.900000000000155,35.694512822420315,51.283463347056205,1303.999891076237,0.00012097951668010865,6.976295935601229e-06,0.0,-4.206987114230287e-07,1.4360693967319094e-07,0.0,25.3867023859386,70.0,0.0,255.0,0.0
20.950000000000156,35.694518870866375,51.28346369605347,1303.999890674837,0.0001209584817729592,6.983476168898051e-06,0.0,-4.206981429888401e-07,1.4360580280481372e-07,0.0,25.427975648818293,70.0,0.0,255.0,0.0
21.000000000000156,35.6945249182607,51.283464045409744,1303.999890270643,0.00012093744686580976,6.99065651588171e-06,0.0,-4.206987114230287e-07,1.4360807654156815e-07,0.0,25.46924098865001,70.0,0.0,255.0,0.0
21.050000000000157,35.694530964603274,51.283464395125044,1303.9998898683116,0.0001209164119018169,6.9978369765522075e-06,0.0,-4.2069927985721733e-07,1.4360693967319094e-07,0.0,25.510498405433754,70.0,0.0,255.0,0.0
21.100000000000158,35.694537009894105,51.28346474519936,1303.9998894659802,0.00012089537693782404,7.005017209849029e-06,0.0,-4.2069984829140594e-07,1.4360693967317738e-07,0.0,25.551747899169523,70.0,0.0,255.0,0.0
21.15000000000016,35.69454305413317,51.283465095632685,1303.9998890636489,0.00012087434191698776,7.012197670519527e-06,0.0,-4.2069984829140594e-07,1.4360921340993182e-07,0.0,25.592989469857322,70.0,0.0,255.0,0.0
21.20000000000016,35.6945490973205,51.28346544642504,1303.9998886631802,0.0001208533069529949,7.019378131190024e-06,0.0,-4.206987114230287e-07,1.4360693967319094e-07,0.0,25.634223117497143,70.0,0.0,255.0,0.0
21.25000000000016,35.69455513945607,51.283465797576405,1303.9998882608488,0.00012083227204584546,7.026558364486846e-06,0.0,-4.206981429888401e-07,1.4360580280481372e-07,0.0,25.675448842088993,70.0,0.0,255.0,0.0
21.30000000000016,35.694561180539914,51.28346614908679,1303.9998878594488,0.00012081123713869601,7.033738711470505e-06,0.0,-4.206987114230287e-07,1.4360807654156815e-07,0.0,25.71666664363287,70.0,0.0,255.0,0.0
21.35000000000016,35.694567220572004,51.283466500956195,1303.9998874580488,0.00012079020217470315,7.0409191721410025e-06,0.0,-4.2069984829140594e-07,1.4360807654156815e-07,0.0,25.757876522128775,70.0,0.0,255.0,0.0
21.400000000000162,35.69457325955234,51.28346685318461,1303.9998870566487,0.00012076916715386687,7.048099519124662e-06,0.0,-4.2069984829140594e-07,1.4360807654156815e-07,0.0,25.799078477576707,70.0,0.0,255.0,0.0
21.450000000000163,35.69457929748094,51.28346720577205,1303.9998866552487,0.00012074813218987401,7.055279979795159e-06,0.0,-4.2069927985721733e-07,1.4360807654156815e-07,0.0,25.840272509976664,70.0,0.0,255.0,0.0
21.500000000000163,35.69458533435778,51.283467558718506,1303.9998862510547,0.00012072709722588115,7.062460326778819e-06,0.0,-4.206987114230287e-07,1.4360580280481372e-07,0.0,25.88145861932865,70.0,0.0,255.0,0.0
21.550000000000164,35.694591370182884,51.283467912023966,1303.999885850586,0.00012070606231873171,7.069640560075641e-06,0.0,-4.206981429888401e-07,1.4360693967319094e-07,0.0,25.922636805632663,70.0,0.0,255.0,0.0
21.600000000000165,35.69459740495623,51.283468265688455,1303.9998854501173,0.00012068502741158227,7.076821020746138e-06,0.0,-4.206987114230287e-07,1.4360807654156815e-07,0.0,25.963807068888702,70.0,0.0,255.0,0.0
21.650000000000166,35.69460343867784,51.283468619711975,1303.9998850496486,0.00012066399244758941,7.0840013677297975e-06,0.0,-4.2069927985721733e-07,1.4360693967319094e-07,0.0,26.004969409096766,70.0,0.0,255.0,0.0
21.700000000000166,35.694609471347704,51.2834689740945,1303.9998846501112,0.00012064295748359655,7.091181714713457e-06,0.0,-4.206987114230287e-07,1.4360693967319094e-07,0.0,26.04612382625686,70.0,0.0,255.0,0.0
21.750000000000167,35.69461550296581,51.283469328836034,1303.9998842477798,0.0001206219225764471,7.098362061697117e-06,0.0,-4.206987114230287e-07,1.436080765415546e-07,0.0,26.08727032036898,70.0,0.0,255.0,0.0
21.800000000000168,35.69462153353218,51.2834696839366,1303.9998838463798,0.00012060088761245424,7.105542522367614e-06,0.0,-4.2069927985721733e-07,1.436080765415546e-07,0.0,26.128408891433125,70.0,0.0,255.0,0.0
21.85000000000017,35.694627563046794,51.28347003939618,1303.9998834468424,0.00012057985264846138,7.112722869351273e-06,0.0,-4.2069984829140594e-07,1.4360580280481372e-07,0.0,26.169539539449296,70.0,0.0,255.0,0.0
21.90000000000017,35.694633591509664,51.28347039521477,1303.999883044511,0.0001205588176276251,7.119903102648095e-06,0.0,-4.2069927985721733e-07,1.4360693967319094e-07,0.0,26.2106622644175,70.0,0.0,255.0,0.0
21.95000000000017,35.69463961892079,51.28347075139238,1303.9998826440424,0.00012053778272047566,7.1270835633185925e-06,0.0,-4.206981429888401e-07,1.4360921340994537e-07,0.0,26.251777066337727,70.0,0.0,255.0,0.0
22.00000000000017,35.69464564528017,51.28347110792901,1303.999882244505,0.00012051674781332622,7.13426402398909e-06,0.0,-4.2069984829140594e-07,1.4360807654156815e-07,0.0,26.292883945209983,70.0,0.0,255.0,0.0
22.05000000000017,35.6946516705878,51.28347146482466,1303.999881845899,0.00012049571273564652,7.141444370972749e-06,0.0,-4.2069984829140594e-07,1.4360693967319094e-07,0.0,26.33398290103426,70.0,0.0,255.0,0.0
22.100000000000172,35.69465769484368,51.28347182207932,1303.999881444499,0.00012047467782849708,7.148624717956409e-06,0.0,-4.206981429888401e-07,1.4360693967319094e-07,0.0,26.37507393381057,70.0,0.0,255.0,0.0
22.150000000000173,35.69466371804781,51.28347217969301,1303.9998810440302,0.00012045364292134764,7.155805064940068e-06,0.0,-4.2069927985721733e-07,1.4360693967319094e-07,0.0,26.416157043538902,70.0,0.0,255.0,0.0
22.200000000000173,35.694669740200204,51.28347253766571,1303.9998806444928,0.00012043260790051136,7.162985411923728e-06,0.0,-4.2069927985721733e-07,1.4360807654156815e-07,0.0,26.457232230219265,70.0,0.0,255.0,0.0
22.250000000000174,35.69467576130083,51.28347289599742,1303.999880244024,0.00012041157299336191,7.170165872594225e-06,0.0,-4.206981429888401e-07,1.4360807654156815e-07,0.0,26.49829949385165,70.0,0.0,255.0,0.0
22.300000000000175,35.69468178134972,51.28347325468816,1303.9998798444867,0.00012039053808621247,7.177346219577885e-06,0.0,-4.2069927985721733e-07,1.4360580280481372e-07,0.0,26.539358834436065,70.0,0.0,255.0,0.0
22.350000000000176,35.69468780034688,51.28347361373792,1303.9998794458807,0.0001203695030653762,7.184526452874707e-06,0.0,-4.2069984829140594e-07,1.4360693967319094e-07,0.0,26.58041025197251,70.0,0.0,255.0,0.0
22.400000000000176,35.69469381829228,51.28347397314668,1303.9998790444806,0.00012034846810138333,7.191706913545204e-06,0.0,-4.2069927985721733e-07,1.4360921340994537e-07,0.0,26.62145374646098,70.0,0.0,255.0,0.0
22.450000000000177,35.69469983518593,51.28347433291447,1303.9998786449432,0.00012032743313739047,7.198887374215701e-06,0.0,-4.206987114230287e-07,1.436080765415546e-07,0.0,26.662489317901475,70.0,0.0,255.0,0.0
22.500000000000178,35.694705851027834,51.28347469304128,1303.9998782463372,0.00012030639823024103,7.206067721199361e-06,0.0,-4.206970061204629e-07,1.4360693967317738e-07,0.0,26.703516966294,70.0,0.0,255.0,0.0
22.55000000000018,35.694711865817986,51.283475053527106,1303.9998778458685,0.00012028536343677843,7.21324806818302e-06,0.0,-4.206981429888401e-07,1.4360693967319094e-07,0.0,26.744536691638547,70.0,0.0,255.0,0.0
22.60000000000018,35.694717879556414,51.283475414371935,1303.999877446331,0.00012026432841594215,7.22042841516668e-06,0.0,-4.2070098515978316e-07,1.4360580280481372e-07,0.0,26.785548493935124,70.0,0.0,255.0,0.0
22.65000000000018,35.69472389224307,51.2834757755758,1303.999877047725,0.00012024329333826245,7.227608648463502e-06,0.0,-4.2069984829140594e-07,1.4360580280481372e-07,0.0,26.826552373183727,70.0,0.0,255.0,0.0
22.70000000000018,35.694729903878,51.28347613713867,1303.9998766481876,0.000120222258431113,7.234788995447161e-06,0.0,-4.206987114230287e-07,1.4360921340994537e-07,0.0,26.867548329384356,70.0,0.0,255.0,0.0
22.75000000000018,35.69473591446116,51.28347649906056,1303.9998762495816,0.00012020122346712014,7.241969569804496e-06,0.0,-4.2069927985721733e-07,1.4361035027832258e-07,0.0,26.908536362537014,70.0,0.0,255.0,0.0
22.800000000000182,35.69474192399259,51.28347686134148,1303.9998758509755,0.00012018018850312728,7.249150030474993e-06,0.0,-4.2069927985721733e-07,1.4360693967319094e-07,0.0,26.949516472641697,70.0,0.0,255.0,0.0
22.850000000000183,35.69474793247227,51.28347722398141,1303.9998754533008,0.00012015915353913442,7.256330263771815e-06,0.0,-4.206987114230287e-07,1.4360580280481372e-07,0.0,26.99048865969841,70.0,0.0,255.0,0.0
22.900000000000183,35.69475393990019,51.283477586980354,1303.999875052832,0.00012013811863198498,7.263510610755475e-06,0.0,-4.206981429888401e-07,1.4360693967319094e-07,0.0,27.031452923707146,70.0,0.0,255.0,0.0
22.950000000000184,35.69475994627637,51.283477950338316,1303.9998746551573,0.00012011708372483554,7.270690957739134e-06,0.0,-4.2069984829140594e-07,1.4360693967319094e-07,0.0,27.072409264667915,70.0,0.0,255.0,0.0
23.000000000000185,35.6947659516008,51.2834783140553,1303.9998742565513,0.00012009604864715584,7.277871304722794e-06,0.0,-4.2069984829140594e-07,1.4360921340994537e-07,0.0,27.113357682580705,70.0,0.0,255.0,0.0
23.050000000000185,35.69477195587349,51.283478678131296,1303.9998738588765,0.0001200750137400064,7.285051879080129e-06,0.0,-4.206975745546515e-07,1.4360807654156815e-07,0.0,27.154298177445522,70.0,0.0,255.0,0.0
23.100000000000186,35.69477795909444,51.28347904256633,1303.9998734602705,0.00012005397888970037,7.292232112376951e-06,0.0,-4.206987114230287e-07,1.4360466593642295e-07,0.0,27.195230749262368,70.0,0.0,255.0,0.0
23.150000000000187,35.69478396126362,51.28347940736034,1303.9998730616644,0.0001200329438688641,7.2994123456737725e-06,0.0,-4.2070041672559455e-07,1.436080765415546e-07,0.0,27.23615539803124,70.0,0.0,255.0,0.0
23.200000000000188,35.69478996238107,51.283479772513395,1303.9998726639897,0.00012001190884802782,7.3065929200311075e-06,0.0,-4.2069927985721733e-07,1.4360921340994537e-07,0.0,27.277072123752138,70.0,0.0,255.0,0.0
23.25000000000019,35.69479596244677,51.28348013802548,1303.9998722653836,0.00011999087394087837,7.313773267014767e-06,0.0,-4.206975745546515e-07,1.4360580280481372e-07,0.0,27.31798092642506,70.0,0.0,255.0,0.0
23.30000000000019,35.69480196146072,51.283480503896556,1303.9998718667775,0.00011996983909057235,7.320953500311589e-06,0.0,-4.206981429888401e-07,1.4360693967319094e-07,0.0,27.358881806050015,70.0,0.0,255.0,0.0
23.35000000000019,35.69480795942293,51.28348087012666,1303.9998714700341,0.00011994880412657949,7.328133960982086e-06,0.0,-4.2069984829140594e-07,1.4360807654156815e-07,0.0,27.399774762626997,70.0,0.0,255.0,0.0
23.40000000000019,35.6948139563334,51.28348123671578,1303.9998710732907,0.00011992776910574321,7.335314307965746e-06,0.0,-4.2069984829140594e-07,1.4360693967319094e-07,0.0,27.440659796156,70.0,0.0,255.0,0.0
23.45000000000019,35.6948199521921,51.283481603663915,1303.9998706746846,0.00011990673414175035,7.342494654949405e-06,0.0,-4.2069927985721733e-07,1.4360807654156815e-07,0.0,27.48153690663704,70.0,0.0,255.0,0.0
23.500000000000192,35.69482594699906,51.28348197097107,1303.99987027701,0.00011988569917775749,7.3496751156199025e-06,0.0,-4.2069927985721733e-07,1.4360807654156815e-07,0.0,27.5224060940701,70.0,0.0,255.0,0.0
23.550000000000193,35.69483194075428,51.28348233863725,1303.9998698784038,0.00011986466421376463,7.356855462603562e-06,0.0,-4.206987114230287e-07,1.4360693967319094e-07,0.0,27.563267358455185,70.0,0.0,255.0,0.0
23.600000000000193,35.69483793345775,51.28348270666243,1303.9998694816604,0.00011984362930661518,7.364035809587222e-06,0.0,-4.206987114230287e-07,1.4360693967319094e-07,0.0,27.604120699792297,70.0,0.0,255.0,0.0
23.650000000000194,35.694843925109474,51.28348307504665,1303.9998690830544,0.00011982259434262232,7.371216156570881e-06,0.0,-4.2069927985721733e-07,1.4360693967319094e-07,0.0,27.644966118081438,70.0,0.0,255.0,0.0
23.700000000000195,35.69484991570945,51.283483443789876,1303.999868686311,0.00011980155937862946,7.378396503554541e-06,0.0,-4.206992798570005e-07,1.4360807654156815e-07,0.0,27.685803613322605,70.0,0.0,255.0,0.0
23.750000000000195,35.69485590525767,51.283483812892115,1303.9998682895675,0.0001197805244146366,7.385576964225038e-06,0.0,-4.206987114228119e-07,1.436080765415546e-07,0.0,27.726633185515798,70.0,0.0,255.0,0.0
23.800000000000196,35.69486189375416,51.28348418235338,1303.999867892824,0.00011975948950748716,7.3927573112086975e-06,0.0,-4.206987114230287e-07,1.4360693967317738e-07,0.0,27.767454834661024,70.0,0.0,255.0,0.0
23.850000000000197,35.694867881198896,51.283484552173654,1303.9998674951494,0.0001197384545434943,7.399937658192357e-06,0.0,-4.2069984829140594e-07,1.4360693967319094e-07,0.0,27.808268560758272,70.0,0.0,255.0,0.0
23.900000000000198,35.69487386759189,51.283484922352955,1303.9998670974746,0.00011971741952265802,7.407118005176017e-06,0.0,-4.206987114230287e-07,1.4360693967319094e-07,0.0,27.849074363807546,70.0,0.0,255.0,0.0
23.9500000000002,35.69487985293312,51.28348529289127,1303.9998667016625,0.000119696384672352,7.414298352159676e-06,0.0,-4.206981429888401e-07,1.4360807654156815e-07,0.0,27.889872243808853,70.0,0.0,255.0,0.0
24.0000000000002,35.69488583722262,51.283485663788596,1303.9998663049191,0.00011967534970835914,7.421478812830173e-06,0.0,-4.2069927985721733e-07,1.4360807654156815e-07,0.0,27.93066220076218,70.0,0.0,255.0,0.0
24.0500000000002,35.694891820460356,51.28348603504495,1303.999865909107,0.00011965431474436627,7.428659159813833e-06,0.0,-4.206987114230287e-07,1.4360580280481372e-07,0.0,27.971444234667533,70.0,0.0,255.0,0.0
24.1000000000002,35.694897802646366,51.283486406660316,1303.999865513295,0.00011963327983721683,7.435839393110655e-06,0.0,-4.2069927985721733e-07,1.4360807654156815e-07,0.0,28.012218345524918,70.0,0.0,255.0,0.0
24.1500000000002,35.69490378378062,51.28348677863469,1303.9998651165515,0.00011961224481638055,7.44301996746799e-06,0.0,-4.2070041672559455e-07,1.4360921340994537e-07,0.0,28.052984533334325,70.0,0.0,255.0,0.0
24.200000000000202,35.694909763863116,51.28348715096811,1303.9998647207394,0.00011959120979554427,7.450200314451649e-06,0.0,-4.2069927985721733e-07,1.4360580280481372e-07,0.0,28.09374279809576,70.0,0.0,255.0,0.0
24.250000000000203,35.694915742893876,51.28348752366053,1303.9998643230647,0.00011957017488839483,7.457380547748471e-06,0.0,-4.206975745546515e-07,1.4360807654156815e-07,0.0,28.134493139809226,70.0,0.0,255.0,0.0
24.300000000000203,35.694921720872884,51.283487896711954,1303.9998639272526,0.00011954914003808881,7.464561122105806e-06,0.0,-4.206987114230287e-07,1.4360807654156815e-07,0.0,28.175235558474718,70.0,0.0,255.0,0.0
24.350000000000204,35.694927697800146,51.28348827012242,1303.9998635286465,0.00011952810501725253,7.471741355402628e-06,0.0,-4.2069984829140594e-07,1.436046659364365e-07,0.0,28.215970054092235,70.0,0.0,255.0,0.0
24.400000000000205,35.69493367367566,51.28348864389189,1303.9998631356284,0.00011950707005325967,7.47892158869945e-06,0.0,-4.2069927985721733e-07,1.4360807654156815e-07,0.0,28.256696626661782,70.0,0.0,255.0,0.0
24.450000000000205,35.694939648499435,51.28348901802038,1303.999862738885,0.0001194860350892668,7.486102163056785e-06,0.0,-4.2069984829140594e-07,1.4360921340993182e-07,0.0,28.29741527618335,70.0,0.0,255.0,0.0
24.500000000000206,35.69494562227145,51.28348939250789,1303.9998623449355,0.00011946500006843053,7.493282510040444e-06,0.0,-4.206987114230287e-07,1.4360693967317738e-07,0.0,28.33812600265695,70.0,0.0,255.0,0.0
24.550000000000207,35.694951594991714,51.28348976735441,1303.9998619481921,0.0001194439652181245,7.500462857024104e-06,0.0,-4.206975745546515e-07,1.4360693967319094e-07,0.0,28.378828806082574,70.0,0.0,255.0,0.0
24.600000000000207,35.69495756666025,51.283490142559955,1303.9998615542427,0.00011942293031097506,7.507643204007763e-06,0.0,-4.2069927985721733e-07,1.4360693967319094e-07,0.0,28.419523686460224,70.0,0.0,255.0,0.0
24.650000000000208,35.69496353727704,51.28349051812451,1303.9998611574993,0.00011940189529013878,7.514823550991423e-06,0.0,-4.2069984829140594e-07,1.4360807654156815e-07,0.0,28.460210643789903,70.0,0.0,255.0,0.0
24.70000000000021,35.69496950684207,51.28349089404809,1303.9998607626185,0.00011938086032614592,7.52200401166192e-06,0.0,-4.206987114230287e-07,1.4360693967319094e-07,0.0,28.50088967807161,70.0,0.0,255.0,0.0
24.75000000000021,35.694975475355356,51.283491270330686,1303.9998603668064,0.00011935982541899648,7.529184244958742e-06,0.0,-4.206981429888401e-07,1.4360693967319094e-07,0.0,28.541560789305343,70.0,0.0,255.0,0.0
24.80000000000021,35.694981442816896,51.283491646972294,1303.9998599709943,0.00011933879051184704,7.536364705629239e-06,0.0,-4.206987114230287e-07,1.4360807654156815e-07,0.0,28.5822239774911,70.0,0.0,255.0,0.0
24.85000000000021,35.6949874092267,51.283492023972926,1303.9998595761135,0.00011931775554785418,7.543545052612899e-06,0.0,-4.2069984829140594e-07,1.4360693967319094e-07,0.0,28.622879242628887,70.0,0.0,255.0,0.0
24.90000000000021,35.69499337458475,51.28349240133257,1303.9998591812328,0.0001192967205270179,7.550725399596558e-06,0.0,-4.2069984829140594e-07,1.4360807654156815e-07,0.0,28.663526584718703,70.0,0.0,255.0,0.0
24.950000000000212,35.694999338891044,51.28349277905124,1303.9998587872833,0.00011927568556302504,7.557905860267056e-06,0.0,-4.2069927985721733e-07,1.4360807654156815e-07,0.0,28.70416600376054,70.0,0.0,255.0,0.0
25.000000000000213,35.69500530214558,51.28349315712892,1303.9998583914712,0.00011925465059903217,7.565086207250715e-06,0.0,-4.206987114230287e-07,1.4360693967319094e-07,0.0,28.744797499754405,70.0,0.0,255.0,0.0
25.050000000000214,35.695011264348395,51.283493535565626,1303.9998579975218,0.00011923361569188273,7.572266554234375e-06,0.0,-4.206987114230287e-07,1.4360693967319094e-07,0.0,28.7854210727003,70.0,0.0,255.0,0.0
25.100000000000215,35.69501722549945,51.283493914361344,1303.9998576035723,0.00011921258072788987,7.579446901218034e-06,0.0,-4.2069984829140594e-07,1.436080765415546e-07,0.0,28.826036722598218,70.0,0.0,255.0,0.0
25.150000000000215,35.69502318559875,51.28349429351608,1303.9998572086915,0.00011919154570705359,7.586627361888532e-06,0.0,-4.206987114230287e-07,1.4360693967317738e-07,0.0,28.866644449448167,70.0,0.0,255.0,0.0
25.200000000000216,35.69502914464633,51.28349467302983,1303.9998568128794,0.00011917051085674757,7.593807595185353e-06,0.0,-4.206975745546515e-07,1.4360580280481372e-07,0.0,28.90724425325014,70.0,0.0,255.0,0.0
25.250000000000217,35.69503510264214,51.2834950529026,1303.9998564198613,0.00011914947594959813,7.600987942169013e-06,0.0,-4.2069927985721733e-07,1.4360807654156815e-07,0.0,28.947836134004145,70.0,0.0,255.0,0.0
25.300000000000217,35.69504105958621,51.283495433134384,1303.9998560240492,0.00011912844092876185,7.60816840283951e-06,0.0,-4.2069984829140594e-07,1.4360807654156815e-07,0.0,28.98842009171017,70.0,0.0,255.0,0.0
25.350000000000218,35.695047015478536,51.28349581372519,1303.9998556300998,0.00011910740596476899,7.61534874982317e-06,0.0,-4.2069927985721733e-07,1.4360693967319094e-07,0.0,29.028996126368227,70.0,0.0,255.0,0.0
25.40000000000022,35.69505297031911,51.28349619467501,1303.9998552370816,0.00011908637100077613,7.622529096806829e-06,0.0,-4.2069984829140594e-07,1.4360807654156815e-07,0.0,29.06956423797831,70.0,0.0,255.0,0.0
25.45000000000022,35.695058924107926,51.283496575983854,1303.9998548431322,0.00011906533597993985,7.629709557477327e-06,0.0,-4.2069927985721733e-07,1.4360921340994537e-07,0.0,29.110124426540416,70.0,0.0,255.0,0.0
25.50000000000022,35.69506487684501,51.28349695765172,1303.9998544491827,0.0001190443010727904,7.636890018147824e-06,0.0,-4.206975745546515e-07,1.4360580280481372e-07,0.0,29.150676692054553,70.0,0.0,255.0,0.0
25.55000000000022,35.69507082853033,51.2834973396786,1303.9998540561646,0.00011902326622248438,7.644070137757808e-06,0.0,-4.206975745546515e-07,1.436046659364365e-07,0.0,29.191221034520716,70.0,0.0,255.0,0.0
25.60000000000022,35.69507677916392,51.28349772206448,1303.9998536631465,0.00011900223131533494,7.651250484741468e-06,0.0,-4.2069927985721733e-07,1.4360921340994537e-07,0.0,29.231757453938904,70.0,0.0,255.0,0.0
25.650000000000222,35.69508272874576,51.2834981048094,1303.9998532673344,0.00011898119629449866,7.658431059098803e-06,0.0,-4.2069984829140594e-07,1.4360921340994537e-07,0.0,29.27228595030912,70.0,0.0,255.0,0.0
25.700000000000223,35.69508867727587,51.28349848791332,1303.9998528752476,0.0001189601613305058,7.665611406082462e-06,0.0,-4.2069927985721733e-07,1.4360693967319094e-07,0.0,29.312806523631366,70.0,0.0,255.0,0.0
25.750000000000224,35.69509462475421,51.283498871376274,1303.9998524812981,0.00011893912636651294,7.672791753066122e-06,0.0,-4.2069984829140594e-07,1.4360693967317738e-07,0.0,29.353319173905632,70.0,0.0,255.0,0.0
25.800000000000225,35.69510057118081,51.28349925519823,1303.99985208828,0.00011891809134567666,7.679972100049781e-06,0.0,-4.2069927985721733e-07,1.4360693967317738e-07,0.0,29.39382390113193,70.0,0.0,255.0,0.0
25.850000000000225,35.69510651655566,51.28349963937921,1303.9998516933993,0.00011889705643852722,7.68715244703344e-06,0.0,-4.206987114230287e-07,1.4360807654156815e-07,0.0,29.434320705310256,70.0,0.0,255.0,0.0
25.900000000000226,35.69511246087876,51.28350002391921,1303.9998513003811,0.00011887602147453435,7.694332907703938e-06,0.0,-4.2069927985721733e-07,1.4360693967319094e-07,0.0,29.474809586440607,70.0,0.0,255.0,0.0
25.950000000000227,35.695118404150115,51.28350040881824,1303.9998509092256,0.0001188549865105415,7.70151314100076e-06,0.0,-4.206987114230287e-07,1.4360580280481372e-07,0.0,29.515290544522983,70.0,0.0,255.0,0.0
26.000000000000227,35.695124346369724,51.28350079407626,1303.9998505162075,0.00011883395160339205,7.70869348798442e-06,0.0,-4.206987114230287e-07,1.4360921340994537e-07,0.0,29.555763579557386,70.0,0.0,255.0,0.0
26.050000000000228,35.6951302875376,51.28350117969331,1303.9998501231894,0.00011881291663939919,7.715874062341754e-06,0.0,-4.2069927985721733e-07,1.4360807654156815e-07,0.0,29.596228691543818,70.0,0.0,255.0,0.0
26.10000000000023,35.695136227653705,51.28350156566938,1303.99984972924,0.00011879188167540633,7.723054295638576e-06,0.0,-4.206987114230287e-07,1.4360580280481372e-07,0.0,29.636685880482275,70.0,0.0,255.0,0.0
26.15000000000023,35.69514216671808,51.28350195200447,1303.9998493380845,0.00011877084676825689,7.730234642622236e-06,0.0,-4.206987114230287e-07,1.4360807654156815e-07,0.0,29.67713514637276,70.0,0.0,255.0,0.0
26.20000000000023,35.6951481047307,51.28350233869857,1303.9998489459977,0.00011874981180426403,7.737415103292733e-06,0.0,-4.2069927985721733e-07,1.4360807654156815e-07,0.0,29.717576489215272,70.0,0.0,255.0,0.0
26.25000000000023,35.69515404169157,51.283502725751696,1303.9998485529795,0.00011872877684027117,7.744595450276393e-06,0.0,-4.2069927985721733e-07,1.4360693967319094e-07,0.0,29.75800990900981,70.0,0.0,255.0,0.0
26.30000000000023,35.695159977600696,51.28350311316384,1303.9998481599614,0.0001187077418762783,7.751775797260052e-06,0.0,-4.206987114230287e-07,1.4360580280481372e-07,0.0,29.79843540575638,70.0,0.0,255.0,0.0
26.350000000000232,35.69516591245808,51.28350350093499,1303.999847768806,0.00011868670696912886,7.758956030556874e-06,0.0,-4.206987114230287e-07,1.4360693967319094e-07,0.0,29.838852979454973,70.0,0.0,255.0,0.0
26.400000000000233,35.69517184626372,51.28350388906516,1303.9998473767191,0.000118665672005136,7.766136491227371e-06,0.0,-4.2069984829140594e-07,1.4361035027830903e-07,0.0,29.87926263010559,70.0,0.0,255.0,0.0
26.450000000000234,35.69517777901759,51.28350427755436,1303.9998469846323,0.00011864463698429972,7.773317065584706e-06,0.0,-4.206987114230287e-07,1.436080765415546e-07,0.0,29.919664357708236,70.0,0.0,255.0,0.0
26.500000000000234,35.69518371071974,51.28350466640257,1303.9998465925455,0.0001186236021339937,7.780497298881528e-06,0.0,-4.206981429888401e-07,1.4360580280481372e-07,0.0,29.960058162262907,70.0,0.0,255.0,0.0
26.550000000000235,35.695189641370135,51.28350505560979,1303.99984620139,0.00011860256717000084,7.787677645865188e-06,0.0,-4.2069984829140594e-07,1.4360807654156815e-07,0.0,30.00044404376961,70.0,0.0,255.0,0.0
26.600000000000236,35.69519557096878,51.28350544517604,1303.9998458074406,0.00011858153214916456,7.794858106535685e-06,0.0,-4.2069927985721733e-07,1.4360693967319094e-07,0.0,30.040822002228335,70.0,0.0,255.0,0.0
26.650000000000237,35.695201499515676,51.2835058351013,1303.999845416285,0.00011856049724201512,7.802038339832507e-06,0.0,-4.2069927985721733e-07,1.4360693967319094e-07,0.0,30.08119203763909,70.0,0.0,255.0,0.0
26.700000000000237,35.69520742701083,51.283506225385565,1303.9998450241983,0.00011853946222117884,7.809218800503004e-06,0.0,-4.2069984829140594e-07,1.4360807654156815e-07,0.0,30.12155415000187,70.0,0.0,255.0,0.0
26.750000000000238,35.695213353454236,51.28350661602888,1303.9998446321115,0.00011851842725718598,7.816399147486663e-06,0.0,-4.206981429888401e-07,1.4360580280481372e-07,0.0,30.16190833931668,70.0,0.0,255.0,0.0
26.80000000000024,35.69521927884588,51.28350700703118,1303.9998442428187,0.00011849739240687995,7.823579380783485e-06,0.0,-4.206987114230287e-07,1.4360807654156815e-07,0.0,30.202254605583516,70.0,0.0,255.0,0.0
26.85000000000024,35.6952252031858,51.28350739839252,1303.9998438516632,0.00011847635738604367,7.83075995514082e-06,0.0,-4.2069984829140594e-07,1.4360921340994537e-07,0.0,30.242592948802375,70.0,0.0,255.0,0.0
26.90000000000024,35.69523112647395,51.28350779011287,1303.999843458645,0.00011845532242205081,7.83794030212448e-06,0.0,-4.206987114230287e-07,1.4360580280481372e-07,0.0,30.282923368973265,70.0,0.0,255.0,0.0
26.95000000000024,35.695237048710375,51.283508182192236,1303.9998430693522,0.00011843428751490137,7.845120535421302e-06,0.0,-4.206987114230287e-07,1.4360693967319094e-07,0.0,30.323245866096176,70.0,0.0,255.0,0.0
27.00000000000024,35.69524296989504,51.283508574630616,1303.999842676334,0.00011841325255090851,7.852300996091799e-06,0.0,-4.2069927985721733e-07,1.4360807654156815e-07,0.0,30.36356044017112,70.0,0.0,255.0,0.0
27.050000000000242,35.695248890027955,51.28350896742802,1303.99984228611,0.00011839221758691565,7.859481343075458e-06,0.0,-4.206987114230287e-07,1.4360693967319094e-07,0.0,30.403867091198087,70.0,0.0,255.0,0.0
27.100000000000243,35.69525480910912,51.283509360584446,1303.9998418958858,0.00011837118267976621,7.866661690059118e-06,0.0,-4.206975745546515e-07,1.436080765415546e-07,0.0,30.444165819177083,70.0,0.0,255.0,0.0
27.150000000000244,35.69526072713856,51.28350975409988,1303.9998415056616,0.00011835014782946018,7.873842150729615e-06,0.0,-4.206987114230287e-07,1.436080765415546e-07,0.0,30.48445662410811,70.0,0.0,255.0,0.0
27.200000000000244,35.69526664411625,51.28351014797434,1303.9998411135748,0.0001183291128086239,7.881022497713275e-06,0.0,-4.2070041672559455e-07,1.4360693967319094e-07,0.0,30.524739505991157,70.0,0.0,255.0,0.0
27.250000000000245,35.69527256004219,51.283510542207814,1303.9998407224193,0.00011830807778778762,7.888202844696934e-06,0.0,-4.2070041672559455e-07,1.4360693967319094e-07,0.0,30.565014464826234,70.0,0.0,255.0,0.0
27.300000000000246,35.695278474916364,51.2835109368003,1303.9998403331265,0.00011828704276695134,7.895383191680594e-06,0.0,-4.2069984829140594e-07,1.4360693967319094e-07,0.0,30.605281500613337,70.0,0.0,255.0,0.0
27.350000000000247,35.695284388738806,51.283511331751804,1303.9998399429023,0.00011826600780295848,7.902563538664253e-06,0.0,-4.206981429886233e-07,1.4360693967319094e-07,0.0,30.645540613352466,70.0,0.0,255.0,0.0
27.400000000000247,35.6952903015095,51.283511727062326,1303.9998395517468,0.00011824497295265246,7.909743885647913e-06,0.0,-4.2069757455443467e-07,1.4360807654156815e-07,0.0,30.685791803043625,70.0,0.0,255.0,0.0
27.450000000000248,35.695296213228445,51.28351212273187,1303.999839162454,0.00011822393804550302,7.91692434631841e-06,0.0,-4.2069927985721733e-07,1.4360921340994537e-07,0.0,30.72603506968681,70.0,0.0,255.0,0.0
27.50000000000025,35.69530212389564,51.28351251876043,1303.9998387712985,0.00011820290302466674,7.924104806988908e-06,0.0,-4.2069984829140594e-07,1.4360693967319094e-07,0.0,30.76627041328202,70.0,0.0,255.0,0.0
27.55000000000025,35.69530803351108,51.283512915148016,1303.9998383838683,0.00011818186806067388,7.93128504028573e-06,0.0,-4.206987114230287e-07,1.436046659364365e-07,0.0,30.806497833829255,70.0,0.0,255.0,0.0
27.60000000000025,35.69531394207478,51.28351331189461,1303.9998379917815,0.00011816083315352444,7.938465273582551e-06,0.0,-4.2069927985721733e-07,1.4360693967319094e-07,0.0,30.84671733132852,70.0,0.0,255.0,0.0
27.65000000000025,35.69531984958675,51.28351370900021,1303.9998376015574,0.00011813979813268816,7.945645734253048e-06,0.0,-4.2069927985721733e-07,1.4361035027832258e-07,0.0,30.88692890577981,70.0,0.0,255.0,0.0
27.70000000000025,35.695325756046955,51.28351410646484,1303.9998372131959,0.00011811876322553871,7.952826308610383e-06,0.0,-4.206981429888401e-07,1.4360807654156815e-07,0.0,30.92713255718313,70.0,0.0,255.0,0.0
27.750000000000252,35.69533166145542,51.283514504288505,1303.9998368220404,0.00011809772831838927,7.960006541907205e-06,0.0,-4.2069927985721733e-07,1.4360580280480017e-07,0.0,30.96732828553848,70.0,0.0,255.0,0.0
27.800000000000253,35.69533756581213,51.28351490247116,1303.9998364336789,0.00011807669329755299,7.967186888890865e-06,0.0,-4.2069927985721733e-07,1.436080765415546e-07,0.0,31.00751609084585,70.0,0.0,255.0,0.0
27.850000000000254,35.69534346911709,51.28351530101284,1303.9998360434547,0.00011805565839040355,7.974367349561362e-06,0.0,-4.206981429888401e-07,1.4360693967319094e-07,0.0,31.04769597310525,70.0,0.0,255.0,0.0
27.900000000000254,35.69534937137032,51.28351569991354,1303.9998356569558,0.00011803462348325411,7.981547582858184e-06,0.0,-4.2069927985721733e-07,1.4360693967319094e-07,0.0,31.087867932316673,70.0,0.0,255.0,0.0
27.950000000000255,35.6953552725718,51.28351609917326,1303.999835264869,0.00011801358846241783,7.988728043528681e-06,0.0,-4.2069984829140594e-07,1.4360807654156815e-07,0.0,31.128031968480126,70.0,0.0,255.0,0.0
28.000000000000256,35.69536117272154,51.283516498792004,1303.9998348755762,0.00011799255349842497,7.99590839051234e-06,0.0,-4.2069927985721733e-07,1.4360693967319094e-07,0.0,31.168188081595602,70.0,0.0,255.0,0.0
28.050000000000257,35.695367071819504,51.283516898769754,1303.9998344872147,0.00011797151853443211,8.003088737496e-06,0.0,-4.206987114230287e-07,1.4360807654156815e-07,0.0,31.20833627166311,70.0,0.0,255.0,0.0
28.100000000000257,35.69537296986573,51.283517299106514,1303.9998340988532,0.00011795048362728267,8.010269198166498e-06,0.0,-4.206981429888401e-07,1.4360693967319094e-07,0.0,31.248476538682645,70.0,0.0,255.0,0.0
28.150000000000258,35.69537886686023,51.28351769980231,1303.999833708629,0.00011792944872013322,8.01744943146332e-06,0.0,-4.2069927985721733e-07,1.4360693967319094e-07,0.0,31.288608882654206,70.0,0.0,255.0,0.0
28.20000000000026,35.69538476280296,51.28351810085711,1303.9998333202675,0.00011790841369929694,8.024629892133817e-06,0.0,-4.2070041672559455e-07,1.4360807654156815e-07,0.0,31.328733303577796,70.0,0.0,255.0,0.0
28.25000000000026,35.69539065769395,51.283518502270944,1303.9998329337686,0.00011788737867846066,8.031810239117476e-06,0.0,-4.2069927985721733e-07,1.4360693967319094e-07,0.0,31.368849801453408,70.0,0.0,255.0,0.0
28.30000000000026,35.695396551533186,51.283518904043774,1303.9998325444758,0.00011786634377131122,8.038990586101136e-06,0.0,-4.206981429888401e-07,1.4360807654156815e-07,0.0,31.40895837628105,70.0,0.0,255.0,0.0
28.35000000000026,35.695402444320685,51.28351930617564,1303.999832155183,0.00011784530886416178,8.046171046771633e-06,0.0,-4.206987114230287e-07,1.4360693967319094e-07,0.0,31.449059028060717,70.0,0.0,255.0,0.0
28.40000000000026,35.69540833605644,51.28351970866652,1303.9998317658901,0.00011782427390016892,8.053351280068455e-06,0.0,-4.2069927985721733e-07,1.4360693967317738e-07,0.0,31.48915175679241,70.0,0.0,255.0,0.0
28.450000000000262,35.69541422674045,51.28352011151641,1303.9998313793913,0.00011780323893617606,8.060531740738952e-06,0.0,-4.2069927985721733e-07,1.436080765415546e-07,0.0,31.52923656247613,70.0,0.0,255.0,0.0
28.500000000000263,35.6954201163727,51.28352051472532,1303.9998309900984,0.0001177822039721832,8.067712087722612e-06,0.0,-4.206987114230287e-07,1.4360693967319094e-07,0.0,31.569313445111877,70.0,0.0,255.0,0.0
28.550000000000264,35.69542600495321,51.28352091829325,1303.9998306008056,0.00011776116906503376,8.074892434706271e-06,0.0,-4.206981429888401e-07,1.4360807654156815e-07,0.0,31.60938240469965,70.0,0.0,255.0,0.0
28.600000000000264,35.69543189248197,51.28352132222019,1303.9998302143067,0.00011774013415788431,8.082072895376768e-06,0.0,-4.206987114230287e-07,1.4360693967319094e-07,0.0,31.649443441239455,70.0,0.0,255.0,0.0
28.650000000000265,35.69543777895899,51.283521726506166,1303.9998298250139,0.00011771909919389145,8.08925312867359e-06,0.0,-4.2069927985721733e-07,1.4360693967319094e-07,0.0,31.68949655473129,70.0,0.0,255.0,0.0
28.700000000000266,35.695443664384264,51.28352213115114,1303.999829438515,0.00011769806422989859,8.096433589344088e-06,0.0,-4.2069984829140594e-07,1.4360921340994537e-07,0.0,31.729541745175137,70.0,0.0,255.0,0.0
28.750000000000266,35.69544954875778,51.28352253615513,1303.9998290510848,0.00011767702920906231,8.103614050014585e-06,0.0,-4.2069984829140594e-07,1.4360693967319094e-07,0.0,31.76957901257103,70.0,0.0,255.0,0.0
28.800000000000267,35.695455432079555,51.28352294151816,1303.999828661792,0.00011765599424506945,8.110794283311407e-06,0.0,-4.206987114230287e-07,1.4360580280481372e-07,0.0,31.809608356918936,70.0,0.0,255.0,0.0
28.850000000000268,35.69546131434958,51.283523347240184,1303.999828275293,0.00011763495933792001,8.117974630295066e-06,0.0,-4.2069927985721733e-07,1.4360807654156815e-07,0.0,31.849629778218873,70.0,0.0,255.0,0.0
28.90000000000027,35.695467195567865,51.283523753321234,1303.9998278860003,0.00011761392431708373,8.125155090965563e-06,0.0,-4.2069927985721733e-07,1.4360807654156815e-07,0.0,31.889643276470835,70.0,0.0,255.0,0.0
28.95000000000027,35.69547307573439,51.28352415976131,1303.9998274995014,0.00011759288940993429,8.132335437949223e-06,0.0,-4.206981429888401e-07,1.4360580280481372e-07,0.0,31.929648851674823,70.0,0.0,255.0,0.0
29.00000000000027,35.69547895484917,51.283524566560395,1303.9998271130025,0.00011757185450278484,8.139515671246045e-06,0.0,-4.2069927985721733e-07,1.4360693967319094e-07,0.0,31.969646503830848,70.0,0.0,255.0,0.0
29.05000000000027,35.6954848329122,51.28352497371849,1303.999826724641,0.00011755081948194857,8.146696131916542e-06,0.0,-4.2069927985721733e-07,1.4360921340994537e-07,0.0,32.00963623293888,70.0,0.0,255.0,0.0
29.10000000000027,35.69549070992349,51.28352538123561,1303.9998263372108,0.00011752978457479912,8.15387659258704e-06,0.0,-4.206987114230287e-07,1.436080765415546e-07,0.0,32.049618038998965,70.0,0.0,255.0,0.0
29.150000000000272,35.69549658588305,51.283525789111756,1303.9998259516433,0.00011750874961080626,8.161056939570699e-06,0.0,-4.2069927985721733e-07,1.4360693967317738e-07,0.0,32.08959192201105,70.0,0.0,255.0,0.0
29.200000000000273,35.695502460790834,51.283526197346916,1303.9998255632818,0.0001174877146468134,8.168237286554358e-06,0.0,-4.206987114230287e-07,1.4360693967319094e-07,0.0,32.12955788197518,70.0,0.0,255.0,0.0
29.250000000000274,35.695508334646895,51.283526605941084,1303.9998251777142,0.00011746667973966396,8.175417633538018e-06,0.0,-4.2069927985721733e-07,1.4360693967319094e-07,0.0,32.169515918891335,70.0,0.0,255.0,0.0
29.300000000000274,35.69551420745119,51.28352701489429,1303.9998247912154,0.00011744564471882768,8.182597980521678e-06,0.0,-4.2069927985721733e-07,1.4360693967319094e-07,0.0,32.209466032759515,70.0,0.0,255.0,0.0
29.350000000000275,35.695520079203746,51.28352742420649,1303.9998244037852,0.00011742460981167824,8.189778327505337e-06,0.0,-4.206975745546515e-07,1.4360807654156815e-07,0.0,32.249408223579714,70.0,0.0,255.0,0.0
29.400000000000276,35.69552594990456,51.28352783387772,1303.9998240172863,0.00011740357496137221,8.196958788175834e-06,0.0,-4.206987114230287e-07,1.4360807654156815e-07,0.0,32.289342491351945,70.0,0.0,255.0,0.0
29.450000000000276,35.695531819553615,51.283528243907966,1303.9998236317188,0.00011738253994053593,8.204139135159494e-06,0.0,-4.2070041672559455e-07,1.4360693967319094e-07,0.0,32.32926883607622,70.0,0.0,255.0,0.0
29.500000000000277,35.69553768815094,51.28352865429722,1303.9998232433572,0.00011736150491969966,8.211319482143153e-06,0.0,-4.2069927985721733e-07,1.4360807654156815e-07,0.0,32.36918725775249,70.0,0.0,255.0,0.0
29.550000000000278,35.6955435556965,51.2835290650455,1303.9998228596523,0.00011734047001255021,8.21849994281365e-06,0.0,-4.206987114230287e-07,1.4360693967319094e-07,0.0,32.40909775638081,70.0,0.0,255.0,0.0
29.60000000000028,35.69554942219032,51.28352947615279,1303.9998224731535,0.00011731943504855735,8.225680176110473e-06,0.0,-4.2069984829140594e-07,1.4360580280481372e-07,0.0,32.449000331961145,70.0,0.0,255.0,0.0
29.65000000000028,35.69555528763239,51.28352988761911,1303.999822087586,0.00011729840002772107,8.232860523094132e-06,0.0,-4.206987114230287e-07,1.4360921340994537e-07,0.0,32.48889498449351,70.0,0.0,255.0,0.0
29.70000000000028,35.69556115202273,51.28353029944444,1303.999821701087,0.00011727736517741505,8.240041097451467e-06,0.0,-4.206975745546515e-07,1.4360807654156815e-07,0.0,32.52878171397791,70.0,0.0,255.0,0.0
29.75000000000028,35.6955670153613,51.2835307116288,1303.9998213155195,0.00011725633027026561,8.247221330748289e-06,0.0,-4.2069927985721733e-07,1.4360580280480017e-07,0.0,32.568660520414326,70.0,0.0,255.0,0.0
29.80000000000028,35.69557287764814,51.28353112417216,1303.9998209290206,0.00011723529524942933,8.254401677731948e-06,0.0,-4.2070041672559455e-07,1.436080765415546e-07,0.0,32.60853140380278,70.0,0.0,255.0,0.0
29.850000000000282,35.69557873888321,51.283531537074545,1303.9998205425218,0.00011721426022859305,8.261582138402446e-06,0.0,-4.2069984829140594e-07,1.4360807654156815e-07,0.0,32.64839436414325,70.0,0.0,255.0,0.0
29.900000000000283,35.69558459906654,51.283531950335956,1303.9998201578856,0.00011719322526460019,8.268762485386105e-06,0.0,-4.206981429888401e-07,1.4360693967319094e-07,0.0,32.68824940143575,70.0,0.0,255.0,0.0
29.950000000000284,35.69559045819814,51.28353236395636,1303.999819772318,0.00011717219041429416,8.275942832369765e-06,0.0,-4.206987114230287e-07,1.4360693967319094e-07,0.0,32.72809651568028,70.0,0.0,255.0,0.0
30.000000000000284,35.69559631627799,51.283532777935804,1303.9998193867505,0.00011715115539345788,8.283123179353424e-06,0.0,-4.2069984829140594e-07,1.4360693967319094e-07,0.0,32.76793570687684,70.0,0.0,255.0,0.0
30.050000000000285,35.695602173306085,51.28353319227427,1303.999819001183,0.00011713012042946502,8.290303526337084e-06,0.0,-4.206987114230287e-07,1.4360693967319094e-07,0.0,32.80776697502541,70.0,0.0,255.0,0.0
30.100000000000286,35.69560802928243,51.28353360697173,1303.999818617478,0.00011710908552231558,8.297483873320743e-06,0.0,-4.206975745546515e-07,1.4360693967319094e-07,0.0,32.847590320126024,70.0,0.0,255.0,0.0
30.150000000000286,35.69561388420704,51.28353402202823,1303.9998182300478,0.00011708805067200956,8.304664220304403e-06,0.0,-4.206981429888401e-07,1.4360807654156815e-07,0.0,32.88740574217866,70.0,0.0,255.0,0.0
30.200000000000287,35.6956197380799,51.28353443744372,1303.9998178444803,0.0001170670157080167,8.3118446809749e-06,0.0,-4.2069984829140594e-07,1.4360921340994537e-07,0.0,32.927213241183324,70.0,0.0,255.0,0.0
30.250000000000288,35.695625590901,51.283534853218256,1303.999817459844,0.00011704598068718042,8.319025141645398e-06,0.0,-4.2069984829140594e-07,1.4360693967319094e-07,0.0,32.96701281714001,70.0,0.0,255.0,0.0
30.30000000000029,35.69563144267037,51.283535269351795,1303.9998170770705,0.00011702494572318756,8.32620537494222e-06,0.0,-4.2069927985721733e-07,1.4360693967319094e-07,0.0,33.00680447004873,70.0,0.0,255.0,0.0
30.35000000000029,35.69563729338797,51.283535685844356,1303.9998166924343,0.0001170039107591947,8.333385835612717e-06,0.0,-4.206987114230287e-07,1.4360921340994537e-07,0.0,33.04658819990947,70.0,0.0,255.0,0.0
30.40000000000029,35.69564314305386,51.28353610269594,1303.9998163059354,0.00011698287585204525,8.340566296283214e-06,0.0,-4.2069927985721733e-07,1.4360580280480017e-07,0.0,33.08636400672224,70.0,0.0,255.0,0.0
30.45000000000029,35.69564899166797,51.283536519906534,1303.9998159212992,0.00011696184083120897,8.347746415893198e-06,0.0,-4.2070041672559455e-07,1.4360580280480017e-07,0.0,33.126131890487045,70.0,0.0,255.0,0.0
30.50000000000029,35.69565483923034,51.28353693747614,1303.9998155375943,0.0001169408058103727,8.354926876563695e-06,0.0,-4.2069927985721733e-07,1.4360921340994537e-07,0.0,33.16589185120386,70.0,0.0,255.0,0.0
30.550000000000292,35.69566068574097,51.28353735540479,1303.9998151520267,0.00011691977090322325,8.362107337234193e-06,0.0,-4.206975745546515e-07,1.4360693967319094e-07,0.0,33.205643888872714,70.0,0.0,255.0,0.0
30.600000000000293,35.69566653119984,51.28353777369242,1303.9998147673905,0.00011689873605291723,8.369287570531014e-06,0.0,-4.206987114230287e-07,1.4360693967319094e-07,0.0,33.24538800349359,70.0,0.0,255.0,0.0
30.650000000000293,35.695672375606975,51.28353819233908,1303.999814384617,0.00011687770103208095,8.376468031201512e-06,0.0,-4.2069927985721733e-07,1.4360807654156815e-07,0.0,33.285124195066494,70.0,0.0,255.0,0.0
30.700000000000294,35.69567821896235,51.28353861134477,1303.999814000912,0.00011685666612493151,8.383648378185171e-06,0.0,-4.206987114230287e-07,1.4360693967319094e-07,0.0,33.32485246359143,70.0,0.0,255.0,0.0
30.750000000000295,35.69568406126599,51.28353903070947,1303.999813617207,0.00011683563116093865,8.39082872516883e-06,0.0,-4.2069927985721733e-07,1.4360807654156815e-07,0.0,33.364572809068385,70.0,0.0,255.0,0.0
30.800000000000296,35.695689902517884,51.28353945043318,1303.9998132316396,0.00011681459619694579,8.398009185839328e-06,0.0,-4.206987114230287e-07,1.4360807654156815e-07,0.0,33.40428523149737,70.0,0.0,255.0,0.0
30.850000000000296,35.69569574271803,51.28353987051594,1303.9998128497973,0.00011679356128979634,8.405189532822988e-06,0.0,-4.206981429888401e-07,1.4360580280481372e-07,0.0,33.44398973087838,70.0,0.0,255.0,0.0
30.900000000000297,35.69570158186643,51.283540290957674,1303.9998124660924,0.0001167725263826469,8.41236976611981e-06,0.0,-4.206987114230287e-07,1.4360693967319094e-07,0.0,33.48368630721142,70.0,0.0,255.0,0.0
30.950000000000298,35.69570741996308,51.28354071175844,1303.9998120823875,0.00011675149141865404,8.419550226790307e-06,0.0,-4.2070041672559455e-07,1.4360921340994537e-07,0.0,33.52337496049648,70.0,0.0,255.0,0.0
31.0000000000003,35.69571325700798,51.28354113291824,1303.9998116986826,0.00011673045634097434,8.426730687460804e-06,0.0,-4.206998482911891e-07,1.4360693967319094e-07,0.0,33.56305569073358,70.0,0.0,255.0,0.0
31.0500000000003,35.69571909300114,51.283541554437036,1303.999811313115,0.0001167094214338249,8.433910920757626e-06,0.0,-4.206992798570005e-07,1.4360580280480017e-07,0.0,33.60272849792269,70.0,0.0,255.0,0.0
31.1000000000003,35.69572492794254,51.283541976314865,1303.9998109312728,0.00011668838641298862,8.441091267741285e-06,0.0,-4.2069927985721733e-07,1.436080765415546e-07,0.0,33.642393382063844,70.0,0.0,255.0,0.0
31.1500000000003,35.6957307618322,51.28354239855171,1303.999810547568,0.00011666735150583918,8.448271728411783e-06,0.0,-4.206975745546515e-07,1.4360807654156815e-07,0.0,33.682050343157016,70.0,0.0,255.0,0.0
31.2000000000003,35.695736594670116,51.28354282114756,1303.999810163863,0.00011664631665553316,8.455452075395442e-06,0.0,-4.206987114230287e-07,1.4360693967319094e-07,0.0,33.721699381202214,70.0,0.0,255.0,0.0
31.250000000000302,35.695742426456285,51.28354324410245,1303.999809782952,0.00011662528163469688,8.462632422379102e-06,0.0,-4.2070041672559455e-07,1.4360807654156815e-07,0.0,33.761340496199445,70.0,0.0,255.0,0.0
31.300000000000303,35.69574825719069,51.283543667416325,1303.9998093992472,0.0001166042466138606,8.469812883049599e-06,0.0,-4.2069927985721733e-07,1.4360807654156815e-07,0.0,33.800973688148694,70.0,0.0,255.0,0.0
31.350000000000303,35.695754086873364,51.28354409108925,1303.9998090155423,0.00011658321170671115,8.476993230033258e-06,0.0,-4.206981429888401e-07,1.4360693967319094e-07,0.0,33.84059895704998,70.0,0.0,255.0,0.0
31.400000000000304,35.6957599155043,51.28354451512117,1303.9998086327687,0.00011656217679956171,8.484173577016918e-06,0.0,-4.2069927985721733e-07,1.4360693967319094e-07,0.0,33.880216302903285,70.0,0.0,255.0,0.0
31.450000000000305,35.695765743083484,51.28354493951212,1303.999808249995,0.00011654114177872543,8.491353924000578e-06,0.0,-4.2069927985721733e-07,1.4360693967319094e-07,0.0,33.91982572570862,70.0,0.0,255.0,0.0
31.500000000000306,35.695771569610905,51.283545364262075,1303.9998078681529,0.00011652010687157599,8.498534270984237e-06,0.0,-4.206981429888401e-07,1.4360693967319094e-07,0.0,33.95942722546597,70.0,0.0,255.0,0.0
31.550000000000306,35.69577739508659,51.28354578937106,1303.9998074853793,0.00011649907196442655,8.505714617967897e-06,0.0,-4.2069927985721733e-07,1.4360807654156815e-07,0.0,33.99902080217537,70.0,0.0,255.0,0.0
31.600000000000307,35.695783219510524,51.28354621483907,1303.9998071016744,0.00011647803694359027,8.512895078638394e-06,0.0,-4.2069927985721733e-07,1.4360921340994537e-07,0.0,34.038606455836785,70.0,0.0,255.0,0.0
31.650000000000308,35.695789042882716,51.28354664066609,1303.9998067198321,0.00011645700203644083,8.520075539308891e-06,0.0,-4.206981429888401e-07,1.4360693967319094e-07,0.0,34.07818418645023,70.0,0.0,255.0,0.0
31.70000000000031,35.695794865203155,51.28354706685212,1303.9998063361272,0.00011643596712929138,8.527255772605713e-06,0.0,-4.2069927985721733e-07,1.4360580280481372e-07,0.0,34.11775399401569,70.0,0.0,255.0,0.0
31.75000000000031,35.69580068647186,51.28354749339716,1303.999805957079,0.0001164149321084551,8.534436119589373e-06,0.0,-4.2069984829140594e-07,1.4360693967317738e-07,0.0,34.15731587853319,70.0,0.0,255.0,0.0
31.80000000000031,35.69580650668881,51.28354792030123,1303.9998055743054,0.00011639389714446224,8.541616466573032e-06,0.0,-4.2069927985721733e-07,1.436080765415546e-07,0.0,34.19686984000271,70.0,0.0,255.0,0.0
31.85000000000031,35.69581232585401,51.28354834756432,1303.9998051915318,0.00011637286218046938,8.54879692724353e-06,0.0,-4.206987114230287e-07,1.4360921340994537e-07,0.0,34.23641587842426,70.0,0.0,255.0,0.0
31.90000000000031,35.695818143967465,51.28354877518642,1303.9998048096895,0.00011635182727331994,8.555977387914027e-06,0.0,-4.206981429888401e-07,1.4360693967319094e-07,0.0,34.27595399379784,70.0,0.0,255.0,0.0
31.950000000000312,35.69582396102917,51.28354920316755,1303.99980442971,0.0001163307923661705,8.563157621210848e-06,0.0,-4.2069927985721733e-07,1.436046659364365e-07,-1.8189894035458306e-11,34.31548418612344,70.0,0.0,255.0,0.0
32.00000000000031,35.69582977703914,51.28354963150769,1303.9998040469363,0.00011630975734533422,8.57033785450767e-06,-1.8189894035458565e-12,-4.2069984829140594e-07,1.4360580280481372e-07,2.5849394142283217e-24,34.355006455401075,70.0,0.0,255.0,0.0
32.05000000000031,35.695835591997344,51.283550060206835,1303.999803665094,0.00011628872238134136,8.57751820149133e-06,0.0,-4.2069984829140594e-07,1.4360921340994537e-07,1.818989403546089e-11,34.394520801630726,70.0,0.0,255.0,0.0
32.100000000000314,35.69584140590381,51.283550489265004,1303.9998032841831,0.00011626768736050508,8.584698775848665e-06,0.0,-4.2069927985721733e-07,1.4361035027830903e-07,0.0,34.43402722481241,70.0,0.0,255.0,0.0
32.15000000000032,35.69584721875853,51.2835509186822,1303.9998029032722,0.00011624665245335564,8.591879236519162e-06,0.0,-4.206981429888401e-07,1.4360693967319094e-07,0.0,34.47352572494613,70.0,0.0,255.0,0.0
32.200000000000315,35.69585303056151,51.28355134845841,1303.99980252143,0.0001162256175462062,8.599059469815984e-06,0.0,-4.206981429888401e-07,1.4360580280482727e-07,0.0,34.513016302031865,70.0,0.0,255.0,0.0
32.25000000000031,35.69585884131273,51.28355177859365,1303.9998021395877,0.00011620458263905675,8.606239816799643e-06,0.0,-4.206992798574342e-07,1.4360693967317738e-07,0.0,34.55249895606962,70.0,0.0,255.0,0.0
32.30000000000032,35.6958646510122,51.283552209087894,1303.9998017586768,0.00011618354761822047,8.613420163783303e-06,0.0,-4.2069984829140594e-07,1.436080765415546e-07,0.0,34.591973687059415,70.0,0.0,255.0,0.0
32.35000000000032,35.69587045965993,51.283552639941156,1303.9998013786972,0.00011616251265422761,8.6206006244538e-06,0.0,-4.206987114230287e-07,1.4360807654156815e-07,0.0,34.63144049500124,70.0,0.0,255.0,0.0
32.40000000000032,35.695876267255926,51.28355307115342,1303.9998009977862,0.00011614147774707817,8.62778097143746e-06,0.0,-4.2069814298905696e-07,1.4360693967319094e-07,0.0,34.670899379895076,70.0,0.0,255.0,0.0
32.450000000000315,35.695882073800156,51.283553502724736,1303.999800615944,0.00011612044283992873,8.63496131842112e-06,0.0,-4.2069927985721733e-07,1.4360693967319094e-07,0.0,34.71035034174095,70.0,0.0,255.0,0.0
32.50000000000032,35.695887879292655,51.28355393465504,1303.9998002359644,0.00011609940781909245,8.642141665404779e-06,0.0,-4.206998482911891e-07,1.436080765415546e-07,0.0,34.74979338053885,70.0,0.0,255.0,0.0
32.550000000000324,35.695893683733374,51.28355436694438,1303.9997998550534,0.00011607837285509959,8.649322126075276e-06,0.0,-4.206981429886233e-07,1.4360693967319094e-07,0.0,34.78922849628878,70.0,0.0,255.0,0.0
32.60000000000032,35.69589948712239,51.28355479959272,1303.9997994741425,0.00011605733800479356,8.656502359372098e-06,0.0,-4.206981429888401e-07,1.4360693967319094e-07,0.0,34.82865568899073,70.0,0.0,255.0,0.0
32.65000000000032,35.695905289459624,51.28355523260009,1303.9997990932316,0.0001160363030408007,8.663682820042595e-06,0.0,-4.2069984829140594e-07,1.4360921340994537e-07,0.0,34.86807495864471,70.0,0.0,255.0,0.0
32.70000000000032,35.695911090745135,51.283555665966475,1303.9997987141833,0.00011601526801996442,8.670863280713093e-06,0.0,-4.2070041672559455e-07,1.4360693967317738e-07,0.0,34.907486305250714,70.0,0.0,255.0,0.0
32.75000000000033,35.695916890978886,51.28355609969188,1303.9997983332723,0.00011599423299912814,8.678043514009914e-06,0.0,-4.206987114230287e-07,1.4360580280481372e-07,0.0,34.94688972880875,70.0,0.0,255.0,0.0
32.800000000000324,35.69592269016089,51.28355653377629,1303.9997979532927,0.00011597319814882212,8.685223860993574e-06,0.0,-4.206987114230287e-07,1.436080765415817e-07,0.0,34.98628522931882,70.0,0.0,255.0,0.0
32.85000000000032,35.69592848829115,51.283556968219735,1303.9997975723818,0.00011595216312798584,8.692404321664071e-06,0.0,-4.2069984829140594e-07,1.4360807654156815e-07,0.0,35.0256728067809,70.0,0.0,255.0,0.0
32.900000000000325,35.69593428536967,51.28355740302219,1303.9997971924022,0.00011593112816399298,8.69958466864773e-06,0.0,-4.206987114230287e-07,1.4360693967317738e-07,0.0,35.065052461195016,70.0,0.0,255.0,0.0
32.95000000000033,35.69594008139643,51.28355783818366,1303.999796813354,0.00011591009325684354,8.70676501563139e-06,0.0,-4.206981429886233e-07,1.4360580280480017e-07,0.0,35.104424192561154,70.0,0.0,255.0,0.0
33.00000000000033,35.695945876371454,51.283558273704145,1303.9997964333743,0.0001158890583496941,8.713945248928212e-06,0.0,-4.206987114230287e-07,1.436080765415817e-07,0.0,35.143788000879326,70.0,0.0,255.0,0.0
33.050000000000324,35.69595167029473,51.28355870958365,1303.999796054326,0.00011586802338570124,8.721125823285547e-06,0.0,-4.2069984829140594e-07,1.4360921340994537e-07,0.0,35.18314388614951,70.0,0.0,255.0,0.0
33.10000000000033,35.69595746316624,51.28355914582219,1303.9997956743464,0.00011584698836486496,8.728306170269207e-06,0.0,-4.206998482911891e-07,1.4360693967317738e-07,0.0,35.22249184837174,70.0,0.0,255.0,0.0
33.15000000000033,35.69596325498602,51.28355958241973,1303.9997952962294,0.0001158259534008721,8.735486517252866e-06,0.0,-4.206975745546515e-07,1.4360807654156815e-07,0.0,35.261831887545995,70.0,0.0,255.0,0.0
33.20000000000033,35.695969045754055,51.28356001937628,1303.9997949134558,0.00011580491860740949,8.742666977923363e-06,0.0,-4.206975745546515e-07,1.436069396732045e-07,0.0,35.30116400367226,70.0,0.0,255.0,0.0
33.25000000000033,35.69597483547035,51.283560456691866,1303.9997945362702,0.00011578388364341663,8.749847211220185e-06,0.0,-4.2070098515978316e-07,1.4360580280481372e-07,0.0,35.34048819675056,70.0,0.0,255.0,0.0
33.30000000000033,35.69598062413488,51.28356089436646,1303.9997941562906,0.00011576284850889351,8.757027558203845e-06,0.0,-4.2070041672559455e-07,1.4360921340993182e-07,0.0,35.37980446678089,70.0,0.0,255.0,0.0
33.350000000000335,35.695986411747676,51.28356133240006,1303.9997937772423,0.00011574181360174407,8.76420813256118e-06,0.0,-4.206987114228119e-07,1.4360921340994537e-07,0.0,35.41911281376325,70.0,0.0,255.0,0.0
33.40000000000033,35.69599219830871,51.2835617707927,1303.9997933991253,0.00011572077863775121,8.77138847954484e-06,0.0,-4.206981429888401e-07,1.436046659364365e-07,0.0,35.45841323769763,70.0,0.0,255.0,0.0
33.45000000000033,35.695997983818,51.28356220954436,1303.9997930191457,0.00011569974378744519,8.778568599154823e-06,0.0,-4.2069871142324557e-07,1.4360580280481372e-07,0.0,35.49770573858404,70.0,0.0,255.0,0.0
33.500000000000334,35.696003768275546,51.283562648655014,1303.9997926410288,0.0001156787087666089,8.78574905982532e-06,0.0,-4.2069984829140594e-07,1.4360921340993182e-07,0.0,35.53699031642247,70.0,0.0,255.0,0.0
33.55000000000034,35.69600955168135,51.283563088124694,1303.9997922619805,0.00011565767380261605,8.792929520495818e-06,0.0,-4.206987114230287e-07,1.436080765415546e-07,0.0,35.57626697121294,70.0,0.0,255.0,0.0
33.600000000000335,35.69601533403541,51.28356352795339,1303.9997918829322,0.0001156366388954666,8.800109867479478e-06,0.0,-4.206987114230287e-07,1.4360693967319094e-07,0.0,35.615535702955434,70.0,0.0,255.0,0.0
33.65000000000033,35.696021115337714,51.283563968141124,1303.999791503884,0.00011561560393147374,8.807290214463137e-06,0.0,-4.206987114230287e-07,1.4360693967319094e-07,0.0,35.65479651164995,70.0,0.0,255.0,0.0
33.70000000000034,35.69602689558827,51.28356440868785,1303.999791125767,0.0001155945690243243,8.814470561446797e-06,0.0,-4.206992798570005e-07,1.4360693967317738e-07,0.0,35.69404939729649,70.0,0.0,255.0,0.0
33.75000000000034,35.69603267478709,51.2835648495936,1303.9997907485813,0.00011557353400348802,8.821650908430456e-06,0.0,-4.2069984829140594e-07,1.4360807654156815e-07,0.0,35.73329435989506,70.0,0.0,255.0,0.0
33.80000000000034,35.69603845293415,51.28356529085838,1303.999790369533,0.00011555249903949516,8.828831369100953e-06,0.0,-4.206987114230287e-07,1.436080765415817e-07,0.0,35.77253139944566,70.0,0.0,255.0,0.0
33.850000000000335,35.69604423002948,51.28356573248217,1303.999789991416,0.00011553146413234572,8.836011716084613e-06,0.0,-4.2069871142324557e-07,1.4360693967319094e-07,0.0,35.81176051594828,70.0,0.0,255.0,0.0
33.90000000000034,35.69605000607304,51.283566174464966,1303.999789613299,0.00011551042916835286,8.843192063068273e-06,0.0,-4.206987114230287e-07,1.436080765415546e-07,0.0,35.85098170940294,70.0,0.0,255.0,0.0
33.950000000000344,35.696055781064864,51.28356661680679,1303.999789235182,0.00011548939426120342,8.85037252373877e-06,0.0,-4.206987114230287e-07,1.4360807654156815e-07,0.0,35.890194979809614,70.0,0.0,255.0,0.0
34.00000000000034,35.69606155500496,51.28356705950764,1303.9997888570651,0.00011546835929721055,8.85755287072243e-06,0.0,-4.2069927985721733e-07,1.4360580280482727e-07,0.0,35.929400327168324,70.0,0.0,255.0,0.0
34.05000000000034,35.69606732789328,51.2835675025675,1303.9997884798795,0.0001154473243332177,8.864733104019251e-06,0.0,-4.2069927985721733e-07,1.4360580280481372e-07,0.0,35.968597751479045,70.0,0.0,255.0,0.0
34.10000000000034,35.69607309972986,51.28356794598636,1303.9997881026939,0.00011542628936922483,8.87191345100291e-06,0.0,-4.2069927985721733e-07,1.4360921340993182e-07,0.0,36.007787252741814,70.0,0.0,255.0,0.0
34.15000000000035,35.6960788705147,51.28356838976426,1303.9997877236456,0.00011540525440523197,8.879094025360246e-06,0.0,-4.2069927985721733e-07,1.4360921340994537e-07,0.0,36.0469688309566,70.0,0.0,255.0,0.0
34.200000000000344,35.69608464024778,51.28356883390117,1303.9997873455286,0.00011538421944123911,8.886274372343905e-06,0.0,-4.2069871142324557e-07,1.4360580280482727e-07,0.0,36.08614248612341,70.0,0.0,255.0,0.0
34.25000000000034,35.69609040892912,51.2835692783971,1303.999786968343,0.00011536318453408967,8.893454605640727e-06,0.0,-4.206987114230287e-07,1.4360580280480017e-07,0.0,36.125308218242246,70.0,0.0,255.0,0.0
34.300000000000345,35.69609617655873,51.28356972325205,1303.9997865911573,0.00011534214957009681,8.900634952624387e-06,0.0,-4.206998482911891e-07,1.4360807654156815e-07,0.0,36.16446602731311,70.0,0.0,255.0,0.0
34.35000000000035,35.696101943136576,51.283570168466014,1303.9997862139717,0.00011532111454926053,8.907815413294884e-06,0.0,-4.2069871142324557e-07,1.4360807654156815e-07,0.0,36.203615913336016,70.0,0.0,255.0,0.0
34.40000000000035,35.69610770866267,51.283570614039,1303.9997858377174,0.0001153000796989545,8.914995760278543e-06,0.0,-4.206981429888401e-07,1.4360807654156815e-07,0.0,36.242757876310925,70.0,0.0,255.0,0.0
34.450000000000344,35.69611347313702,51.28357105997099,1303.9997854596004,0.00011527904473496164,8.92217622094904e-06,0.0,-4.2069984829140594e-07,1.4360807654156815e-07,0.0,36.28189191623788,70.0,0.0,255.0,0.0
34.50000000000035,35.69611923655964,51.28357150626202,1303.9997850814834,0.00011525800971412536,8.9293565679327e-06,0.0,-4.2069927985721733e-07,1.4360580280480017e-07,0.0,36.32101803311686,70.0,0.0,255.0,0.0
34.55000000000035,35.696124998930486,51.28357195291205,1303.9997847070917,0.00011523697480697592,8.936536801229522e-06,0.0,-4.206987114228119e-07,1.4360693967319094e-07,0.0,36.36013622694785,70.0,0.0,255.0,0.0
34.60000000000035,35.696130760249595,51.28357239992109,1303.999784329906,0.00011521593984298306,8.94371726190002e-06,0.0,-4.2069984829140594e-07,1.4360807654156815e-07,0.0,36.39924649773088,70.0,0.0,255.0,0.0
34.65000000000035,35.696136520516966,51.28357284728917,1303.9997839527205,0.00011519490482214678,8.950897608883679e-06,0.0,-4.206981429888401e-07,1.4360693967319094e-07,0.0,36.43834884546594,70.0,0.0,255.0,0.0
34.70000000000035,35.69614227973258,51.283573295016254,1303.9997835783288,0.00011517387002868418,8.958077955867338e-06,0.0,-4.206975745546515e-07,1.436080765415546e-07,0.0,36.477443270153024,70.0,0.0,255.0,0.0
34.750000000000355,35.69614803789647,51.28357374310235,1303.9997832002118,0.00011515283506469132,8.965258416537836e-06,0.0,-4.2070041672559455e-07,1.4360807654156815e-07,0.0,36.51652977179213,70.0,0.0,255.0,0.0
34.80000000000035,35.696153795008584,51.28357419154748,1303.9997828220949,0.00011513179998701162,8.972438763521495e-06,0.0,-4.2069984829140594e-07,1.436069396732045e-07,0.0,36.55560835038327,70.0,0.0,255.0,0.0
34.85000000000035,35.69615955106896,51.28357464035162,1303.9997824467719,0.00011511076507986218,8.979619110505155e-06,0.0,-4.206981429888401e-07,1.4360693967317738e-07,0.0,36.59467900592642,70.0,0.0,255.0,0.0
34.900000000000354,35.69616530607758,51.28357508951477,1303.9997820705175,0.00011508973017271273,8.986799457488814e-06,0.0,-4.206992798570005e-07,1.436080765415546e-07,0.0,36.63374173842162,70.0,0.0,255.0,0.0
34.95000000000036,35.69617106003447,51.28357553903694,1303.9997816951945,0.00011506869515187645,8.993979918159312e-06,0.0,-4.206992798570005e-07,1.4360807654156815e-07,0.0,36.672796547868835,70.0,0.0,255.0,0.0
35.000000000000355,35.696176812939605,51.28357598891814,1303.9997813189402,0.00011504766024472701,9.001160265142971e-06,0.0,-4.206987114230287e-07,1.4360580280482727e-07,0.0,36.711843434268076,70.0,0.0,255.0,0.0
35.05000000000035,35.696182564793,51.28357643915834,1303.9997809417546,0.00011502662528073415,9.008340498439793e-06,0.0,-4.2069927985721733e-07,1.4360693967319094e-07,0.0,36.750882397619336,70.0,0.0,255.0,0.0
35.10000000000036,35.69618831559464,51.283576889757576,1303.9997805664316,0.00011500559031674129,9.01552095911029e-06,0.0,-4.2069927985721733e-07,1.436080765415546e-07,0.0,36.78991343792264,70.0,0.0,255.0,0.0
35.15000000000036,35.69619406534453,51.283577340715816,1303.99978019204,0.00011498455535274843,9.02270130609395e-06,0.0,-4.2069927985721733e-07,1.4360693967319094e-07,0.0,36.82893655517797,70.0,0.0,255.0,0.0
35.20000000000036,35.69619981404267,51.28357779203308,1303.9997798148543,0.00011496352038875557,9.02988165307761e-06,0.0,-4.206987114230287e-07,1.436080765415817e-07,0.0,36.86795174938531,70.0,0.0,255.0,0.0
35.250000000000355,35.69620556168908,51.28357824370936,1303.9997794404626,0.00011494248548160613,9.037062113748107e-06,0.0,-4.206992798570005e-07,1.4360807654156815e-07,0.0,36.90695902054469,70.0,0.0,255.0,0.0
35.30000000000036,35.69621130828373,51.28357869574466,1303.9997790651396,0.00011492145046076985,9.044242460731766e-06,0.0,-4.2069927985721733e-07,1.4360693967319094e-07,0.0,36.94595836865609,70.0,0.0,255.0,0.0
35.350000000000364,35.69621705382664,51.283579148138976,1303.9997786888853,0.0001149004155536204,9.051422807715426e-06,0.0,-4.206981429888401e-07,1.4360807654156815e-07,0.0,36.98494979371953,70.0,0.0,255.0,0.0
35.40000000000036,35.6962227983178,51.2835796008923,1303.9997783135623,0.00011487938064647096,9.058603268385923e-06,0.0,-4.206987114230287e-07,1.4360807654156815e-07,0.0,37.02393329573498,70.0,0.0,255.0,0.0
35.45000000000036,35.69622854175721,51.28358005400465,1303.999777937308,0.0001148583456824781,9.065783615369583e-06,0.0,-4.2069814298905696e-07,1.4360580280480017e-07,0.0,37.06290887470247,70.0,0.0,255.0,0.0
35.50000000000036,35.69623428414487,51.283580507476024,1303.9997775638476,0.00011483731083217208,9.072963848666404e-06,0.0,-4.206992798570005e-07,1.4360580280480017e-07,0.0,37.10187653062198,70.0,0.0,255.0,0.0
35.55000000000037,35.696240025480805,51.28358096130641,1303.9997771875933,0.00011481627575449238,9.080144195650064e-06,0.0,-4.2069984829140594e-07,1.436080765415817e-07,0.0,37.14083626349352,70.0,0.0,255.0,0.0
35.600000000000364,35.696245765764964,51.28358141549582,1303.9997768132016,0.00011479524084734294,9.087324656320561e-06,0.0,-4.206987114230287e-07,1.4360807654156815e-07,0.0,37.179788073317084,70.0,0.0,255.0,0.0
35.65000000000036,35.69625150499739,51.28358187004423,1303.9997764378786,0.00011477420588335008,9.09450500330422e-06,0.0,-4.2069927985721733e-07,1.4360693967317738e-07,0.0,37.218731960092676,70.0,0.0,255.0,0.0
35.700000000000365,35.69625724317806,51.28358232495166,1303.999776063487,0.00011475317091935722,9.10168535028788e-06,0.0,-4.2069927985721733e-07,1.4360921340993182e-07,0.0,37.2576679238203,70.0,0.0,255.0,0.0
35.75000000000037,35.696262980307004,51.283582780218126,1303.9997756900266,0.00011473213595536436,9.108865924645215e-06,0.0,-4.2069927985721733e-07,1.4360807654156815e-07,0.0,37.29659596449995,70.0,0.0,255.0,0.0
35.80000000000037,35.69626871638418,51.2835832358436,1303.999775315635,0.0001147111009913715,9.116046157942037e-06,0.0,-4.2069927985721733e-07,1.4360466593645006e-07,0.0,37.33551608213162,70.0,0.0,255.0,0.0
35.850000000000364,35.69627445140961,51.283583691828085,1303.9997749421746,0.00011469006602737863,9.123226391238859e-06,0.0,-4.206998482916228e-07,1.4360807654156815e-07,0.0,37.374428276715314,70.0,0.0,255.0,0.0
35.90000000000037,35.6962801853833,51.28358414817159,1303.9997745668516,0.00011466903100654235,9.130406965596194e-06,0.0,-4.2069927985721733e-07,1.4360921340993182e-07,0.0,37.41333254825105,70.0,0.0,255.0,0.0
35.95000000000037,35.696285918305236,51.28358460487412,1303.9997741933912,0.00011464799609939291,9.137587312579853e-06,0.0,-4.206975745546515e-07,1.4360580280481372e-07,0.0,37.45222889673881,70.0,0.0,255.0,0.0
36.00000000000037,35.69629165017544,51.28358506193566,1303.9997738171369,0.00011462696124908689,9.144767545876675e-06,0.0,-4.2069871142324557e-07,1.436069396732045e-07,0.0,37.49111732217858,70.0,0.0,255.0,0.0
36.05000000000037,35.696297380993876,51.283585519356215,1303.9997734436765,0.00011460592622825061,9.151948006547173e-06,0.0,-4.2069984829140594e-07,1.4360807654156815e-07,0.0,37.52999782457038,70.0,0.0,255.0,0.0
36.10000000000037,35.69630311076058,51.2835859771358,1303.9997730683535,0.00011458489126425775,9.159128353530832e-06,0.0,-4.206992798570005e-07,1.4360693967317738e-07,0.0,37.56887040391422,70.0,0.0,255.0,0.0
36.150000000000375,35.696308839475535,51.28358643527439,1303.9997726958245,0.00011456385630026489,9.166308700514492e-06,0.0,-4.206987114230287e-07,1.4360807654156815e-07,0.0,37.60773506021009,70.0,0.0,255.0,0.0
36.20000000000037,35.69631456713873,51.283586893772004,1303.9997723214328,0.00011454282139311545,9.173489161184989e-06,0.0,-4.206975745546515e-07,1.436080765415817e-07,0.0,37.646591793457965,70.0,0.0,255.0,0.0
36.25000000000037,35.69632029375019,51.283587352628636,1303.9997719489038,0.00011452178654280942,9.180669508168648e-06,0.0,-4.206987114230287e-07,1.4360693967317738e-07,0.0,37.68544060365788,70.0,0.0,255.0,0.0
36.300000000000374,35.69632601930992,51.28358781184429,1303.9997715735808,0.00011450075152197314,9.187849855152308e-06,0.0,-4.2070041672559455e-07,1.4360693967317738e-07,0.0,37.72428149080982,70.0,0.0,255.0,0.0
36.35000000000038,35.69633174381788,51.28358827141896,1303.9997712010518,0.00011447971650113686,9.195030202135968e-06,0.0,-4.206992798574342e-07,1.4360693967319094e-07,0.0,37.7631144549138,70.0,0.0,255.0,0.0
36.400000000000375,35.6963374672741,51.28358873135264,1303.9997708275914,0.00011445868159398742,9.202210549119627e-06,0.0,-4.2069927985721733e-07,1.4360693967319094e-07,0.0,37.80193949596979,70.0,0.0,255.0,0.0
36.45000000000037,35.69634318967857,51.28358919164533,1303.9997704550624,0.00011443764657315114,9.209390896103287e-06,0.0,-4.2069927985721733e-07,1.4360807654156815e-07,0.0,37.84075661397782,70.0,0.0,255.0,0.0
36.50000000000038,35.69634891103128,51.283589652297046,1303.9997700806707,0.0001144166116660017,9.216571356773784e-06,0.0,-4.206981429888401e-07,1.436080765415546e-07,0.0,37.87956580893786,70.0,0.0,255.0,0.0
36.55000000000038,35.69635463133226,51.28359011330779,1303.9997697072104,0.00011439557675885226,9.223751703757443e-06,0.0,-4.206987114228119e-07,1.4360693967319094e-07,0.0,37.91836708084994,70.0,0.0,255.0,0.0
36.60000000000038,35.6963603505815,51.28359057467754,1303.9997693356127,0.0001143745417948594,9.230932050741103e-06,0.0,-4.2069984829140594e-07,1.4360693967319094e-07,0.0,37.957160429714044,70.0,0.0,255.0,0.0
36.650000000000375,35.69636606877897,51.283591036406314,1303.9997689621523,0.00011435350677402312,9.238112397724763e-06,0.0,-4.2069984829140594e-07,1.4360807654156815e-07,0.0,37.995945855530174,70.0,0.0,255.0,0.0
36.70000000000038,35.696371785924704,51.283591498494104,1303.9997685896233,0.00011433247181003026,9.24529285839526e-06,0.0,-4.206987114228119e-07,1.436080765415546e-07,0.0,38.034723358298336,70.0,0.0,255.0,0.0
36.750000000000384,35.69637750201869,51.28359196094092,1303.9997682152316,0.00011431143690288081,9.25247320537892e-06,0.0,-4.206981429888401e-07,1.4360693967319094e-07,0.0,38.07349293801852,70.0,0.0,255.0,0.0
36.80000000000038,35.69638321706094,51.28359242374673,1303.999767843634,0.00011429040199573137,9.259653552362579e-06,0.0,-4.206987114230287e-07,1.436069396732045e-07,0.0,38.112254594690725,70.0,0.0,255.0,0.0
36.85000000000038,35.696388931051445,51.28359288691157,1303.9997674701735,0.00011426936703173851,9.266833899346238e-06,0.0,-4.2069927985721733e-07,1.4360693967317738e-07,0.0,38.15100832831496,70.0,0.0,255.0,0.0
36.90000000000038,35.696394643990175,51.283593350435424,1303.9997670995072,0.00011424833206774565,9.274014246329898e-06,0.0,-4.2069984829140594e-07,1.436080765415546e-07,0.0,38.18975413889123,70.0,0.0,255.0,0.0
36.95000000000039,35.696400355877174,51.28359381431831,1303.9997667260468,0.00011422729704690937,9.281194707000395e-06,0.0,-4.206992798570005e-07,1.436080765415817e-07,0.0,38.228492026419524,70.0,0.0,255.0,0.0
37.000000000000384,35.696406066712434,51.283594278560194,1303.9997663535178,0.00011420626213975993,9.288375053984055e-06,0.0,-4.206981429888401e-07,1.436069396732045e-07,0.0,38.267221990899834,70.0,0.0,255.0,0.0
37.05000000000038,35.69641177649594,51.28359474316112,1303.99976598192,0.00011418522723261049,9.295555400967714e-06,0.0,-4.206987114230287e-07,1.4360580280480017e-07,0.0,38.30594403233217,70.0,0.0,255.0,0.0
37.100000000000385,35.6964174852277,51.28359520812104,1303.9997656103224,0.00011416419226861763,9.302735634264536e-06,0.0,-4.2069927985721733e-07,1.4360693967317738e-07,0.0,38.344658150716555,70.0,0.0,255.0,0.0
37.15000000000039,35.69642319290771,51.283595673439976,1303.9997652359307,0.00011414315730462476,9.309916094935033e-06,0.0,-4.2069927985721733e-07,1.4360921340994537e-07,0.0,38.38336434605296,70.0,0.0,255.0,0.0
37.20000000000039,35.696428899535974,51.283596139117954,1303.9997648661956,0.0001141221223406319,9.31709655560553e-06,0.0,-4.206987114230287e-07,1.436080765415817e-07,0.0,38.42206261834138,70.0,0.0,255.0,0.0
37.250000000000384,35.69643460511249,51.28359660515493,1303.9997644927353,0.00011410108743348246,9.32427690258919e-06,0.0,-4.206992798570005e-07,1.4360693967319094e-07,0.0,38.460752967581826,70.0,0.0,255.0,0.0
37.30000000000039,35.69644030963726,51.28359707155093,1303.9997641220689,0.00011408005241264618,9.33145724957285e-06,0.0,-4.207004167253777e-07,1.4360693967317738e-07,0.0,38.499435393774306,70.0,0.0,255.0,0.0
37.35000000000039,35.696446013110275,51.28359753830595,1303.9997637504712,0.0001140590173918099,9.33863759655651e-06,0.0,-4.206987114230287e-07,1.4360693967319094e-07,0.0,38.53810989691882,70.0,0.0,255.0,0.0
37.40000000000039,35.69645171553156,51.283598005419975,1303.9997633788735,0.00011403798254150388,9.345817943540169e-06,0.0,-4.206981429888401e-07,1.4360807654156815e-07,0.0,38.57677647701535,70.0,0.0,255.0,0.0
37.45000000000039,35.69645741690109,51.28359847289303,1303.999763008207,0.00011401694757751102,9.352998404210666e-06,0.0,-4.206998482916228e-07,1.436080765415546e-07,0.0,38.61543513406391,70.0,0.0,255.0,0.0
37.50000000000039,35.69646311721886,51.2835989407251,1303.9997626366094,0.00011399591255667474,9.360178751194326e-06,0.0,-4.206987114230287e-07,1.4360693967317738e-07,0.0,38.6540858680645,70.0,0.0,255.0,0.0
37.550000000000395,35.696468816484895,51.28359940891618,1303.9997622668743,0.00011397487770636872,9.367359098177985e-06,0.0,-4.206987114230287e-07,1.4360580280482727e-07,0.0,38.69272867901711,70.0,0.0,255.0,0.0
37.60000000000039,35.69647451469919,51.283599877466294,1303.9997618943453,0.00011395384268553244,9.374539331474807e-06,0.0,-4.2069927985721733e-07,1.4360693967319094e-07,0.0,38.73136356692176,70.0,0.0,255.0,0.0
37.65000000000039,35.69648021186173,51.28360034637541,1303.9997615227476,0.000113932807778383,9.381719792145304e-06,0.0,-4.206987114230287e-07,1.4360921340993182e-07,0.0,38.76999053177842,70.0,0.0,255.0,0.0
37.700000000000394,35.696485907972516,51.28360081564355,1303.9997611520812,0.00011391177281439013,9.388900252815802e-06,0.0,-4.206987114230287e-07,1.436080765415546e-07,0.0,38.80860957358712,70.0,0.0,255.0,0.0
37.7500000000004,35.69649160303157,51.28360128527071,1303.9997607804835,0.00011389073790724069,9.396080599799461e-06,0.0,-4.206981429888401e-07,1.436080765415546e-07,0.0,38.84722069234784,70.0,0.0,255.0,0.0
37.800000000000395,35.69649729703888,51.28360175525689,1303.9997604088858,0.00011386970300009125,9.403261060469958e-06,0.0,-4.206992798574342e-07,1.436080765415817e-07,0.0,38.885823888060585,70.0,0.0,255.0,0.0
37.85000000000039,35.69650298999443,51.283602225602074,1303.999760040082,0.00011384866797925497,9.410441407453618e-06,0.0,-4.207004167258114e-07,1.436069396732045e-07,0.0,38.92441916072536,70.0,0.0,255.0,0.0
37.9000000000004,35.69650868189822,51.28360269630629,1303.9997596694157,0.00011382763295841869,9.417621754437278e-06,0.0,-4.2069927985721733e-07,1.4360580280480017e-07,0.0,38.96300651034216,70.0,0.0,255.0,0.0
37.9500000000004,35.696514372750286,51.283603167369506,1303.999759297818,0.00011380659805126925,9.4248019877341e-06,0.0,-4.206981429888401e-07,1.4360693967317738e-07,0.0,39.001585936911,70.0,0.0,255.0,0.0
38.0000000000004,35.6965200625506,51.28360363879176,1303.9997589280829,0.0001137855631441198,9.431982448404597e-06,0.0,-4.2069927985721733e-07,1.436080765415817e-07,0.0,39.04015744043185,70.0,0.0,255.0,0.0
38.050000000000395,35.69652575129916,51.283604110573016,1303.9997585564852,0.00011376452812328353,9.439162795388256e-06,0.0,-4.2069984829140594e-07,1.4360693967319094e-07,0.0,39.07872102090473,70.0,0.0,255.0,0.0
38.1000000000004,35.69653143899598,51.283604582713295,1303.9997581876814,0.00011374349315929067,9.446343142371916e-06,0.0,-4.2069927985721733e-07,1.436080765415546e-07,0.0,39.11727667832964,70.0,0.0,255.0,0.0
38.150000000000404,35.69653712564104,51.2836050552126,1303.999757817015,0.0001137224581952978,9.453523603042413e-06,0.0,-4.206987114230287e-07,1.4360693967319094e-07,0.0,39.15582441270658,70.0,0.0,255.0,0.0
38.2000000000004,35.696542811234366,51.283605528070915,1303.99975744728,0.00011370142328814836,9.460703836339235e-06,0.0,-4.206987114230287e-07,1.4360693967319094e-07,0.0,39.19436422403554,70.0,0.0,255.0,0.0
38.2500000000004,35.69654849577595,51.28360600128825,1303.9997570784763,0.0001136803883241555,9.467884297009732e-06,0.0,-4.2069927985721733e-07,1.4360807654156815e-07,0.0,39.23289611231653,70.0,0.0,255.0,0.0
38.3000000000004,35.69655417926577,51.28360647486459,1303.9997567078099,0.00011365935336016264,9.475064643993392e-06,0.0,-4.206987114230287e-07,1.4360693967317738e-07,0.0,39.27142007754955,70.0,0.0,255.0,0.0
38.350000000000406,35.696559861703854,51.283606948799964,1303.9997563390061,0.0001136383184530132,9.482244990977051e-06,0.0,-4.206987114230287e-07,1.4360807654156815e-07,0.0,39.309936119734594,70.0,0.0,255.0,0.0
38.400000000000404,35.696565543090195,51.28360742309434,1303.9997559674084,0.00011361728348902034,9.489425451647548e-06,0.0,-4.2069927985721733e-07,1.4360807654156815e-07,0.0,39.348444238871664,70.0,0.0,255.0,0.0
38.4500000000004,35.696571223424776,51.28360789774774,1303.999755599536,0.00011359624852502748,9.496605798631208e-06,0.0,-4.206981429888401e-07,1.4360693967319094e-07,0.0,39.38694443496076,70.0,0.0,255.0,0.0
