idx,t,px,py,pz,vx,vy,vz,ax,ay,az,yaw,mode,ledr,ledg,ledb
0,0.0,7.500000000000008,-4.500000000000002,2.3536746347057054e-18,0.0003412380566736317,0.0004401136615506118,0.0009812271008633254,0.0038584129553598245,0.001332575589607643,-0.03880818067242221,0.0,70.0,255.0,255.0,255.0
1,0.05,7.500017061902842,-4.499977994316924,4.906135504316863e-05,0.0005341587044416229,0.000506742441030994,-0.0009591819327577853,0.006005317813606581,0.0022322914357886248,-0.058261248424580546,0.0,70.0,255.0,255.0,255.0
2,0.1,7.500053415870452,-4.499949325755899,-9.591819327577617e-05,0.0009417698380342898,0.0006633428051294743,-0.004844897741594729,0.008587619433075844,0.0035988633846351092,-0.07781227100863332,0.0,70.0,255.0,255.0,255.0
3,0.15000000000000002,7.500111238886645,-4.499911660036411,-0.0004354284191163043,0.0013929206477492073,0.0008666287794945049,-0.008740409033621117,0.009458412957119577,0.004532575588722665,-0.0780081806724264,0.0,70.0,255.0,255.0,255.0
4,0.2,7.500192707935227,-4.499862662877949,-0.000969959096637888,0.0018876111337462476,0.0011166003640017408,-0.01264571580883737,0.010334048301441356,0.005472449588150852,-0.07820820032916301,0.0,70.0,255.0,255.0,255.0
5,0.25,7.50030000000002,-4.499800000000011,-0.0017000000000000413,0.002426325477893343,0.00141387373830959,-0.016561229066537418,0.011237524119867004,0.006447753908389586,-0.07843185244533434,0.0,70.0,255.0,255.0,255.0
6,0.30000000000000004,7.500435340483016,-4.499721275504118,-0.00262608200329163,0.003011363545732948,0.0017613757548406994,-0.020488901053370805,0.012176237647665289,0.007467902397984005,-0.07868541617684563,0.0,70.0,255.0,255.0,255.0
7,0.35000000000000003,7.500601136354593,-4.499623862424527,-0.003748890105337122,0.003643949242659872,0.0021606639781079906,-0.02442977068422198,0.01308711069949453,0.008452620567656055,-0.07891534744891789,0.0,70.0,255.0,255.0,255.0
8,0.4,7.500799735407282,-4.4995052091063075,-0.005069059071713828,0.004320074615682401,0.002606637811606305,-0.028380435798262594,0.013869406472366563,0.009273708861723406,-0.07903613557496039,0.0,70.0,255.0,255.0,255.0
9,0.45,7.501033143816161,-4.499363198643366,-0.0065869336851633814,0.005030889889896528,0.0030880348642803312,-0.03233338424171802,0.014443200504477005,0.00982396338660152,-0.07896955398745925,0.0,70.0,255.0,255.0,255.0
10,0.5,7.501302824396272,-4.499196405619879,-0.00830239749588563,0.0057643946661301015,0.003589034150266457,-0.03627739119700852,0.01476374428834859,0.010020356436513111,-0.07862830100284976,0.0,70.0,255.0,255.0,255.0
11,0.55,7.501609583282774,-4.49900429522834,-0.010214672804864234,0.006507264318731387,0.004090070507931642,-0.040196214342002996,0.014816078734369853,0.00983546251598355,-0.07798381643133762,0.0,70.0,255.0,255.0,255.0
12,0.6000000000000001,7.501953550828145,-4.498787398569086,-0.01232201893008593,0.007246002539567087,0.004572580401864812,-0.04407577284014228,0.014606278360407288,0.00934854127674356,-0.0771765173410606,0.0,70.0,255.0,255.0,255.0
13,0.65,7.502334183536731,-4.498547037188153,-0.014622250088878462,0.007967892154772116,0.0050249246356059984,-0.047913866076109056,0.014166687606653738,0.008714987917191053,-0.07644987274814573,0.0,70.0,255.0,255.0,255.0
14,0.7000000000000001,7.502750340043622,-4.498284906105526,-0.017113405537696837,0.00866267130023246,0.005444079193583917,-0.051720760114956854,0.013557195208058204,0.008117775167892916,-0.0760491508401287,0.0,70.0,255.0,255.0,255.0
15,0.75,7.503200450666754,-4.498002629268795,-0.019794326100374147,0.009323611675577936,0.00583670215239529,-0.055518781160121926,0.012833134735146245,0.0077546581708887174,-0.07622674936855499,0.0,70.0,255.0,255.0,255.0
16,0.8,7.50368270121118,-4.497701235890286,-0.02266528365370903,0.009945984773747085,0.006219545010672789,-0.05934343505181235,0.012042890633079395,0.007728810266183217,-0.07709102715834464,0.0,70.0,255.0,255.0,255.0
17,0.8500000000000001,7.504195049144129,-4.497380674767728,-0.025728669605555383,0.010527900738885876,0.006609583179013612,-0.06322788387595639,0.011284978656700417,0.007948645560329481,-0.07841233610059235,0.0,70.0,255.0,255.0,255.0
18,0.9,7.504735491285069,-4.497040277572385,-0.028988072041304668,0.011074482639417127,0.007014409566705737,-0.06718466866187159,0.01070915778660364,0.008232586555401156,-0.07976894219702851,0.0,70.0,255.0,255.0,255.0
19,0.9500000000000001,7.505302497408071,-4.496679233811057,-0.03244713647174254,0.01159881651754624,0.007432841834553727,-0.07120477809565924,0.010466480200932438,0.008404050160670806,-0.08073500815319712,0.0,70.0,255.0,255.0,255.0
20,1.0,7.505895372936823,-4.496296993388929,-0.03610854985087059,0.01212113065951037,0.007854814582772818,-0.0752581694771913,0.010703716771143235,0.008273085472421116,-0.08088875746698795,0.0,70.0,255.0,255.0,255.0
21,1.05,7.506514610474022,-4.49589375235278,-0.03997295341946167,0.012669188194660563,0.008260150381795839,-0.07929365384235804,0.01147389719475811,0.007749436279969046,-0.08003118915439478,0.0,70.0,255.0,255.0,255.0
22,1.1,7.5071622917562895,-4.49547097835075,-0.0440379152351064,0.013268520378986182,0.008629758210769722,-0.08326128839263078,0.012608492327981224,0.006979580444621547,-0.07842579326822266,0.0,70.0,255.0,255.0,255.0
23,1.1500000000000001,7.50784146251192,-4.495030776531703,-0.04829908225872475,0.013930037427458686,0.008958108426257994,-0.0871362331691803,0.013799478449616487,0.006231961898528482,-0.07658438177376575,0.0,70.0,255.0,255.0,255.0
24,1.2000000000000002,7.508555295499035,-4.494575167508124,-0.05275153855202443,0.01464846822394783,0.00925295440062257,-0.09091972657000735,0.014725135735904615,0.005765884329100857,-0.07502965104592696,0.0,70.0,255.0,255.0,255.0
25,1.25,7.509306309334315,-4.4941054810916405,-0.057391054915725485,0.015402551001049147,0.00953469685916808,-0.094639198273773,0.015071998180982149,0.005840925347033732,-0.0742821834674591,0.0,70.0,255.0,255.0,255.0
26,1.3,7.51009555059914,-4.493621697822207,-0.06221545837940173,0.016155668042046045,0.009837046935325944,-0.09834794491675326,0.014687721053885383,0.006574330394659711,-0.07460407636392802,0.0,70.0,255.0,255.0,255.0
27,1.35,7.51092187613852,-4.493121776398108,-0.06722584940740081,0.016871323106437686,0.01019212989863405,-0.1020996059101658,0.013730935480893436,0.0077667855751251125,-0.07575097101299513,0.0,70.0,255.0,255.0,255.0
28,1.4000000000000001,7.511782682909784,-4.492602484832344,-0.0724254189704183,0.01752876159013539,0.010613725492838455,-0.10592304201805278,0.012523884126647289,0.009044134615443511,-0.0772270505214355,0.0,70.0,255.0,255.0,255.0
29,1.4500000000000002,7.512674752297533,-4.492060403848824,-0.07781815360920609,0.018123711519102415,0.011096543360178401,-0.10982231096230935,0.011399037461679029,0.010026864737167074,-0.07853324080995538,0.0,70.0,255.0,255.0,255.0
30,1.5,7.513595054061694,-4.491492830496326,-0.08340765006664924,0.01866866533630329,0.011616411966555162,-0.11377636609904831,0.010680271856600143,0.010335241111381066,-0.07917057393123927,0.0,70.0,255.0,255.0,255.0
31,1.55,7.514541618831164,-4.490898762652169,-0.08919579021911092,0.01919173870476243,0.012130067471316508,-0.11773936835543328,0.010541279196019104,0.009786155894353499,-0.07887987135725139,0.0,70.0,255.0,255.0,255.0
32,1.6,7.5155142279321705,-4.490279823749194,-0.09518158690219257,0.019722793255905202,0.012595027555990512,-0.12166435323477345,0.010898721459629002,0.008603160704367951,-0.07786207093154335,0.0,70.0,255.0,255.0,255.0
33,1.6500000000000001,7.516513898156754,-4.4896392598965695,-0.10136222554258827,0.02028161085072533,0.012990383541753303,-0.1255255754485876,0.011554868493401926,0.007222455351030277,-0.07653482872791578,0.0,70.0,255.0,255.0,255.0
34,1.7000000000000002,7.517542389017243,-4.488980785395019,-0.10773414444705133,0.020878280105245395,0.01331727309109354,-0.12931783610756503,0.012311628170014188,0.006086004041883086,-0.07531104538792549,0.0,70.0,255.0,255.0,255.0
35,1.75,7.518601726167279,-4.48830753258746,-0.11429400915334477,0.021512773667726748,0.013598983945941612,-0.13305667998738016,0.01297894236458319,0.005638063587198872,-0.07460344621550291,0.0,70.0,255.0,255.0,255.0
36,1.8,7.519693666384016,-4.487620887000425,-0.12103981244578935,0.022176174341703714,0.013881079449813427,-0.13677818072911532,0.013441614376485944,0.006100906167905151,-0.0746290722396889,0.0,70.0,255.0,255.0,255.0
37,1.85,7.520819343601449,-4.486919424642479,-0.1279718272262563,0.022856935105375342,0.014209074562732127,-0.14051958721134905,0.013678747445222683,0.00724975575616682,-0.07523170097178539,0.0,70.0,255.0,255.0,255.0
38,1.9000000000000001,7.521979359894553,-4.486199979544152,-0.13509177116692425,0.023544049086225982,0.01460605502543011,-0.14430135082629386,0.01369039481371459,0.008636859830968291,-0.07608351801678959,0.0,70.0,255.0,255.0,255.0
39,1.9500000000000002,7.523173748510072,-4.485458819139936,-0.1424019623088857,0.0242259745867468,0.015072760545828956,-0.148127939013028,0.013468762212553997,0.00981597224276598,-0.07686220467798821,0.0,70.0,255.0,255.0,255.0
40,2.0,7.524401957353228,-4.484692703489569,-0.14990456506822705,0.024890925307481382,0.015587652249706707,-0.15198757129409268,0.012995940036475417,0.010344579132315346,-0.07723969715079937,0.0,70.0,255.0,255.0,255.0
41,2.0500000000000003,7.52566284104082,-4.483900053914965,-0.15760071943829496,0.025525568590394343,0.01610721845906049,-0.15585190872810795,0.012284524369476912,0.009997072580336663,-0.07704449236463906,0.0,70.0,255.0,255.0,255.0
42,2.1,7.526954514212267,-4.483081981643663,-0.16548975594103785,0.026119377744429073,0.016587359507740373,-0.1596920205305566,0.011467127920727904,0.008968632121497677,-0.07641746550767492,0.0,70.0,255.0,255.0,255.0
43,2.15,7.528274778815263,-4.482241317964191,-0.17356992149135061,0.026672281382467133,0.017004081671210258,-0.16349365527887544,0.010764391413697894,0.007659289474304387,-0.07564391971772721,0.0,70.0,255.0,255.0,255.0
44,2.2,7.529621742350514,-4.481381573476542,-0.1818391214689254,0.027195816885798862,0.017353288455170812,-0.1672564125023293,0.010405584052186612,0.006469967126765397,-0.0750005088604927,0.0,70.0,255.0,255.0,255.0
45,2.25,7.5309943605038425,-4.480505989118674,-0.19029556274158355,0.027712839787685795,0.017651078383886798,-0.1709937061649247,0.010629278841367551,0.005803573264095974,-0.07476969991326299,0.0,70.0,255.0,255.0,255.0
46,2.3000000000000003,7.532393026329283,-4.479616465638153,-0.19893849208541786,0.028258744769935618,0.01793364578158041,-0.1747333824936556,0.011534600499185643,0.005870150829956344,-0.0750928184416022,0.0,70.0,255.0,255.0,255.0
47,2.35,7.533820234980836,-4.478712624540516,-0.2077689009909491,0.02886629983760436,0.018238093466882432,-0.17850298800908493,0.01288649378521356,0.006506671468820002,-0.07581302907209153,0.0,70.0,255.0,255.0,255.0
48,2.4000000000000004,7.535279656313043,-4.477792656291465,-0.21678879088632635,0.029547394148456974,0.01858431292846241,-0.18231468540086476,0.014256608296481232,0.007375865722192287,-0.07662621103770861,0.0,70.0,255.0,255.0,255.0
49,2.45,7.536774974395682,-4.47685419324767,-0.22600036953103558,0.030291960667252482,0.01897568003910166,-0.1861656091128558,0.015210067080495548,0.008143786288972166,-0.07723589974019673,0.0,70.0,255.0,255.0,255.0
50,2.5,7.538308852379768,-4.475895088287555,-0.23540535179761193,0.03106840085650653,0.019398691557359626,-0.19003827537488444,0.015311000542705955,0.00846518375521299,-0.07734956846422447,0.0,70.0,255.0,255.0,255.0
51,2.5500000000000003,7.539881814481332,-4.474914324091934,-0.24500419706852403,0.03182306072152308,0.01982219841462296,-0.19390056595927824,0.014356187851660707,0.008162976781189712,-0.0768238609085703,0.0,70.0,255.0,255.0,255.0
52,2.6,7.541491158451921,-4.473912868446092,-0.25479540839353976,0.0325040196416726,0.020214989235478598,-0.19772066146574147,0.012638551949262222,0.007411022329772976,-0.07581759769113294,0.0,70.0,255.0,255.0,255.0
53,2.6500000000000004,7.5431322164455,-4.472892825168386,-0.2647762632150982,0.0330869159164493,0.020563300647600258,-0.20148232572839153,0.01071919871113991,0.006550068149380195,-0.07464489580511768,0.0,70.0,255.0,255.0,255.0
54,2.7,7.544799850043566,-4.471856538381332,-0.2749436409663789,0.03357593951278659,0.020869996050416617,-0.20518515104625323,0.009166268838178837,0.005908547390376384,-0.07362195278480255,0.0,70.0,255.0,255.0,255.0
55,2.75,7.546489810396778,-4.470805825563344,-0.2852947783197235,0.034003542800267184,0.021154155386637896,-0.20884452100687179,0.008538653719991629,0.005815598475056305,-0.07305999825777953,0.0,70.0,255.0,255.0,255.0
56,2.8000000000000003,7.548200204323592,-4.4697411228426684,-0.2958280930670661,0.03442980488478575,0.021451555897922248,-0.2124911508720312,0.009114307767355001,0.006431601719736335,-0.07311831135068392,0.0,70.0,255.0,255.0,255.0
57,2.85,7.549932790885257,-4.468660669973552,-0.3065438934069266,0.034914973577002684,0.02179731555861153,-0.21615635214194018,0.010624007042192574,0.00756205972516355,-0.07366846827527307,0.0,70.0,255.0,255.0,255.0
58,2.9000000000000004,7.551691701681293,-4.467561391286807,-0.3174437282812601,0.03549220558900501,0.022207761870438603,-0.2198579976995585,0.012521049074454282,0.008830202006127053,-0.07444231762993025,0.0,70.0,255.0,255.0,255.0
59,2.95,7.553482011444157,-4.466439893786508,-0.32852969317688246,0.03616707848444811,0.022680335759224235,-0.2236005839049332,0.014252223534594322,0.009862676829630601,-0.07516971569404562,0.0,70.0,255.0,255.0,255.0
60,3.0,7.555308409529737,-4.465293357710885,-0.3398037866717534,0.03691742794246444,0.023194029553401663,-0.22737496926896306,0.015278440521182546,0.010296478288829292,-0.07558246647667577,0.0,70.0,255.0,255.0,255.0
61,3.0500000000000003,7.557173754238404,-4.464120490831168,-0.35126719010377877,0.037694922536566366,0.023709983588107164,-0.23115883055260078,0.015313947045125786,0.00995024337990813,-0.07553683308259562,0.0,70.0,255.0,255.0,255.0
62,3.1,7.559077901783394,-4.462922359352074,-0.3629196697270135,0.03844882264697702,0.024189053891392476,-0.23492865257722262,0.014519872096308006,0.00899062221950686,-0.07511486953410418,0.0,70.0,255.0,255.0,255.0
63,3.1500000000000004,7.561018636503102,-4.461701585442029,-0.37476005536150103,0.03914690974619717,0.02460904581005785,-0.2386703175060112,0.013261313617007886,0.007760079536733855,-0.07449865418802659,0.0,70.0,255.0,255.0,255.0
64,3.2,7.562992592758014,-4.460461454771068,-0.3867867014776146,0.03977495400867781,0.02496506184506586,-0.24237851799602528,0.011905209983265053,0.006606805896325341,-0.07386627068612928,0.0,70.0,255.0,255.0,255.0
65,3.25,7.564996131903969,-4.459205079257522,-0.39899790716110356,0.04033743074452367,0.025269726399690384,-0.24605694457462413,0.010811546898814584,0.005870469722157878,-0.07339409853947543,0.0,70.0,255.0,255.0,255.0
66,3.3000000000000003,7.567026335832466,-4.457934482131099,-0.41139239593507704,0.04085610869855927,0.02555210881728165,-0.24971792784997282,0.010188225730534128,0.005733485367453994,-0.07318041692497834,0.0,70.0,255.0,255.0,255.0
67,3.35,7.569081742773825,-4.456649868375794,-0.42396969994610084,0.041356253317577085,0.025843074936435784,-0.25337498626712196,0.01000829944501902,0.006106407107075995,-0.07318841722463443,0.0,70.0,255.0,255.0,255.0
68,3.4000000000000004,7.571161961164224,-4.455350174637456,-0.43672989456178923,0.04185693864306117,0.02616274952798925,-0.25703676957243626,0.010164419068914299,0.00677936329669393,-0.07332754114245943,0.0,70.0,255.0,255.0,255.0
69,3.45,7.573267436638131,-4.454033593422995,-0.44967337690334447,0.042372695224468515,0.026521011266105177,-0.2607077403813679,0.010558824642892262,0.007543013338473514,-0.0735114020276817,0.0,70.0,255.0,255.0,255.0
70,3.5,7.575399230686671,-4.452698073510845,-0.462800668599926,0.042912821107350396,0.0269170508618366,-0.26438790977520443,0.011091409179808664,0.00819367079465394,-0.07364915801345018,0.0,70.0,255.0,255.0,255.0
71,3.5500000000000003,7.577558718748866,-4.451341888336811,-0.4761121678808649,0.04348183614244938,0.02734037834557057,-0.2680726561827129,0.011688115068153593,0.008610267364783653,-0.07368872532467763,0.0,70.0,255.0,255.0,255.0
72,3.6,7.579747414300916,-4.449964035676288,-0.4896079342181973,0.044081632614165756,0.027778077598314965,-0.2717567823076722,0.012287023363022342,0.00878831811643721,-0.0736523939682654,0.0,70.0,255.0,255.0,255.0
73,3.6500000000000004,7.581966882010283,-4.44856408057698,-0.5032878461116321,0.044710538478751616,0.02821921015721429,-0.27543789557953946,0.01279839938526095,0.008756220189720665,-0.0735894096804357,0.0,70.0,255.0,255.0,255.0
74,3.7,7.584218468148791,-4.447142114660567,-0.5171517237761513,0.04536147255269185,0.028653699617287032,-0.27911572327571577,0.013114316620388422,0.008535453104574486,-0.07354192073695809,0.0,70.0,255.0,255.0,255.0
75,3.75,7.586503029265552,-4.445698710615251,-0.5311994184392037,0.04602197014079046,0.02907275546767174,-0.28279208765323527,0.013126779085936846,0.008146828451582877,-0.07355724143460751,0.0,70.0,255.0,255.0,255.0
76,3.8000000000000003,7.58882066516287,-4.4442348391138,-0.5454309325414748,0.046674150461285535,0.02946838246244532,-0.2864714474191765,0.012792087888513493,0.007617706245444111,-0.07365796848954886,0.0,70.0,255.0,255.0,255.0
77,3.85,7.591170444311681,-4.442751872369007,-0.5598465631811214,0.04730117892964181,0.02983452609221615,-0.29015788450219016,0.012208082626319339,0.007021159588038728,-0.07380200690239036,0.0,70.0,255.0,255.0,255.0
78,3.9000000000000004,7.593550783055834,-4.441251386504578,-0.5744467209916938,0.04789495872391747,0.030170498421249192,-0.29385164810941555,0.011558347027484928,0.006476595105198157,-0.07391482013588968,0.0,70.0,255.0,255.0,255.0
79,3.95,7.5959599401840725,-4.439734822526882,-0.5892317279920629,0.0484570136323903,0.030482185602735967,-0.2975493665157791,0.01103668276964953,0.006114148601987779,-0.0739276283110879,0.0,70.0,255.0,255.0,255.0
80,4.0,7.598396484419073,-4.438203167944304,-0.6042016576432717,0.04899862700088242,0.03078191328144797,-0.30124441094052434,0.010837465152135906,0.006063024723079735,-0.07377390422007579,0.0,70.0,255.0,255.0,255.0
81,4.05,7.600859802884161,-4.436656631198737,-0.6193561690861153,0.04954076014760389,0.03108848807504394,-0.3049267569377867,0.011056820089905273,0.006379420474189601,-0.0734256011834078,0.0,70.0,255.0,255.0,255.0
82,4.1000000000000005,7.603350560433833,-4.4350943191368,-0.6346943333370504,0.05010430900987295,0.03141985532886693,-0.3085869710588651,0.011595238206218994,0.0069625680072959995,-0.07294134998395707,0.0,70.0,255.0,255.0,255.0
83,4.15,7.605870233785148,-4.43351464566585,-0.6502148661920019,0.05070028396822579,0.03178474487577354,-0.3122208919361824,0.012253620430691115,0.007621035753224703,-0.07243037737502123,0.0,70.0,255.0,255.0,255.0
84,4.2,7.608420588830656,-4.431915844649223,-0.6659164225306686,0.05132967105294206,0.0321819589041894,-0.31583000879636725,0.012832378874527706,0.00815517859420467,-0.07200705319816425,0.0,70.0,255.0,255.0,255.0
85,4.25,7.611003200890442,-4.430296449775431,-0.6817978670716386,0.05198352185567856,0.03260026273519401,-0.31942159725599883,0.013139397601236169,0.008365081979810896,-0.07179115100921507,0.0,70.0,255.0,255.0,255.0
86,4.3,7.613618941016224,-4.428655818375703,-0.6978585822562685,0.05264361081306568,0.03301846710217049,-0.32300912389728875,0.013074058324669124,0.008151325144734045,-0.0718396267768373,0.0,70.0,255.0,255.0,255.0
87,4.3500000000000005,7.616267561971749,-4.426994603065214,-0.7140987794613675,0.05329092768814547,0.03341539524966741,-0.32660555993368257,0.012696372474962914,0.007613976308640247,-0.07206988919898905,0.0,70.0,255.0,255.0,255.0
88,4.4,7.618948033785038,-4.4253142788507365,-0.7305191382496368,0.05391324806056197,0.033779864733034515,-0.33021611281718766,0.012141763325956845,0.006953853956570555,-0.07232637432678102,0.0,70.0,255.0,255.0,255.0
89,4.45,7.621658886777805,-4.423616616591911,-0.7471203907430862,0.05450510402074116,0.03411078064532447,-0.33383819736636067,0.011547088444707754,0.006371710447172774,-0.07245087218301638,0.0,70.0,255.0,255.0,255.0
90,4.5,7.6243985441871125,-4.421903200786204,-0.7639029579862728,0.055067956905032744,0.03441703577775179,-0.3374612000354893,0.011040935116923833,0.006060610061453531,-0.07226951039109863,0.0,70.0,255.0,255.0,255.0
91,4.55,7.627165682468308,-4.420174913014136,-0.7808665107466352,0.05560919753243354,0.03471684165146982,-0.34106514840547053,0.010699720504625532,0.006121852373475178,-0.07170260499583803,0.0,70.0,255.0,255.0,255.0
92,4.6000000000000005,7.629959463940356,-4.418431516621057,-0.7980094728268199,0.0561379289554953,0.03502922101509931,-0.3446314605350731,0.010535635532171739,0.00649611883272172,-0.07090179718274303,0.0,70.0,255.0,255.0,255.0
93,4.65,7.632779475363858,-4.416671990912626,-0.8153296568001425,0.056662761085650715,0.03536645353474199,-0.34815532812374483,0.01054380179033032,0.007048956346444868,-0.07014142135535195,0.0,70.0,255.0,255.0,255.0
94,4.7,7.635625740048921,-4.414894871267583,-0.8328250056391944,0.05719230913452833,0.0357341166497438,-0.3516456026706083,0.010718754524940977,0.007644692903685524,-0.06968931820964253,0.0,70.0,255.0,255.0,255.0
95,4.75,7.638498706277311,-4.413098579247651,-0.8504942170672033,0.05773463653814481,0.036130922825110545,-0.3551242599447091,0.011052852606230346,0.008156487097910059,-0.0698187328342148,0.0,70.0,255.0,255.0,255.0
96,4.800000000000001,7.641399203702735,-4.411281778985072,-0.8683374316336653,0.058297594395151364,0.0365497653595348,-0.3586274759540298,0.011528085298717627,0.00850849146862842,-0.07065083902058067,0.0,70.0,255.0,255.0,255.0
97,4.8500000000000005,7.644328465716826,-4.409443602711698,-0.8863569646626063,0.058887445068016575,0.03698177197197339,-0.36218934384676715,0.012080246236134684,0.008685184724299688,-0.07195667498380853,0.0,70.0,255.0,255.0,255.0
98,4.9,7.647287948209537,-4.4075836017878744,-0.904556366018342,0.05950561901876483,0.03741828383196477,-0.3658231434524106,0.01260219035073007,0.00868584513336046,-0.0733125090166209,0.0,70.0,255.0,255.0,255.0
99,4.95,7.650279027618702,-4.405701774328501,-0.9229392790078473,0.06014766410308958,0.03785035648530943,-0.36952059474842924,0.012978919096795494,0.008510030758746012,-0.07429302047953223,0.0,70.0,255.0,255.0,255.0
100,5.0,7.653302714619846,-4.4037985661393435,-0.9415084254931849,0.06080351092844438,0.03826928690783937,-0.37325244550036385,0.013103645135270625,0.008157450870882599,-0.07447961421592764,0.0,70.0,255.0,255.0,255.0
101,5.050000000000001,7.656359378711547,-4.4018748456377175,-0.9602645235578837,0.061458028616616645,0.03866610157239769,-0.376968556170022,0.012927425479603016,0.007643156110326288,-0.07367315314088518,0.0,70.0,255.0,255.0,255.0
102,5.1000000000000005,7.659448517481508,-4.399931955982104,-0.9792052811101871,0.062096253476404684,0.039033602518872,-0.38061976081445237,0.012507855046894889,0.007043981431031909,-0.07212315789371093,0.0,70.0,255.0,255.0,255.0
103,5.15,7.662569004059187,-4.39797148538583,-0.998326499639329,0.06270881412130613,0.039370499715500884,-0.3841808719593931,0.011963800442682526,0.006488502281154496,-0.07031856588837204,0.0,70.0,255.0,255.0,255.0
104,5.2,7.665719398893638,-4.395994906010554,-1.0176233683061264,0.06329263352067294,0.03968245274698745,-0.3876516174032896,0.011425056267455602,0.0061141584203561194,-0.0687574343709918,0.0,70.0,255.0,255.0,255.0
105,5.25,7.6688982674112545,-4.3940032401111315,-1.037091661379658,0.0638513197480517,0.039981915557536496,-0.3910566153964923,0.011020585501508862,0.006057718743246454,-0.06792677300589967,0.0,70.0,255.0,255.0,255.0
106,5.300000000000001,7.6721045308684435,-4.3919967144548,-1.0567290298457757,0.06439469207082382,0.040288224621312096,-0.39444429470387954,0.010821699962715314,0.00637939690983913,-0.068076408555795,0.0,70.0,255.0,255.0,255.0
107,5.3500000000000005,7.675337736618337,-4.389974417649,-1.0765360908500459,0.06493348974432323,0.04061985524852041,-0.3978642562520718,0.010804697212218883,0.006974414026661435,-0.0690171736279277,0.0,70.0,255.0,255.0,255.0
108,5.4,7.678597879842876,-4.387934728929948,-1.0965154554709828,0.06547516179204571,0.04098566602397824,-0.4013460120666723,0.010907083403122186,0.007643782106114827,-0.0703467472433994,0.0,70.0,255.0,255.0,255.0
109,5.45,7.681885252797541,-4.3858758510466025,-1.116670692056713,0.06602419808463544,0.04138423345913189,-0.4048989309764117,0.011067056299385314,0.008180561667181507,-0.07165738189653936,0.0,70.0,255.0,255.0,255.0
110,5.5,7.685200299651339,-4.383796305584035,-1.137005348568624,0.06658186742198424,0.04180372219069639,-0.40851175025632624,0.011222031506630259,0.008375683480643659,-0.07254933105651507,0.0,70.0,255.0,255.0,255.0
111,5.550000000000001,7.68854343953974,-4.381695478827533,-1.1575218670823457,0.06714640123529847,0.04222180180719626,-0.4121538640820632,0.01133300077693633,0.00812596953689848,-0.07280237813713786,0.0,70.0,255.0,255.0,255.0
112,5.6000000000000005,7.691914939774869,-4.379574125403315,-1.1782207349768303,0.06771516749967788,0.04261631914438624,-0.41579198807004003,0.011394288505339745,0.00754377038747478,-0.07249812428471447,0.0,70.0,255.0,255.0,255.0
113,5.65,7.695314956289708,-4.377433846913094,-1.1991010658893497,0.06828583008583244,0.042976178845943735,-0.4194036765105347,0.011406094383215049,0.006850961368964903,-0.07184279012644179,0.0,70.0,255.0,255.0,255.0
114,5.7,7.698743522783452,-4.375276507518721,-1.2201611026278838,0.06885577693799938,0.04330141528128273,-0.4229762670826842,0.011360518068581626,0.006270168337518811,-0.07104063711029784,0.0,70.0,255.0,255.0,255.0
115,5.75,7.702200533983508,-4.373103705384966,-1.2413986925976181,0.0694218818926906,0.04360319567969562,-0.42650774022156446,0.011239260500151005,0.006023510038222213,-0.07030387479596278,0.0,70.0,255.0,255.0,255.0
116,5.800000000000001,7.7056857109727215,-4.370916187950751,-1.2628118766500402,0.06997970298801448,0.04390376628510495,-0.4300066545622805,0.011039583642613593,0.006223298368990271,-0.06975911386066791,0.0,70.0,255.0,255.0,255.0
117,5.8500000000000005,7.709198504282309,-4.3687133287564555,-1.2843993580538462,0.07052584025695197,0.044225525516594644,-0.43348365160763125,0.010818148766311708,0.00676509649855106,-0.06938753203042936,0.0,70.0,255.0,255.0,255.0
118,5.9,7.712738294998417,-4.366493635399092,-1.3061602418108034,0.07106151786464565,0.044580275934960056,-0.4369454077653234,0.010668539063996008,0.007437780343355627,-0.06912740693632013,0.0,70.0,255.0,255.0,255.0
119,5.95,7.716304656068774,-4.3642553011629595,-1.3280938988303785,0.07159269416335157,0.044969303550930206,-0.44039639230126326,0.010684158139184774,0.008032191554985246,-0.0689319577742653,0.0,70.0,255.0,255.0,255.0
120,6.0,7.719897564414752,-4.361996705043999,-1.3501998810409297,0.07212993367856413,0.04538349509045858,-0.44383860354274995,0.010968898520946624,0.00834631366233296,-0.0687392257036068,0.0,70.0,255.0,255.0,255.0
121,6.050000000000001,7.72351764943663,-4.359716951653914,-1.3724777591846535,0.07268958401544623,0.0458039349171635,-0.44727031487162394,0.011562464186809507,0.008274263561514061,-0.06851510581393772,0.0,70.0,255.0,255.0,255.0
122,6.1000000000000005,7.7271665228162965,-4.357416311552282,-1.394926912528092,0.07328618009724508,0.04621092144660999,-0.4506901141241437,0.012331344867710925,0.007881251544006318,-0.06830997603175515,0.0,70.0,255.0,255.0,255.0
123,6.15,7.7308462674463545,-4.355095859509253,-1.417546770597068,0.07392271850221732,0.046592060071564134,-0.45410131247479946,0.013040681760756456,0.007312509331836026,-0.06820851452931098,0.0,70.0,255.0,255.0,255.0
124,6.2,7.734558794666518,-4.352757105545126,-1.440337043775572,0.07459024827332073,0.04694217237979359,-0.4575109655770748,0.013456788768539951,0.006714352155601233,-0.06827861803981872,0.0,70.0,255.0,255.0,255.0
125,6.25,7.738305292273687,-4.350401642271273,-1.4632978671547754,0.07526839737907132,0.04726349528712426,-0.46092917427878133,0.013345192037128584,0.006227225988375551,-0.06859115712156694,0.0,70.0,255.0,255.0,255.0
126,6.300000000000001,7.742085634404425,-4.3480307560164135,-1.4864299612034502,0.07592476747703358,0.047564894978631145,-0.4643700812892315,0.012602960542107411,0.005932421277954347,-0.06916806195103042,0.0,70.0,255.0,255.0,255.0
127,6.3500000000000005,7.74589776902139,-4.34564515277341,-1.5097348752836985,0.07652869343328206,0.04785673741491969,-0.46784598047388437,0.011422718849107838,0.005826260962038532,-0.06989172468168103,0.0,70.0,255.0,255.0,255.0
128,6.4,7.7497385037477535,-4.343245082274922,-1.5332145592508386,0.07706703936194437,0.048147521074835,-0.4713592537573996,0.01016416512866769,0.005876657854031464,-0.07055769578556692,0.0,70.0,255.0,255.0,255.0
129,6.45,7.753604472957584,-4.340830400665927,-1.5568708006594385,0.07754510994614883,0.04844440320032284,-0.47490175005244106,0.009194234572085236,0.0060498870016800765,-0.07096130899417741,0.0,70.0,255.0,255.0,255.0
130,6.5,7.757493014742368,-4.338400641954889,-1.5807047342560827,0.07798646281915289,0.048752509775003006,-0.47845538465681736,0.008878305358894778,0.006300773059653153,-0.07090416445818537,0.0,70.0,255.0,255.0,255.0
131,6.550000000000001,7.7614031192395,-4.335955149688426,-1.6047163391251202,0.0784329404820383,0.049074480506288154,-0.4819921664982596,0.00939277989111531,0.00659707696835099,-0.07029833402760755,0.0,70.0,255.0,255.0,255.0
132,6.6000000000000005,7.765336308790572,-4.3334931939042605,-1.6289039509059087,0.07892574080826442,0.049412217471838105,-0.4854852180595781,0.010527896285594807,0.006932865447240033,-0.06928937232795196,0.0,70.0,255.0,255.0,255.0
133,6.65,7.769295693320326,-4.3310139279412425,-1.653264860931078,0.07948573011059779,0.04976776705101216,-0.4889211037310548,0.011871702014065733,0.007300020090994508,-0.06815613356379036,0.0,70.0,255.0,255.0,255.0
134,6.7,7.773284881801632,-4.328516417199159,-1.6777960612790142,0.080112911009671,0.050142219480937555,-0.49230083141595715,0.01300692562429262,0.0076804121917462,-0.06718840705541851,0.0,70.0,255.0,255.0,255.0
135,6.75,7.777306984421293,-4.325999705993149,-1.7024949440726738,0.08078642267302705,0.05053580827018678,-0.49563994443659665,0.013521633147739465,0.00807364447661385,-0.06667218504572414,0.0,70.0,255.0,255.0,255.0
136,6.800000000000001,7.781363524068935,-4.323462836372141,-1.7273600557226738,0.08146507432444494,0.05094958392859894,-0.49896804992052957,0.013206059753212429,0.008472557562555494,-0.06675188865208348,0.0,70.0,255.0,255.0,255.0
137,6.8500000000000005,7.785453491853738,-4.320904747600289,-1.7523917490647267,0.08210702864834829,0.05138306402644233,-0.502315133301805,0.012236511859153865,0.008804981211962826,-0.06730267411856339,0.0,70.0,255.0,255.0,255.0
138,6.9,7.7895742269337696,-4.318324529969496,-1.7775915690528543,0.08268872551036033,0.05183008204979522,-0.5056983173323859,0.010978210963585866,0.008960557818582515,-0.06806588184740114,0.0,70.0,255.0,255.0,255.0
139,6.95,7.793722364404774,-4.315721739395309,-1.8029615807979653,0.08320484974470688,0.05227911980830058,-0.5091217214865451,0.009797923070564707,0.0088418908039678,-0.06877848935726849,0.0,70.0,255.0,255.0,255.0
140,7.0,7.79789471190824,-4.313096617988666,-1.8285037412015088,0.0836685178174168,0.052714271130192,-0.5125761662681128,0.0090551154312557,0.008352714302173325,-0.0691791233306649,0.0,70.0,255.0,255.0,255.0
141,7.050000000000001,7.802089216186515,-4.31045031228229,-1.8542191974247766,0.08411036128783245,0.05311439123851791,-0.5160396338196116,0.008942328415173506,0.007464580894644968,-0.06912805075838246,0.0,70.0,255.0,255.0,255.0
142,7.1000000000000005,7.8063057480370235,-4.3077851788648145,-1.88010770458347,0.08456275065893415,0.0534607292196565,-0.519488971343951,0.009357011988164743,0.006329820427541932,-0.06870627152446573,0.0,70.0,255.0,255.0,255.0
143,7.15,7.810545491252409,-4.3051042393603245,-1.9061680945591717,0.08504606248664892,0.053747373281272104,-0.5229102609720582,0.010065337581455225,0.005217655393607856,-0.06809315955935702,0.0,70.0,255.0,255.0,255.0
144,7.2,7.814810354285688,-4.302410441536687,-1.9323987306806758,0.08556928441707967,0.053982494759017285,-0.5262982872998867,0.010834295846340325,0.004403772843897258,-0.06746472176233365,0.0,70.0,255.0,255.0,255.0
145,7.25,7.819102419694117,-4.299705989884423,-1.9587979232891604,0.08612949207128295,0.05418775056566183,-0.5296567331482915,0.011429933099726952,0.004151488991244179,-0.06699528433529167,0.0,70.0,255.0,255.0,255.0
146,7.300000000000001,7.823423303492817,-4.296991666480121,-1.985364403995505,0.08671227772705237,0.0543976436581417,-0.5329978157334159,0.011719078800709326,0.004583431214211231,-0.066781968920826,0.0,70.0,255.0,255.0,255.0
147,7.3500000000000005,7.827773647466822,-4.294266225518609,-2.012097704862502,0.08730139995135389,0.05464609368708295,-0.5363349300403741,0.011740008952187964,0.005546786028709505,-0.06678860342024251,0.0,70.0,255.0,255.0,255.0
148,7.4,7.832153443487952,-4.291527057111413,-2.0389978969995424,0.08788627862227116,0.054952322261012654,-0.5396766760754401,0.0115941916244644,0.006736093333259419,-0.06692595543931201,0.0,70.0,255.0,255.0,255.0
149,7.45,7.836562275329049,-4.288770993292507,-2.066065372470046,0.08846081911380033,0.055319703020408895,-0.5430275255843053,0.011372492612249374,0.007830756748372636,-0.06710882405931429,0.0,70.0,255.0,255.0,255.0
150,7.5,7.840999525399332,-4.285995086809372,-2.093300649557973,0.0890235278834961,0.05573539793584992,-0.5463875584813715,0.01116510554926009,0.008517320408785167,-0.06724775797617433,0.0,70.0,255.0,255.0,255.0
151,7.550000000000001,7.845464628117399,-4.283197453498922,-2.120704128318183,0.08957732966872634,0.05617143506128741,-0.5497523013819228,0.011027416987641203,0.008628920356024139,-0.06729129966598357,0.0,70.0,255.0,255.0,255.0
152,7.6000000000000005,7.849957258366205,-4.280377943303243,-2.148275879696165,0.09012626958226022,0.05659828997145233,-0.5531166884479699,0.010962019802374101,0.008252079747439467,-0.06726024719583279,0.0,70.0,255.0,255.0,255.0
153,7.65,7.854477255075625,-4.277537624501777,-2.17601579716298,0.09067353164896375,0.05699664303603136,-0.556478326101506,0.01095966748305699,0.007588087822796297,-0.0672012471212291,0.0,70.0,255.0,255.0,255.0
154,7.7,7.859024611531101,-4.27467827899964,-2.203923712306316,0.09122223633056592,0.05735709875373196,-0.5598368131600928,0.011021934171395742,0.00684028640920431,-0.0671537815337242,0.0,70.0,255.0,255.0,255.0
155,7.75,7.863599478708681,-4.271801914626404,-2.2319994784789894,0.09177572506610332,0.05768067167695179,-0.5631937042548785,0.011161672674919743,0.006207201401586815,-0.06716165578799504,0.0,70.0,255.0,255.0,255.0
156,7.800000000000001,7.868202184037711,-4.268910211831945,-2.2602430827318036,0.0923384035980579,0.05797781889389064,-0.5665529787388923,0.011377966535075501,0.005806435147182043,-0.06724611912889422,0.0,70.0,255.0,255.0,255.0
157,7.8500000000000005,7.872833319068487,-4.266004132737015,-2.2886547763528786,0.09291352171961087,0.05826131519166999,-0.5699183161677679,0.011611911837672295,0.00564032621710453,-0.06737040779660752,0.0,70.0,255.0,255.0,255.0
158,7.9,7.8774935362096725,-4.263084080312778,-2.3172349143485804,0.09349959478182512,0.058541851515601095,-0.5732900195185531,0.011767138443374847,0.005677802462056292,-0.06746905607566411,0.0,70.0,255.0,255.0,255.0
159,7.95,7.88218327854667,-4.260149947585455,-2.345983778304734,0.09409023556394835,0.05882909543787562,-0.5766652217753343,0.011746483989139023,0.005893785260546736,-0.06748276309238577,0.0,70.0,255.0,255.0,255.0
160,8.0,7.886902559766067,-4.25720117076899,-2.374901436526114,0.09467424318073903,0.05913123004165577,-0.5800382958277917,0.011440231723014449,0.006261892632242194,-0.06735764684382417,0.0,70.0,255.0,255.0,255.0
161,8.05,7.891650702864744,-4.254236824581289,-2.403987607887513,0.0952342587362498,0.05945528470109984,-0.5834009864597167,0.010806917338079813,0.00675307798294611,-0.06707042428466536,0.0,70.0,255.0,255.0,255.0
162,8.1,7.896425985639692,-4.25125564229888,-2.4332415351720855,0.09575493491454701,0.05980653783995038,-0.5867453382562582,0.009992104408595992,0.007305776223720528,-0.0666598931791107,0.0,70.0,255.0,255.0,255.0
163,8.15,7.901226196356198,-4.248256170797294,-2.462662141713139,0.0962334691771094,0.060185862323471895,-0.5900669757776278,0.009250846343622499,0.007819863168645469,-0.06620159617516386,0.0,70.0,255.0,255.0,255.0
164,8.200000000000001,7.906049332557403,-4.245237056066533,-2.4922482327498483,0.09668001954890926,0.06058852415681493,-0.5933654978737746,0.008838190478410723,0.008185598189491827,-0.06577465327683996,0.0,70.0,255.0,255.0,255.0
165,8.25,7.910894198311089,-4.242197318381613,-2.5219986915005164,0.09711728822495047,0.06100442214242108,-0.5966444411053118,0.00901735381209079,0.008301218744577454,-0.06545176616064019,0.0,70.0,255.0,255.0,255.0
166,8.3,7.915761061379898,-4.239136613852291,-2.5519126768603795,0.09758175493011834,0.06141864603127267,-0.5999106744898386,0.009901963179270723,0.008120740100725499,-0.06527218373229005,0.0,70.0,255.0,255.0,255.0
167,8.35,7.920652373804101,-4.236055453778485,-2.5819897589495002,0.09810748454287754,0.06181649615249363,-0.6031716594785408,0.011253423442170174,0.007701044413099822,-0.06522731552416339,0.0,70.0,255.0,255.0,255.0
168,8.4,7.925571809834186,-4.232954964237042,-2.6122298428082336,0.09870709727433535,0.062188750472582655,-0.6064334060422549,0.012634044947557044,0.007159108499710243,-0.06528726318641986,0.0,70.0,255.0,255.0,255.0
169,8.450000000000001,7.930523083531535,-4.229836578731227,-2.6426330995537257,0.09937088903763325,0.06253240700246465,-0.6097003857971828,0.013601919598205114,0.006623309160325164,-0.06541862380062824,0.0,70.0,255.0,255.0,255.0
170,8.5,7.935508898737949,-4.226701723536795,-2.673199881387952,0.10006728923415587,0.06285108138861517,-0.6129752684223178,0.013714408972731462,0.006221251037619169,-0.06559127918963625,0.0,70.0,255.0,255.0,255.0
171,8.55,7.94052981245495,-4.223551470592366,-2.7039306263959575,0.1007423299349064,0.06315453210622657,-0.6162595137161464,0.012764344164128971,0.0060234487939681,-0.06578135360659765,0.0,70.0,255.0,255.0,255.0
172,8.6,7.94558313173144,-4.2203862703261725,-2.7348258327595665,0.10134372365056876,0.06345342626801198,-0.6195534037829775,0.011045856834357437,0.0060064097603174105,-0.06595177712500622,0.0,70.0,255.0,255.0,255.0
173,8.65,7.950664184820007,-4.217206127965564,-2.7658859667742552,0.10184691561834214,0.06375517308225831,-0.622854691428647,0.009122997175481373,0.006108178357511207,-0.06604757951751417,0.0,70.0,255.0,255.0,255.0
174,8.700000000000001,7.955767823293274,-4.214010753017947,-2.797111301902431,0.1022560233681169,0.0640642441037631,-0.6261581617347289,0.007566252340218682,0.006267365635004296,-0.06601136434127852,0.0,70.0,255.0,255.0,255.0
175,8.75,7.960889787156819,-4.210799703555188,-2.828501782947728,0.102603540852364,0.06438190964575874,-0.6294558278627749,0.0069369450296008495,0.0064217957524093094,-0.06578311708049789,0.0,70.0,255.0,255.0,255.0
176,8.8,7.966028177378511,-4.207572562053371,-2.8600568846887087,0.10294971787107698,0.06470642367900403,-0.6327364734427787,0.0075143198388971655,0.006532690830596266,-0.06534188902067584,0.0,70.0,255.0,255.0,255.0
177,8.85,7.971184758943926,-4.204329061187288,-2.891775430292006,0.10335497283625372,0.06503517872881837,-0.6359900167648425,0.009027857844756682,0.006594248947067172,-0.06476734753788627,0.0,70.0,255.0,255.0,255.0
178,8.9,7.976363674662136,-4.201069044180489,-2.923655886365193,0.10385250365555265,0.06536584857371075,-0.6392132081965674,0.01092841856422666,0.006606406509224172,-0.06420148634282974,0.0,70.0,255.0,255.0,255.0
179,8.950000000000001,7.981570009309482,-4.197792476329917,-2.9556967511116627,0.10444781469267639,0.06569581937974078,-0.6424101653991254,0.012660437008005232,0.006561027833029698,-0.06378869272665177,0.0,70.0,255.0,255.0,255.0
180,9.0,7.986808456131404,-4.194499462242515,-2.9878969029051055,0.10511854735635318,0.06602195135701372,-0.6455920774692325,0.013681866853243463,0.006439537979652243,-0.06366823384009734,0.0,70.0,255.0,255.0,255.0
181,9.05,7.992081864045117,-4.191190281194215,-3.020255958858586,0.10581600137800073,0.06633977317770601,-0.6487769887831352,0.01370574244825562,0.006239074596958716,-0.06390488984462372,0.0,70.0,255.0,255.0,255.0
182,9.1,7.997390056269204,-4.187865484924744,-3.052774601783419,0.10648912160117874,0.06664585881670959,-0.6519825664536949,0.012897164001035577,0.006016594452251667,-0.06441435719919397,0.0,70.0,255.0,255.0,255.0
183,9.15,8.002730776205235,-4.184525695312544,-3.0854542155039555,0.10710571777810429,0.06694143262293117,-0.6552184245030546,0.011628037192146223,0.005866195605808144,-0.06503011147498405,0.0,70.0,255.0,255.0,255.0
184,9.200000000000001,8.008100628047014,-4.181171341662451,-3.1182964442337244,0.10765192532039336,0.0672324783772904,-0.6584855776011933,0.0102723725877496,0.005881809745655886,-0.06558109085910147,0.0,70.0,255.0,255.0,255.0
185,9.25,8.013495968737274,-4.177802447474815,-3.151302773264075,0.10813295503687925,0.06752961359749676,-0.6617765335889647,0.009199550261662637,0.006168024356512092,-0.06590795688286022,0.0,70.0,255.0,255.0,255.0
186,9.3,8.018913923550702,-4.1744183803027015,-3.184474097592621,0.10857188034655962,0.06784928081294161,-0.6650763732894793,0.0086210320468183,0.006764810315740277,-0.06592526488753414,0.0,70.0,255.0,255.0,255.0
187,9.35,8.02435315677193,-4.171017519393521,-3.2178104105930228,0.10899505824156108,0.06820609462907079,-0.6683690600777181,0.00849528102264685,0.007537601682461315,-0.06566063159074709,0.0,70.0,255.0,255.0,255.0
188,9.4,8.029813429374858,-4.167597770839794,-3.2513110036003927,0.10942140844882431,0.06860304098118775,-0.671642436448554,0.008690155278046063,0.008249743468358162,-0.0651926598322472,0.0,70.0,255.0,255.0,255.0
189,9.450000000000001,8.035295297616813,-4.164157215295402,-3.284974654237878,0.10986407376936569,0.0690310689759066,-0.6748883260609428,0.009081960752865825,0.00866567257817863,-0.064606943837342,0.0,70.0,255.0,255.0,255.0
190,9.5,8.040799836751795,-4.160694663942204,-3.318799836206487,0.11032960452411089,0.06946960823900561,-0.6781031308322882,0.009535969396701205,0.008548411214093221,-0.06398795727613482,0.0,70.0,255.0,255.0,255.0
191,9.55,8.046328258069224,-4.157210254471502,-3.352784967321107,0.11081767070903581,0.06988591009731593,-0.6812871217885563,0.009965094399433383,0.007794085072632129,-0.06339302496387589,0.0,70.0,255.0,255.0,255.0
192,9.600000000000001,8.051881603822698,-4.153706072932472,-3.3869285483853426,0.11132611396405423,0.07024901674626882,-0.6844424333286758,0.010361805147418579,0.0065992459041375184,-0.06286125163610379,0.0,70.0,255.0,255.0,255.0
193,9.65,8.05746086946563,-4.150185352796875,-3.4212292106539746,0.11185385122377767,0.07054583468772968,-0.6875732469521667,0.010728730972253686,0.0053302617558870224,-0.06244279231983896,0.0,70.0,255.0,255.0,255.0
194,9.700000000000001,8.063066988945076,-4.146651489463699,-3.4556858730805593,0.1123989870612796,0.07078204292185752,-0.6906867125606597,0.011047896288829406,0.004361047727918788,-0.062190108150517176,0.0,70.0,255.0,255.0,255.0
195,9.75,8.068700768171757,-4.143107148504689,-3.4902978819100405,0.11295864085266061,0.07098193946052156,-0.6937922577672184,0.011308506885043812,0.0040663028156195935,-0.062140214012318395,0.0,70.0,255.0,255.0,255.0
196,9.8,8.074362853030342,-4.139553295517647,-3.525065098857281,0.11352983774978398,0.07118867320341948,-0.6969007339618916,0.011505163782743466,0.004625935640412138,-0.06230366089798878,0.0,70.0,255.0,255.0,255.0
197,9.850000000000001,8.080053751946735,-4.135988281184347,-3.5599879553062297,0.11410915723093495,0.07144453302456277,-0.7000226238570173,0.01162020234843908,0.005815531251140982,-0.06265081874134992,0.0,70.0,255.0,255.0,255.0
198,9.9,8.085773768753436,-4.132408842215191,-3.595067361242983,0.11469185798462789,0.07177022632853358,-0.7031658158360266,0.01163221686848459,0.007198253796669718,-0.06311803569016838,0.0,70.0,255.0,255.0,255.0
199,9.950000000000001,8.091522937745198,-4.128811258551494,-3.6303045368898323,0.11527237891778341,0.07216435840422974,-0.7063344274260341,0.011533167380228804,0.008330789190402754,-0.06362693591506208,0.0,70.0,255.0,255.0,255.0
200,10.0,8.097301006645214,-4.125192406374768,-3.6657008039855863,0.11584517472265077,0.07260330524757386,-0.7095285094275328,0.011326040361581136,0.008766424144024398,-0.0641111400542016,0.0,70.0,255.0,255.0,255.0
201,10.05,8.103107455217463,-4.121550928026736,-3.7012573878325856,0.11640498295394153,0.07304100081863218,-0.7127455414314543,0.011019938114564809,0.008282312226182142,-0.06452613097791549,0.0,70.0,255.0,255.0,255.0
202,10.100000000000001,8.108941504940608,-4.117888306292905,-3.7369753581287317,0.11694716853410725,0.07343153647019207,-0.7159811225253243,0.010638224618197967,0.0071094449420883166,-0.06481910976252614,0.0,70.0,255.0,255.0,255.0
203,10.15,8.114802172070874,-4.114207774379717,-3.772855500085118,0.11746880541576132,0.07375194531284102,-0.7192274524077069,0.010223240714246629,0.0057059072060106075,-0.06492058939504552,0.0,70.0,255.0,255.0,255.0
204,10.200000000000001,8.120688385482184,-4.1105131117616205,-3.8088981033695024,0.11796949260553191,0.07400212719079313,-0.7224731814648289,0.009825121836293249,0.0045289423628247505,-0.0647693742966915,0.0,70.0,255.0,255.0,255.0
205,10.25,8.126599121331427,-4.106807561660638,-3.845102818231601,0.11845131759939065,0.07420483954912349,-0.7257043898373761,0.009483368965312877,0.0040359260164102295,-0.064311263066541,0.0,70.0,255.0,255.0,255.0
206,10.3,8.132533517242123,-4.103092627806708,-3.88146854235324,0.1189178295020632,0.07440571979243416,-0.728904307771483,0.00922179704545556,0.00445796230916784,-0.06353699001517832,0.0,70.0,255.0,255.0,255.0
207,10.350000000000001,8.138490904281634,-4.0993669896813945,-3.9179932490087492,0.1193734973039362,0.07465063578004028,-0.7320580888388939,0.009064195216090809,0.005575873130236886,-0.06255535293138159,0.0,70.0,255.0,255.0,255.0
208,10.4,8.144470866972517,-4.095627564228704,-3.9546743512371294,0.11982424902367228,0.07496330710545784,-0.7351598430646211,0.009037524237953676,0.006948933229189436,-0.06155951348980615,0.0,70.0,255.0,255.0,255.0
209,10.450000000000001,8.150473329184,-4.091870658970849,-3.9915092333152113,0.12027724972773157,0.07534552910295922,-0.7382140401878745,0.009159631987465389,0.008140294504244139,-0.060754028437015606,0.0,70.0,255.0,255.0,255.0
210,10.5,8.15649859194529,-4.088093011318408,-4.028495755255917,0.12074021222241882,0.07577733655588226,-0.7412352459083227,0.009444446480344482,0.00872194638281698,-0.06033182632738665,0.0,70.0,255.0,255.0,255.0
211,10.55,8.162547350406243,-4.0842929253152604,-4.065632757906044,0.12122169437576602,0.07621772374124092,-0.7442472228206132,0.009887186058854525,0.008472691684779932,-0.060386421781633004,0.0,70.0,255.0,255.0,255.0
212,10.600000000000001,8.168620761382867,-4.080471238944284,-4.102920477537978,0.12172893082830427,0.07662460572436025,-0.747273888086486,0.010424155357036113,0.007557878388109174,-0.060832299024671244,0.0,70.0,255.0,255.0,255.0
213,10.65,8.174720243489073,-4.076630464742824,-4.140360146714692,0.12226410991146963,0.07697351158005183,-0.7503304527230803,0.010945823171759628,0.006327544026429877,-0.06148769697214007,0.0,70.0,255.0,255.0,255.0
214,10.700000000000001,8.180847172374014,-4.072773887786279,-4.177953522810286,0.12282351314548023,0.07725736012700324,-0.7534226577837,0.011337375854125753,0.0051297397591021365,-0.06215502477608936,0.0,70.0,255.0,255.0,255.0
215,10.75,8.187002594803621,-4.068904728730124,-4.215702412493062,0.12339784749688221,0.07748648555596205,-0.7565459552006892,0.01149483578988253,0.004296241831536207,-0.06262940365138192,0.0,70.0,255.0,255.0,255.0
216,10.8,8.193186957123702,-4.065025239230683,-4.253608118330355,0.12397299672446849,0.07768698431015686,-0.7596855981488382,0.011368945899903338,0.004010618271621524,-0.06279834849927113,0.0,70.0,255.0,255.0,255.0
217,10.850000000000001,8.199399894476068,-4.061136030299108,-4.291670972307946,0.12453474208687254,0.0778875473831242,-0.7628257900506163,0.01100365888060395,0.004223569028916074,-0.06272001973472996,0.0,70.0,255.0,255.0,255.0
218,10.9,8.20564043133239,-4.05723648449237,-4.329890697335417,0.12507336261252888,0.07810934121304847,-0.7659576001223112,0.010495546710487247,0.004790774115370766,-0.06252345153532346,0.0,70.0,255.0,255.0,255.0
219,10.950000000000001,8.21190723073732,-4.053325096177804,-4.368266732320177,0.12558429675792127,0.07836662479466128,-0.7690781352041487,0.00995035177524528,0.0055669469253061266,-0.06233347152644342,0.0,70.0,255.0,255.0,255.0
220,11.0,8.218198861008181,-4.049399822012904,-4.406798510855832,0.1260683977900534,0.07866603590557908,-0.7721909472749555,0.009464229008671055,0.006413086290102399,-0.062290512446683266,0.0,70.0,255.0,255.0,255.0
221,11.05,8.224514070516326,-4.045458492587246,-4.445485827047673,0.12653071965878837,0.07900793342367152,-0.775307186448817,0.009096517520923442,0.007233086976921044,-0.062466244827152906,0.0,70.0,255.0,255.0,255.0
222,11.100000000000001,8.23085193297406,-4.041499028670537,-4.484329229500713,0.12697804954214575,0.07938934460327118,-0.7784375717576708,0.008877572756738061,0.007950642700027544,-0.06276668963565157,0.0,70.0,255.0,255.0,255.0
223,11.15,8.23721187547054,-4.0375195581269185,-4.52332958422344,0.12741847693446218,0.07980299769367427,-0.7815838554123822,0.008836465511130598,0.008464044826972383,-0.06302026844871023,0.0,70.0,255.0,255.0,255.0
224,11.200000000000001,8.243593780667506,-4.03351872890117,-4.5624876150419515,0.12786169609325881,0.08023574908596842,-0.7847395986025418,0.009000704224781941,0.008664011000814043,-0.06307071615792026,0.0,70.0,255.0,255.0,255.0
225,11.25,8.249998045079867,-4.029495983218322,-4.601803544083694,0.12831854735694037,0.08066939879375568,-0.7878909270281742,0.009404238850940771,0.008451413007914965,-0.06276463047738545,0.0,70.0,255.0,255.0,255.0
226,11.3,8.2564256354032,-4.025451789021794,-4.641276707744769,0.1288021199783529,0.08108089038675992,-0.7910160616502804,0.010046009656328181,0.007795495359008697,-0.062035786411485105,0.0,70.0,255.0,255.0,255.0
227,11.350000000000001,8.262878257077702,-4.021387894179646,-4.680905150248722,0.1293231483225732,0.08144894832965655,-0.7940945056693227,0.010805210932218756,0.00681917485669814,-0.061016764846666405,0.0,70.0,255.0,255.0,255.0
228,11.4,8.269357950235458,-4.017306894188828,-4.720686158311701,0.12988264107157477,0.08176280787242973,-0.797117738134947,0.011477752085120585,0.005750249373992489,-0.059953609867768876,0.0,70.0,255.0,255.0,255.0
229,11.450000000000001,8.27586652118486,-4.013211613392403,-4.760616924062217,0.13047092353108525,0.0820239732670558,-0.8000898666560996,0.01185457025361103,0.004835470609609871,-0.059095924913865616,0.0,70.0,255.0,255.0,255.0
230,11.5,8.282405042588566,-4.009104496862123,-4.800695144977311,0.13106809809693587,0.08224635493339072,-0.8030273306263336,0.011726834235581407,0.004313289650337282,-0.058686956319320416,0.0,70.0,255.0,255.0,255.0
231,11.55,8.288973330994553,-4.004986977899064,-4.84091965712485,0.1316436069546434,0.08245530223208952,-0.8059585622880316,0.011005131498542653,0.00430493158658507,-0.05884440906100963,0.0,70.0,255.0,255.0,255.0
232,11.600000000000001,8.29556940328403,-4.000858966638914,-4.881291001206114,0.13216861124679014,0.08267684809204923,-0.8089117715324345,0.00986783059975238,0.004724545985013151,-0.05943907149115191,0.0,70.0,255.0,255.0,255.0
233,11.65,8.302190192119232,-3.9967192930898587,-4.9218108342780935,0.13263039001461863,0.08292775683059084,-0.8119024694371468,0.008647957384155802,0.00538306956583412,-0.06021163240665928,0.0,70.0,255.0,255.0,255.0
234,11.700000000000001,8.308832442285492,-3.9925661909558547,-4.962481248149829,0.13303340698520572,0.08321515504863264,-0.8149329347731005,0.007686562547526421,0.006080819847342767,-0.060892810293555755,0.0,70.0,255.0,255.0,255.0
235,11.75,8.315493532817753,-3.9883977775849955,-5.003304127755404,0.13339904626937127,0.08353583881532511,-0.8179917504665024,0.007316396234635647,0.006615428390155387,-0.06120754424481234,0.0,70.0,255.0,255.0,255.0
236,11.8,8.32217234691243,-3.9842126070743222,-5.044280423196479,0.13376504660866928,0.08387669788764818,-0.8210536891975817,0.007700550596467792,0.006872517222644703,-0.06101380345144847,0.0,70.0,255.0,255.0,255.0
237,11.850000000000001,8.32887003747862,-3.9800101077962307,-5.085409496675162,0.13416910132901805,0.08422309053758958,-0.8240931308116473,0.008673583218410386,0.006887209968420294,-0.06043328951514937,0.0,70.0,255.0,255.0,255.0
238,11.9,8.335589257045331,-3.9757902980205633,-5.126689736277644,0.13463240493051032,0.0845654188844902,-0.8270970181490966,0.009899462666140835,0.006751225276602213,-0.05971268101916394,0.0,70.0,255.0,255.0,255.0
239,11.950000000000001,8.34233327797167,-3.9715535659077816,-5.168119198490071,0.13515904759563213,0.0848982130652498,-0.8300643989135637,0.011033118951075949,0.006548849068321871,-0.0590932068726957,0.0,70.0,255.0,255.0,255.0
240,12.0,8.349105161804895,-3.9673004767140383,-5.209696176169,0.1357357168256179,0.0852203037913224,-0.8330063388363662,0.01173559947442726,0.006364950168613603,-0.0588148014326606,0.0,70.0,255.0,255.0,255.0
241,12.05,8.355906849654232,-3.9630315355286494,-5.251419832373708,0.13633260754307486,0.08553470808211117,-0.8359458790568297,0.01182660550878012,0.0062510601289034184,-0.05900023727276604,0.0,70.0,255.0,255.0,255.0
242,12.100000000000001,8.362738422559202,-3.958747005905827,-5.293290764074683,0.13691837737649593,0.08584540980421274,-0.8389063625636428,0.011406880815378884,0.006205681740700797,-0.059542362523057335,0.0,70.0,255.0,255.0,255.0
243,12.15,8.369598687391882,-3.954446994548228,-5.335310468630072,0.13747329562461275,0.08615527625618125,-0.8419001153091354,0.010704308501807702,0.006213800889520726,-0.06022305144224305,0.0,70.0,255.0,255.0,255.0
244,12.200000000000001,8.376485752121663,-3.950131478280209,-5.377480775605597,0.1379888082266767,0.08646678989316481,-0.8449286677078671,0.00994804789513637,0.006269984345053103,-0.06082778878919726,0.0,70.0,255.0,255.0,255.0
245,12.25,8.38339756821455,-3.9458003155589116,-5.419803335400859,0.13846810041412638,0.08678227469068656,-0.8479828941880552,0.009369177895557357,0.006376798907359316,-0.061149287320194645,0.0,70.0,255.0,255.0,255.0
246,12.3,8.390332562163076,-3.9414532508111404,-5.462279065024402,0.13892572601623243,0.08710446978390074,-0.8510435964398866,0.009098575154808941,0.006529955548462141,-0.061078674031023183,0.0,70.0,255.0,255.0,255.0
247,12.350000000000001,8.397290140816173,-3.9370898685805216,-5.504907695044848,0.13937795792960728,0.08743527024553277,-0.8540907615911575,0.009094324755665184,0.006690063069081376,-0.06068266831853464,0.0,70.0,255.0,255.0,255.0
248,12.4,8.404270357956037,-3.932709723786587,-5.547688141183518,0.13983515849179895,0.08777347609080888,-0.85711186327174,0.009249550413237273,0.006793571165886192,-0.06010970528631532,0.0,70.0,255.0,255.0,255.0
249,12.450000000000001,8.411273656665353,-3.9283125209714407,-5.590618881372022,0.140302912970931,0.08811462736212139,-0.860101732119789,0.009467090400860911,0.006777926837564507,-0.05950892468389313,0.0,70.0,255.0,255.0,255.0
250,12.5,8.41830064925313,-3.923898261050375,-5.633698314395497,0.14078186753188504,0.08845126877456533,-0.8630627557401294,0.009647735562268167,0.006579882173696205,-0.05902403996236316,0.0,70.0,255.0,255.0,255.0
251,12.55,8.425351843418541,-3.919467394093984,-5.676925156946035,0.14126768652715782,0.08877261557949101,-0.8660041361160253,0.009733033266456914,0.0061753181438639615,-0.05873784049574837,0.0,70.0,255.0,255.0,255.0
252,12.600000000000001,8.432427417905846,-3.915020999492426,-5.7202987280071,0.14175517085853073,0.08906880058895172,-0.8689365397897042,0.009736752562972129,0.005635837544604172,-0.058643327839735804,0.0,70.0,255.0,255.0,255.0
253,12.65,8.439527360504394,-3.910560514035089,-5.763818810925005,0.14224136178345503,0.08933619933395143,-0.8718684688999989,0.009695718281399479,0.005090982046107584,-0.058702602936566706,0.0,70.0,255.0,255.0,255.0
254,12.700000000000001,8.446651554084191,-3.9060873795590307,-5.8074855748970995,0.14272474268667068,0.08957789879356248,-0.8748068000833609,0.009637390035699411,0.004671082197615917,-0.05888271294018921,0.0,70.0,255.0,255.0,255.0
255,12.75,8.453799834773061,-3.9016027241557327,-5.851299490933341,0.14320510078702497,0.08980330755371302,-0.8777567401940178,0.009587851884340637,0.004495653749581052,-0.0591625714787547,0.0,70.0,255.0,255.0,255.0
256,12.8,8.460972064162894,-3.8971070488036594,-5.895261248916501,0.14368352787510474,0.09002746416852059,-0.8807230572312363,0.009562578492605667,0.004622571409740317,-0.05951719009464895,0.0,70.0,255.0,255.0,255.0
257,12.850000000000001,8.468168187560572,-3.8925999777388807,-5.939371796656465,0.14416135863628554,0.09026556469468705,-0.8837084592034827,0.009558664992681543,0.0050021112280695945,-0.05986495272347625,0.0,70.0,255.0,255.0,255.0
258,12.9,8.475388200026522,-3.8880804923341907,-5.9836320948368495,0.1446393943743729,0.09052767529132755,-0.886709552503584,0.009567576460334237,0.005526137013411869,-0.06007811140467112,0.0,70.0,255.0,255.0,255.0
259,12.950000000000001,8.48263212699801,-3.883547210209748,-6.028042751906823,0.14511811628231897,0.09081817839602824,-0.8897162703439498,0.009583349457109591,0.006078257192898562,-0.060027449661959054,0.0,70.0,255.0,255.0,255.0
260,13.0,8.489900011654754,-3.878998674494588,-6.0726037218712445,0.14559772932008386,0.0911355010106174,-0.8927122974697799,0.009600856900604526,0.006549484180196075,-0.05957770209512603,0.0,70.0,255.0,255.0,255.0
261,13.05,8.497191899930018,-3.874433660108686,-6.117313981653801,0.14607820197237942,0.09147312681404784,-0.8956740405534624,0.009616652762645117,0.006874909037257737,-0.05867908677164024,0.0,70.0,255.0,255.0,255.0
262,13.100000000000001,8.504507831851992,-3.869851361813183,-6.162171125926591,0.14655939459634837,0.09182299191434318,-0.8985802061469439,0.009628587467247485,0.00703935390671262,-0.05750040438972093,0.0,70.0,255.0,255.0,255.0
263,13.15,8.511847839389652,-3.865251360917252,-6.2071720022684955,0.14704106071910417,0.0921770622047191,-0.9014240809924345,0.009633975876610634,0.007039994375901415,-0.05634308664319576,0.0,70.0,255.0,255.0,255.0
264,13.200000000000001,8.519211937923902,-3.860633655592711,-6.252313534025834,0.14752279218400943,0.09252699135193332,-0.9042145148112635,0.009629212135919829,0.006876401851130254,-0.055513036197929466,0.0,70.0,255.0,255.0,255.0
265,13.25,8.526600118608053,-3.8559986617820585,-6.297593453749622,0.14800398193269615,0.09286470238983213,-0.9069753846122275,0.009608720514187041,0.006550418853601414,-0.05531058284464763,0.0,70.0,255.0,255.0,255.0
266,13.3,8.534012336117172,-3.851347185353728,-6.343011072487057,0.14848366423542814,0.09318203323729346,-0.9097455730957282,0.009570810456338563,0.006076766800378053,-0.05587406188549693,0.0,70.0,255.0,255.0,255.0
267,13.350000000000001,8.541448485031596,-3.846680458458329,-6.388568011059195,0.14896106297833,0.09347237906986994,-0.9125627908007772,0.009526985137497945,0.00552131230633357,-0.057004478668964964,0.0,70.0,255.0,255.0,255.0
268,13.4,8.548908442415005,-3.841999947446741,-6.434267351567135,0.14943636274917793,0.09373416446792682,-0.9154460209626247,0.009496520033103195,0.004994724643658799,-0.058316814750192236,0.0,70.0,255.0,255.0,255.0
269,13.450000000000001,8.556392121306514,-3.8373070420115365,-6.480112613155457,0.14991071498164033,0.09397185153423582,-0.9183944722757964,0.009499801999801605,0.0046151097608859715,-0.05941485775995403,0.0,70.0,255.0,255.0,255.0
270,13.5,8.563899513913169,-3.8326027622933174,-6.526106798794714,0.1503863429491581,0.09419567544401541,-0.9213875067386201,0.009564261042527278,0.004492849729009762,-0.05990798517450102,0.0,70.0,255.0,255.0,255.0
271,13.55,8.57143075560143,-3.827887474467135,-6.572251363829319,0.15086714108589305,0.0944211365071368,-0.9243852707932465,0.009700105412058235,0.004678536582014559,-0.0595980922600603,0.0,70.0,255.0,255.0,255.0
272,13.600000000000001,8.578986228021758,-3.8231606486426037,-6.618545325874039,0.15135635349036392,0.09466352910221687,-0.9273473159646262,0.00986347198317361,0.005110921344231301,-0.05865249678533857,0.0,70.0,255.0,255.0,255.0
273,13.65,8.586566390950466,-3.8184211215569133,-6.664986095425782,0.15185348828421041,0.09493222864155992,-0.9302505204717804,0.009979943990678919,0.0056647434130141505,-0.05741883850545193,0.0,70.0,255.0,255.0,255.0
274,13.700000000000001,8.59417157685018,-3.8136674257784478,-6.711570377921217,0.1523543478894318,0.09523000344351829,-0.9330891998151714,0.009978293151569062,0.006203671925364418,-0.05624739290226444,0.0,70.0,255.0,255.0,255.0
275,13.75,8.60180182573941,-3.8088981212125614,-6.758295015407299,0.15285131759936732,0.09555259583409637,-0.9358752597620068,0.009786263287026031,0.006590163582531616,-0.055477429837669234,0.0,70.0,255.0,255.0,255.0
276,13.8,8.609456708610116,-3.804112166195038,-6.805157903897418,0.1533329742181344,0.09588901980177145,-0.9386369427989383,0.00937496836126428,0.006749599691824315,-0.05529291639279066,0.0,70.0,255.0,255.0,255.0
277,13.850000000000001,8.617135123161223,-3.7993092192323843,-6.852158709687193,0.15378881443549375,0.0962275558032788,-0.9414045514012859,0.008820898493056006,0.006718638680069944,-0.05561648990015655,0.0,70.0,255.0,255.0,255.0
278,13.9,8.624835590053666,-3.7944894106147102,-6.899298359037546,0.15421506406744,0.09656088366977844,-0.9441985917889539,0.00826277160292932,0.006581826180296346,-0.05625771467903107,0.0,70.0,255.0,255.0,255.0
279,13.950000000000001,8.632556629567967,-3.7896531308654064,-6.946578568866088,0.15461509159578668,0.09688573842130843,-0.947030322869189,0.00783979928513645,0.006424002071714341,-0.0570284843840696,0.0,70.0,255.0,255.0,255.0
280,14.0,8.640297099213244,-3.7848008367725794,-6.994001391324465,0.15499904399595366,0.09720328387694988,-0.9499014402273609,0.0076826671614682596,0.006338477292988642,-0.057754323445458056,0.0,70.0,255.0,255.0,255.0
281,14.05,8.648056533967562,-3.7799328024777115,-7.041568712888824,0.1553833583119335,0.0975195861506073,-0.9528057552137348,0.007853820677716783,0.006375838543037915,-0.05832469438278309,0.0,70.0,255.0,255.0,255.0
282,14.100000000000001,8.655835435044438,-3.7750488781575187,-7.089281966845839,0.15578442606372533,0.09784086773125367,-0.9557339096656392,0.008288458521299447,0.006493591534129095,-0.05868611237991317,0.0,70.0,255.0,255.0,255.0
283,14.15,8.663634976573935,-3.770148715704586,-7.137142103855388,0.15621220416406345,0.0981689453040202,-0.9586743664517261,0.00885260596099613,0.00660972342809707,-0.058784055692751025,0.0,70.0,255.0,255.0,255.0
284,14.200000000000001,8.671456655460844,-3.7652319836271166,-7.185149403491011,0.15666968665982495,0.09850184007406337,-0.9616123152349143,0.009403022527543214,0.00665323354089864,-0.058559695202120565,0.0,70.0,255.0,255.0,255.0
285,14.25,8.679301945239917,-3.7602985316971798,-7.23330333537888,0.15715250641681777,0.09883426865811007,-0.9645303359719382,0.009795049419203394,0.006559983189502461,-0.05794928570406199,0.0,70.0,255.0,255.0,255.0
286,14.3,8.687171906102526,-3.7553485567613056,-7.281602437088205,0.1576491916017453,0.09915783839301362,-0.9674072438053205,0.009950261747526667,0.006299959888611539,-0.056946767614007854,0.0,70.0,255.0,255.0,255.0
287,14.350000000000001,8.695066864400092,-3.7503827478578784,-7.330044059759412,0.15814753259157044,0.09946426464697122,-0.9702250127333389,0.009908903784783263,0.005908766745399419,-0.055721671303565756,0.0,70.0,255.0,255.0,255.0
288,14.4,8.702986659361683,-3.7454021302966085,-7.378624938361539,0.1586400819802236,0.09974871506755356,-0.9729794109356771,0.009762329030138517,0.0054583477069325426,-0.0545659693102607,0.0,70.0,255.0,255.0,255.0
289,14.450000000000001,8.710930872598114,-3.740407876351123,-7.427342000852979,0.1591237654945843,0.10001009941766448,-0.975681609664365,0.009601910138812286,0.005022550943944992,-0.053784483058372246,0.0,70.0,255.0,255.0,255.0
290,14.5,8.718899035911141,-3.735401120354842,-7.4761930993279755,0.15960027299410484,0.10025097016194806,-0.9783578592415143,0.009529116512574376,0.004665599272613008,-0.05368452441425475,0.0,70.0,255.0,255.0,255.0
291,14.55,8.726890899897525,-3.7303827793349282,-7.525177786777131,0.16007667714584173,0.10047665934492578,-0.9810500621057905,0.009597906225167208,0.004424321902130046,-0.05440254751620799,0.0,70.0,255.0,255.0,255.0
292,14.600000000000001,8.734906703625725,-3.7253534544203495,-7.5742981055385545,0.16056006361662156,0.10069340235216107,-0.9837981139931351,0.009754993939203871,0.004308637522054681,-0.05569825135713913,0.0,70.0,255.0,255.0,255.0
293,14.65,8.742946906259187,-3.720313439099712,-7.623557598176444,0.16105217653976212,0.10090752309713125,-0.9866198872415044,0.009899849480454748,0.004319589707213467,-0.05711933979357653,0.0,70.0,255.0,255.0,255.0
294,14.700000000000001,8.751011921279702,-3.7152627021106364,-7.672960094262705,0.16155004856466704,0.10112536132288241,-0.9895100479724928,0.009942250670036401,0.004449849396159777,-0.05820353806544887,0.0,70.0,255.0,255.0,255.0
295,14.75,8.759101911115653,-3.710200902967424,-7.722508602973694,0.16204640160676576,0.10135250803674722,-0.9924402410480493,0.009792540473796407,0.004681582423815556,-0.05849266325768099,0.0,70.0,255.0,255.0,255.0
296,14.8,8.767216561440378,-3.7051274513069616,-7.77220411836751,0.16252930261204668,0.10159351956526397,-0.9953593142982609,0.009411027104633263,0.004997064857148459,-0.05776266936070584,0.0,70.0,255.0,255.0,255.0
297,14.850000000000001,8.775354841376858,-3.7000415510108975,-7.82204453440352,0.16298750431722908,0.10185221452246207,-0.9982165079841199,0.008872892022004919,0.005375844005683916,-0.05625791068144537,0.0,70.0,255.0,255.0,255.0
298,14.9,8.783515311872101,-3.6949422298547154,-7.872025769165922,0.16341659181424717,0.10213110396583236,-1.0009851053664054,0.008317340646790683,0.005782454303426832,-0.05446492326353081,0.0,70.0,255.0,255.0,255.0
299,14.950000000000001,8.791696500558283,-3.6898284406143143,-7.92214304494016,0.16381923838190815,0.10243045995280475,-1.003663000310473,0.00788186107154587,0.006172363825873717,-0.05287399871223286,0.0,70.0,255.0,255.0,255.0
300,15.0,8.799897235710292,-3.684699183859435,-7.972392069196969,0.16420477792140176,0.10274834034841973,-1.0062725052376287,0.007692702944517293,0.006512033736116862,-0.05195675728666416,0.0,70.0,255.0,255.0,255.0
301,15.05,8.808116978350423,-3.6795536065794723,-8.022770295463923,0.16458850867635988,0.10308166332641644,-1.0088586760391394,0.0078117848913095145,0.006780705382380958,-0.0519599218939959,0.0,70.0,255.0,255.0,255.0
302,15.100000000000001,8.816356086577928,-3.6743910175267933,-8.073277936800883,0.1649859564105327,0.10342641088665783,-1.0114684974270283,0.0081889624492959,0.006950690417983907,-0.05273658610445153,0.0,70.0,255.0,255.0,255.0
303,15.15,8.824615573991476,-3.6692109654908065,-8.123917145206626,0.16540740492128947,0.10377673236821483,-1.0141323346495845,0.00871442429524194,0.006987889116505386,-0.053954486966034665,0.0,70.0,255.0,255.0,255.0
304,15.200000000000001,8.832896827070057,-3.664013344289972,-8.174691170265842,0.1658573988400569,0.10412519979830837,-1.0168639461236317,0.009270817863260561,0.006867408587218904,-0.055273893658025486,0.0,70.0,255.0,255.0,255.0
305,15.25,8.841201313875482,-3.6587984455109757,-8.225603539818989,0.16633448670761553,0.10446347322693672,-1.019659724015387,0.009748629100592154,0.006566319927747699,-0.05636431691957711,0.0,70.0,255.0,255.0,255.0
306,15.3,8.849530275740818,-3.653566996967278,-8.27665714266738,0.16683226175011612,0.10478183179108314,-1.0225003778155894,0.010082346151563115,0.006085801258803869,-0.05703260809895028,0.0,70.0,255.0,255.0,255.0
307,15.350000000000001,8.857884540050494,-3.6483202623318673,-8.327853577600548,0.16734272132277184,0.10507205335281711,-1.025362984825282,0.01025489454491435,0.005502233483190011,-0.05728395002915221,0.0,70.0,255.0,255.0,255.0
308,15.4,8.866264547873095,-3.6430597916319964,-8.379193441149908,0.16785775120460755,0.10533205513940214,-1.0282287728185047,0.01026048664680701,0.004946828391272362,-0.057186406261244827,0.0,70.0,255.0,255.0,255.0
309,15.450000000000001,8.874670315170954,-3.637787056817927,-8.430676454882398,0.16836876998745254,0.10556673619194434,-1.0310816254514066,0.010095380295460643,0.00455697618422235,-0.05680525183020535,0.0,70.0,255.0,255.0,255.0
310,15.5,8.88310142487184,-3.632503118012802,-8.48230160369505,0.16886728923415362,0.10578775275782437,-1.0339092980015252,0.00975678997647833,0.004466695877303195,-0.05622196571106741,0.0,70.0,255.0,255.0,255.0
311,15.55,8.89155704409437,-3.6272082815421447,-8.534067384682551,0.16934444898510037,0.10601340577967466,-1.0367038220225133,0.009257804861562136,0.004736602402788392,-0.05550088114159024,0.0,70.0,255.0,255.0,255.0
312,15.600000000000001,8.90003586977035,-3.6219017774348345,-8.5859719858973,0.16979306972030983,0.10626141299810321,-1.0394593861156842,0.008672298533163314,0.005275900124379618,-0.05468929210117324,0.0,70.0,255.0,255.0,255.0
313,15.65,8.9085363510664,-3.6165821402423344,-8.63801332329412,0.1702116788384167,0.10654099579211262,-1.0421727512326306,0.008124468277515007,0.005908433682000336,-0.053861566311042,0.0,70.0,255.0,255.0,255.0
314,15.700000000000001,8.917057037654192,-3.6112476778556233,-8.690189261020564,0.17060551654806133,0.10685225636630324,-1.0448455427467884,0.0077466353129551635,0.006451912783145275,-0.05311647431138766,0.0,70.0,255.0,255.0,255.0
315,15.75,8.925596902721207,-3.605896914605704,-8.742497877568798,0.17098634236971222,0.10718618707042715,-1.0474843986637694,0.007668220318990393,0.006730905887231131,-0.05253989482678634,0.0,70.0,255.0,255.0,255.0
316,15.8,8.934155671891164,-3.6005290591485806,-8.79493770088694,0.17137233857996037,0.10752534695502636,-1.050099532229467,0.007946947223658185,0.006654502416880703,-0.05217729390984971,0.0,70.0,255.0,255.0,255.0
317,15.850000000000001,8.942734136579203,-3.5951443799102014,-8.847507830791745,0.17178103709207804,0.10785163731211522,-1.0527021280547544,0.008491435796287305,0.006279573944523165,-0.05203347364322042,0.0,70.0,255.0,255.0,255.0
318,15.9,8.951333775600371,-3.589743895417369,-8.900207913692416,0.1722214821595891,0.10815330434947867,-1.055302879593789,0.009125276604926569,0.0057340289552954005,-0.05209273641852974,0.0,70.0,255.0,255.0,255.0
319,15.950000000000001,8.959956284795162,-3.5843290494752535,-8.953038118751124,0.1726935647525707,0.10842504020764476,-1.0579114016966074,0.009665304561146115,0.005148659396825295,-0.05232213763513016,0.0,70.0,255.0,255.0,255.0
320,16.0,8.968603132075629,-3.5789013913966046,-9.005999053862077,0.1731880126157037,0.1086681702891612,-1.0605350933573021,0.009934338074479854,0.004645671249736694,-0.05267840836147286,0.0,70.0,255.0,255.0,255.0
321,16.05,8.977275086056732,-3.5734622324463374,-9.059091628086854,0.17368699856001868,0.10888960733261843,-1.0631792425327546,0.009841119530662468,0.004298161822324786,-0.05312476839520741,0.0,70.0,255.0,255.0,255.0
322,16.1,8.98597183193163,-3.5680124306633427,-9.112316978115352,0.17417212456876996,0.10909798647139368,-1.0658475701968229,0.009447366204895502,0.004122167733777715,-0.053616906567910405,0.0,70.0,255.0,255.0,255.0
323,16.150000000000002,8.994692298513609,-3.562552433799198,-9.165676385106536,0.17463173518050823,0.1093018241059962,-1.0685409331895457,0.008889017376212394,0.004119926021139975,-0.054084877291948885,0.0,70.0,255.0,255.0,255.0
324,16.2,9.003435005449681,-3.557082248252743,-9.219171071434307,0.1750610263063912,0.10950997907350768,-1.0712560579260177,0.008305433156685638,0.004292936809635606,-0.05444980032081048,0.0,70.0,255.0,255.0,255.0
325,16.25,9.012198401144248,-3.5516014358918473,-9.272801990899138,0.1754622784961768,0.10973111778695976,-1.0739859132216267,0.007830418060450484,0.004642399789789309,-0.05465043443049211,0.0,70.0,255.0,255.0,255.0
326,16.3,9.020981233299299,-3.546109136474047,-9.32656966275647,0.17584406811243625,0.10997421905248661,-1.076721101369067,0.0075413485463471375,0.005153875934160723,-0.05465640640398561,0.0,70.0,255.0,255.0,255.0
327,16.35,9.029782807955492,-3.5406040139865986,-9.380474101036045,0.1762164133508115,0.11024650538037584,-1.0794515538620253,0.0074354630203998795,0.005750915959668035,-0.05446337561085812,0.0,70.0,255.0,255.0,255.0
328,16.400000000000002,9.03860287463438,-3.5350844859360095,-9.434514818142672,0.17658761441447623,0.11054931064845341,-1.0821674389301528,0.007483129414431744,0.006305427799846441,-0.054084118049857466,0.0,70.0,255.0,255.0,255.0
329,16.45,9.04744156939694,-3.5295490829217533,-9.48869084492906,0.17696472629225468,0.11087704816036048,-1.084859965667011,0.007652449990303012,0.0066806190059054416,-0.05354486154622862,0.0,70.0,255.0,255.0,255.0
330,16.5,9.056299347263606,-3.5239967811199735,-9.543000814709373,0.17735285941350654,0.11121737254904396,-1.0875219250847756,0.00789998036001549,0.006740720266540379,-0.052859900534585336,0.0,70.0,255.0,255.0,255.0
331,16.55,9.06517685533829,-3.518427345666849,-9.597443037437538,0.17775472432825623,0.11155112018701452,-1.0901459557204696,0.008194511925907477,0.006425821619870931,-0.0520552936364993,0.0,70.0,255.0,255.0,255.0
332,16.6,9.074074819696431,-3.512841669101272,-9.65201541028142,0.17817231060609728,0.11185995471103105,-1.0927274544484256,0.008529942553359149,0.005838643952316147,-0.05124772618838591,0.0,70.0,255.0,255.0,255.0
333,16.650000000000002,9.0829940863989,-3.507241350195746,-9.70671578288238,0.17860771858359215,0.11213498458224613,-1.0952707283393082,0.008897625804848985,0.005174726416434794,-0.05062219363143328,0.0,70.0,255.0,255.0,255.0
334,16.7,9.09193559155479,-3.5016281706430474,-9.76154248311535,0.17906207318658218,0.11237742735267453,-1.097789673811569,0.009279079234225662,0.004637361059600664,-0.050363014565313335,0.0,70.0,255.0,255.0,255.0
335,16.75,9.100900293717558,-3.4960036074604783,-9.816494750263537,0.1795356265070147,0.1125987206882062,-1.1003070297958395,0.009673623203987347,0.004430709819525092,-0.05065793545782071,0.0,70.0,255.0,255.0,255.0
336,16.8,9.109889154205492,-3.490368298574227,-9.871573186094935,0.18002943550698092,0.11282049833462704,-1.102855467357351,0.010073890464923352,0.004656124299318165,-0.05157724422613086,0.0,70.0,255.0,255.0,255.0
337,16.85,9.118903237268256,-3.4847215576270156,-9.926780296999272,0.18054301555350705,0.11306433311813802,-1.1054647542184526,0.010407470728779344,0.005209100306036163,-0.052900404951472524,0.0,70.0,255.0,255.0,255.0
338,16.900000000000002,9.127943455760843,-3.479061865262413,-9.98211966151678,0.18107018257985885,0.11334140836523066,-1.1081455078524982,0.010563663403218015,0.005881074460090119,-0.0542299046271566,0.0,70.0,255.0,255.0,255.0
339,16.95,9.137010255526242,-3.4733874167904926,-10.037594847784522,0.18159938189382885,0.11365244056414703,-1.1108877446811682,0.010444659644726073,0.006463363329167748,-0.055158045227976515,0.0,70.0,255.0,255.0,255.0
340,17.0,9.146103393950225,-3.4676966212059983,-10.093208435984897,0.18211464854433146,0.11398774469814743,-1.1136613123752959,0.009953592092593055,0.0067524777512595335,-0.05528038560491666,0.0,70.0,255.0,255.0,255.0
341,17.05,9.155221720380675,-3.461988642320678,-10.148960979022052,0.18259474110308815,0.11432768833927298,-1.11641578324166,0.009061814327893103,0.006643107756421074,-0.05440813039072623,0.0,70.0,255.0,255.0,255.0
342,17.1,9.164362868060534,-3.456263852372071,-10.204850014309063,0.18302082997712077,0.11465205547378954,-1.1191021254143685,0.007922785253278164,0.006210362749259346,-0.0528023090193841,0.0,70.0,255.0,255.0,255.0
343,17.150000000000002,9.173523803378387,-3.450523436773299,-10.260871191563488,0.18338701962841597,0.11494872461419892,-1.1216960141435983,0.006807627341487432,0.005615567817329747,-0.050968211170321354,0.0,70.0,255.0,255.0,255.0
344,17.2,9.182701570023376,-3.444768979910651,-10.317019615723423,0.1837015927112695,0.11521361225552251,-1.1241989465314006,0.005994030438039033,0.005022472336602135,-0.04942363902049607,0.0,70.0,255.0,255.0,255.0
345,17.25,9.191893962649514,-3.4390020755477466,-10.373291086216629,0.18398642267221987,0.11545097184785913,-1.126638378045648,0.005747999102823087,0.00459536985131237,-0.048684484826644336,0.0,70.0,255.0,255.0,255.0
346,17.3,9.201100212290598,-3.433223882725865,-10.429683453527987,0.18427639262155182,0.11567314924065375,-1.129067395014065,0.006193164578860433,0.004424218568122029,-0.04901009435105408,0.0,70.0,255.0,255.0,255.0
347,17.35,9.21032160191167,-3.4274347606236812,-10.486197825718035,0.18460573913010592,0.11589339370467133,-1.1315393874807533,0.007172437208069482,0.00446581233375376,-0.05015683915807756,0.0,70.0,255.0,255.0,255.0
348,17.400000000000002,9.219560786203608,-3.421634543355398,-10.542837392276063,0.18499363634235877,0.11611973047402913,-1.1340830789298728,0.00837309995773694,0.004621129794912804,-0.051630770505717294,0.0,70.0,255.0,255.0,255.0
349,17.45,9.228820965545905,-3.4158227875762783,-10.599606133611022,0.1854430491258796,0.11635550668416261,-1.136702464531325,0.009466957530435138,0.00479294779016648,-0.05293425183552358,0.0,70.0,255.0,255.0,255.0
350,17.5,9.238105091116196,-3.409998992686982,-10.656507638729195,0.18594033209540228,0.11659902525304577,-1.1393765041134252,0.01013040217223704,0.00487406149116687,-0.05356974035546358,0.0,70.0,255.0,255.0,255.0
351,17.55,9.247414998755445,-3.4041628850509738,-10.713543784022365,0.18645608934310332,0.1168429128332793,-1.1420594385668714,0.010192753464721704,0.004807244078897099,-0.05327885817205669,0.0,70.0,255.0,255.0,255.0
352,17.6,9.256750700050507,-3.398314701403654,-10.770713582585882,0.18695960744187445,0.11707974966093548,-1.1447043899306308,0.009756510203651203,0.004647320317241466,-0.05226208260094012,0.0,70.0,255.0,255.0,255.0
353,17.650000000000002,9.266110959499633,-3.39245491008488,-10.828014223015428,0.18743174036346844,0.11730764486500345,-1.1472856468269654,0.009050089377105053,0.004498141440878456,-0.05093611939575027,0.0,70.0,255.0,255.0,255.0
354,17.7,9.275493874086854,-3.3865839369171535,-10.885442147268579,0.18786461637958496,0.11752956380502333,-1.1497980018702059,0.008305225687266216,0.004452822749412277,-0.049713013310181964,0.0,70.0,255.0,255.0,255.0
355,17.75,9.284897421137591,-3.380701953704378,-10.942994023202449,0.18826226293219506,0.11775292713994467,-1.1522569481579836,0.007758364237275828,0.004604328240009892,-0.04900447915723305,0.0,70.0,255.0,255.0,255.0
356,17.8,9.294320100380073,-3.374808644203159,-11.000667842084377,0.18864045280331254,0.11798999662902432,-1.1546984497859292,0.00754136934819627,0.0049938913635028115,-0.049027106993015934,0.0,70.0,255.0,255.0,255.0
357,17.85,9.303761466417923,-3.3689029540414754,-11.058463868181041,0.18901639986701468,0.11825231627629496,-1.1571596588572852,0.007596953211397306,0.005543134835583885,-0.04962578615153035,0.0,70.0,255.0,255.0,255.0
358,17.900000000000002,9.313221740366775,-3.3629834125755296,-11.116383807970106,0.18940014812445227,0.11854431011258271,-1.1596610284010822,0.007792789619998075,0.006107236842600727,-0.05047463536129726,0.0,70.0,255.0,255.0,255.0
359,17.95,9.322701481230368,-3.357048523030217,-11.17442997102115,0.1897956788290145,0.11886303996055503,-1.162207122393415,0.008004540653949732,0.006542987319457794,-0.051253321962541065,0.0,70.0,255.0,255.0,255.0
360,18.0,9.332201308249676,-3.351097108579474,-11.232604520209447,0.19020060218984725,0.11919860884452849,-1.1647863605973363,0.008096187498018992,0.006716644196647081,-0.0516363989603974,0.0,70.0,255.0,255.0,255.0
361,18.05,9.341721541449353,-3.3451286621457643,-11.290908607080883,0.1906052975788164,0.11953470438021974,-1.1673707622894547,0.007995708536157053,0.006563390933100877,-0.051453366535270106,0.0,70.0,255.0,255.0,255.0
362,18.1,9.351261838007558,-3.339143638141452,-11.349341596438393,0.19100017304346295,0.11985494793783857,-1.1699316972508633,0.00777660935220581,0.006144615865144587,-0.050841113120014825,0.0,70.0,255.0,255.0,255.0
363,18.150000000000002,9.360821558753699,-3.3331431673519805,-11.40790177680597,0.19138295851403697,0.1201491659667342,-1.1724548736014562,0.0075769805812697655,0.005589274825323898,-0.05007815967257301,0.0,70.0,255.0,255.0,255.0
364,18.2,9.370400133858961,-3.3271287215447787,-11.466587083798538,0.19175787110158993,0.12041387542037096,-1.1749395132181206,0.007523697943945251,0.0050347151521190625,-0.0494340717983377,0.0,70.0,255.0,255.0,255.0
365,18.25,9.379997345863858,-3.3211017798099434,-11.525395728127782,0.1921353283084315,0.1206526374819461,-1.17739828078129,0.007752829826124241,0.004617113621296909,-0.049181859734126476,0.0,70.0,255.0,255.0,255.0
366,18.3,9.389613666689804,-3.315063457796584,-11.584326911876667,0.19253315408420235,0.12087558678250065,-1.1798576991915333,0.008322882753297733,0.004412032083633832,-0.0494592870060373,0.0,70.0,255.0,255.0,255.0
367,18.35,9.399250661272278,-3.3090142211316933,-11.643381498046935,0.19296761658376127,0.12109384069030948,-1.1823442094818937,0.009094837818146573,0.004394765340176576,-0.050124353442271286,0.0,70.0,255.0,255.0,255.0
368,18.400000000000002,9.40891042834818,-3.302954073727553,-11.702561332824857,0.193442637866017,0.12131506331651831,-1.1848701345357604,0.009820220456724371,0.004500139380514412,-0.05089813387471054,0.0,70.0,255.0,255.0,255.0
369,18.45,9.41859492505888,-3.2968827148000415,-11.761868511500511,0.1939496386294337,0.12154385462836093,-1.1874340228693647,0.01025460696517655,0.004664352538252814,-0.05151053070449052,0.0,70.0,255.0,255.0,255.0
370,18.5,9.428305392211124,-3.290799688264717,-11.821304735111793,0.19446809856253466,0.1217814985703436,-1.1900211876062095,0.010152539818086836,0.004822919966107619,-0.05170422737048597,0.0,70.0,255.0,255.0,255.0
371,18.55,9.438041734915133,-3.284704564943007,-11.880870630261132,0.1949648926112424,0.12202614662497169,-1.1926044456064133,0.009405161381259575,0.004935706839859222,-0.051349112480458814,0.0,70.0,255.0,255.0,255.0
372,18.6,9.447801881472248,-3.27859707360222,-11.940565179672435,0.19540861470066062,0.12227506925432952,-1.1951560988542553,0.008210286460830218,0.004997255175176463,-0.05054865259879193,0.0,70.0,255.0,255.0,255.0
373,18.650000000000002,9.4575825963852,-3.272477058017574,-12.000386240146558,0.1957859212573254,0.12252587214248933,-1.1976593108662925,0.006937568827503071,0.005008396090522282,-0.04952296450255744,0.0,70.0,255.0,255.0,255.0
374,18.7,9.46738047359798,-3.266344486387971,-12.060331110759064,0.19610237158341093,0.12277590886338174,-1.200108395304511,0.005963421981114436,0.004961674228676216,-0.0484965792754366,0.0,70.0,255.0,255.0,255.0
375,18.75,9.47719283354354,-3.260199467131236,-12.120397079677009,0.19638226345543686,0.12302203956535696,-1.2025089687938362,0.005664982930575491,0.004839178542059841,-0.047681230781648765,0.0,70.0,255.0,255.0,255.0
376,18.8,9.487018699943524,-3.2540422824314352,-12.180582007638447,0.19666886987646848,0.12325982671758773,-1.204876518382676,0.006223557967821591,0.004638427270053924,-0.04719703696647315,0.0,70.0,255.0,255.0,255.0
377,18.85,9.496859720531187,-3.247873484459477,-12.240884731515276,0.19700461925221902,0.12348588229236235,-1.2072286724904835,0.007414132887895164,0.004416213959457238,-0.04703469583926534,0.0,70.0,255.0,255.0,255.0
378,18.900000000000002,9.506719161868746,-3.241693694202199,-12.301304874887496,0.197410283165258,0.12370144811353345,-1.2095799879666025,0.008798548523003547,0.004266276257691715,-0.04713718760136487,0.0,70.0,255.0,255.0,255.0
379,18.95,9.516600748847713,-3.235503339648124,-12.361842730311936,0.19788447410451937,0.12391250991813152,-1.21194239125062,0.009932357792230562,0.004282237260477828,-0.047442639370132156,0.0,70.0,255.0,255.0,255.0
380,19.0,9.526507609279198,-3.229302443210386,-12.422499114012558,0.19840351894448105,0.12412967183958123,-1.2143242519036157,0.010367575080394431,0.004568337893440244,-0.04788283085321865,0.0,70.0,255.0,255.0,255.0
381,19.05,9.536441100742161,-3.2230903724641657,-12.483275155502298,0.1989212316125588,0.12436934370747554,-1.2167306743359418,0.009880746606150126,0.0051643836131543,-0.04840427811725334,0.0,70.0,255.0,255.0,255.0
382,19.1,9.546399732440454,-3.2168655088396383,-12.544172181446152,0.19939159360509606,0.12464611020089666,-1.219164679715341,0.008703997836789767,0.005936117425120457,-0.048952657287237855,0.0,70.0,255.0,255.0,255.0
383,19.150000000000002,9.55638026010267,-3.210625761444076,-12.605191623473832,0.1997916313962378,0.12496295544998759,-1.2216259400646656,0.007297421230312295,0.00664743128031553,-0.04944567436933056,0.0,70.0,255.0,255.0,255.0
384,19.200000000000003,9.566378895580078,-3.2043692132946395,-12.666334775452619,0.2001213357281273,0.12531085332892822,-1.224109247152274,0.006120293705080826,0.00706331612372324,-0.04978768841716885,0.0,70.0,255.0,255.0,255.0
385,19.25,9.576392393675484,-3.1980946761111833,-12.72760254818906,0.20040366076674587,0.1256692870623599,-1.2266047089063825,0.005632642155006806,0.0069475165039190045,-0.04989140850817364,0.0,70.0,255.0,255.0,255.0
386,19.3,9.586419261656753,-3.1918022845884035,-12.788995246343257,0.20068459994362797,0.12600560497932012,-1.2290983880030915,0.006066602459497972,0.006196439208983051,-0.04971862445728448,0.0,70.0,255.0,255.0,255.0
387,19.35,9.596460853669846,-3.1854941156132512,-12.850512386989369,0.20101032101269567,0.12628893098325822,-1.231576571352111,0.007199059914775319,0.005005563426285775,-0.04931915053933977,0.0,70.0,255.0,255.0,255.0
388,19.400000000000002,9.606520293758022,-3.1791733914900777,-12.912152903478468,0.2014045059351055,0.1265061613219487,-1.2340303030570254,0.008582582406369,0.0037394298570969653,-0.04879647855808855,0.0,70.0,255.0,255.0,255.0
389,19.450000000000003,9.616601304263357,-3.1728434994810564,-12.973915417295071,0.20186857925333257,0.12666287396896792,-1.2364562192079198,0.00977332053544444,0.0027700460304203034,-0.048266094137972004,0.0,70.0,255.0,255.0,255.0
390,19.5,9.626707151683355,-3.166507104093181,-13.03579852539926,0.20238183798864995,0.12678316592499073,-1.2388569124708226,0.010333930891626153,0.002469568118712573,-0.04783955376161941,0.0,70.0,255.0,255.0,255.0
391,19.55,9.636839488062222,-3.1601651828885573,-13.097801108542154,0.20290197234249518,0.12690983078083917,-1.2412401745840818,0.01003969670154703,0.0030169457971851443,-0.04758071123269758,0.0,70.0,255.0,255.0,255.0
392,19.6,9.646997348917605,-3.153816121015097,-13.159922542857668,0.20338580765880465,0.12708486050470924,-1.2436149835940924,0.009070578355263592,0.004191745420056847,-0.04748710419271163,0.0,70.0,255.0,255.0,255.0
393,19.650000000000002,9.657178068828102,-3.1474566968380864,-13.222162606901563,0.20380903017802154,0.12732900532284486,-1.245988885003353,0.007801433292264903,0.0055638935809287915,-0.04753288692391777,0.0,70.0,255.0,255.0,255.0
394,19.700000000000003,9.667378251935407,-3.1410832204828125,-13.284521431358003,0.20416595098803114,0.12764124986280212,-1.2483682722864842,0.0066062842940084465,0.00669715243524216,-0.04769413549627899,0.0,70.0,255.0,255.0,255.0
395,19.75,9.677594663926905,-3.134692571851806,-13.346999434130211,0.2044696586074224,0.12799872056636907,-1.2507582985529808,0.005851587660465896,0.007154257641506234,-0.04795839509377231,0.0,70.0,255.0,255.0,255.0
396,19.8,9.68782521779615,-3.1282833484261756,-13.409597261213301,0.20475110975407773,0.12835667562695274,-1.2531641117958614,0.005733958052367427,0.006715917461752596,-0.04830575671910253,0.0,70.0,255.0,255.0,255.0
397,19.85,9.698069774902313,-3.121856904289111,-13.472315845309797,0.20504305441265913,0.12867031231254433,-1.255588874224891,0.006149582374703755,0.005598270744044953,-0.04865336508927953,0.0,70.0,255.0,255.0,255.0
398,19.900000000000002,9.708329523237415,-3.115416317194921,-13.53515614863579,0.2053660679915481,0.12891650270135724,-1.2580294483047894,0.006861567874061336,0.0042341799690426285,-0.04887020218600213,0.0,70.0,255.0,255.0,255.0
399,19.950000000000003,9.718606381701468,-3.108965254018975,-13.598118790140276,0.20572921120006527,0.1290937303094486,-1.2604758944434913,0.007634456039973259,0.0030544910818885995,-0.04882458998487493,0.0,70.0,255.0,255.0,255.0
400,20.0,9.728902444357422,-3.1025069441639763,-13.66120373808014,0.20612951359554543,0.1292219518095461,-1.2629119073032768,0.008231746440579002,0.0024813267229806257,-0.0483788938336005,0.0,70.0,255.0,255.0,255.0
401,20.05,9.739219333061023,-3.0960430588380206,-13.724409980870604,0.20655238584412317,0.12934186298174666,-1.2653137838268513,0.008518923304912107,0.002732531208593514,-0.04748194953680951,0.0,70.0,255.0,255.0,255.0
402,20.1,9.749557682941834,-3.0895727578658017,-13.787735116462825,0.20698140592603664,0.12949520493040545,-1.2676601022569578,0.008535660908393083,0.0036443557529519666,-0.046302978572398956,0.0,70.0,255.0,255.0,255.0
403,20.150000000000002,9.759917473653626,-3.08309353834498,-13.8511759910963,0.20740595193496247,0.12970629855704185,-1.2699440816840912,0.008386048123298906,0.004870202393947309,-0.045144439530631075,0.0,70.0,255.0,255.0,255.0
404,20.200000000000003,9.77029827813533,-3.0766021280100975,-13.914729524631234,0.20782001073836653,0.12998222516980018,-1.272174546210021,0.008163490614521152,0.00606502309739021,-0.0443130523517965,0.0,70.0,255.0,255.0,255.0
405,20.25,9.780699474727463,-3.070095315828,-13.978393445717302,0.2082223009964146,0.13031280086678088,-1.2743753869192709,0.00796137996008639,0.0069004820866247485,-0.04410999227566492,0.0,70.0,255.0,255.0,255.0
406,20.3,9.791120508234972,-3.0635708479234194,-14.042167063323161,0.20861614873437517,0.13067227337846266,-1.2765855454375874,0.007836409333705774,0.0071946103845643705,-0.0446740442018978,0.0,70.0,255.0,255.0,255.0
407,20.35,9.8015610896009,-3.0570280884901537,-14.10605200026106,0.20900594192978517,0.1310322619052373,-1.2788427913394607,0.007786841588952598,0.006993350533290865,-0.045805769570606,0.0,70.0,255.0,255.0,255.0
408,20.400000000000002,9.81202110242795,-3.0504676217328957,-14.170051342457107,0.20939483289327043,0.13137160843179174,-1.281166122394648,0.0077960111948272015,0.006435127004955632,-0.04711931241878631,0.0,70.0,255.0,255.0,255.0
409,20.450000000000003,9.822500572890227,-3.0438909276469746,-14.234168612500525,0.2097855430492679,0.13167577460573288,-1.2835547225813393,0.007857781969455857,0.00565921606248132,-0.048217652824611434,0.0,70.0,255.0,255.0,255.0
410,20.5,9.832999656732877,-3.0373000442723224,-14.298406814715241,0.21018061109021602,0.13193753003803987,-1.2859878876771091,0.007974761691720289,0.004796744930768426,-0.04870915570993617,0.0,70.0,255.0,255.0,255.0
411,20.55,9.843518633999249,-3.0306971746431706,-14.362767401268236,0.21058301921843992,0.13215544909880972,-1.288425638152333,0.008142152646328782,0.003940775504673866,-0.048395300227710436,0.0,70.0,255.0,255.0,255.0
412,20.6,9.854057958654721,-3.0240844993624414,-14.427249378530474,0.2109948263548489,0.13233160758850726,-1.2908274176998802,0.00831697273504517,0.003179444911260987,-0.047444758997805536,0.0,70.0,255.0,255.0,255.0
413,20.650000000000002,9.864618116634734,-3.01746401388432,-14.491850143038224,0.21141471649194443,0.13247339358993582,-1.2931701140521135,0.008429907096818567,0.0026346042713676354,-0.0462074949444613,0.0,70.0,255.0,255.0,255.0
414,20.700000000000003,9.875199430303915,-3.010837160003448,-14.556566389935686,0.21183781706453075,0.13259506801564402,-1.2954481671943263,0.008412094794785219,0.0024365741909448957,-0.045036196487657776,0.0,70.0,255.0,255.0,255.0
415,20.75,9.885801898341187,-3.0042045070827554,-14.621394959757657,0.21225592597142295,0.1327170510090303,-1.2976737337008792,0.008191601246032576,0.0027125381905523938,-0.04427333826324542,0.0,70.0,255.0,255.0,255.0
416,20.8,9.896425022901058,-2.997565454902545,-14.686333763305774,0.212656977189134,0.13286632183469926,-1.2998755010206509,0.007741180547071735,0.003503826058359749,-0.04410410220767602,0.0,70.0,255.0,255.0,255.0
417,20.85,9.9070675960601,-2.9909178748992855,-14.751382509859722,0.21303004402613013,0.13306743361486628,-1.3020841439216468,0.007147039031352165,0.00464355513618564,-0.04444615014875808,0.0,70.0,255.0,255.0,255.0
418,20.900000000000002,9.91772802730367,-2.984258711541058,-14.816542177697938,0.21337168109226923,0.13333067734831783,-1.3043201160355267,0.0065634280165483005,0.0058292531121661995,-0.04510059125308885,0.0,70.0,255.0,255.0,255.0
419,20.950000000000003,9.928404764169327,-2.9775848071644537,-14.881814521463275,0.21368638682778496,0.1336503589260829,-1.3065942030469557,0.006146612744650781,0.006742738922360658,-0.04587047497928154,0.0,70.0,255.0,255.0,255.0
420,21.0,9.93909666598645,-2.97089367564845,-14.947201598002634,0.2139863423667343,0.1340049512405539,-1.3089071635334548,0.006050814676505922,0.007073102307364465,-0.046569519210137855,0.0,70.0,255.0,255.0,255.0
421,21.05,9.949803398406,-2.9641843120403983,-15.01270523781662,0.21429146829543555,0.13435766915681935,-1.3112511549679695,0.006346924699229817,0.006670120727614304,-0.04708274315490257,0.0,70.0,255.0,255.0,255.0
422,21.1,9.960525812815993,-2.957457908732768,-15.07832671349943,0.2146210348366573,0.13467196331331532,-1.313615437848945,0.006930395614901386,0.005696217993866881,-0.047375209170219534,0.0,70.0,255.0,255.0,255.0
423,21.150000000000002,9.971265501889667,-2.950717115709067,-15.144066781601515,0.2149845078569257,0.13492729095620604,-1.3159886758849915,0.0076000172015255885,0.004479338991147941,-0.04742389295717686,0.0,70.0,255.0,255.0,255.0
424,21.200000000000003,9.982024263601685,-2.9439651796371473,-15.20992558108793,0.21538103655680985,0.13511989721243012,-1.3183578271446628,0.008148680334052472,0.0033585307255279417,-0.04720292923803271,0.0,70.0,255.0,255.0,255.0
425,21.25,9.992803605545348,-2.937205125987824,-15.275902564315981,0.21579937589033094,0.13526314402875883,-1.3207089688087947,0.008369149371389994,0.0026670339320133962,-0.04669259422058758,0.0,70.0,255.0,255.0,255.0
426,21.3,10.003604201190718,-2.9304388652342714,-15.34199647796881,0.21621795149394885,0.13538660060563146,-1.3230270865667215,0.008157833942412651,0.002581751637054097,-0.04590338670862337,0.0,70.0,255.0,255.0,255.0
427,21.35,10.014425400694742,-2.9236664659272606,-15.408205272972653,0.2166151592845722,0.13552131919246424,-1.325299307479657,0.007616786433750633,0.0030025285993051654,-0.04493562389260575,0.0,70.0,255.0,255.0,255.0
428,21.400000000000002,10.025265717119176,-2.916886733315025,-15.474526408716775,0.2169796301373239,0.13568685346556197,-1.327520648955982,0.006951095252638595,0.0037032743733789175,-0.04396374368020872,0.0,70.0,255.0,255.0,255.0
429,21.450000000000003,10.036123363708475,-2.9100977805807045,-15.540957337868251,0.21731026880983606,0.13589164662980213,-1.329695681847678,0.006365239346450835,0.004456051928292126,-0.043176269607947404,0.0,70.0,255.0,255.0,255.0
430,21.5,10.04699674400016,-2.903297568652045,-15.607495976901543,0.217616154071969,0.1361324586583912,-1.3318382759167768,0.006056550541444494,0.005030789936499858,-0.042748122554669976,0.0,70.0,255.0,255.0,255.0
431,21.55,10.057884979115672,-2.8964845347148653,-15.674141165459929,0.2179159238639805,0.13639472562345212,-1.333970494103145,0.006128312957365267,0.005297324938657866,-0.04276422282885051,0.0,70.0,255.0,255.0,255.0
432,21.6,10.068788336386557,-2.8896580960896996,-15.740893026311857,0.21822898536770552,0.13666219115225697,-1.3361146981996619,0.006517050724141882,0.00529823637345217,-0.04315511577264175,0.0,70.0,255.0,255.0,255.0
433,21.650000000000002,10.079707877652442,-2.8828183155996396,-15.807752635279895,0.2185676289363947,0.13692454926079733,-1.3382860056804091,0.007081009713694186,0.005141316429035925,-0.043767472652511685,0.0,70.0,255.0,255.0,255.0
434,21.700000000000003,10.090645099280197,-2.87596564116362,-15.874721626879898,0.21893708633907494,0.13717632279516057,-1.340491445464913,0.007677075567080749,0.004924860628685579,-0.044432505150204804,0.0,70.0,255.0,255.0,255.0
435,21.75,10.10160158628635,-2.8691006833201236,-15.941801779826386,0.21933533649310277,0.1374170353236659,-1.3427292561954296,0.008168657785567746,0.004749759701905276,-0.04498288758458813,0.0,70.0,255.0,255.0,255.0
436,21.8,10.112578632929507,-2.8622239376312533,-16.00899455249944,0.2197539521176317,0.1376512987653511,-1.3449897342233719,0.008476140335567095,0.004675009214993864,-0.04532074761716132,0.0,70.0,255.0,255.0,255.0
437,21.85,10.123576981498113,-2.8553355534435885,-16.076300753248724,0.22018295052665948,0.13788453624516528,-1.3472613309571457,0.008598647035462648,0.004683593506404904,-0.04544848178280603,0.0,70.0,255.0,255.0,255.0
438,21.900000000000002,10.134596927982173,-2.8484354840067367,-16.143720685595156,0.22061381682117798,0.13811965811599158,-1.3495345824016525,0.008560390367762238,0.004733231471787391,-0.04540011862417259,0.0,70.0,255.0,255.0,255.0
439,21.950000000000003,10.14563836318023,-2.8415235876319893,-16.21125421148889,0.2210389895634357,0.13835785939234402,-1.351801342819563,0.008386971203577787,0.0047907060228169485,-0.04520802214607045,0.0,70.0,255.0,255.0,255.0
440,22.0,10.156700826938517,-2.8345996980675023,-16.278900819877112,0.22145251394153576,0.13859872871827328,-1.3540553846162595,0.008112827640260889,0.004822199227927371,-0.04491230845751204,0.0,70.0,255.0,255.0,255.0
441,22.05,10.167783614574384,-2.827663714760162,-16.346659749950515,0.2218502723274618,0.13884007931513676,-1.3562925736653142,0.00776610006081313,0.0048093514881664134,-0.044545047773780766,0.0,70.0,255.0,255.0,255.0
442,22.1,10.178885854171263,-2.8207156901359887,-16.414530077243644,0.22222912394761707,0.13907966386708992,-1.3585098893936376,0.0073692002963809955,0.004767389601090244,-0.0441317962575738,0.0,70.0,255.0,255.0,255.0
443,22.150000000000002,10.190006526969146,-2.813755748373453,-16.48251073888988,0.2225871923570999,0.13931681827524578,-1.3607057532910716,0.0069582679756763355,0.004725757683621268,-0.04371289201188233,0.0,70.0,255.0,255.0,255.0
444,22.200000000000003,10.201144573406973,-2.806784008308464,-16.55060065257275,0.2229249507451847,0.13955223963545205,-1.3628811785948258,0.006580727263738595,0.004712315279986612,-0.04334109391308516,0.0,70.0,255.0,255.0,255.0
445,22.25,10.212299022043664,-2.799800524409908,-16.61879885674936,0.22324526508347375,0.13978804980324444,-1.36503986268238,0.006276068950050728,0.004761443386325226,-0.04306391588180247,0.0,70.0,255.0,255.0,255.0
446,22.3,10.22346909991532,-2.7928052033281396,-16.68710463884099,0.22355255764018978,0.14002838397408457,-1.367187570183006,0.006066172706198358,0.004887584832369285,-0.042905774571266875,0.0,70.0,255.0,255.0,255.0
447,22.35,10.234654277807683,-2.7857976860124993,-16.755517613767662,0.2238518823540936,0.14027680828648137,-1.3693304401395068,0.00596184781525011,0.005046848089484968,-0.04286162922468861,0.0,70.0,255.0,255.0,255.0
448,22.400000000000002,10.24585428815073,-2.7787775224994915,-16.82403768285494,0.2241487424217148,0.14053306878303307,-1.371473733105475,0.00596924169453672,0.005163737793667522,-0.042911017293434384,0.0,70.0,255.0,255.0,255.0
449,22.450000000000003,10.257069152049855,-2.771744379134196,-16.89266498707821,0.22444880652354726,0.14079318206584812,-1.3736215418688502,0.00608340645555927,0.005166746144080747,-0.04302760220298296,0.0,70.0,255.0,255.0,255.0
450,22.5,10.268299168803084,-2.7646982042929067,-16.961399837041824,0.2247570830672707,0.14104974339744114,-1.3757764933257732,0.0062868592619835795,0.004984055198686832,-0.043188018690187846,0.0,70.0,255.0,255.0,255.0
451,22.55,10.279544860356582,-2.757639404794452,-17.030242636410787,0.22507749244974562,0.1412915875857168,-1.377940343737869,0.0065635214683723575,0.004586509648341064,-0.04337236675766576,0.0,70.0,255.0,255.0,255.0
452,22.6,10.290806918048059,-2.750569045534335,-17.09919387141561,0.22541343521410795,0.14150839436227525,-1.3801137300015398,0.00690256928095323,0.0040469896028572094,-0.04354261924319758,0.0,70.0,255.0,255.0,255.0
453,22.650000000000002,10.302086203877993,-2.7434885653582244,-17.16825400941094,0.22576774937784094,0.14169628654600253,-1.3822946056621888,0.007283926085577264,0.0034983587409609385,-0.043641267254912464,0.0,70.0,255.0,255.0,255.0
454,22.700000000000003,10.313383692985843,-2.7363994168797348,-17.23742333198183,0.22614182782266568,0.14185823023637134,-1.384477856727031,0.00767995927066778,0.0030734740366078483,-0.04360901009903273,0.0,70.0,255.0,255.0,255.0
455,22.75,10.32470038666026,-2.7293027423345873,-17.306701795083644,0.22653574530490772,0.1420036339496633,-1.386655506672092,0.008080456704639971,0.002894317170554217,-0.04338400935672837,0.0,70.0,255.0,255.0,255.0
456,22.8,10.336037267516334,-2.7221990534847684,-17.37608888264904,0.22694987349312967,0.14214766195342676,-1.388816257662704,0.008473028131739113,0.003020176108181616,-0.042944245575071704,0.0,70.0,255.0,255.0,255.0
457,22.85,10.347395374009572,-2.7150879761392446,-17.445583420849914,0.22738304811808163,0.14230565156048147,-1.3909499312295992,0.008790579024342549,0.0034007179746886607,-0.0423696653630401,0.0,70.0,255.0,255.0,255.0
458,22.900000000000002,10.358775572328142,-2.7079684883287203,-17.515183875772,0.22782893139556393,0.14248773375089563,-1.393053224199008,0.008932350002233136,0.0039264636057634306,-0.041802981285243845,0.0,70.0,255.0,255.0,255.0
459,22.950000000000003,10.370178267149129,-2.700839202764155,-17.584888743269815,0.22827628311830495,0.14269829792105782,-1.3951302293581236,0.00881018303626746,0.004479870530227359,-0.04138913129594357,0.0,70.0,255.0,255.0,255.0
460,23.0,10.381603200639972,-2.6936986585366145,-17.65469689870781,0.22870994969919067,0.14293572080391836,-1.3971921373286023,0.008339379185429152,0.004950657470947917,-0.041267925236354586,0.0,70.0,255.0,255.0,255.0
461,23.05,10.393049262119048,-2.686545630683763,-17.724607957002675,0.22911022103684786,0.1431933636681526,-1.399257021881759,0.007496254114869316,0.0052732987394499276,-0.04150445047628182,0.0,70.0,255.0,255.0,255.0
462,23.1,10.404514222743657,-2.6793793221697992,-17.794622600895988,0.2294595751106776,0.14346305067786336,-1.4013425823762304,0.006417725345997383,0.005433774862373397,-0.04201424377860974,0.0,70.0,255.0,255.0,255.0
463,23.150000000000002,10.415995219630116,-2.672199325615977,-17.864742215240298,0.2297519935714476,0.14373674115438995,-1.40345844625962,0.005346580667264789,0.005431311311321352,-0.04263044396495275,0.0,70.0,255.0,255.0,255.0
464,23.200000000000003,10.427489422100802,-2.6650056480543602,-17.93496844552195,0.22999423317740408,0.1440061818089955,-1.4056056267727257,0.004531056834267133,0.005267556662902351,-0.04318169082644374,0.0,70.0,255.0,255.0,255.0
465,23.25,10.438994642947856,-2.6577987074350773,-18.00530277791757,0.2302050992548743,0.14426349682068018,-1.4077766153422644,0.004198017228063122,0.004947062269655689,-0.04350829902293185,0.0,70.0,255.0,255.0,255.0
466,23.3,10.45050993202629,-2.6505792983722922,-18.075746107056176,0.2304140349002104,0.14450088803596106,-1.409956456675019,0.004456267763330857,0.004485603292891938,-0.043524665806415896,0.0,70.0,255.0,255.0,255.0
467,23.35,10.462036046437877,-2.643348618631481,-18.146298423585073,0.2306507260312074,0.14471205714996938,-1.412129081922906,0.00520956854419552,0.003945021736662113,-0.04325876744850632,0.0,70.0,255.0,255.0,255.0
468,23.400000000000002,10.47357500462941,-2.6361080926572953,-18.216959015248467,0.23093499175462995,0.14489539020962727,-1.4142823334198695,0.006248600058000875,0.0034291303100175696,-0.042789834927958736,0.0,70.0,255.0,255.0,255.0
469,23.450000000000003,10.48512954561334,-2.6288590796105185,-18.28772665692706,0.23127558603700749,0.14505497018097113,-1.4164080654157019,0.00734661526546887,0.0030488771773917733,-0.04220410540014541,0.0,70.0,255.0,255.0,255.0
470,23.5,10.49670256323311,-2.621602595639198,-18.358599821790037,0.23166965328117683,0.14520027792736645,-1.418502743959884,0.008292514604768542,0.0029051027742532654,-0.04158689732136622,0.0,70.0,255.0,255.0,255.0
471,23.55,10.508296510941458,-2.614339051817782,-18.429576931323048,0.23210483749748434,0.14534548045839646,-1.4205667551478385,0.008959700475230647,0.003044800909357548,-0.04099586065500205,0.0,70.0,255.0,255.0,255.0
472,23.6,10.51991304698286,-2.6070680475933585,-18.50065649730482,0.2325656233286999,0.1455047580183022,-1.4226023300253843,0.009311273205625525,0.003421662666491798,-0.040468821624628504,0.0,70.0,255.0,255.0,255.0
473,23.650000000000002,10.531553073274328,-2.5997885760159516,-18.571837164325586,0.2330359648180469,0.14568764672504564,-1.4246136373103013,0.009330068050950047,0.003935803812371574,-0.04005375944622358,0.0,70.0,255.0,255.0,255.0
474,23.700000000000003,10.543216643464664,-2.592499282920854,-18.64311786103585,0.2334986301337949,0.14589833839953936,-1.4266077059700066,0.00900350774326597,0.004477447448136829,-0.03980086193209331,0.0,70.0,255.0,255.0,255.0
475,23.75,10.554902936287707,-2.5851987421759977,-18.714497934922587,0.2339363155923735,0.14613539146985932,-1.4285937235035107,0.008319943000323349,0.004944507984872004,-0.03974411169274106,0.0,70.0,255.0,255.0,255.0
476,23.8,10.566610275023901,-2.577885743773868,-18.785977233386202,0.23433062443382724,0.14639278919802656,-1.4305821171392807,0.007302879055259837,0.0052757058903285525,-0.039892917214245927,0.0,70.0,255.0,255.0,255.0
477,23.85,10.57833599873109,-2.570559463256195,-18.857556146636515,0.23466660349789947,0.14666296205889218,-1.4325830152249353,0.006107016956136135,0.005451963961400352,-0.04022240292904655,0.0,70.0,255.0,255.0,255.0
478,23.900000000000002,10.590076935373691,-2.563219447567979,-18.929235534908695,0.23494132612944085,0.1469379855941666,-1.4346043574321854,0.004992806058012889,0.005463178915787736,-0.04067699209144848,0.0,70.0,255.0,255.0,255.0
479,23.950000000000003,10.601830131344034,-2.5558656646967783,-19.001016582379734,0.23516588410370076,0.14720927995047095,-1.43665071443408,0.004237302478138361,0.005301845850258502,-0.0411867592262638,0.0,70.0,255.0,255.0,255.0
480,24.0,10.613593523784061,-2.5484985195729317,-19.072900606352103,0.2353650563772547,0.14746817017919245,-1.4387230333548118,0.004115732042642151,0.004960874610260291,-0.04169660928567964,0.0,70.0,255.0,255.0,255.0
481,24.05,10.62536663698176,-2.541118847678859,-19.144888885715215,0.23557745730796498,0.14770536741149698,-1.440820375362648,0.004749808944914946,0.004451349888690004,-0.04216627002264772,0.0,70.0,255.0,255.0,255.0
482,24.1,10.637151269514858,-2.533727982831782,-19.216982643888368,0.23584003727174618,0.14791330516806145,-1.4429396603570765,0.005931707921824625,0.003851320648884382,-0.042525203022236724,0.0,70.0,255.0,255.0,255.0
483,24.150000000000002,10.648950640708934,-2.526327517162053,-19.289182851750923,0.23617062810014744,0.14809049947638542,-1.4450728956648717,0.007265980444159936,0.0032923196850997982,-0.0426737966609636,0.0,70.0,255.0,255.0,255.0
484,24.200000000000003,10.660768332324873,-2.5189189328841435,-19.361489933454855,0.23656663531616218,0.14824253713657143,-1.447207040023173,0.008341734558214853,0.002914143509791245,-0.042519327271861584,0.0,70.0,255.0,255.0,255.0
485,24.25,10.67260730424055,-2.511503263448396,-19.43390355575324,0.23700480155596892,0.14838191382736454,-1.449324828392058,0.008745147477284831,0.0028560028979995877,-0.041965488464512646,0.0,70.0,255.0,255.0,255.0
486,24.3,10.68446881248047,-2.504080741501407,-19.50642241629406,0.23744115006389066,0.1485281374263714,-1.4514035888696242,0.008271311737750864,0.0031794073751090224,-0.0409871775207904,0.0,70.0,255.0,255.0,255.0
487,24.35,10.69635141924694,-2.4966504497057587,-19.579043914640202,0.237831932729744,0.14869985456487544,-1.453423546144137,0.007136967207799216,0.003778277918842221,-0.03975939569897946,0.0,70.0,255.0,255.0,255.0
488,24.400000000000002,10.708252005753444,-2.4892107560449195,-19.651764770908475,0.23815484678467058,0.1489059652182556,-1.4553795284395221,0.0057724563149008645,0.004451178708020365,-0.0385877280216107,0.0,70.0,255.0,255.0,255.0
489,24.450000000000003,10.720166903925406,-2.481759853183933,-19.724581867484154,0.2384091783612341,0.14914497243567748,-1.457282318946298,0.004608906142244962,0.004988806217687269,-0.03778767994262466,0.0,70.0,255.0,255.0,255.0
490,24.5,10.732092923589567,-2.4742962588013517,-19.797493002803105,0.23861573739889508,0.14940484584002434,-1.4591582964337846,0.004071603456878847,0.005179123121212825,-0.03767742753559844,0.0,70.0,255.0,255.0,255.0
491,24.55,10.744028477665296,-2.4668193685999307,-19.870497697127533,0.23881633870692198,0.14966288474779876,-1.4610500616998578,0.004378090958390146,0.004917733897435994,-0.03839933224654146,0.0,70.0,255.0,255.0,255.0
492,24.6,10.75597455746026,-2.459329970326572,-19.94359800897309,0.2390535464947341,0.14989661922976794,-1.4629982296584387,0.0053496073956438295,0.004320975601546095,-0.03970826312915676,0.0,70.0,255.0,255.0,255.0
493,24.650000000000002,10.76793383231477,-2.451829706676954,-20.016797520093377,0.23935129944648637,0.15009498230795337,-1.4650208880127735,0.0066150101449835574,0.0036175575577779284,-0.041142563979690294,0.0,70.0,255.0,255.0,255.0
494,24.700000000000003,10.779909687404908,-2.4443204720957765,-20.090100097774368,0.23971504750923245,0.15025837498554573,-1.4671124860564078,0.007802780733712211,0.0030372050457305733,-0.04223111846108907,0.0,70.0,255.0,255.0,255.0
495,24.75,10.791905337065693,-2.4368038691783993,-20.163508768699018,0.2401315775198576,0.15039870281252643,-1.4692439998588824,0.008548485315351684,0.002811467320729122,-0.04250484801282539,0.0,70.0,255.0,255.0,255.0
496,24.8,10.803922845156894,-2.429280601814524,-20.237024497760256,0.24056989604076762,0.15053952171761864,-1.4713629708576903,0.008656977109033903,0.003056230462039622,-0.04173512053142758,0.0,70.0,255.0,255.0,255.0
497,24.85,10.81596232666977,-2.4217499170066374,-20.310645065784787,0.24099727523076098,0.1507043258587304,-1.4734175119120252,0.00823364749926725,0.0036524117499325826,-0.04018013919910857,0.0,70.0,255.0,255.0,255.0
498,24.900000000000002,10.82802257267997,-2.414210169228651,-20.38436624895146,0.24139326079069434,0.1509047628926119,-1.4753809847776012,0.00751761965389619,0.004363998986045559,-0.03835026780869555,0.0,70.0,255.0,255.0,255.0
499,24.950000000000003,10.840101652748839,-2.4066594407173763,-20.458183164262547,0.2417490371961506,0.15114072575733495,-1.4772525386928947,0.006747057170564119,0.004955800172457003,-0.03676048024345846,0.0,70.0,255.0,255.0,255.0
500,25.0,10.852197476399585,-2.3990960966529173,-20.532091502820748,0.24206796650775075,0.1514003429098576,-1.479057032801947,0.006162427309774898,0.005191044891850183,-0.03591511514535739,0.0,70.0,255.0,255.0,255.0
501,25.05,10.864308449399614,-2.3915194064263905,-20.60608886754274,0.24236527992712809,0.15165983024651997,-1.4808440502074305,0.005899548390431164,0.0049507708280494,-0.036073332481478815,0.0,70.0,255.0,255.0,255.0
502,25.1,10.876434004392298,-2.3839301136282653,-20.68017590784149,0.24265792134679387,0.15189541999266254,-1.4826643660500949,0.005911233844457797,0.004354785324522936,-0.03703766026035282,0.0,70.0,255.0,255.0,255.0
503,25.150000000000002,10.888574241534293,-2.3763298644271242,-20.75435530414775,0.24295640331157387,0.15209530877897226,-1.4845478162334658,0.006080758325310853,0.003641038572599342,-0.03838988460174164,0.0,70.0,255.0,255.0,255.0
504,25.200000000000003,10.900729644723455,-2.368720582750368,-20.828630689464838,0.24326599717932496,0.15225952384992247,-1.486503354510269,0.006301391515961541,0.003046167690357038,-0.0397071004250904,0.0,70.0,255.0,255.0,255.0
505,25.25,10.912900841252226,-2.361103912042132,-20.903005639598778,0.24358654246317002,0.15239992554800796,-1.4885185262759748,0.006461852066053098,0.00280831581576102,-0.0405707286976309,0.0,70.0,255.0,255.0,255.0
506,25.3,10.925088298969772,-2.3534805901955673,-20.977482542092435,0.24391218238593027,0.15254035543149858,-1.4905604273800321,0.006498768722451587,0.003047259652966261,-0.040752715043623766,0.0,70.0,255.0,255.0,255.0
507,25.35,10.937292059490819,-2.345849876498982,-21.05206168233678,0.24423641933541518,0.1527046515133046,-1.4925937977803372,0.006442349523538837,0.0036430390265795864,-0.040359196448847,0.0,70.0,255.0,255.0,255.0
508,25.400000000000002,10.949511940903314,-2.338210125044237,-21.12674192187047,0.24455641733828415,0.15290465933415653,-1.4945963470249168,0.0063575754836620035,0.00435725464873471,-0.03963853877486656,0.0,70.0,255.0,255.0,255.0
509,25.450000000000003,10.961747701224647,-2.3305594105655665,-21.201521317039273,0.24487217688378138,0.15314037697817806,-1.4965576516578238,0.006301176300382849,0.004952955639359047,-0.03883200384038332,0.0,70.0,255.0,255.0,255.0
510,25.5,10.973999158591692,-2.322896087346419,-21.27639768703625,0.24518653496832243,0.15339995489809244,-1.4984795474089552,0.006338136453720722,0.005191729141129642,-0.03817791411719895,0.0,70.0,255.0,255.0,255.0
511,25.55,10.98626635472148,-2.3152194150757572,-21.351369271780168,0.24550599052915345,0.15365954989229103,-1.5003754430695437,0.006498663431742102,0.0049536171338626644,-0.03781464184200445,0.0,70.0,255.0,255.0,255.0
512,25.6,10.998549757644607,-2.30753013235719,-21.426435231343206,0.24583640131149664,0.1538953166114787,-1.5022610115931556,0.006719368060714714,0.004358466494203128,-0.037720985179845457,0.0,70.0,255.0,255.0,255.0
513,25.650000000000002,11.010849994852629,-2.2998298834146094,-21.501595372939484,0.24617792733522492,0.15409539654171134,-1.5041475415875283,0.006888939740612443,0.0036445349068436883,-0.03782220738663966,0.0,70.0,255.0,255.0,255.0
514,25.700000000000003,11.02316755037813,-2.292120592703019,-21.57684998550196,0.2465252952855579,0.15425977010216307,-1.5060432323318196,0.0069006165700713495,0.0030485831792770313,-0.038057285148340725,0.0,70.0,255.0,255.0,255.0
515,25.75,11.035502524381185,-2.284403906404393,-21.652199696172666,0.24686798899223206,0.15440025485963904,-1.5079532701023624,0.006637630091432811,0.0028087303237445127,-0.03837766145160515,0.0,70.0,255.0,255.0,255.0
516,25.8,11.047854349277353,-2.276680567217055,-21.727645312512195,0.24718905829470117,0.15454064313453753,-1.50988099847698,0.006052778017284766,0.003044845237853977,-0.03874265698016188,0.0,70.0,255.0,255.0,255.0
517,25.85,11.060221430210655,-2.2689498420909393,-21.803187796020364,0.24747326679396053,0.15470473938342444,-1.5118275358003785,0.0052819497946998695,0.003637687071122997,-0.039077795232245194,0.0,70.0,255.0,255.0,255.0
518,25.900000000000002,11.072601675956749,-2.2612100932787125,-21.878828066092233,0.24771725327417116,0.15490441184164983,-1.5137887780002046,0.00456573315190667,0.004350013649778717,-0.0392708601189895,0.0,70.0,255.0,255.0,255.0
519,25.950000000000003,11.084993155538072,-2.2534594009067743,-21.954566673820384,0.2479298401091512,0.1551397407484023,-1.5157546218122775,0.004142418026020778,0.004946138217265528,-0.039206081675402515,0.0,70.0,255.0,255.0,255.0
520,26.0,11.097394659967664,-2.2456961192038722,-22.03040352827346,0.24813149507677323,0.15539902566337638,-1.5177093861677449,0.004251296561363915,0.0051893868595609405,-0.03876346804609909,0.0,70.0,255.0,255.0,255.0
521,26.05,11.10980630504575,-2.2379194983404367,-22.10633761243716,0.2483549697652876,0.1556586794343584,-1.5196309686168874,0.004997823566377235,0.0049604284877435845,-0.037900417882852366,0.0,70.0,255.0,255.0,255.0
522,26.1,11.122230156944193,-2.2301302512604364,-22.18236662513515,0.24863127743341096,0.15589506851215074,-1.52149942795603,0.006186585673084721,0.004376193146882201,-0.03677137701600941,0.0,70.0,255.0,255.0,255.0
523,26.150000000000002,11.13466943278909,-2.2223299914892216,-22.25848755523276,0.24897362833259606,0.15609629874904662,-1.5233081063184883,0.007452696415555238,0.0036700025691782656,-0.03565248733323756,0.0,70.0,255.0,255.0,255.0
524,26.200000000000003,11.147127519777452,-2.2145206213855317,-22.334697435766998,0.24937654707496648,0.15626206876906856,-1.5250646766893539,0.00842416354114306,0.0030734373781537982,-0.03482393593436939,0.0,70.0,255.0,255.0,255.0
525,26.25,11.159607087496587,-2.2067037846123148,-22.410994022901697,0.24981604468671037,0.156403642486862,-1.5267904999119253,0.008729211635127854,0.0028176849412364646,-0.0345524290697341,0.0,70.0,255.0,255.0,255.0
526,26.3,11.172109124246123,-2.1988802571368455,-22.48737648575819,0.25024946823847927,0.1565438372631922,-1.5285199195963273,0.008188841469625174,0.00302001423748699,-0.03496327055891868,0.0,70.0,255.0,255.0,255.0
527,26.35,11.184632034320435,-2.1910494008859955,-22.56384601486133,0.2506349288336729,0.1567056439106107,-1.5302868269678171,0.007021590964484403,0.003572132416351792,-0.0359077456540291,0.0,70.0,255.0,255.0,255.0
528,26.400000000000002,11.19717261712949,-2.1832096927457845,-22.640405168454972,0.2509516273349277,0.1569010505048274,-1.5321106941617302,0.005654436896840309,0.0042553839993519915,-0.037086463272473225,0.0,70.0,255.0,255.0,255.0
529,26.450000000000003,11.209727197053928,-2.175359295835513,-22.717057084277503,0.2512003725233569,0.1571311823105459,-1.5339954732950645,0.004520275128250262,0.004853538843585525,-0.03818591351567591,0.0,70.0,255.0,255.0,255.0
530,26.5,11.222292654381826,-2.16749657451473,-22.79380471578448,0.25140365484775273,0.15738640438918594,-1.5359292855132978,0.004051810278404844,0.0051559106709397895,-0.03890280634983867,0.0,70.0,255.0,255.0,255.0
531,26.55,11.234867562538703,-2.159620655396594,-22.870650012828833,0.2516055535511974,0.15764677337763988,-1.5378857539300483,0.004466670694469599,0.005052941135552658,-0.039073725987748276,0.0,70.0,255.0,255.0,255.0
532,26.6,11.247453209736946,-2.151731897176966,-22.947593291177483,0.2518503219171997,0.1578916985027412,-1.5398366581120726,0.005556234618531164,0.004620685113643219,-0.03876668465991884,0.0,70.0,255.0,255.0,255.0
533,26.650000000000002,11.260052594730423,-2.14383148554632,-23.02463367864004,0.2521611770130505,0.1581088418890042,-1.5417624223960402,0.00690037184778447,0.004023053508239727,-0.03815177612871423,0.0,70.0,255.0,255.0,255.0
534,26.700000000000003,11.272669327438251,-2.1359210129880655,-23.101769533417087,0.25254035910197814,0.15829400385356518,-1.543651835724944,0.008081589093222874,0.003425693960501519,-0.037406209535717494,0.0,70.0,255.0,255.0,255.0
535,26.75,11.285306630640621,-2.1280020851609636,-23.178998862212534,0.2529693359223728,0.15845141128505436,-1.545503043349612,0.00869562184409034,0.0029946630507371452,-0.036716345526599525,0.0,70.0,255.0,255.0,255.0
536,26.8,11.297966261030489,-2.12007587185956,-23.25631983775205,0.2534099212863872,0.1585934701586389,-1.547323470277604,0.008531328897909418,0.002820995113061997,-0.036193573742693275,0.0,70.0,255.0,255.0,255.0
537,26.85,11.31064762276926,-2.1121427381450997,-23.333731209240295,0.25382246881216375,0.15873351079636056,-1.5491224007238813,0.007724286410493164,0.0028614907656265842,-0.03582271850959273,0.0,70.0,255.0,255.0,255.0
538,26.900000000000002,11.323348507911705,-2.104202520779924,-23.411232077824437,0.2541823499274365,0.15887961923520155,-1.5509057421285632,0.006573259861397673,0.003016877492623138,-0.03555174689502394,0.0,70.0,255.0,255.0,255.0
539,26.950000000000003,11.336065857762003,-2.0962547762215795,-23.48882178345315,0.2544797947983035,0.15903519854562287,-1.5526775754133837,0.005379941928040921,0.0031898857804524283,-0.03534113644967363,0.0,70.0,255.0,255.0,255.0
540,27.0,11.348796487391535,-2.0882990009253617,-23.566499835365775,0.2547203441202406,0.1591986078132468,-1.5544398557735306,0.0044376836978443635,0.0032734557738223202,-0.03513586748837838,0.0,70.0,255.0,255.0,255.0
541,27.05,11.361537892174027,-2.080334915440255,-23.644265769030504,0.25492356316808795,0.1593625441230051,-1.5561911621622215,0.003913561497626006,0.0032103045195075453,-0.03490591843799962,0.0,70.0,255.0,255.0,255.0
542,27.1,11.374288843708344,-2.072362746513061,-23.722118951581997,0.2551117002700032,0.15951963826519755,-1.5579304476173306,0.0037793470117009065,0.003054284224690562,-0.03470066974280428,0.0,70.0,255.0,255.0,255.0
