idx,t,px,py,pz,vx,vy,vz,ax,ay,az,yaw,mode,ledr,ledg,ledb
0,0.0,-1.5000000000000002,-7.500000000000003,1.5691164231371369e-18,-0.0002265610112184291,-0.0003271645471336626,0.0008560236571230833,-0.008356259925212939,0.005647763647687043,-0.033973491047487196,0.0,70.0,255.0,255.0,255.0
1,0.05,-1.5000113280505611,-7.500016358227359,4.280118285615574e-05,-0.000644374007479076,-4.477636474931046e-05,-0.0008426508952512769,-0.01278985739718852,0.00846567501557871,-0.0511135501902949,0.0,70.0,255.0,255.0,255.0
2,0.1,-1.5000644374007481,-7.500004477636478,-8.426508952512612e-05,-0.001505546750937281,0.0005194029544242085,-0.004255331361906407,-0.017734389887857915,0.011271645471389036,-0.06856023657123081,0.0,70.0,255.0,255.0,255.0
3,0.15000000000000002,-1.5001618827256549,-7.499964417931917,-0.00038273195333448495,-0.0024178129962648676,0.0010823881823895931,-0.007698674552374359,-0.018756259925556407,0.011247763645627629,-0.06917349104749111,0.0,70.0,255.0,255.0,255.0
4,0.2,-1.5003062187003746,-7.499896238818239,-0.0008541325447625621,-0.0033811727434929217,0.0016441793189869713,-0.011172680466655519,-0.01978614122242206,0.011223380804725736,-0.06979289771555808,0.0,70.0,255.0,255.0,255.0
5,0.25,-1.5005000000000042,-7.499800000000018,-0.001500000000000037,-0.004396427118507074,0.0022047262628621667,-0.014677964323930167,-0.020862087260953288,0.011196117117773241,-0.07044767948652231,0.0,70.0,255.0,255.0,255.0
6,0.30000000000000004,-1.5007458614122253,-7.499675766191952,-0.0023219289771555787,-0.0054673814695882506,0.0027637910307642954,-0.01821744841530775,-0.021996337466712035,0.011165207134755661,-0.07114723554232882,0.0,70.0,255.0,255.0,255.0
7,0.35000000000000003,-1.501046738146963,-7.499523620896942,-0.0033217448415308122,-0.006596060865178277,0.003321246976337733,-0.02179268787816305,-0.02308452293051655,0.011137177999742676,-0.07181141649523405,0.0,70.0,255.0,255.0,255.0
8,0.4,-1.5014054674987432,-7.499343641494319,-0.004501197764971884,-0.0077758337626399054,0.003877508830738563,-0.025398590064831156,-0.023959964946640433,0.011122453658352072,-0.07231222257674884,0.0,70.0,255.0,255.0,255.0
9,0.45,-1.501824321523227,-7.499135870013868,-0.005861603848013928,-0.00899205735984232,0.00443349234217294,-0.029023910135837935,-0.024483950631903895,0.01113138846635664,-0.07254264834961821,0.0,70.0,255.0,255.0,255.0
10,0.5,-1.5023046732347274,-7.498900292260101,-0.007403588778555677,-0.010224228825830295,0.004990647677374227,-0.03265285489979298,-0.024551705907738253,0.011178511925535872,-0.07241994458702809,0.0,70.0,255.0,255.0,255.0
11,0.55,-1.50284674440581,-7.4986368052461305,-0.009126889337993226,-0.011447227950616146,0.005551343534726527,-0.036265904594540745,-0.02412859451972338,0.01126855586495168,-0.07191677648599112,0.0,70.0,255.0,255.0,255.0
12,0.6000000000000001,-1.503449396029789,-7.498345157906629,-0.011030179238009752,-0.012637088277802633,0.006117503263869395,-0.03984453254839209,-0.023308959471557422,0.01137374165995908,-0.07111187128112789,0.0,70.0,255.0,255.0,255.0
13,0.65,-1.5041104532335903,-7.498025054919744,-0.013111342592832436,-0.013778123897771888,0.006688717700722435,-0.043377091722653534,-0.0222809335404639,0.011447363366379193,-0.07015972898544234,0.0,70.0,255.0,255.0,255.0
14,0.7000000000000001,-1.5048272084195662,-7.4976762861365565,-0.015367888410275105,-0.014865181631849023,0.007262239600507314,-0.046860505446936325,-0.021263898971302098,0.01144686757106328,-0.06923566477722576,0.0,70.0,255.0,255.0,255.0
15,0.75,-1.5055969713967752,-7.497298830959693,-0.01779739313752607,-0.015904513794902098,0.007833404457828763,-0.05030065820037611,-0.020473269608967115,0.011337980270553771,-0.06850427759594449,0.0,70.0,255.0,255.0,255.0
16,0.8,-1.5064176597990564,-7.496892945690774,-0.020397954230312716,-0.016912508592745734,0.008396037627562691,-0.053710933206530774,-0.020029696646073347,0.011106268856231338,-0.06805801117171391,0.0,70.0,255.0,255.0,255.0
17,0.8500000000000001,-1.5072882222560497,-7.496459227196937,-0.023168486458179146,-0.017907483459509432,0.008944031343451897,-0.0571064593175475,-0.019912366455954178,0.010769626921636188,-0.06789475805391541,0.0,70.0,255.0,255.0,255.0
18,0.9,-1.5082084081450073,-7.495998542556428,-0.026108600162067466,-0.018903745238341152,0.00947300031972631,-0.060500409011922315,-0.02004525194059248,0.01036716047524422,-0.06797604096866264,0.0,70.0,255.0,255.0,255.0
19,0.9500000000000001,-1.5091785967798839,-7.495511927164964,-0.029218527359371377,-0.01991200865356868,0.009980747390976319,-0.06390406341441376,-0.020346141128557704,0.009940628428939391,-0.0682541797209664,0.0,70.0,255.0,255.0,255.0
20,1.0,-1.5101996090103642,-7.495000467817331,-0.03249900650350884,-0.020938359351196922,0.01046706316262025,-0.06732582698401895,-0.020719224980148,0.009513576317221606,-0.06867492638117645,0.0,70.0,255.0,255.0,255.0
21,1.05,-1.5112724327150036,-7.494465220848702,-0.035951110057773274,-0.02198393115158348,0.01093210502269848,-0.07077155605253141,-0.021100870644308323,0.009106368710298796,-0.0691927172886933,0.0,70.0,255.0,255.0,255.0
22,1.1,-1.5123980021255226,-7.493907257315061,-0.039576162108761984,-0.023048446415627755,0.011377700033650129,-0.07424509871288829,-0.021481667944822647,0.0087850466892192,-0.0697491897433046,0.0,70.0,255.0,255.0,255.0
23,1.1500000000000001,-1.5135772773565663,-7.493327450845337,-0.0433756199290621,-0.024132097946065745,0.0118106096916204,-0.07774647502686187,-0.02185544797463912,0.008646698695358168,-0.07025349641729753,0.0,70.0,255.0,255.0,255.0
24,1.2000000000000002,-1.5148112119201291,-7.492726196345899,-0.04735080961144817,-0.025233991213091667,0.012242369903185946,-0.08127044835461804,-0.022199648402598804,0.008777192140740908,-0.07060244151373546,0.0,70.0,255.0,255.0,255.0
25,1.25,-1.5161006764778755,-7.492103213855018,-0.051502664764523906,-0.026352062786325625,0.01268832890569449,-0.08480671917823542,-0.022501765202176394,0.009259649193182895,-0.07069997958331492,0.0,70.0,255.0,255.0,255.0
26,1.3,-1.5174464181987617,-7.491457363455329,-0.05583148152927171,-0.027484167733309306,0.013168334822504235,-0.08834044631294953,-0.02275339420318989,0.010116368190615788,-0.07050389356628786,0.0,70.0,255.0,255.0,255.0
27,1.35,-1.5188490932512064,-7.490786380372768,-0.06033670939581886,-0.028627402206644614,0.013699965724756069,-0.0918571085348642,-0.02292366572773652,0.011207575597893538,-0.07007295849733863,0.0,70.0,255.0,255.0,255.0
28,1.4000000000000001,-1.5203091584194262,-7.490087366882854,-0.06501719238275813,-0.029776534306082958,0.014289092382293589,-0.0953477421626834,-0.022970252198328822,0.012286137983430478,-0.06952633699850996,0.0,70.0,255.0,255.0,255.0
29,1.4500000000000002,-1.5218267466818147,-7.4893574711345385,-0.0698714836120872,-0.030924427426477497,0.014928579523099117,-0.0988097422347152,-0.02286197854763916,0.013098854756243838,-0.06899554140358324,0.0,70.0,255.0,255.0,255.0
30,1.5,-1.523401601162074,-7.488594508930544,-0.07489816660622965,-0.032062732160846874,0.015598977857917973,-0.10224729630304172,-0.02256975150702889,0.013411836234311636,-0.06861317393358629,0.0,70.0,255.0,255.0,255.0
31,1.55,-1.5250330198978994,-7.487797573348747,-0.08009621324239137,-0.033181402577180386,0.01626976314653028,-0.10567105962807383,-0.02209124018854869,0.013113846173329335,-0.06845119562564339,0.0,70.0,255.0,255.0,255.0
32,1.6,-1.526719741419792,-7.486967532615891,-0.08546527256903703,-0.03427185617970174,0.016910362475250906,-0.10909241586560606,-0.021504508305114634,0.012313601967672838,-0.0684753399037008,0.0,70.0,255.0,255.0,255.0
33,1.6500000000000001,-1.5284602055158696,-7.486106537101222,-0.09100545482895198,-0.03533185340769185,0.017501123343297564,-0.11251859361844391,-0.02094438239301777,0.011241476643686354,-0.0686056311131375,0.0,70.0,255.0,255.0,255.0
34,1.7000000000000002,-1.5302529267605611,-7.485217420281561,-0.09671713193088143,-0.03636629441900352,0.018034510139619542,-0.11595297897691981,-0.020551411765867833,0.010146363193186403,-0.06876159333813747,0.0,70.0,255.0,255.0,255.0
35,1.75,-1.53209683495777,-7.48430308608726,-0.10260075272664396,-0.03738699458427863,0.018515759662616205,-0.11939475295225765,-0.020463238093615388,0.009269043165716084,-0.06885534333035404,0.0,70.0,255.0,255.0,255.0
36,1.8,-1.533991626218989,-7.4833658443152995,-0.10865660722610719,-0.03841261822836506,0.01896141445619115,-0.12283851330995521,-0.020742157863118393,0.0087472214747919,-0.06883855003836648,0.0,70.0,255.0,255.0,255.0
37,1.85,-1.5359380967806064,-7.482406944641641,-0.11488460405763948,-0.03946121037059047,0.019390481810095395,-0.1262786079560943,-0.02129382552731318,0.008570743804181546,-0.06874661428880047,0.0,70.0,255.0,255.0,255.0
38,1.9000000000000001,-1.537937747256048,-7.48142679613429,-0.12128446802171662,-0.04054200078109638,0.019818488836609305,-0.12971317473883526,-0.021935854593158055,0.008676906491178471,-0.06864936698716823,0.0,70.0,255.0,255.0,255.0
39,1.9500000000000002,-1.539992296858716,-7.48042509575798,-0.127855921531523,-0.04165479582990628,0.02025817245921324,-0.13314354465481112,-0.022479600496083663,0.00900138011674656,-0.06861188477766955,0.0,70.0,255.0,255.0,255.0
40,2.0,-1.5421032268390387,-7.479400978888369,-0.13459882248719773,-0.04278996083070474,0.02071862684828396,-0.1365743632166022,-0.022741305442641746,0.009476000427266484,-0.06871342477296899,0.0,70.0,255.0,255.0,255.0
41,2.0500000000000003,-1.5442712929417866,-7.478353233073151,-0.14151335785318322,-0.04392892637417045,0.02120577250193989,-0.14001488713210802,-0.022626841645756457,0.010045519675383474,-0.06898789093417457,0.0,70.0,255.0,255.0,255.0
42,2.1,-1.5464961194764557,-7.477280401638175,-0.14860031120040854,-0.04505264499528039,0.021723178815822308,-0.14347315231001967,-0.02220559751093809,0.010643516055441893,-0.06933820294110216,0.0,70.0,255.0,255.0,255.0
43,2.15,-1.5487765574413146,-7.476180915191569,-0.1558606730841852,-0.04614948612526426,0.02227012410748408,-0.14694870742621824,-0.021626791308926308,0.011168286669249738,-0.06959690093818749,0.0,70.0,255.0,255.0,255.0
44,2.2,-1.5511110680889821,-7.475053389227426,-0.16329518194303036,-0.04721532412617302,0.022840007482747282,-0.15043284240383842,-0.02104347296303377,0.011502941514329734,-0.06960429412461444,0.0,70.0,255.0,255.0,255.0
45,2.25,-1.553498089853932,-7.473896914443294,-0.17090395732456903,-0.04825383342156764,0.023420418258917053,-0.15390913683867968,-0.020607530811989072,0.011530917828750376,-0.06919501352183055,0.0,70.0,255.0,255.0,255.0
46,2.3000000000000003,-1.555936451431139,-7.4727113474015345,-0.17868609562689833,-0.04927607720737193,0.02399309926562232,-0.15735234375602147,-0.0204032494466988,0.011203473716836498,-0.06830228715731801,0.0,70.0,255.0,255.0,255.0
47,2.35,-1.558425697574669,-7.471497604516732,-0.18663919170017118,-0.05029415836623752,0.024540765630600703,-0.16073936555441148,-0.020400148065080614,0.010619667498446006,-0.06710411707033792,0.0,70.0,255.0,255.0,255.0
48,2.4000000000000004,-1.5609658672677627,-7.4702572708384745,-0.19476003218233948,-0.05131609201387999,0.02505506601546692,-0.16406275546305527,-0.02052145569562125,0.009966310468190187,-0.06592116445825191,0.0,70.0,255.0,255.0,255.0
49,2.45,-1.563557306776057,-7.468992097915185,-0.2030454672464767,-0.05234630393579964,0.02553739667741972,-0.16733148200023668,-0.020692708117953096,0.009439627719221022,-0.06507648650942166,0.0,70.0,255.0,255.0,255.0
50,2.5,-1.5662004976613426,-7.4677035311707325,-0.21149318038236314,-0.0533853628256753,0.025999028787389022,-0.17057040411399743,-0.020836589957418106,0.009236318932970278,-0.06489048384366036,0.0,70.0,255.0,255.0,255.0
51,2.5500000000000003,-1.5688958430586246,-7.4663921950364465,-0.22010250765787645,-0.054429962931541453,0.02646102857071675,-0.1738205303846027,-0.020907386674684503,0.009453872171061306,-0.06551055950412832,0.0,70.0,255.0,255.0,255.0
52,2.6,-1.5716434939544968,-7.465057428313661,-0.22887523342082342,-0.05547610149314375,0.026944416004495153,-0.17712146006441026,-0.02091474262964077,0.009992406025904899,-0.06671637772859007,0.0,70.0,255.0,255.0,255.0
53,2.6500000000000004,-1.574443453207939,-7.463697753435997,-0.23781465366431748,-0.05652143719450553,0.02746026917330724,-0.18049216815746172,-0.020885614346943804,0.010651879382894691,-0.06808571395611474,0.0,70.0,255.0,255.0,255.0
54,2.7,-1.5772956376739473,-7.46231140139633,-0.2469244502365696,-0.05756466292783813,0.028009603942784622,-0.18393003146002174,-0.020839494099056388,0.011231974182113191,-0.0691842120521452,0.0,70.0,255.0,255.0,255.0
55,2.75,-1.5801999195007228,-7.4608967930417185,-0.25620765681031965,-0.05860538660441117,0.028583466591518558,-0.18741058936267624,-0.02079408138622174,0.011539843735253186,-0.06957106975153393,0.0,70.0,255.0,255.0,255.0
56,2.8000000000000003,-1.5831561763343884,-7.459453054737178,-0.2656655091728372,-0.0596440710664603,0.02916358831630994,-0.19088713843517513,-0.020760490567761636,0.011474464173044652,-0.06902890139956763,0.0,70.0,255.0,255.0,255.0
57,2.85,-1.5861643266073688,-7.4579804342100875,-0.27529637065383716,-0.06068143566118733,0.029730913008823023,-0.194313479502633,-0.020740881416436707,0.011096116322839578,-0.06780118786612332,0.0,70.0,255.0,255.0,255.0
58,2.9000000000000004,-1.5892243199005072,-7.456479963436296,-0.2850968571231005,-0.06171815920810397,0.0302731999485939,-0.19766725722178746,-0.020736086916484098,0.010540764074029596,-0.06636516386652747,0.0,70.0,255.0,255.0,255.0
59,2.95,-1.5923361425281792,-7.454953114215228,-0.2950630963760159,-0.06275504435283574,0.030784989416225983,-0.20094999588928575,-0.02074931548567971,0.00994576226593935,-0.06519981213514714,0.0,70.0,255.0,255.0,255.0
60,3.0,-1.5954998243357907,-7.453401464494673,-0.3051918567120291,-0.06379309075667194,0.031267776175187834,-0.20418723843530218,-0.020787084497886354,0.00944029680178815,-0.06479316255811329,0.0,70.0,255.0,255.0,255.0
61,3.0500000000000003,-1.5987154516038464,-7.451826336597709,-0.3154818202195461,-0.06483375280262438,0.0317290190964048,-0.20742931214509708,-0.020850651054504787,0.00910104502986897,-0.06538698175072022,0.0,70.0,255.0,255.0,255.0
62,3.1,-1.6019831996160532,-7.450228562585033,-0.3259347879265388,-0.06587815586212242,0.03217788067817473,-0.2107259366103742,-0.020921731704537372,0.00893949231919322,-0.06670805495611054,0.0,70.0,255.0,255.0,255.0
63,3.1500000000000004,-1.6053032671900587,-7.448608548529892,-0.33655441388058355,-0.06692592597307812,0.03262296832832412,-0.21410011764070813,-0.020970037986844936,0.00894953984573732,-0.06822444642864967,0.0,70.0,255.0,255.0,255.0
64,3.2,-1.608675792213361,-7.4469662657522,-0.3473447996906096,-0.06797515966080692,0.03307283466274846,-0.21754838125323916,-0.02096324395821636,0.009124463934107041,-0.06941010584084473,0.0,70.0,255.0,255.0,255.0
65,3.25,-1.6121007831561394,-7.445301265063617,-0.35830925200590746,-0.06902225036889975,0.033535414721734824,-0.2210411282247926,-0.02085758062249088,0.009454959732924095,-0.06974038258007464,0.0,70.0,255.0,255.0,255.0
66,3.3000000000000003,-1.615578017250251,-7.443612724280027,-0.36944891251308887,-0.070060917723056,0.03401833063604087,-0.22452241951124663,-0.020636905214388435,0.009922381348559384,-0.06895622521056466,0.0,70.0,255.0,255.0,255.0
67,3.35,-1.619106874928445,-7.441899432000013,-0.3807614939570321,-0.0710859408903386,0.03452765285659076,-0.22793675074584907,-0.020372191765272163,0.010465075239451949,-0.06733917972202574,0.0,70.0,255.0,255.0,255.0
68,3.4000000000000004,-1.6226866113392848,-7.440159958994368,-0.3922425875876738,-0.07209813689958322,0.03506483815998607,-0.2312563374834492,-0.02018376113597231,0.010980237381907898,-0.06544530216717193,0.0,70.0,255.0,255.0,255.0
69,3.45,-1.6263166886184033,-7.438392948184014,-0.40388712770537705,-0.07310431700393583,0.03562567659478155,-0.23448128096256626,-0.020190995394675504,0.01135740763960058,-0.06383239853411937,0.0,70.0,255.0,255.0,255.0
70,3.5,-1.6299970430396784,-7.43659739133489,-0.4156907156839304,-0.07411723643905077,0.036200578923946125,-0.23763957733686114,-0.02053056504014439,0.011495854942378259,-0.06305724185348693,0.0,70.0,255.0,255.0,255.0
71,3.5500000000000003,-1.6337284122623084,-7.43477289029162,-0.42765108543906316,-0.07515737350795026,0.03677526208901938,-0.24078700514791496,-0.021255527621888426,0.011348916754982952,-0.06340126426014892,0.0,70.0,255.0,255.0,255.0
72,3.6,-1.6375127803904734,-7.432919865125988,-0.4397694161987219,-0.07624278920123961,0.03733547059944442,-0.24397970376287603,-0.02218772967250704,0.010964682247127655,-0.06460170634225992,0.0,70.0,255.0,255.0,255.0
73,3.6500000000000004,-1.6413526911824323,-7.431039343231675,-0.45204905581535076,-0.07737614647520097,0.037871730313732144,-0.24724717578214095,-0.023015849870167138,0.01044587426219934,-0.0661278647162089,0.0,70.0,255.0,255.0,255.0
74,3.7,-1.6452503950379935,-7.429132692094615,-0.464494133776936,-0.07854437418825633,0.038380058025664354,-0.2505924902344969,-0.023433427143815244,0.009905392688125403,-0.06744715316959748,0.0,70.0,255.0,255.0,255.0
75,3.75,-1.649207128601258,-7.427201337429109,-0.47710830483880046,-0.0797194891895825,0.038862269582544684,-0.2539918910991007,-0.023132233808809133,0.009449639146463795,-0.06801871527404857,0.0,70.0,255.0,255.0,255.0
76,3.8000000000000003,-1.6532223439569518,-7.42524646513636,-0.48989332288684606,-0.08085759756913724,0.039325021940310734,-0.2573943617619018,-0.02197958569660763,0.009141438810633673,-0.06756608371610295,0.0,70.0,255.0,255.0,255.0
77,3.85,-1.6572928883581717,-7.423268835235078,-0.5028477410149906,-0.08191744775924326,0.03977641346360805,-0.260748499470711,-0.020244908192945665,0.008992559407516865,-0.06634574316062847,0.0,70.0,255.0,255.0,255.0
78,3.9000000000000004,-1.661414088732876,-7.421268823789999,-0.5159681728339172,-0.08288208838843181,0.04022427788106242,-0.2640289360779646,-0.0184273382180411,0.009000741093334597,-0.0648706515555153,0.0,70.0,255.0,255.0,255.0
79,3.95,-1.6655810971970149,-7.4192464074469715,-0.5292506346227871,-0.08376018158104737,0.04067648757294151,-0.2672355646262625,-0.017033617708395177,0.00916050878840835,-0.06364593517451667,0.0,70.0,255.0,255.0,255.0
80,4.0,-1.6697901068909808,-7.417201175032705,-0.5426917292965434,-0.08458545015927132,0.041140328759903255,-0.2703935295954163,-0.01656045310438614,0.009461579148251076,-0.06318379448613243,0.0,70.0,255.0,255.0,255.0
81,4.05,-1.674039642212942,-7.415132374570981,-0.5562899875823287,-0.08541622689148598,0.04162264548776662,-0.27355394407487577,-0.01724701537242357,0.009886353643029366,-0.06374083444172784,0.0,70.0,255.0,255.0,255.0
82,4.1000000000000005,-1.6783317295801294,-7.4130389104839285,-0.570047123704031,-0.08631015169651368,0.04212896412420619,-0.2767676130395891,-0.018818278581411718,0.010384240960981117,-0.0650445051644244,0.0,70.0,255.0,255.0,255.0
83,4.15,-1.6826706573825934,-7.410919478158561,-0.5839667488862876,-0.08729805474962715,0.04266106958386473,-0.2800583945913182,-0.020727477910442715,0.010870322204414862,-0.0665603449127361,0.0,70.0,255.0,255.0,255.0
84,4.2,-1.6870615350550922,-7.408772803525542,-0.5980529631631628,-0.08838289948755795,0.04321599634464768,-0.2834236475308627,-0.022413267523790914,0.011253597800209292,-0.06776267256594082,0.0,70.0,255.0,255.0,255.0
85,4.25,-1.6915089473313492,-7.406597878524096,-0.6123091136393739,-0.08953938150200624,0.04378642936388566,-0.2868346618479123,-0.02331798174566302,0.011460034935506513,-0.06813020934536285,0.0,70.0,255.0,255.0,255.0
86,4.3,-1.6960154732052928,-7.4043941605891535,-0.626736429347954,-0.09071469766212426,0.04436199983819833,-0.290236668465399,-0.023153005494380707,0.011452633796338318,-0.0674036321299365,0.0,70.0,255.0,255.0,255.0
87,4.3500000000000005,-1.7005804170975616,-7.402161678540276,-0.6413327804859138,-0.09185468205144431,0.04493169274351949,-0.29357502506090594,-0.022136429695818194,0.011234952272776155,-0.06584882359438327,0.0,70.0,255.0,255.0,255.0
88,4.4,-1.7052009414104372,-7.3999009913148015,-0.6560939318540446,-0.09292834063170607,0.045485495065475945,-0.2968215508248373,-0.02072745876482429,0.010834333725906475,-0.06399622054196197,0.0,70.0,255.0,255.0,255.0
89,4.45,-1.7098732511607322,-7.397613129033728,-0.6710149355683975,-0.09392742792792674,0.04601512611611014,-0.29997464711510213,-0.019386971870072323,0.010291300478115772,-0.06237600859430037,0.0,70.0,255.0,255.0,255.0
90,4.5,-1.7145936842032299,-7.3952994787031905,-0.6860913965655548,-0.0948670378187133,0.04651462511328752,-0.30305915168426734,-0.018579554644904128,0.009638327729000196,-0.061507302864272084,0.0,70.0,255.0,255.0,255.0
91,4.55,-1.7193599549426035,-7.3929616665224,-0.7013208507368243,-0.09578538339241716,0.04697895888901016,-0.30612537740152934,-0.018553083862293818,0.00890879881660922,-0.06165778389171095,0.0,70.0,255.0,255.0,255.0
92,4.6000000000000005,-1.7241722225424716,-7.3906015828142895,-0.7167039343057078,-0.09672234620494269,0.047405504994948444,-0.30922493007343843,-0.01914602594530468,0.008194085146140395,-0.06262668064452859,0.0,70.0,255.0,255.0,255.0
93,4.65,-1.7290321895630978,-7.388221116022905,-0.7322433437441681,-0.09769998598694762,0.0477983674036242,-0.3123880454659822,-0.020014342041818622,0.007635886015311399,-0.0639882927329527,0.0,70.0,255.0,255.0,255.0
94,4.7,-1.7339422211411664,-7.385821746073927,-0.747942738852306,-0.09872378040912455,0.048169093596479584,-0.3156237593467337,-0.020824672501817965,0.00737346135979422,-0.06531343291702463,0.0,70.0,255.0,255.0,255.0
95,4.75,-1.7389045676040102,-7.383404206663257,-0.7638057196788415,-0.09978245323712942,0.04853571353960362,-0.31891938875768466,-0.021239883590928876,0.007534626177019277,-0.06617661649350737,0.0,70.0,255.0,255.0,255.0
96,4.800000000000001,-1.7439204664648793,-7.380968174719967,-0.7798346777280745,-0.10084776876821744,0.04892255621418151,-0.32224142099608444,-0.021082025023866358,0.008166996112368707,-0.06634639780435103,0.0,70.0,255.0,255.0,255.0
97,4.8500000000000005,-1.748989344480832,-7.378511951041839,-0.7960298617784499,-0.10189065573951606,0.04935241315084049,-0.32555402853811977,-0.02048580684903545,0.009143392456945065,-0.06593443051756687,0.0,70.0,255.0,255.0,255.0
98,4.9,-1.754109532038831,-7.376032933404883,-0.8123900805818864,-0.10289634945312098,0.04983689545987602,-0.3288348640478411,-0.019727993580653802,0.010224919415513511,-0.06519895351463356,0.0,70.0,255.0,255.0,255.0
99,4.95,-1.759278979426144,-7.373528261495851,-0.828913348183234,-0.10386345509758144,0.05037490509239184,-0.3320739238895831,-0.019074711083311158,0.01115639254374301,-0.06439114551843872,0.0,70.0,255.0,255.0,255.0
100,5.0,-1.764495877548589,-7.3709954428956435,-0.8455974729708448,-0.1048038205614521,0.05095253471425032,-0.335273978599685,-0.018792845723369922,0.011691139590563893,-0.06376217521751881,0.0,70.0,255.0,255.0,255.0
101,5.050000000000001,-1.7697593614822893,-7.368433008024426,-0.8624407460432025,-0.10574273966991843,0.05154401905144823,-0.338450141411335,-0.019018676181992156,0.011703216734915145,-0.06345545938973851,0.0,70.0,255.0,255.0,255.0
102,5.1000000000000005,-1.775070151515581,-7.365841040990499,-0.8794424871119783,-0.10670568817965131,0.052122856387741834,-0.34161952453865885,-0.01962533873305361,0.011280456914430914,-0.06343102852076621,0.0,70.0,255.0,255.0,255.0
103,5.15,-1.7804299303002544,-7.363220722385652,-0.8966026984970684,-0.10770527354322379,0.05267206474289132,-0.3447932442634116,-0.020359091560950837,0.01061632443377647,-0.06358214029469345,0.0,70.0,255.0,255.0,255.0
104,5.2,-1.7858406788699033,-7.3605738345162095,-0.9139218115383194,-0.1087415973357464,0.05318448883111948,-0.3479777385681282,-0.02096990973845525,0.009914255178067322,-0.06381438594154076,0.0,70.0,255.0,255.0,255.0
105,5.25,-1.791304090033829,-7.35790227350254,-0.9314004723538812,-0.10980226451706931,0.053663490260698055,-0.3511746828575657,-0.02120477081186678,0.009380815461756953,-0.06403472925655684,0.0,70.0,255.0,255.0,255.0
106,5.300000000000001,-1.7968209053216102,-7.35520748549014,-0.949039279824076,-0.11086207441693308,0.054122570377295176,-0.3543812114937839,-0.020936696821438616,0.009132398021005628,-0.06418570403060597,0.0,70.0,255.0,255.0,255.0
107,5.3500000000000005,-1.8023902974755224,-7.35249001646481,-0.9668385935032596,-0.11189593419921318,0.05457673006279862,-0.3575932532606263,-0.020298246143957144,0.009130211119678933,-0.0642623878003401,0.0,70.0,255.0,255.0,255.0
108,5.4,-1.8080104987415315,-7.34974981248386,-0.9847986051501386,-0.11289189903132879,0.05503559148926307,-0.3608074502738179,-0.019550232250309385,0.009276029935101349,-0.06427071374487392,0.0,70.0,255.0,255.0,255.0
109,5.45,-1.8136794873786553,-7.346986457315884,-1.0029193385306414,-0.11385095742424411,0.05550433305630875,-0.3640203246351137,-0.018952223389434586,0.009478987677002948,-0.06421182353580912,0.0,70.0,255.0,255.0,255.0
110,5.5,-1.819395594483956,-7.344199379178229,-1.02120063761365,-0.11478712137027225,0.055983490256963364,-0.3672286326273988,-0.018772033733127635,0.009645645183287144,-0.06409890775628257,0.0,70.0,255.0,255.0,255.0
111,5.550000000000001,-1.8251581995156825,-7.341388108290188,-1.0396422017933813,-0.11572816079755688,0.05646889757463747,-0.37043021541074195,-0.019141109958820124,0.009721130574824599,-0.0639412116673288,0.0,70.0,255.0,255.0,255.0
112,5.6000000000000005,-1.8309684105637116,-7.338552489420765,-1.0582436591547242,-0.11670123236615426,0.056955603314445824,-0.3736227537941317,-0.01989626876568451,0.009719631006710472,-0.06372119183963854,0.0,70.0,255.0,255.0,255.0
113,5.65,-1.836828322752298,-7.335692547958743,-1.0770044771727945,-0.11771778767412533,0.057440860675308514,-0.3768023345947058,-0.02072538736319629,0.009677784263750766,-0.0634140723249299,0.0,70.0,255.0,255.0,255.0
114,5.7,-1.8427401893311242,-7.332808403353234,-1.0959238926141948,-0.11877377110247389,0.0579233817408209,-0.37996416102662467,-0.02132133656387314,0.009623593648111495,-0.06300452038137117,0.0,70.0,255.0,255.0,255.0
115,5.75,-1.8487056998625453,-7.329900209784661,-1.115000893275457,-0.11984992133051264,0.05840322004011966,-0.3831027866328429,-0.02137515952380653,0.009584575834153952,-0.062465677014311716,0.0,70.0,255.0,255.0,255.0
116,5.800000000000001,-1.8547251814641754,-7.326968081349222,-1.134234171277479,-0.12091128705485454,0.058881839324236296,-0.38621072872805584,-0.02073849038295439,0.009576366393027058,-0.061795649766338556,0.0,70.0,255.0,255.0,255.0
117,5.8500000000000005,-1.8607968285680307,-7.324012025852237,-1.1536219661482625,-0.12192377036880808,0.05936085667942237,-0.3892823516094768,-0.01960385828032596,0.009591264852204517,-0.06109191244012546,0.0,70.0,255.0,255.0,255.0
118,5.9,-1.8669175585010562,-7.32103199568128,-1.1731624064384267,-0.12287167288288714,0.05984096580945675,-0.3923199199720684,-0.01834187797054021,0.009612833009331467,-0.0605147685170504,0.0,70.0,255.0,255.0,255.0
119,5.95,-1.8730839958563195,-7.318027929271292,-1.1928539581454694,-0.1237579581658621,0.060322139980355516,-0.3953338284611818,-0.017321777674594863,0.009626637731052767,-0.06021615554483439,0.0,70.0,255.0,255.0,255.0
120,6.0,-1.8792933543176424,-7.314999781683245,-1.212695789284545,-0.12460385065034663,0.060803629582562024,-0.3983415355265518,-0.016903272227652977,0.009616051481220467,-0.06033432824259499,0.0,70.0,255.0,255.0,255.0
121,6.050000000000001,-1.8855443809213541,-7.3119475663130356,-1.2326881116981245,-0.1254482853886274,0.06128374512847756,-0.4013672612854413,-0.017265301469460148,0.009573403853124773,-0.06092430115540726,0.0,70.0,255.0,255.0,255.0
122,6.1000000000000005,-1.8918381828565052,-7.308871407170397,-1.252832515413089,-0.12633038079729264,0.0617609699678745,-0.40443396564209255,-0.01823841466304099,0.009515309583196796,-0.06186584371439263,0.0,70.0,255.0,255.0,255.0
123,6.15,-1.8981774190010834,-7.305771469316248,-1.2731315082623338,-0.1272721268549315,0.06223527608679724,-0.4075538456568806,-0.01947614504396178,0.009470883698270427,-0.06292965080958446,0.0,70.0,255.0,255.0,255.0
124,6.2,-1.9045653955419983,-7.302647879561717,-1.293587899978777,-0.12827799530168882,0.06270805833770154,-0.410726930723051,-0.02062549213175391,0.009469855429244944,-0.063872395900888,0.0,70.0,255.0,255.0,255.0
125,6.25,-1.9110052185312523,-7.299500663482478,-1.3142042013346389,-0.1293346760681069,0.06318226162972174,-0.4139410852469694,-0.021339770213457676,0.009551218241998782,-0.06446498204344397,0.0,70.0,255.0,255.0,255.0
126,6.300000000000001,-1.917498863148809,-7.296329653398745,-1.334982008503474,-0.1304119723230346,0.06366318016190142,-0.4171734289273954,-0.02143424313287845,0.009730018193376822,-0.06458714561203838,0.0,70.0,255.0,255.0,255.0
127,6.3500000000000005,-1.9240464157635557,-7.293134345466288,-1.3559215442273784,-0.13147810038139474,0.06415526344905942,-0.4203997998081732,-0.02101152735669576,0.009947496814088908,-0.0642928245904173,0.0,70.0,255.0,255.0,255.0
128,6.4,-1.9306466731869485,-7.289914127053839,-1.3770219884842914,-0.13251312505870416,0.06465792984331031,-0.4236027113864371,-0.0203036584040861,0.010103632197466794,-0.06371851635660342,0.0,70.0,255.0,255.0,255.0
129,6.45,-1.9372977282694261,-7.286668552481957,-1.3982818153660221,-0.13350846622180335,0.0651656266688061,-0.42677165144383356,-0.01954334004530267,0.010100653839550944,-0.06301426085157935,0.0,70.0,255.0,255.0,255.0
130,6.5,-1.9439975198091288,-7.283397564386958,-1.4196991536286747,-0.13446745906323443,0.06566799522726541,-0.42990413747159506,-0.018965618946409357,0.00983110352281713,-0.06233777155555398,0.0,70.0,255.0,255.0,255.0
131,6.550000000000001,-1.9507444741757496,-7.28010175295923,-1.4412722291131816,-0.13540502811644428,0.06614873702108781,-0.43300542859938895,-0.01870327378450387,0.009252723839736632,-0.0617855779347698,0.0,70.0,255.0,255.0,255.0
132,6.6000000000000005,-1.9575380226207733,-7.27678269068485,-1.4629996964886136,-0.13633778644168482,0.06659326761123907,-0.43608269526507204,-0.01871090714544721,0.008496474722541336,-0.06136006072117173,0.0,70.0,255.0,255.0,255.0
133,6.65,-1.964378252819918,-7.273442426198106,-1.4848804986396889,-0.137276118830989,0.06699838449334194,-0.4391414346715061,-0.018875468426160502,0.007793655109722408,-0.061041598449418366,0.0,70.0,255.0,255.0,255.0
134,6.7,-1.9712656345038722,-7.270082852235515,-1.5069138399557642,-0.13822533328430087,0.06737263312221131,-0.4421868551100139,-0.019093548619530942,0.007373589819081872,-0.060822448804787044,0.0,70.0,255.0,255.0,255.0
135,6.75,-1.9782007861483482,-7.266705162885885,-1.5290991841506902,-0.1391854736929421,0.06773574347525013,-0.44522367955198483,-0.019257800620930965,0.00746432104712369,-0.060687987678398336,0.0,70.0,255.0,255.0,255.0
136,6.800000000000001,-1.9851841818731664,-7.26330927788799,-1.5514362079109627,-0.14015111334639396,0.06811906522692368,-0.4482556538778537,-0.019306601123014744,0.008166685515309524,-0.06062448204242621,0.0,70.0,255.0,255.0,255.0
137,6.8500000000000005,-1.9922158974829876,-7.259893256363193,-1.5739247495384756,-0.14111613380524357,0.06855241202678108,-0.45128612775622745,-0.019265776462318307,0.009300357209607313,-0.06062516096323467,0.0,70.0,255.0,255.0,255.0
138,6.9,-1.9992957952536907,-7.256454036685312,-1.5965648206865855,-0.1420776909926258,0.06904910094788441,-0.4543181699741772,-0.019192696329617398,0.010526316126924229,-0.06067602224690827,0.0,70.0,255.0,255.0,255.0
139,6.95,-2.00642366658225,-7.252988346268404,-1.6193565665358933,-0.1430354034382053,0.06960504363947351,-0.4573537299809183,-0.019136265010488707,0.01149943909908302,-0.060749743462951145,0.0,70.0,255.0,255.0,255.0
140,7.0,-2.0135993355975113,-7.249493532321365,-1.6423001936846773,-0.14399131749367466,0.07019904485779271,-0.4603931443204723,-0.0191511505976516,0.01188364026187827,-0.060814240434958755,0.0,70.0,255.0,255.0,255.0
141,7.050000000000001,-2.0208227983316176,-7.245968441782625,-1.6653958809679406,-0.14495051849797047,0.07079340766566133,-0.46343515402441415,-0.01926360843667041,0.011513447851463354,-0.060850293429393076,0.0,70.0,255.0,255.0,255.0
142,7.1000000000000005,-2.0280943874473083,-7.242414191554799,-1.6886437090871187,-0.1459176783373417,0.07135038964293905,-0.4664781736634116,-0.01942598700548359,0.010551979888262508,-0.060860227826786684,0.0,70.0,255.0,255.0,255.0
143,7.15,-2.0354145661653518,-7.238833402818331,-1.7120436983342817,-0.14689311719851883,0.07184860565448759,-0.4695211768070928,-0.019553746255285276,0.009332036092857265,-0.060852541000966376,0.0,70.0,255.0,255.0,255.0
144,7.2,-2.04278369916716,-7.23522933098935,-1.735595826767828,-0.14787305296287023,0.07228359325222478,-0.47256342776350824,-0.019568104625022897,0.008194714391240865,-0.06083237687712906,0.0,70.0,255.0,255.0,255.0
145,7.25,-2.050201871461639,-7.231605043493109,-1.7593000411106325,-0.14884992766102112,0.07266807709361167,-0.4756044144948057,-0.019389624960641783,0.0074730992587923595,-0.06080302260993431,0.0,70.0,255.0,255.0,255.0
146,7.300000000000001,-2.0576686919332623,-7.227962523279989,-1.7831562682173085,-0.1498120154589344,0.07303090317810401,-0.47864373002450167,-0.01898516559681873,0.007345583684781332,-0.060767630953395546,0.0,70.0,255.0,255.0,255.0
147,7.3500000000000005,-2.0651830730075322,-7.224301953175298,-1.8071644141130827,-0.150748444220703,0.0734026354620898,-0.4816811775901453,-0.018432047077565628,0.007722678947086337,-0.06073392772980579,0.0,70.0,255.0,255.0,255.0
148,7.4,-2.0727435363553326,-7.22062225973378,-1.831324385976323,-0.15165522016669097,0.07380317107281265,-0.48471712279748225,-0.017871386248113907,0.008395422950879805,-0.060713813748969336,0.0,70.0,255.0,255.0,255.0
149,7.45,-2.0803485950242013,-7.216921636068017,-1.855636126392831,-0.15253558284551438,0.07424217775717779,-0.4877525589650422,-0.017444090381957267,0.009154617090256778,-0.06072074902820912,0.0,70.0,255.0,255.0,255.0
150,7.5,-2.087997094639884,-7.213198041958062,-1.8800996418728273,-0.1533996292048867,0.07471863278183832,-0.49078919770030316,-0.017282330911738697,0.009795990675875998,-0.060773669125469,0.0,70.0,255.0,255.0,255.0
151,7.550000000000001,-2.09568855794469,-7.209449772789833,-1.9047150461628612,-0.15426381593668825,0.07522177682476539,-0.4938299258775891,-0.017449528710278273,0.010198669622951684,-0.06087918275707871,0.0,70.0,255.0,255.0,255.0
152,7.6000000000000005,-2.103423476233553,-7.205675864275586,-1.9294826344605862,-0.15514458207591453,0.07573849974413349,-0.49687711597601103,-0.017881349159853954,0.010361873086939255,-0.06100406125399971,0.0,70.0,255.0,255.0,255.0
153,7.65,-2.1112030161522815,-7.20187592281542,-1.9544027577604624,-0.15605195085267365,0.07625796413345931,-0.4999303320029891,-0.01844434511562021,0.010320025016952172,-0.06109220400325466,0.0,70.0,255.0,255.0,255.0
154,7.7,-2.1190286713188202,-7.19805006786224,-1.9794756676608851,-0.15698901658747655,0.07677050224582871,-0.5029863363763365,-0.018996046667751898,0.010101129603423686,-0.061091340296814955,0.0,70.0,255.0,255.0,255.0
155,7.75,-2.126901917811029,-7.194198872590837,-2.004701391398096,-0.15795155551944884,0.07726807709380168,-0.5060394660326706,-0.019393032744430272,0.00973491939015858,-0.06095432886019658,0.0,70.0,255.0,255.0,255.0
156,7.800000000000001,-2.134823826870765,-7.1903232601528595,-2.030079614264152,-0.15892831986191958,0.07774399418484457,-0.5090817692623562,-0.019557232382538814,0.0092519988942108,-0.060661838484366015,0.0,70.0,255.0,255.0,255.0
157,7.8500000000000005,-2.142794749797221,-7.186424473172353,-2.0556095683243316,-0.15990727875770272,0.07819327698322276,-0.5121056498811072,-0.019526192646512897,0.008710667865319266,-0.06025159881581921,0.0,70.0,255.0,255.0,255.0
158,7.9,-2.1508145547465354,-7.182503932454537,-2.081290179252263,-0.16088093912657087,0.0786150609713765,-0.5151069291439381,-0.019386757764650042,0.008205316142806396,-0.059796437837089655,0.0,70.0,255.0,255.0,255.0
159,7.95,-2.158882843709878,-7.178562967075215,-2.1071202612387254,-0.16184595453416772,0.0790138085975034,-0.5180852936648161,-0.019225522480681434,0.00783983885588313,-0.0593733769642224,0.0,70.0,255.0,255.0,255.0
160,8.0,-2.166999150199952,-7.174602551594787,-2.1330987086187445,-0.162803491374639,0.0793990448569648,-0.5210442668403603,-0.019137519462608665,0.007708341087830917,-0.05905302475808227,0.0,70.0,255.0,255.0,255.0
161,8.05,-2.175163192847342,-7.170623062589518,-2.1592246879227615,-0.1637597064804286,0.07978464270628649,-0.5239905961406244,-0.019174315652659146,0.007853847620253873,-0.058873463305531004,0.0,70.0,255.0,255.0,255.0
162,8.1,-2.183375120847995,-7.166624087324158,-2.185497768232807,-0.16472092293990492,0.0801844296189902,-0.5269316131709134,-0.019292947853255527,0.008230979926882043,-0.05882683951936585,0.0,70.0,255.0,255.0,255.0
163,8.15,-2.1916352851413325,-7.162604619627619,-2.211917849239853,-0.16568900126575414,0.0806077406989747,-0.529873280092561,-0.01941039538757572,0.008742346776546839,-0.058884748610754656,0.0,70.0,255.0,255.0,255.0
164,8.200000000000001,-2.1999440209745704,-7.158563313254261,-2.238485096242063,-0.1666619624786625,0.08105866429664488,-0.5328200880319889,-0.019454777162231096,0.009280027793767687,-0.05901515184669748,0.0,70.0,255.0,255.0,255.0
165,8.25,-2.208301481389199,-7.154498753197955,-2.2651998580430517,-0.16763447898197725,0.08153574347835146,-0.5357747952772307,-0.019360945348934067,0.009743697609376767,-0.059189562783856786,0.0,70.0,255.0,255.0,255.0
166,8.3,-2.216707468872768,-7.150409738906426,-2.292062575769786,-0.1685980570135559,0.08203303405758255,-0.5387390443103746,-0.01909841875997742,0.010073123445053511,-0.05938482111389476,0.0,70.0,255.0,255.0,255.0
167,8.35,-2.2251612870905544,-7.146295449792197,-2.319073762474089,-0.169544320857975,0.08254305582285681,-0.5417132773886202,-0.018703787502571956,0.010249048792054793,-0.05956197550718301,0.0,70.0,255.0,255.0,255.0
168,8.4,-2.2336619009585656,-7.14215543332414,-2.346233903508648,-0.1704684357638131,0.08305793893678803,-0.5446952418610929,-0.018250728284163742,0.010260821226903971,-0.05966279615816639,0.0,70.0,255.0,255.0,255.0
169,8.450000000000001,-2.2422081306669357,-7.137989655898518,-2.3735432866601984,-0.17136939368639137,0.08356913794554721,-0.5476795570044368,-0.017814856049591654,0.010100562787496159,-0.05962652846984717,0.0,70.0,255.0,255.0,255.0
170,8.5,-2.250798840327205,-7.133798519529585,-2.401001859209092,-0.17224992136877226,0.08406799521553765,-0.5506578947080776,-0.017462708465787458,0.009760877798115075,-0.05938872410662377,0.0,70.0,255.0,255.0,255.0
171,8.55,-2.259433122803813,-7.129582856376964,-2.428609076131006,-0.17311566453297011,0.08454522572535872,-0.5536184294150992,-0.01723200930747737,0.009252632959633189,-0.05892673941816362,0.0,70.0,255.0,255.0,255.0
172,8.6,-2.268110406780502,-7.125343996957049,-2.4563637021506017,-0.17397312229952,0.08499325851150097,-0.5565505686498939,-0.017129198173293503,0.008653664066660127,-0.05832703001362738,0.0,70.0,255.0,255.0,255.0
173,8.65,-2.276830435033765,-7.121083530525814,-2.4842641329959956,-0.17482858435029947,0.08541059213202473,-0.5594511324164619,-0.017149395438620374,0.008095207476710442,-0.05774313435580325,0.0,70.0,255.0,255.0,255.0
174,8.700000000000001,-2.2855932652155317,-7.116802937743847,-2.512308815392248,-0.17568806184338204,0.08580277925917201,-0.5623248820854743,-0.017279085353028023,0.007716695414394792,-0.057331508166491574,0.0,70.0,255.0,255.0,255.0
175,8.75,-2.294399241218103,-7.112503252599897,-2.540496621204543,-0.17655649288560227,0.08618226167346421,-0.5651842832331111,-0.017492183491807367,0.007656800521971263,-0.057247522141734564,0.0,70.0,255.0,255.0,255.0
176,8.8,-2.303248914504092,-7.1081847115765004,-2.568827243715559,-0.17743728019256277,0.08656845931136914,-0.5680496342996477,-0.017767856364248047,0.00797685753681776,-0.057562020747603526,0.0,70.0,255.0,255.0,255.0
177,8.85,-2.3121429692373594,-7.10384640666876,-2.5973015846345078,-0.17833327852202707,0.08697994742714599,-0.5709404853078714,-0.01809858064327763,0.008571819417024784,-0.058165428913703465,0.0,70.0,255.0,255.0,255.0
178,8.9,-2.3210822423562947,-7.099486716833786,-2.625921292246346,-0.17924713825689054,0.08742564125307162,-0.5738661771910181,-0.018470850800778038,0.00924198523035713,-0.058848302782088524,0.0,70.0,255.0,255.0,255.0
179,8.950000000000001,-2.3300676830630485,-7.095103842543453,-2.6546882023536096,-0.18018036360210488,0.0879041459501817,-0.5768253155860803,-0.01886311489278647,0.009779881662463907,-0.059394664971446076,0.0,70.0,255.0,255.0,255.0
180,9.0,-2.339100278716505,-7.090696302238768,-2.683603823804954,-0.18113344974616918,0.08840362941931801,-0.5798056436881627,-0.01927252027078552,0.009975929437899822,-0.05958519665059114,0.0,70.0,255.0,255.0,255.0
181,9.05,-2.3481810280376654,-7.086263479601521,-2.712668766722426,-0.18210761562918343,0.08890173889397168,-0.5827838352511394,-0.019689851948978543,0.009726650178887297,-0.05931189087822197,0.0,70.0,255.0,255.0,255.0
182,9.1,-2.3573110402794235,-7.0818061283493705,-2.741882207330068,-0.18310243494106704,0.08937629443720674,-0.5857368327759849,-0.020039183216269407,0.009144466190313949,-0.05869666225639669,0.0,70.0,255.0,255.0,255.0
183,9.15,-2.366491271531772,-7.0773258501578,-2.7712424500000243,-0.18411153395081037,0.08981618551300308,-0.5886535014767791,-0.02020449739537078,0.008451443676893433,-0.05797824659015127,0.0,70.0,255.0,255.0,255.0
184,9.200000000000001,-2.3757221936745045,-7.07282450979807,-2.800747557477746,-0.18512288468060412,0.09022143880489608,-0.591534657435,-0.02008188164923652,0.0078703513631595,-0.05739640537503199,0.0,70.0,255.0,255.0,255.0
185,9.25,-2.3850035599998325,-7.068303706277311,-2.8303959157435243,-0.18611972211573402,0.09060322064931903,-0.5943931420142823,-0.019565800692999957,0.007623444430215898,-0.057195653960118165,0.0,70.0,255.0,255.0,255.0
186,9.3,-2.394334165886078,-7.063764187733138,-2.8601868716791743,-0.1870794647499041,0.09098378324791767,-0.5972542228310118,-0.018624623951790653,0.007823115173355433,-0.05749698916552859,0.0,70.0,255.0,255.0,255.0
187,9.35,-2.403711506474823,-7.059205327952519,-2.8901213380266255,-0.1879821845109131,0.09138553216665457,-0.6001428409308351,-0.017427297214389625,0.008364907897195906,-0.058162514134973975,0.0,70.0,255.0,255.0,255.0
188,9.4,-2.4131323843371693,-7.054625634516473,-2.920201155772258,-0.18882219447134307,0.09182027403763726,-0.6030704742445092,-0.016271066377848697,0.009037647987586439,-0.05892411878285486,0.0,70.0,255.0,255.0,255.0
189,9.450000000000001,-2.422593725921957,-7.050023300548755,-2.9504283854510764,-0.18960929114869796,0.09228929696541321,-0.6060352528091206,-0.01546110676216017,0.009632139457949052,-0.059519853388989574,0.0,70.0,255.0,255.0,255.0
190,9.5,-2.432093313452039,-7.0453967048199315,-2.98080468105317,-0.1903683051475591,0.09278348798343217,-0.6090224595834082,-0.015300267632811781,0.009946330137378112,-0.05970025277708402,0.0,70.0,255.0,255.0,255.0
191,9.55,-2.441630556436713,-7.040744951750412,-3.0113306314094173,-0.19113931791197913,0.09328392997915103,-0.612005278086829,-0.01592596459794038,0.009874315701097203,-0.05933977949901248,0.0,70.0,255.0,255.0,255.0
192,9.600000000000001,-2.451207245243237,-7.036068311822016,-3.0420052088618528,-0.19196090160735313,0.09377091955354189,-0.6149564375333094,-0.017122676877523446,0.009481310147130273,-0.058540460690714724,0.0,70.0,255.0,255.0,255.0
193,9.65,-2.4608266465974484,-7.031367859795058,-3.072826275162748,-0.19285158559973148,0.09423206099386405,-0.6178593241559005,-0.018478509820374356,0.008912556446549758,-0.05751893795209462,0.0,70.0,255.0,255.0,255.0
194,9.700000000000001,-2.47049240380321,-7.02664510572263,-3.103791141277443,-0.19380875258939056,0.09466217519819686,-0.6207083313285189,-0.01956814351649072,0.008314377517404381,-0.05649695496199314,0.0,70.0,255.0,255.0,255.0
195,9.75,-2.4802075218563875,-7.021901642275238,-3.1348971082956,-0.19480839995138055,0.09506349874560449,-0.6235090196520998,-0.019961147423908088,0.007827225697187856,-0.05568333493162214,0.0,70.0,255.0,255.0,255.0
196,9.8,-2.489973243798348,-7.01713875584807,-3.166142043242653,-0.19580486733178137,0.09544489776791565,-0.6262766648216811,-0.01944494422967402,0.007532395915443857,-0.0551966667313053,0.0,70.0,255.0,255.0,255.0
197,9.850000000000001,-2.4997880085895656,-7.0123571524984465,-3.197524774777768,-0.19675289437434795,0.09581673833714888,-0.6290286863252303,-0.01825281112664001,0.00742621515037456,-0.05502930277589968,0.0,70.0,255.0,255.0,255.0
198,9.9,-2.509648533235783,-7.007557082014355,-3.229044911875176,-0.19763014844444537,0.0961875192829531,-0.6317795950992711,-0.016844078489874903,0.007476601750777689,-0.05512730889596362,0.0,70.0,255.0,255.0,255.0
199,9.950000000000001,-2.51955102343401,-7.002738400570151,-3.2607027342876953,-0.19843730222333544,0.09656439851222665,-0.6345414172148267,-0.01567946602456516,0.007649837651424463,-0.055431813942385944,0.0,70.0,255.0,255.0,255.0
200,10.0,-2.5294922634581165,-6.997900642163132,-3.2924990535966585,-0.1991980950469019,0.09695250304809555,-0.6373227764935097,-0.015223068079484037,0.007900757749279563,-0.05587838884810736,0.0,70.0,255.0,255.0,255.0
201,10.05,-2.5394708329387004,-6.993043150265342,-3.3244350119370463,-0.19995960903128385,0.0973544742871546,-0.6401292560996374,-0.015707405336717883,0.008197126279085865,-0.05641509203737627,0.0,70.0,255.0,255.0,255.0
202,10.100000000000001,-2.549488224361245,-6.9881651947344166,-3.3565119792066223,-0.20076883558057368,0.09777221567600414,-0.6429642856972473,-0.016895262765448393,0.008532990089982206,-0.05698242144558385,0.0,70.0,255.0,255.0,255.0
203,10.15,-2.5595477164967577,-6.983265928697741,-3.388731440506771,-0.2016491353078287,0.09820777329615282,-0.6458274982441958,-0.01831599207102741,0.008900197389039022,-0.05748921574180166,0.0,70.0,255.0,255.0,255.0
204,10.200000000000001,-2.5696531378920278,-6.978344417404801,-3.421094729031042,-0.20260043478767642,0.09866223541490804,-0.6487132072714274,-0.01950084553188347,0.009280584232396194,-0.05783061444404325,0.0,70.0,255.0,255.0,255.0
205,10.25,-2.5798077599755254,-6.97339970515625,-3.4536027612339137,-0.20359921986101703,0.09913583171939244,-0.6516105596886002,-0.019978654850127953,0.00967370600912787,-0.057907072379448365,0.0,70.0,255.0,255.0,255.0
206,10.3,-2.5900130598781295,-6.968430834232862,-3.486255784999902,-0.20459830027268922,0.09962960601582083,-0.6545039145093723,-0.019512287570311315,0.010072385681425544,-0.05767573901116485,0.0,70.0,255.0,255.0,255.0
207,10.350000000000001,-2.6002675900027943,-6.963436744554668,-3.519053152684851,-0.20555044861804816,0.100143070287535,-0.6573781335897166,-0.018336953662467792,0.010404528452667705,-0.05720548696599437,0.0,70.0,255.0,255.0,255.0
208,10.4,-2.6105681047399343,-6.9584165272041085,-3.5519935983588735,-0.206431995638936,0.1006700588610876,-0.6602244632059717,-0.01692113737501444,0.01055990472984547,-0.05663219177400869,0.0,70.0,255.0,255.0,255.0
209,10.450000000000001,-2.620910789566688,-6.95336973866856,-3.585075599005448,-0.2072425623555496,0.10119906076051954,-0.6630413527671175,-0.015730298700944445,0.010441251992610034,-0.05610521546164371,0.0,70.0,255.0,255.0,255.0
210,10.5,-2.6312923609754892,-6.948296621128057,-3.6182977336355853,-0.20800502550903044,0.1017141840603486,-0.6658349847521361,-0.015230237928287593,0.009952483482411623,-0.05578134028145776,0.0,70.0,255.0,255.0,255.0
211,10.55,-2.641711292117591,-6.943198320262525,-3.6516590974806618,-0.20876558614837837,0.1021943091087607,-0.6686194867952633,-0.01565659123516916,0.009065219107640132,-0.05574143909692353,0.0,70.0,255.0,255.0,255.0
212,10.600000000000001,-2.652168919590327,-6.9380771902171805,-3.6851596823151116,-0.20957068463254735,0.10262070597111261,-0.6714091286618284,-0.0167861067335906,0.007931506822700385,-0.055911994327040304,0.0,70.0,255.0,255.0,255.0
213,10.65,-2.6626683605808457,-6.932936249665413,-3.7188000103468446,-0.21044419682173743,0.10298745979103074,-0.6742106862279673,-0.018170274279727394,0.006820090450698757,-0.056146492687148,0.0,70.0,255.0,255.0,255.0
214,10.700000000000001,-2.673213339272501,-6.927778444238077,-3.7525807509379083,-0.2113877120605201,0.10330271501618249,-0.6770237779305432,-0.019364812811328846,0.006006156047799749,-0.05630143746260252,0.0,70.0,255.0,255.0,255.0
215,10.75,-2.6838071317868977,-6.922605978163795,-3.786502388139899,-0.2123806781028703,0.10358807539581072,-0.6798408299742276,-0.019932468028960315,0.005752350736987211,-0.056227613114145925,0.0,70.0,255.0,255.0,255.0
216,10.8,-2.694451407082788,-6.917419636698496,-3.820564833935331,-0.21338095886341613,0.10387795008988121,-0.6826465392419578,-0.019648200635913327,0.0061810502425707625,-0.05585193117396692,0.0,70.0,255.0,255.0,255.0
217,10.850000000000001,-2.7051452276732393,-6.912218183154807,-3.8547670420640947,-0.21434549816646165,0.1042061804200678,-0.6854260230916243,-0.01868943525380473,0.007140493208535048,-0.05526923968912634,0.0,70.0,255.0,255.0,255.0
218,10.9,-2.715885956899434,-6.90699901865649,-3.8891074362444935,-0.2152499023887966,0.10459199941073472,-0.6881734632108705,-0.017426949655030555,0.008327006194974729,-0.05465913351514473,0.0,70.0,255.0,255.0,255.0
219,10.950000000000001,-2.726670217912119,-6.901758983213734,-3.9235843883851818,-0.2160881931319647,0.10503888103956527,-0.6908919364431387,-0.016230310193598996,0.009421862743419496,-0.05419560811419366,0.0,70.0,255.0,255.0,255.0
220,11.0,-2.7374947762126305,-6.896495130552533,-3.9581966298888074,-0.2168729334081565,0.10553418568507666,-0.6935930240222898,-0.015459843335818846,0.010114104245406708,-0.05404816064156215,0.0,70.0,255.0,255.0,255.0
221,11.05,-2.7483575112529346,-6.891205564645226,-3.9929436907874107,-0.21763417746554659,0.10605029146410594,-0.696296752507295,-0.015309953540709742,0.010237806029067542,-0.05429792245399412,0.0,70.0,255.0,255.0,255.0
222,11.100000000000001,-2.759258193959185,-6.8858901014061225,-4.027826305139537,-0.21840392876222747,0.10655796628798342,-0.6990228162676893,-0.015687107962047975,0.009875564632633171,-0.05484657139240845,0.0,70.0,255.0,255.0,255.0
223,11.15,-2.7701979041291573,-6.880549768016428,-4.06284597241418,-0.21920288826175138,0.10703784792736926,-0.7017814096465358,-0.01637181054978676,0.00922200131991957,-0.05550060961647674,0.0,70.0,255.0,255.0,255.0
224,11.200000000000001,-2.7811784827853603,-6.8751863166133855,-4.0980044461041905,-0.22004110981720615,0.10748016641997538,-0.7045728772293369,-0.017146860167294165,0.008473479225035163,-0.05606335618741909,0.0,70.0,255.0,255.0,255.0
225,11.25,-2.792202015110878,-6.86980175137443,-4.133303260137113,-0.2209175742784808,0.10788519584987277,-0.7073877452652777,-0.017800186599803425,0.007819204309189587,-0.05634375364325095,0.0,70.0,255.0,255.0,255.0
226,11.3,-2.8032702402132084,-6.864397797028398,-4.168743220630718,-0.2218211284771865,0.10826208685089433,-0.710207252593662,-0.01820643741625716,0.007373273427102589,-0.056243092296792696,0.0,70.0,255.0,255.0,255.0
227,11.350000000000001,-2.8143841279585966,-6.858975542689341,-4.20432398539648,-0.22273821802010652,0.10862252319258303,-0.713012054494957,-0.018366701662664298,0.00715267949651377,-0.05582988266708,0.0,70.0,255.0,255.0,255.0
228,11.4,-2.825544062015219,-6.85353554470914,-4.240044426080214,-0.22365779864345292,0.10897735480054571,-0.71579024086037,-0.018319561059110256,0.00715123561132458,-0.055253020093726235,0.0,70.0,255.0,255.0,255.0
229,11.450000000000001,-2.836749907822942,-6.848077807209286,-4.275903009482517,-0.22457017412601754,0.10933764675371549,-0.7185373565043296,-0.01809656149149852,0.0073699080014755225,-0.054664253848812905,0.0,70.0,255.0,255.0,255.0
230,11.5,-2.8480010794278208,-6.842601780033768,-4.311898161730647,-0.22546745479260277,0.10971434560069326,-0.7212566662452513,-0.017731391616937486,0.00781709716548562,-0.05421281546142964,0.0,70.0,255.0,255.0,255.0
231,11.55,-2.859296653302202,-6.837106372649217,-4.348028676107042,-0.2263433132877113,0.11011935647026405,-0.7239586380504726,-0.01725655786670721,0.008476839191473573,-0.05398248225185753,0.0,70.0,255.0,255.0,255.0
232,11.600000000000001,-2.870635410756592,-6.831589844386742,-4.384294025535694,-0.2271931105792735,0.11056202951984062,-0.7266549144704371,-0.016726924548260413,0.009232878221432372,-0.05395026157550831,0.0,70.0,255.0,255.0,255.0
233,11.65,-2.8820159643601295,-6.826050169697233,-4.420694167554085,-0.22801600574253733,0.11104264429240729,-0.7293536642080234,-0.016230784374604568,0.009892217073215193,-0.054051785532927,0.0,70.0,255.0,255.0,255.0
234,11.700000000000001,-2.8934370113308456,-6.820485579957501,-4.4572293919564965,-0.22881618901673395,0.11155125122716214,-0.7320600930237298,-0.015865868225439783,0.010254627696237861,-0.05422582888350291,0.0,70.0,255.0,255.0,255.0
235,11.75,-2.904897583261803,-6.8148950445745164,-4.493900176856458,-0.2296025925650813,0.11206810706203107,-0.7347762470963737,-0.015718256256302965,0.010120425676696243,-0.05441300315940367,0.0,70.0,255.0,255.0,255.0
236,11.8,-2.9163972705873538,-6.809278769251298,-4.530707016666134,-0.23038801464236425,0.11256329379483176,-0.7375013933396701,-0.01582784393763248,0.009405057453104604,-0.054574204803525816,0.0,70.0,255.0,255.0,255.0
237,11.850000000000001,-2.9279363847260393,-6.803638715195033,-4.567650316190425,-0.23118537695884456,0.11300861280734154,-0.7402336675767263,-0.01616112462001773,0.008282054704444874,-0.054690003431723255,0.0,70.0,255.0,255.0,255.0
238,11.9,-2.939515808283238,-6.797977907970564,-4.6047303834238065,-0.23200412710436602,0.11339149926527625,-0.7429703936828425,-0.016640937806355893,0.007075327330774428,-0.054738066212234315,0.0,70.0,255.0,255.0,255.0
239,11.950000000000001,-2.951136797436476,-6.792299565268506,-4.64194735555871,-0.23284947073948015,0.11371614554041898,-0.7457074741979497,-0.017180478426981338,0.006117128998894827,-0.054692943437650854,0.0,70.0,255.0,255.0,255.0
240,12.0,-2.9628007553571862,-6.786606293416522,-4.679301130843601,-0.23372217494706415,0.11400321216516573,-0.7484396880266075,-0.01770756470929058,0.005729172155444218,-0.05453517190074919,0.0,70.0,255.0,255.0,255.0
241,12.05,-2.9745090149311824,-6.780899244051989,-4.71679132436137,-0.2346202272104092,0.1142890627559634,-0.7511609913880246,-0.01817257920340154,0.006070017243420267,-0.05426018571412783,0.0,70.0,255.0,255.0,255.0
242,12.100000000000001,-2.986262778078227,-6.775177387140926,-4.754417229982404,-0.2355394328674043,0.11461021388950776,-0.7538657065980203,-0.01851221333573072,0.006989019511838279,-0.05389149625987244,0.0,70.0,255.0,255.0,255.0
243,12.15,-2.998062958217923,-6.769438222663038,-4.792177895021172,-0.23647144854398228,0.11498796470714723,-0.7565501410140119,-0.018640988875606723,0.008175517892450301,-0.05347501721608694,0.0,70.0,255.0,255.0,255.0
244,12.200000000000001,-3.0099099229326254,-6.763678590670211,-4.830072244083805,-0.23740353175496498,0.11542776567875279,-0.759213208319629,-0.018479444173546966,0.009310795701189534,-0.05306188454552441,0.0,70.0,255.0,255.0,255.0
245,12.25,-3.0218033113934193,-6.757895446095163,-4.868099215853135,-0.23831939296133697,0.11591904427726618,-0.7618563294685643,-0.017947522202410582,0.01009090434926918,-0.05269031856212081,0.0,70.0,255.0,255.0,255.0
246,12.3,-3.033741862228759,-6.752086686242484,-4.9062578770306615,-0.23919828397520604,0.11643685611367971,-0.7644822401758411,-0.0170270140739337,0.010348812968175025,-0.05238505234004265,0.0,70.0,255.0,255.0,255.0
247,12.350000000000001,-3.04572313979094,-6.746251760483795,-4.944547439870719,-0.24002209436873034,0.11695392557408368,-0.7670948347025686,-0.015872632759661442,0.010130911537853393,-0.052181307566634416,0.0,70.0,255.0,255.0,255.0
248,12.4,-3.057744071665632,-6.740391293685076,-4.982967360500918,-0.24078554725117218,0.11744994726746505,-0.7697003709325045,-0.014755013451450694,0.009572717648520523,-0.05212456888585848,0.0,70.0,255.0,255.0,255.0
249,12.450000000000001,-3.069801694516057,-6.7345067657570485,-5.02151747696397,-0.2414975957138754,0.11791119733893574,-0.7723072915911544,-0.013953493130669514,0.008813487729231184,-0.05225280509293384,0.0,70.0,255.0,255.0,255.0
250,12.5,-3.0818938312370197,-6.7286001739511825,-5.060198089660034,-0.24218089656423913,0.11833129604038817,-0.7749256514417979,-0.013738337156921077,0.007987210447701898,-0.05260751655482565,0.0,70.0,255.0,255.0,255.0
251,12.55,-3.094019784172481,-6.72267363615301,-5.09901004210815,-0.24287142942956752,0.11870991838370593,-0.777568043246637,-0.014233676855202049,0.007186479137022417,-0.053193917279958924,0.0,70.0,255.0,255.0,255.0
252,12.600000000000001,-3.1061809741799764,-6.716729182112812,-5.1379548939846975,-0.24360426424975934,0.11904994395409041,-0.7802450431697938,-0.015268304576609992,0.006484537134809898,-0.05390243431246944,0.0,70.0,255.0,255.0,255.0
253,12.65,-3.118380210597457,-6.710768641757601,-5.177034546425129,-0.24439825988722852,0.11935837209718692,-0.7829582866778839,-0.016506230045676418,0.005978926198046963,-0.054545868080158044,0.0,70.0,255.0,255.0,255.0
254,12.700000000000001,-3.1306208001686993,-6.704793344903093,-5.216250722652486,-0.24525488725432698,0.1196478365738951,-0.7856996299778096,-0.017594322231628823,0.005773714919321549,-0.05493463401018417,0.0,70.0,255.0,255.0,255.0
255,12.75,-3.1429056993228897,-6.698803858100211,-5.25560450942291,-0.2461576921103914,0.11993574358911907,-0.7884517500789023,-0.01817511984611997,0.00596025386006005,-0.05488763386596318,0.0,70.0,255.0,255.0,255.0
256,12.8,-3.1552365693797384,-6.692799770544181,-5.295095897660376,-0.24707239923893898,0.12024386195990111,-0.7911883933644059,-0.01806550461247447,0.006566808945684954,-0.05432496618622551,0.0,70.0,255.0,255.0,255.0
257,12.850000000000001,-3.1676129392467836,-6.686779471904221,-5.334723348759351,-0.24796424257163885,0.12059242448368757,-0.7938842466975249,-0.01742319322266539,0.007485625237890758,-0.05337520226982306,0.0,70.0,255.0,255.0,255.0
258,12.9,-3.1800329936369023,-6.6807405280958125,-5.374484322330129,-0.24881471856120552,0.12099242448369019,-0.7965259135913882,-0.016570182915520704,0.008514374762125243,-0.05228739002891558,0.0,70.0,255.0,255.0,255.0
259,12.950000000000001,-3.192494411102904,-6.674680229455852,-5.414375940118489,-0.24962126086319092,0.12144386195990009,-0.7991129857004164,-0.01582959090353775,0.009433191054331047,-0.05132091993855781,0.0,70.0,255.0,255.0,255.0
260,13.0,-3.2049951197232214,-6.6685961418998225,-5.45439562090017,-0.2503976776515593,0.12193574358912329,-0.801658005585244,-0.015537127515052873,0.01003974614004477,-0.050721947981102744,0.0,70.0,255.0,255.0,255.0
261,13.05,-3.21753417886806,-6.66248665509694,-5.494541740677014,-0.2511749736146962,0.12244783657390457,-0.8041851804985267,-0.01586365201409201,0.010226285080605635,-0.050619504688498296,0.0,70.0,255.0,255.0,255.0
262,13.100000000000001,-3.230112617084691,-6.656351358242432,-5.534814138950023,-0.2519840428529685,0.12295837209718385,-0.8067199560540939,-0.01663258220636621,0.010021073801702585,-0.05094864472043881,0.0,70.0,255.0,255.0,255.0
263,13.15,-3.242732583153357,-6.650190817887221,-5.575213736282423,-0.2528382318353328,0.12344994395407483,-0.8092800449705706,-0.017500217779176097,0.009515462865117286,-0.0515526836921687,0.0,70.0,255.0,255.0,255.0
264,13.200000000000001,-3.2553964402682243,-6.644006363847025,-5.61574214344708,-0.2537340646308861,0.12390991838369558,-0.8118752244233107,-0.018133654480356753,0.00881352086317122,-0.05226839952205964,0.0,70.0,255.0,255.0,255.0
265,13.25,-3.2681059896164455,-6.637799826048852,-5.656401258724754,-0.2546515972833685,0.12433129604039195,-0.8145068849227766,-0.018196463333941537,0.008012789552402921,-0.05294457421012311,0.0,70.0,255.0,255.0,255.0
266,13.3,-3.280861599996561,-6.631573234242985,-5.697192831939358,-0.25555371096428026,0.12471119733893588,-0.817169681844323,-0.01752622765764933,0.0071865122706071816,-0.053484753988009004,0.0,70.0,255.0,255.0,255.0
267,13.350000000000001,-3.2936613607128735,-6.625328706314958,-5.738118226909187,-0.25640422004913344,0.12504994726745267,-0.8198553603215775,-0.016333657439338012,0.006427282351317842,-0.05383478761267213,0.0,70.0,255.0,255.0,255.0
268,13.4,-3.3065020220014745,-6.61906823951624,-5.779178367971515,-0.25718707670821406,0.12535392557406766,-0.8225531606055903,-0.015022605641412667,0.005869088462340244,-0.05393562811537578,0.0,70.0,255.0,255.0,255.0
269,13.450000000000001,-3.319380068383695,-6.612793313757551,-5.820373542969746,-0.2579064806132747,0.1256368561136867,-0.825248923133115,-0.013995138494315995,0.00565118703210743,-0.053726507614282326,0.0,70.0,255.0,255.0,255.0
270,13.5,-3.332292670062802,-6.6065045539048715,-5.861703260284827,-0.25858659055764566,0.1259190442772784,-0.8279258113670185,-0.013652963204791035,0.0059090956508356385,-0.053143764503094104,0.0,70.0,255.0,255.0,255.0
271,13.55,-3.3452387274394595,-6.600201409329824,-5.9031661241064475,-0.2592717769337538,0.12622776567877025,-0.8305632995834245,-0.01419181031545591,0.006689204298826468,-0.05217994089816713,0.0,70.0,255.0,255.0,255.0
272,13.600000000000001,-3.3582198477561773,-6.593881777336994,-5.944759590243169,-0.26000577158919125,0.12658796470716105,-0.8331438054568352,-0.015382904586802582,0.007824482107299247,-0.050994815551330674,0.0,70.0,255.0,255.0,255.0
273,13.65,-3.3712393045983786,-6.5875426128591075,-5.986480504652131,-0.26081006739243406,0.12701021388950018,-0.8356627811385575,-0.016778403944250897,0.009010980488000087,-0.0498647106063288,0.0,70.0,255.0,255.0,255.0
274,13.700000000000001,-3.3843008544954207,-6.581180755948044,-6.028325868357025,-0.26168361198361634,0.12748906275596106,-0.8381302765174681,-0.017926444223137494,0.009929982756684552,-0.049077318272328085,0.0,70.0,255.0,255.0,255.0
275,13.75,-3.3974076657967403,-6.574793706583511,-6.070293532303878,-0.2626027118147478,0.12800321216516863,-0.8405705129657903,-0.018371730466837377,0.010270827844660602,-0.04891635845298836,0.0,70.0,255.0,255.0,255.0
276,13.8,-3.4105611256768955,-6.5683804347315276,-6.112382919653604,-0.2635207850303001,0.12851614554042712,-0.8430219123627669,-0.017886670940203686,0.00988287100085472,-0.04950979477387207,0.0,70.0,255.0,255.0,255.0
277,13.850000000000001,-3.4237597442997703,-6.561942092029469,-6.1545957235401545,-0.2643913789087682,0.1289914992652541,-0.8455214924431775,-0.016705540064521074,0.00892467266897512,-0.05065699913302524,0.0,70.0,255.0,255.0,255.0
278,13.9,-3.4370002635677723,-6.555481284805002,-6.196935068897922,-0.2651913390367522,0.12940861280732463,-0.8480876122760694,-0.015292962730928394,0.0077179452958375805,-0.05197280218647293,0.0,70.0,255.0,255.0,255.0
279,13.950000000000001,-3.4502788782034455,-6.549001230748736,-6.239404484767761,-0.265920675181861,0.12976329379483786,-0.8507187726618248,-0.014112231466123504,0.006594942547000215,-0.05305867151133015,0.0,70.0,255.0,255.0,255.0
280,14.0,-3.4635923310859584,-6.542504955425518,-6.282006946164104,-0.26660256218336453,0.13006810706202465,-0.8533934794272025,-0.013628040335778024,0.0058795743232309405,-0.053518820333398054,0.0,70.0,255.0,255.0,255.0
281,14.05,-3.476939134421782,-6.535994420042534,-6.324743832710482,-0.2672834792154388,0.13035125122716096,-0.8560706546951646,-0.014074652776718821,0.00574537230377814,-0.053154306579195065,0.0,70.0,255.0,255.0,255.0
282,14.100000000000001,-3.4903206790075023,-6.529469830302802,-6.367614011633621,-0.2680100274610364,0.13064264429240247,-0.858708910085122,-0.015224119304324546,0.006107782926889627,-0.05214800376718287,0.0,70.0,255.0,255.0,255.0
283,14.15,-3.5037401371678856,-6.5229301556132935,-6.410614723718994,-0.2688058911458713,0.13096202951984992,-0.8612854550718829,-0.016620560983238164,0.006767121778761265,-0.05087326479733534,0.0,70.0,255.0,255.0,255.0
284,14.200000000000001,-3.5172012681220894,-6.516373627350817,-6.453742557140809,-0.26967208355936023,0.1313193564702786,-0.8637962365648555,-0.017811483059526623,0.007523160808542428,-0.04970785582161241,0.0,70.0,255.0,255.0,255.0
285,14.25,-3.5307073455238216,-6.509798219966266,-6.496994347375479,-0.27058703945182394,0.13171434560070416,-0.8662562406540442,-0.01834818278165784,0.008182902834441563,-0.04902831359352433,0.0,70.0,255.0,255.0,255.0
286,14.3,-3.544259972067272,-6.503202192790747,-6.5403681812062135,-0.271506901837526,0.13213764675372275,-0.8686990679242079,-0.018001571099546254,0.008630091998362843,-0.04903232622917031,0.0,70.0,255.0,255.0,255.0
287,14.350000000000001,-3.557858035707574,-6.496584455290893,-6.5838642541679,-0.27238719656177857,0.13257735480054045,-0.8711594732769612,-0.016968798569338972,0.008848764388424968,-0.04958194150956885,0.0,70.0,255.0,255.0,255.0
288,14.4,-3.5714986917234497,-6.489944457310693,-6.62748412853391,-0.2732037816944599,0.13302252319256525,-0.8736572620751648,-0.015653977485197146,0.008847320503235778,-0.050384022074467794,0.0,70.0,255.0,255.0,255.0
289,14.450000000000001,-3.58517841387702,-6.483282202971637,-6.671229980375417,-0.2739525943102983,0.13346208685086403,-0.876197875484408,-0.014461696435486004,0.008626726572558141,-0.051149532240657436,0.0,70.0,255.0,255.0,255.0
290,14.5,-3.5988939511544795,-6.476598248625606,-6.7151039160823505,-0.2746499513380085,0.13388519584982106,-0.8787722152992306,-0.013799181917439896,0.008180795690559961,-0.05159198123516617,0.0,70.0,255.0,255.0,255.0
291,14.55,-3.612643409010821,-6.469893683386655,-6.75910720190534,-0.27533251250204227,0.13428016641992002,-0.8813570736079246,-0.013878410144707587,0.0075265207754249275,-0.05155704118546822,0.0,70.0,255.0,255.0,255.0
292,14.600000000000001,-3.6264272024046837,-6.463170231983614,-6.803239623443143,-0.27603779235247927,0.13463784792736355,-0.8839279194177774,-0.014531642129567146,0.006777998681251063,-0.05113057052241743,0.0,70.0,255.0,255.0,255.0
293,14.65,-3.640247188246069,-6.456429898593918,-6.8474999938471175,-0.276785676714999,0.13495796628804513,-0.8864701306601663,-0.015413412525377979,0.006124435368892733,-0.05050346741803935,0.0,70.0,255.0,255.0,255.0
294,14.700000000000001,-3.6541057700761836,-6.44967443535481,-6.89188663650916,-0.27757913360501707,0.13525029146425283,-0.8889782661595813,-0.016181358237998822,0.0057621939725471805,-0.04986110146187883,0.0,70.0,255.0,255.0,255.0
295,14.75,-3.6680051016065707,-6.442904869447493,-6.936397820463076,-0.27840381253879887,0.13553418568529985,-0.8914562408063542,-0.016479145493164538,0.005885895755142201,-0.04938772416851478,0.0,70.0,255.0,255.0,255.0
296,14.8,-3.6819461513300635,-6.43612101678628,-6.981032260589795,-0.2792270481543335,0.13583888103976705,-0.8939170385764328,-0.01612544100235702,0.006578137254820149,-0.04918556963540155,0.0,70.0,255.0,255.0,255.0
297,14.850000000000001,-3.695927806422004,-6.429320981343516,-7.025789524320719,-0.28001635663903457,0.13619199941078186,-0.8963747977698944,-0.015310973238635839,0.007672993800955652,-0.049212140037901975,0.0,70.0,255.0,255.0,255.0
298,14.9,-3.709947786993967,-6.422501816845202,-7.070669740366784,-0.2807581454781971,0.1366061804198626,-0.898838252580223,-0.014405192925925903,0.008859506785618976,-0.049366583778365225,0.0,70.0,255.0,255.0,255.0
299,14.950000000000001,-3.7240036209698237,-6.41566036330153,-7.115673349578741,-0.28145687593162716,0.13707795008934376,-0.9013114561477309,-0.013766530285908019,0.009818949751494443,-0.04955226237814969,0.0,70.0,255.0,255.0,255.0
300,15.0,-3.7380934745871297,-6.408794021836267,-7.1608008859815575,-0.2821347985067879,0.13758807539501205,-0.903793478818038,-0.01376414287030947,0.010247649260808345,-0.04966514073778683,0.0,70.0,255.0,255.0,255.0
301,15.05,-3.7522171008205025,-6.401901555762029,-7.206052697460545,-0.2828332902186581,0.1381027150154246,-0.9062779702215096,-0.014573485519653318,0.009993843957811777,-0.04964790638029015,0.0,70.0,255.0,255.0,255.0
302,15.100000000000001,-3.7663768036089955,-6.394983750334725,-7.2514286830037085,-0.28359214705875324,0.13858745979079323,-0.908758269456067,-0.01593728542812478,0.009179909564860367,-0.04954180172722644,0.0,70.0,255.0,255.0,255.0
303,15.15,-3.780576315526378,-6.38804280978295,-7.296928524406152,-0.2844270187614706,0.13902070597191063,-0.9112321503942322,-0.01737215609698417,0.008068493199964166,-0.049428425906494766,0.0,70.0,255.0,255.0,255.0
304,15.200000000000001,-3.7948195054851426,-6.381081679737534,-7.342551898043132,-0.28532936266845166,0.13939430911078965,-0.9137011120467164,-0.018399886586051295,0.006934780914225058,-0.04938364855959776,0.0,70.0,255.0,255.0,255.0
305,15.25,-3.809109251793223,-6.374103378871871,-7.388298635610823,-0.2862670074200757,0.13971418406333314,-0.916170515250192,-0.018540366942110253,0.006047516525420349,-0.04949968490803869,0.0,70.0,255.0,255.0,255.0
306,15.3,-3.82344620622715,-6.3671102613312005,-7.434168949568151,-0.2871833993626627,0.13999906076333168,-0.9186510805375203,-0.017566444424943484,0.005558747985379142,-0.04981609155683131,0.0,70.0,255.0,255.0,255.0
307,15.350000000000001,-3.8378275917294893,-6.3601034727955374,-7.480163743664575,-0.28802365186257006,0.14027005886187105,-0.9211521244058751,-0.015791540060172693,0.005440095212350116,-0.05022065305331225,0.0,70.0,255.0,255.0,255.0
308,15.4,-3.852248571413407,-6.353083255445013,-7.526284162008738,-0.28876255336867995,0.1405430702845667,-0.9236731458428515,-0.013816205995764719,0.005595471464214796,-0.050519712596042154,0.0,70.0,255.0,255.0,255.0
309,15.450000000000001,-3.8667038470663573,-6.346049165767081,-7.5725310582488605,-0.28940527246214653,0.14082960600829253,-0.9262040956654793,-0.012246044582342464,0.00592761423741095,-0.050526569957121126,0.0,70.0,255.0,255.0,255.0
310,15.5,-3.881189098659622,-6.339000294844184,-7.618904571575286,-0.2899871578269142,0.1411358317083078,-0.9287258028385637,-0.011686324093362899,0.006326293961578244,-0.050040175572885204,0.0,70.0,255.0,255.0,255.0
311,15.55,-3.8957025628490487,-6.33193558259625,-7.665403638532717,-0.2905739048714828,0.14146223540445035,-0.9312081132227679,-0.01243439645421951,0.006719415848976951,-0.048980128324949135,0.0,70.0,255.0,255.0,255.0
312,15.600000000000001,-3.91024648914677,-6.324854071303739,-7.712025382897563,-0.29123059747233615,0.14180777329320549,-0.9336238156710586,-0.014161262956235987,0.007099802825827339,-0.04757912918371687,0.0,70.0,255.0,255.0,255.0
313,15.65,-3.9248256225962823,-6.3177548052669295,-7.758766020099823,-0.2919900311671064,0.1421722156870331,-0.9359660261411396,-0.016217472134405497,0.007467010220274517,-0.04625085890728187,0.0,70.0,255.0,255.0,255.0
314,15.700000000000001,-3.9394454922634807,-6.310636849735036,-7.805621985511677,-0.2928523446857767,0.14255447431523294,-0.9382489015617868,-0.017950014338374842,0.007802874024509521,-0.045408906110466773,0.0,70.0,255.0,255.0,255.0
315,15.75,-3.95411085706486,-6.303499357835406,-7.852590910256001,-0.2937850326009439,0.14295250308948404,-0.9405069167521862,-0.018710420600021038,0.008099242360426473,-0.0454715475317613,0.0,70.0,255.0,255.0,255.0
316,15.8,-3.968823995523575,-6.296341599426087,-7.899672677186896,-0.2947233867457788,0.14336439855127558,-0.9427960563149629,-0.018169536191470215,0.008350162045367426,-0.04662479374495376,0.0,70.0,255.0,255.0,255.0
317,15.850000000000001,-3.983583195739438,-6.289162917980279,-7.946870515887498,-0.29560198622009093,0.14378751929402078,-0.9451693961266816,-0.016619631891945374,0.008523397447035563,-0.04853210760185078,0.0,70.0,255.0,255.0,255.0
318,15.9,-3.998384194145584,-6.281962847496685,-7.994189616799564,-0.29638534993497334,0.14421673829597914,-0.947649267075148,-0.014657681690977142,0.008573783691456782,-0.05056505690337332,0.0,70.0,255.0,255.0,255.0
319,15.950000000000001,-4.013221730732935,-6.274741244150681,-8.041635442595013,-0.29706775438918864,0.14464489766316646,-0.9502259018170189,-0.01288033162967217,0.00846760295170057,-0.05208619720944441,0.0,70.0,255.0,255.0,255.0
320,16.0,-4.028090969584503,-6.267498357730369,-8.089212206981266,-0.29767338309794056,0.1450634985911492,-0.9528578867960924,-0.011875909590086664,0.008172773892844987,-0.05246169956771851,0.0,70.0,255.0,255.0,255.0
321,16.05,-4.042989069042729,-6.260234894291566,-8.136921231274622,-0.2982553453481973,0.14546217505245096,-0.9554720717737908,-0.011953379526641328,0.0076856236145061985,-0.051386524200047745,0.0,70.0,255.0,255.0,255.0
322,16.1,-4.057916504119323,-6.252952140225124,-8.184759414158645,-0.2988687210506047,0.14583206095259982,-0.9579965392160972,-0.012905757261716388,0.007087446546449883,-0.049229503346381875,0.0,70.0,255.0,255.0,255.0
323,16.150000000000002,-4.07287594114779,-6.245651688196306,-8.232720885196231,-0.29954592107436895,0.14617091970709595,-0.960395022108429,-0.014287092476727992,0.006518694174761919,-0.04671352886518321,0.0,70.0,255.0,255.0,255.0
324,16.2,-4.08787109622676,-6.238335048254414,-8.280798916369488,-0.3002974302982775,0.146483930370076,-0.9626678921026155,-0.015654999468761588,0.0061256885288685226,-0.044571712977337086,0.0,70.0,255.0,255.0,255.0
325,16.25,-4.1029056841776175,-6.231003295159298,-8.328987674406493,-0.3011114210212451,0.1467834885599828,-0.9648521934061627,-0.016574006307568112,0.006053671392525217,-0.04352957960485071,0.0,70.0,255.0,255.0,255.0
326,16.3,-4.117982238328884,-6.223656699398416,-8.377284135710104,-0.3019548309290343,0.14708929750932853,-0.9670208500631006,-0.01680482449044618,0.0063678563157587575,-0.04395554301996896,0.0,70.0,255.0,255.0,255.0
327,16.35,-4.133101167270521,-6.216294365408365,-8.425689759412803,-0.3027919034702897,0.14742027419155868,-0.9692477477081596,-0.01644731575112246,0.006962340842786574,-0.04553095127324269,0.0,70.0,255.0,255.0,255.0
328,16.400000000000002,-4.148261428675913,-6.20891467197926,-8.47420891048092,-0.30359956250414655,0.1477855315936072,-0.9715739451904248,-0.015742293390452744,0.007635075973944083,-0.0475997553762042,0.0,70.0,255.0,255.0,255.0
329,16.45,-4.163461123520936,-6.201515812249005,-8.522847153931846,-0.304366132809335,0.14818378178895308,-0.97400772324578,-0.01492055627592137,0.008176869040177337,-0.04950051731533733,0.0,70.0,255.0,255.0,255.0
330,16.5,-4.178698041956847,-6.1940962938003645,-8.571609682805498,-0.3050916181317387,0.14860321849762492,-0.9765239969219586,-0.014204009235285753,0.008376549861122129,-0.050572056604991644,0.0,70.0,255.0,255.0,255.0
331,16.55,-4.193970285334109,-6.186655490399242,-8.620499553624041,-0.3057865337328636,0.1490214367750653,-0.9790649289062792,-0.013726157010474083,0.008129664408507153,-0.050465895793117,0.0,70.0,255.0,255.0,255.0
332,16.6,-4.209276695330133,-6.179194150122858,-8.669516175696126,-0.3064642338327861,0.14941618493847564,-0.9815705865012703,-0.013500410969413679,0.0075485980077338866,-0.04942207617482097,0.0,70.0,255.0,255.0,255.0
333,16.650000000000002,-4.224616708717388,-6.1717138719053946,-8.718656612274168,-0.30713657482980494,0.14977629657583869,-0.9840071365237613,-0.013509981048276387,0.006855594004395726,-0.04795038669520579,0.0,70.0,255.0,255.0,255.0
334,16.7,-4.2399903528131135,-6.164216520465274,-8.767916889348502,-0.30781523193761373,0.1501017443389152,-0.9863656251707908,-0.013748463072893458,0.006273408736401365,-0.04655367696884127,0.0,70.0,255.0,255.0,255.0
335,16.75,-4.255398231911149,-6.156703697471503,-8.817293174791248,-0.3085114211370943,0.15040363744947882,-0.9886625042206454,-0.014217975399066773,0.006024091866763115,-0.04574210073364782,0.0,70.0,255.0,255.0,255.0
336,16.8,-4.270841494926823,-6.149176156720326,-8.866783139770567,-0.3092370294775204,0.15070415352559152,-0.9909398352441556,-0.014898286395403915,0.0062200594774353135,-0.045786281732951295,0.0,70.0,255.0,255.0,255.0
337,16.85,-4.2863219348589015,-6.141633282118944,-8.916387158315663,-0.3100012497766347,0.15102564339722235,-0.9932411323939405,-0.0156702012101384,0.0067578592013006755,-0.046490767337381556,0.0,70.0,255.0,255.0,255.0
338,16.900000000000002,-4.301841619904486,-6.134073592380604,-8.96610725300996,-0.31080404959853425,0.1513799394457216,-0.9955889119778938,-0.016336943256245462,0.007427955933181352,-0.04745035285615984,0.0,70.0,255.0,255.0,255.0
339,16.95,-4.317402339818755,-6.126495288174372,-9.015946049513452,-0.3116349441022592,0.1517684389905405,-0.9979861676795565,-0.01669333036078413,0.008022922587258563,-0.04827731560173021,0.0,70.0,255.0,255.0,255.0
340,17.0,-4.333005114314712,-6.11889674848155,-9.065905869777916,-0.31247338263461266,0.15218223170444745,-1.0004166435380668,-0.016532107815958597,0.008343119968401425,-0.04858765234754259,0.0,70.0,255.0,255.0,255.0
341,17.05,-4.348649678082216,-6.111277065003927,-9.11598771386726,-0.3132881548838551,0.15260275098738063,-1.0028449329143108,-0.01576638505307315,0.008283524255414676,-0.048182543710062475,0.0,70.0,255.0,255.0,255.0
342,17.1,-4.364333929803098,-6.103636473382812,-9.166190363069347,-0.31405002113992,0.1530105841299889,-1.005234897909073,-0.014585031276315163,0.007905373112748748,-0.04722296636359147,0.0,70.0,255.0,255.0,255.0
343,17.150000000000002,-4.380054680196208,-6.095976006590928,-9.216511203658166,-0.3147466580114866,0.1533932882986555,-1.00756722955067,-0.013337677162361672,0.0073471743370134845,-0.046040089992160915,0.0,70.0,255.0,255.0,255.0
344,17.2,-4.3958085956042465,-6.088297144552946,-9.266947086024414,-0.31538378885615614,0.15374530156369026,-1.0098389069082891,-0.012383763269951942,0.006748187627358959,-0.04495692076478264,0.0,70.0,255.0,255.0,255.0
345,17.25,-4.411593059081824,-6.080601476434559,-9.317495094348995,-0.3159850343384818,0.1540681070613914,-1.0120629216271482,-0.01208156536502969,0.0062394189359160634,-0.04428323393153022,0.0,70.0,255.0,255.0,255.0
346,17.3,-4.427407099038095,-6.072890333846807,-9.36815337818713,-0.3165919453926591,0.15436924345728187,-1.0142672303014422,-0.012603259638765962,0.005898617393640393,-0.044183403566577795,0.0,70.0,255.0,255.0,255.0
347,17.35,-4.44325225362109,-6.065164552088831,-9.41892181737914,-0.3172453603023584,0.15465796880075544,-1.016481261983806,-0.013739790234446048,0.005737011985118556,-0.04456925531997058,0.0,70.0,255.0,255.0,255.0
348,17.400000000000002,-4.4591316350683305,-6.057424536966732,-9.46980150438551,-0.3179659244161037,0.15494294465579372,-1.0187241558334392,-0.015081392383642367,0.005747822243140632,-0.04523739906350244,0.0,70.0,255.0,255.0,255.0
349,17.45,-4.4750488460627,-6.0496702576232515,-9.520794232962484,-0.31875349954072263,0.1552327510250695,-1.0210050018901562,-0.016212269240512,0.005923814081487677,-0.04598171462593115,0.0,70.0,255.0,255.0,255.0
350,17.5,-4.491006985022403,-6.041901261864225,-9.571902004574525,-0.3195871513401549,0.1555353260639425,-1.0233223272960323,-0.016721677343767283,0.0062551949642219995,-0.046599411925285494,0.0,70.0,255.0,255.0,255.0
351,17.55,-4.5070075611967155,-6.034116725016857,-9.623126465692087,-0.32042566727509936,0.1558582705214917,-1.0256649430826847,-0.016400716251574465,0.006723031810462743,-0.04697158095048337,0.0,70.0,255.0,255.0,255.0
352,17.6,-4.523049551749913,-6.0263154348120755,-9.674468498882794,-0.32122722296531236,0.15620762924498877,-1.0280194853910807,-0.01542662363682723,0.007265739786532777,-0.047104581121359956,0.0,70.0,255.0,255.0,255.0
353,17.650000000000002,-4.539130283493247,-6.018495962092358,-9.725928414231195,-0.3219683296387821,0.15658484450014498,-1.0303754011948207,-0.014165937452670363,0.007780697530890279,-0.04704406666888872,0.0,70.0,255.0,255.0,255.0
354,17.7,-4.555246384713791,-6.010656950362061,-9.777506039002276,-0.3226438167105794,0.1569856989980778,-1.0327238920579696,-0.012987019907928499,0.008157581686774051,-0.04683053308607299,0.0,70.0,255.0,255.0,255.0
355,17.75,-4.571394665164305,-6.002797392192551,-9.829200803436992,-0.32326703162957493,0.1574006026688224,-1.035058454503428,-0.01225167863934118,0.008295791883128345,-0.04651109971778311,0.0,70.0,255.0,255.0,255.0
356,17.8,-4.5875730878767484,-5.994916890095179,-9.881011884452619,-0.3238689845745135,0.15781527818639063,-1.0373750020297479,-0.012153222674093911,0.008148742544111798,-0.046122533702508406,0.0,70.0,255.0,255.0,255.0
357,17.85,-4.603781563621756,-5.9870158643739115,-9.932938303639967,-0.3244823538969843,0.15821547692323357,-1.0396707078736789,-0.01258467092952742,0.007764504393392713,-0.045693259356305305,0.0,70.0,255.0,255.0,255.0
358,17.900000000000002,-4.620021323266447,-5.9790953424028555,-9.984978955239987,-0.32512745166746626,0.1585917286257299,-1.0419443279653784,-0.013304741256003894,0.0072457512703572036,-0.04526717342425712,0.0,70.0,255.0,255.0,255.0
359,17.95,-4.636294308788503,-5.9711566915113385,-10.037132736436504,-0.3258128280225847,0.1589400520502693,-1.0441974252161046,-0.014072564880773797,0.006705346349722419,-0.04490184067531544,0.0,70.0,255.0,255.0,255.0
360,18.0,-4.652602606068705,-5.9632013371978285,-10.089398697761597,-0.32653470815554364,0.15926226326070214,-1.04643451203291,-0.014643636070221788,0.006249656150458804,-0.044652226497454706,0.0,70.0,255.0,255.0,255.0
361,18.05,-4.668947779604057,-5.955230465185268,-10.141776187639795,-0.3272771916296069,0.15956501766531517,-1.04866264786585,-0.014880845266151965,0.0059414851929950885,-0.044544997526152486,0.0,70.0,255.0,255.0,255.0
362,18.1,-4.685330325231666,-5.947244835431297,-10.194264962548182,-0.32802279268215884,0.15985641178000165,-1.0508890117855252,-0.014839261410326543,0.005792606277221779,-0.04455967749219525,0.0,70.0,255.0,255.0,255.0
363,18.150000000000002,-4.701750058872273,-5.939244824007268,-10.246865088818348,-0.32876111777063954,0.16014427829303735,-1.0531186156150696,-0.014648850437470884,0.005800772912856189,-0.04464994359754115,0.0,70.0,255.0,255.0,255.0
364,18.2,-4.71820643700873,-5.931230407601993,-10.299576824109689,-0.3294876777259059,0.16043648907128727,-1.0553540061452793,-0.014430319636549171,0.0059605200927848045,-0.044762104211315545,0.0,70.0,255.0,255.0,255.0
365,18.25,-4.7346988266448635,-5.923201175100139,-10.352400489432876,-0.33020414973429446,0.16074033030231583,-1.0575948260362011,-0.014313730459303287,0.006261574190435937,-0.04483598496740626,0.0,70.0,255.0,255.0,255.0
366,18.3,-4.751226851982159,-5.915156374571762,-10.40533630671331,-0.33091905077183625,0.16106264649033086,-1.05983760464202,-0.014369456866969443,0.006686342325679107,-0.04483798901375735,0.0,70.0,255.0,255.0,255.0
367,18.35,-4.767790731722047,-5.907094910451106,-10.458384249897078,-0.3316410954209914,0.16140896453488374,-1.0620786249375769,-0.01453735102927567,0.0071842313374759215,-0.044788963077024846,0.0,70.0,255.0,255.0,255.0
368,18.400000000000002,-4.784390961524259,-5.899015478118273,-10.511544169207067,-0.3323727858747638,0.16178106962407846,-1.0643165009497224,-0.014701628556323953,0.0076703179166415225,-0.04473128062478793,0.0,70.0,255.0,255.0,255.0
369,18.45,-4.8010280103095235,-5.8909168034886985,-10.56481589999205,-0.3331112582766238,0.1621759963265479,-1.0665517530000557,-0.014759070325442991,0.008053598919577354,-0.04470354201195903,0.0,70.0,255.0,255.0,255.0
370,18.5,-4.817702087351921,-5.8827978784856185,-10.618199344507072,-0.3338486929073081,0.1625864295160362,-1.0687868551509183,-0.014605498036157627,0.008260037764618033,-0.04475180566068104,0.0,70.0,255.0,255.0,255.0
371,18.55,-4.834412879600254,-5.874658160537095,-10.671694585507142,-0.33457180808023956,0.1630020001030097,-1.0710269335661238,-0.014194241018294917,0.008252632684335737,-0.04489633313227159,0.0,70.0,255.0,255.0,255.0
372,18.6,-4.851159268159945,-5.866497678475318,-10.725302037863685,-0.3352681170091376,0.16341169278446976,-1.0732764884641455,-0.013613106034693345,0.008034943896806368,-0.04508447019997419,0.0,70.0,255.0,255.0,255.0
373,18.650000000000002,-4.867939691301168,-5.858316991258648,-10.779022234353556,-0.3359331186837089,0.16380549449269033,-1.0755353805861212,-0.013023702936809656,0.007634319055771499,-0.04522493390357596,0.0,70.0,255.0,255.0,255.0
374,18.7,-4.884752580028316,-5.8501171290260485,-10.832855575922297,-0.3365704873028186,0.16417512469004691,-1.077798981854503,-0.012586172954076602,0.007091284695270872,-0.04523044102580087,0.0,70.0,255.0,255.0,255.0
375,18.75,-4.90159674003145,-5.841899478789643,-10.886802132539007,-0.33719173597911656,0.16451462296221742,-1.0800584246887013,-0.012456258748017035,0.00643832137212641,-0.04500882036211351,0.0,70.0,255.0,255.0,255.0
376,18.8,-4.9184717536262275,-5.833665666729827,-10.940861418391167,-0.3378161131776203,0.16481895682725956,-1.0822998638907144,-0.012707378593823648,0.005708814582749966,-0.044522878924802,0.0,70.0,255.0,255.0,255.0
377,18.85,-4.935378351349212,-5.825417583106917,-10.995032118928078,-0.3384624738384989,0.1650855044204924,-1.0845107125811815,-0.013245749307166932,0.004994128273505538,-0.04387492768564982,0.0,70.0,255.0,255.0,255.0
378,18.900000000000002,-4.952318001010077,-5.8171571162877775,-11.049312489649285,-0.339140688108337,0.1653183696546101,-1.0866873566592794,-0.01388719606039146,0.004435948983338989,-0.04324805135897947,0.0,70.0,255.0,255.0,255.0
379,18.95,-4.969292420160046,-5.808885746141456,-11.103700854594006,-0.33985119344453807,0.1655290993188263,-1.0888355177170794,-0.014443463965463366,0.0041735233710760156,-0.042827467777151185,0.0,70.0,255.0,255.0,255.0
380,19.0,-4.986303120354531,-5.800604206355895,-11.158196041420993,-0.3405850345048833,0.1657357219917177,-1.0909701034369945,-0.014733476295258896,0.00433464877529488,-0.042804894244419245,0.0,70.0,255.0,255.0,255.0
381,19.05,-5.003350923610534,-5.7923121739422845,-11.212797864937706,-0.34132454107406396,0.1659625641963558,-1.0931160071415214,-0.014662957893563089,0.004966934159522651,-0.04326595070160977,0.0,70.0,255.0,255.0,255.0
382,19.1,-5.0204355744619376,-5.784007949936259,-11.267507642135145,-0.3420513302942396,0.16623241540766998,-1.0952966985071555,-0.014289304661918578,0.005943228324056804,-0.044051343533269005,0.0,70.0,255.0,255.0,255.0
383,19.150000000000002,-5.037556056639958,-5.7756889324015175,-11.322327534788421,-0.3427534715402558,0.16655688702876148,-1.0975211414948483,-0.013742104896063978,0.0070246822138742004,-0.0448664970249979,0.0,70.0,255.0,255.0,255.0
384,19.200000000000003,-5.054710921615963,-5.767352261233383,-11.37725975628463,-0.343425540783846,0.1669348836290574,-1.0997833482096553,-0.013153257898501636,0.007956160280730984,-0.04541362725820619,0.0,70.0,255.0,255.0,255.0
385,19.25,-5.071898610718343,-5.758995444038612,-11.432305869609387,-0.344068797330106,0.16735250305683458,-1.1020625042206689,-0.012645826747004207,0.008491055554671334,-0.045387639956118164,0.0,70.0,255.0,255.0,255.0
386,19.3,-5.089117801348974,-5.7506170109277,-11.487466006706697,-0.34469012345854644,0.16778398918452453,-1.104322112205267,-0.01229356372345336,0.008503448780405876,-0.044646232021428034,0.0,70.0,255.0,255.0,255.0
387,19.35,-5.106367623064197,-5.742217045120159,-11.542738080829913,-0.3452981537024513,0.16820284793487517,-1.1065271274228117,-0.012113395681012662,0.008081070317800254,-0.043406877667351296,0.0,70.0,255.0,255.0,255.0
388,19.400000000000002,-5.123647616719219,-5.733796726134212,-11.598118719448978,-0.3459014630266477,0.16859209621630455,-1.1086627999720022,-0.012108859880477496,0.007417210272731012,-0.04207962021496314,0.0,70.0,255.0,255.0,255.0
389,19.450000000000003,-5.140957769366862,-5.725357835498529,-11.653604360827114,-0.34650903969049907,0.16894456896214827,-1.110735089444308,-0.012282991620615746,0.006715122219880243,-0.04107737051057825,0.0,70.0,255.0,255.0,255.0
390,19.5,-5.158298520688269,-5.716902269237997,-11.709192228393409,-0.3471297621887093,0.16926360843829258,-1.11277053702306,-0.012639207392783902,0.0061811290062330215,-0.04082048998714782,0.0,70.0,255.0,255.0,255.0
391,19.55,-5.175670745585733,-5.7084314746547,-11.76488141452942,-0.34777296042977746,0.16956268186277157,-1.1148171384430228,-0.013163812852834411,0.005931531791336653,-0.041509494171521055,0.0,70.0,255.0,255.0,255.0
392,19.6,-5.1930758167312465,-5.69994600105172,-11.820673942237711,-0.3484461434739927,0.16985676161742624,-1.1169214864402122,-0.013776273452581478,0.0059279216396035395,-0.0428712623461891,0.0,70.0,255.0,255.0,255.0
393,19.650000000000002,-5.210515359933132,-5.691445798492957,-11.87657356317344,-0.3491505877750356,0.17015547402673192,-1.1191042646776417,-0.014341616422353098,0.006072723781880285,-0.04438406640492332,0.0,70.0,255.0,255.0,255.0
394,19.700000000000003,-5.22799087550875,-5.682930453649047,-11.932584368705475,-0.34988030511622803,0.17046403399561427,-1.1213598930807045,-0.014715801260312134,0.006275751773099358,-0.04552425666997095,0.0,70.0,255.0,255.0,255.0
395,19.75,-5.245503390444755,-5.6743993950933955,-11.988709552481511,-0.3506221679010668,0.17078304920404186,-1.1236566903446388,-0.014753334356942815,0.006444475038946962,-0.045762474688615384,0.0,70.0,255.0,255.0,255.0
396,19.8,-5.263053092298857,-5.665852148728643,-12.04495003773994,-0.3513556385519223,0.17110848149950897,-1.125936140549566,-0.01439067204449529,0.006524363447191206,-0.044842131615219216,0.0,70.0,255.0,255.0,255.0
397,19.85,-5.280638954299947,-5.657288546943445,-12.101303166536468,-0.35206123510551635,0.17143548554876098,-1.1281409035061607,-0.013745986033075752,0.006528175525577495,-0.043080660358185696,0.0,70.0,255.0,255.0,255.0
398,19.900000000000002,-5.298259215809408,-5.648708600173767,-12.157764128090555,-0.3527302371552299,0.17176129905206672,-1.1302442065853846,-0.013041038067651556,0.0064901230386382736,-0.041092365916561846,0.0,70.0,255.0,255.0,255.0
399,19.950000000000003,-5.31591197801547,-5.640112417038238,-12.214327587195006,-0.3533653389122815,0.1720844978526248,-1.1322501400978169,-0.012506577231619076,0.0064356702216272765,-0.039491523557799724,0.0,70.0,255.0,255.0,255.0
400,20.0,-5.3335957497006365,-5.631500150388504,-12.270989142100337,-0.3539808948783918,0.17240486607422945,-1.1341933589411646,-0.012383445853902941,0.006388942865420688,-0.03888951801815921,0.0,70.0,255.0,255.0,255.0
401,20.05,-5.351310067503309,-5.622871930430815,-12.327746923089123,-0.3546036834976718,0.17272339213916688,-1.1361390918996328,-0.012786785681662138,0.00636430113294395,-0.039588925753797355,0.0,70.0,255.0,255.0,255.0
402,20.1,-5.369056118050404,-5.614227811174588,-12.3846030512903,-0.355259573446558,0.17304129618752384,-1.1381522515165443,-0.013554374490176713,0.006359376258568972,-0.0412708048429522,0.0,70.0,255.0,255.0,255.0
403,20.150000000000002,-5.386836024847965,-5.605567800812063,-12.441562148240777,-0.35595912094668947,0.17335932976502377,-1.140266172383928,-0.014379639233563779,0.006366784063693842,-0.043300922143885145,0.0,70.0,255.0,255.0,255.0
404,20.200000000000003,-5.404652030145073,-5.596891878198085,-12.498629668528693,-0.3566975373699144,0.17367797459389323,-1.1424823437309328,-0.014958029674083662,0.006381567340163485,-0.04504372835523185,0.0,70.0,255.0,255.0,255.0
405,20.25,-5.422505778584957,-5.588200003352673,-12.55581038261387,-0.35745492391409783,0.17399748649904012,-1.1447705452194512,-0.014980947494436236,0.006399753499675143,-0.04587553715396098,0.0,70.0,255.0,255.0,255.0
406,20.3,-5.4403975225364825,-5.579492129548181,-12.613106723050638,-0.358195632119358,0.17431794994386074,-1.147069897446329,-0.014301812267181191,0.006418432021071396,-0.04547573180317954,0.0,70.0,255.0,255.0,255.0
407,20.35,-5.458325341796892,-5.570768208358287,-12.670517372358503,-0.35888510514081595,0.17463932970114726,-1.1493181183997692,-0.013123695494332566,0.006434319440273839,-0.04409234404505469,0.0,70.0,255.0,255.0,255.0
408,20.400000000000002,-5.476286033050564,-5.5620281965780665,-12.728038534890615,-0.35950800166879127,0.17496138188788812,-1.1514791318508344,-0.011834064673266198,0.006442740706624761,-0.04224772173113678,0.0,70.0,255.0,255.0,255.0
409,20.450000000000003,-5.494276141963772,-5.553272070169498,-12.785665285543587,-0.36006851160814257,0.17528360377180974,-1.1535428905728828,-0.010820651391529879,0.006438060416691371,-0.04046670987545298,0.0,70.0,255.0,255.0,255.0
410,20.5,-5.512292884211378,-5.5444998362008855,-12.843392823947903,-0.36059006680794425,0.17560518792955726,-1.1555258028383797,-0.010468708223143608,0.006412043135917145,-0.03926427742158012,0.0,70.0,255.0,255.0,255.0
411,20.55,-5.530335148644566,-5.535711551376543,-12.901217865827425,-0.36111538243045693,0.17592480808540145,-1.1574693183150409,-0.010966338208362458,0.006361970783252957,-0.038920268245767886,0.0,70.0,255.0,255.0,255.0
412,20.6,-5.548404422454424,-5.526907355392345,-12.959139755779407,-0.3616867006287805,0.17624138500788256,-1.1594178296629565,-0.012100960083394341,0.0063033459803740755,-0.03930713832414057,0.0,70.0,255.0,255.0,255.0
413,20.650000000000002,-5.566503818707444,-5.518087412875754,-13.01715964879372,-0.36232547843879637,0.17655514268343886,-1.161400032147455,-0.013453146364295065,0.006262253109845517,-0.0401225499059521,0.0,70.0,255.0,255.0,255.0
414,20.700000000000003,-5.584636970298304,-5.5092518411240015,-13.075279758994153,-0.36303201526521,0.1768676103188671,-1.1634300846535517,-0.014600017440358215,0.0062661909927541615,-0.04106854636329871,0.0,70.0,255.0,255.0,255.0
415,20.75,-5.602807020233965,-5.500400651843868,-13.133502657259076,-0.3637854801828322,0.17718176178271428,-1.1655068867837848,-0.015124266231669736,0.0063520739566946816,-0.041847399779548766,0.0,70.0,255.0,255.0,255.0
416,20.8,-5.621015518316587,-5.49153366494573,-13.191830447672531,-0.364544441888377,0.17750281771453658,-1.1676148246315066,-0.014812974758715569,0.00653368484631045,-0.0422848735338377,0.0,70.0,255.0,255.0,255.0
417,20.85,-5.639261464422803,-5.482650370072414,-13.250264139722226,-0.36526677765870375,0.17783513026734532,-1.1697353741371685,-0.013843280023273508,0.006752296638534716,-0.04240460382369804,0.0,70.0,255.0,255.0,255.0
418,20.900000000000002,-5.657542196082457,-5.4737501519189955,-13.308803985086248,-0.36592876989070433,0.17817804737839005,-1.1718552850138764,-0.012582534019855984,0.006908246853676303,-0.04229405999716107,0.0,70.0,255.0,255.0,255.0
419,20.950000000000003,-5.675854341411873,-5.464832565334575,-13.367449668223614,-0.36652503106068934,0.17852595495271295,-1.1739647801368847,-0.011399138987311375,0.006903888898701638,-0.04202721656145769,0.0,70.0,255.0,255.0,255.0
420,21.0,-5.694194699188526,-5.455897556423724,-13.426200463099937,-0.36706868378943547,0.1788684362682602,-1.1760580066700221,-0.010654180229252574,0.0066316890095841075,-0.041686076840896646,0.0,70.0,255.0,255.0,255.0
421,21.05,-5.712561209790817,-5.446945721707749,-13.485055468890616,-0.3675904490836146,0.17918912385367136,-1.1781333878209743,-0.010541110075568128,0.006049490297410642,-0.041325785401191695,0.0,70.0,255.0,255.0,255.0
422,21.1,-5.730953744096888,-5.437978644038357,-13.544013801882034,-0.3681227947969923,0.17947338529800128,-1.1801905852101413,-0.010956875534429145,0.005289239026851078,-0.040955285541066644,0.0,70.0,255.0,255.0,255.0
423,21.150000000000002,-5.749373489270516,-5.428998383177949,-13.60307452741163,-0.3686861366370575,0.17971804775635647,-1.182228916375081,-0.011666601007043198,0.004583827075066438,-0.04058204926824516,0.0,70.0,255.0,255.0,255.0
424,21.200000000000003,-5.767822357760593,-5.420006839262721,-13.662236693519542,-0.3692894548976966,0.17993176800550792,-1.1842487901369658,-0.012436340363830567,0.00416431401921713,-0.040228275037357264,0.0,70.0,255.0,255.0,255.0
425,21.25,-5.786302434760286,-5.411005206377398,-13.721499406425327,-0.36992977067344057,0.18013447915827818,-1.1862517438788167,-0.013031040822308881,0.004261123384541321,-0.03990433015310657,0.0,70.0,255.0,255.0,255.0
426,21.3,-5.804815334827937,-5.401993391346894,-13.780861867907424,-0.3705925589799275,0.18035788034396205,-1.1882392231522765,-0.013317037153104394,0.004975953031038927,-0.039618698147947384,0.0,70.0,255.0,255.0,255.0
427,21.35,-5.823361690658278,-5.392969418343002,-13.840323328740554,-0.371261474388751,0.18063207446138208,-1.1902136136936114,-0.01333378660319795,0.006124500167903335,-0.03941155004820729,0.0,70.0,255.0,255.0,255.0
428,21.400000000000002,-5.8419414822668125,-5.383930183900755,-13.899883229276785,-0.3719259376402473,0.18097033036075238,-1.1921803781570972,-0.01318481486585199,0.007361013610829303,-0.03934044689408722,0.0,70.0,255.0,255.0,255.0
429,21.450000000000003,-5.860554284422303,-5.374872385306927,-13.959541366556264,-0.3725799558753362,0.181368175822465,-1.1941476583830202,-0.012963098626439518,0.008333307239194454,-0.039452970002606946,0.0,70.0,255.0,255.0,255.0
430,21.5,-5.879199477854346,-5.365793366318509,-14.019297995115087,-0.37322224750289124,0.18180366108467183,-1.196125675157358,-0.01276160986138919,0.008695845423734028,-0.03980056524817144,0.0,70.0,255.0,255.0,255.0
431,21.55,-5.897876509172592,-5.3566920191984595,-14.079153934072,-0.37385611686147513,0.1822377603648384,-1.1981277149078373,-0.012636801917231821,0.008279611330763714,-0.040393734361643396,0.0,70.0,255.0,255.0,255.0
432,21.6,-5.916585089540494,-5.347569590282025,-14.13911076660587,-0.3744859276946144,0.1826316222177482,-1.2001650485935222,-0.012587045651635265,0.007262643752081743,-0.041117675106683294,0.0,70.0,255.0,255.0,255.0
433,21.650000000000002,-5.935325101942054,-5.338428856976685,-14.199170438931352,-0.37511482142663866,0.18296402474004658,-1.2022394824185056,-0.01259591109104008,0.006003074192673097,-0.04177532399509687,0.0,70.0,255.0,255.0,255.0
434,21.700000000000003,-5.9540965716831575,-5.32927318780802,-14.259334714847721,-0.3757455188037184,0.1832319296370155,-1.204342580993032,-0.01265746559742098,0.004868517629841307,-0.04216758387887154,0.0,70.0,255.0,255.0,255.0
435,21.75,-5.9728996538224255,-5.320105664012983,-14.319604697030655,-0.37638056798638075,0.1834508765030307,-1.2064562408063928,-0.012774547704896833,0.004227476273133135,-0.04210142750054047,0.0,70.0,255.0,255.0,255.0
436,21.8,-5.991734628481796,-5.310928100157717,-14.37998033892836,-0.3770229735742081,0.18365467726432883,-1.208552723743086,-0.012942468464061108,0.004271662251920105,-0.041492052052483075,0.0,70.0,255.0,255.0,255.0
437,21.85,-6.010601951179846,-5.30174019628655,-14.440459969404964,-0.37767481483278686,0.18387804272822272,-1.210605446011641,-0.013118030790160162,0.004855880533849444,-0.04048399661318314,0.0,70.0,255.0,255.0,255.0
438,21.900000000000002,-6.029502109965074,-5.292540295884895,-14.501040883529525,-0.3783347766532241,0.18414026531771377,-1.2126011234044043,-0.013231540769620409,0.0056765730686691995,-0.039353688359966554,0.0,70.0,255.0,255.0,255.0
439,21.950000000000003,-6.048435428845169,-5.283326169754779,-14.561720081745404,-0.3789979689097489,0.18444570003508964,-1.2145408148476378,-0.013213752270324619,0.006432249281651536,-0.038388955553081416,0.0,70.0,255.0,255.0,255.0
440,22.0,-6.067401906856049,-5.274095725881386,-14.622494965014289,-0.3796561518802566,0.18478349024587892,-1.2164400189597124,-0.01299222729187477,0.00681830542772488,-0.037873724750348,0.0,70.0,255.0,255.0,255.0
441,22.05,-6.086401044033194,-5.264847820730191,-14.683364083641376,-0.3802971916389364,0.18512753057786213,-1.2183281873226726,-0.012539524693178095,0.006674392342009838,-0.037951344143394294,0.0,70.0,255.0,255.0,255.0
442,22.1,-6.105431626019943,-5.2555829728236,-14.744327783746556,-0.3809101043495744,0.1854509294800799,-1.2202351533740519,-0.011942602749215325,0.006120174438528636,-0.038498226551197945,0.0,70.0,255.0,255.0,255.0
443,22.150000000000002,-6.124492054468152,-5.246302727782183,-14.80538759897878,-0.3814914519138579,0.185739548021715,-1.2221780099777924,-0.011356993428623952,0.005403454045804779,-0.03925803445099518,0.0,70.0,255.0,255.0,255.0
444,22.200000000000003,-6.143580771211329,-5.237009018021428,-14.866545584744335,-0.3820458036924368,0.18599127488466038,-1.2241609568191514,-0.010940299214023952,0.004762858204454545,-0.03997002048432563,0.0,70.0,255.0,255.0,255.0
445,22.25,-6.1626966348373955,-5.227703600293717,-14.927803694660696,-0.3825854818352603,0.18621583384216045,-1.226175012026225,-0.010848524479989408,0.004431236747493017,-0.04037570147037428,0.0,70.0,255.0,255.0,255.0
446,22.3,-6.181839319394855,-5.218387434637212,-14.989163085946958,-0.38313065614043573,0.1864343985594097,-1.2281985269661888,-0.011153232296834403,0.0045306285193724705,-0.04033651076635891,0.0,70.0,255.0,255.0,255.0
447,22.35,-6.201009700451439,-5.209060160437776,-15.050623547357315,-0.38370080506494375,0.1866688966940977,-1.2302086631028608,-0.011747082688629007,0.004978013786782753,-0.0399294375089454,0.0,70.0,255.0,255.0,255.0
448,22.400000000000002,-6.220209399901349,-5.199720544967803,-15.112183952257244,-0.38430536440929863,0.18693219993808796,-1.2321914707170833,-0.012424121880005856,0.005595018673698604,-0.03932699434834319,0.0,70.0,255.0,255.0,255.0
449,22.450000000000003,-6.239440236892369,-5.190366940443967,-15.173842694429023,-0.38494321725294434,0.18722839856146756,-1.2341413625376951,-0.012972276981226827,0.006203031187457242,-0.0386980487574462,0.0,70.0,255.0,255.0,255.0
450,22.5,-6.2587037216266435,-5.180997705111656,-15.235598088511013,-0.3856025921074213,0.18755250305683369,-1.236061275592828,-0.013177684111376209,0.0066207569065390715,-0.03820743207274546,0.0,70.0,255.0,255.0,255.0
451,22.55,-6.278000496103111,-5.171611690138284,-15.297448821988306,-0.38626098566408196,0.18789047425212146,-1.2379621057449697,-0.012934259405650295,0.0067503196872209514,-0.03794867339603769,0.0,70.0,255.0,255.0,255.0
452,22.6,-6.297329820193052,-5.162208657686444,-15.35939429908551,-0.38689601804798635,0.18822753502555578,-1.2398561429324317,-0.012354474422426875,0.006651406777358204,-0.037900387050271434,0.0,70.0,255.0,255.0,255.0
453,22.650000000000002,-6.31669009790791,-5.152788936635728,-15.42143443628155,-0.38749643310632464,0.18855561492985728,-1.2417521444499968,-0.011661111125960133,0.006451995735279326,-0.03799846368028881,0.0,70.0,255.0,255.0,255.0
454,22.700000000000003,-6.336079463503684,-5.143353096193458,-15.48356951353051,-0.38806212916058236,0.1888727345990837,-1.2436559893004606,-0.011077166287698503,0.006278816579996516,-0.03818398495170072,0.0,70.0,255.0,255.0,255.0
455,22.75,-6.355496310823968,-5.13390166317582,-15.545800035211595,-0.3886041497350945,0.18918349658785694,-1.245570542945167,-0.010824701778755497,0.006277716978608794,-0.03840258888700987,0.0,70.0,255.0,255.0,255.0
456,22.8,-6.374939878477194,-5.124434746534672,-15.608126567825026,-0.3891445993384579,0.1895005062969446,-1.2474962481891616,-0.011016303506128367,0.006520866624804,-0.0386160217553666,0.0,70.0,255.0,255.0,255.0
457,22.85,-6.394410770757814,-5.114951612546125,-15.670549660030511,-0.38970578008570733,0.18983558325033734,-1.2494321451207036,-0.011549611696271,0.006895426702069329,-0.03878994668990998,0.0,70.0,255.0,255.0,255.0
458,22.900000000000002,-6.413910456485764,-5.1054511882096385,-15.733069782337097,-0.390299560508085,0.19019004896715153,-1.2513752428581526,-0.012216841542400658,0.007198769946636929,-0.03887737937073865,0.0,70.0,255.0,255.0,255.0
459,22.950000000000003,-6.433440726808622,-5.09593260764941,-15.795687184316327,-0.3909274642399474,0.19055546024500103,-1.2533198830577774,-0.012812484441404592,0.007241329532359231,-0.038826524258439576,0.0,70.0,255.0,255.0,255.0
460,23.0,-6.453003202909759,-5.086395642185138,-15.858401770642875,-0.39158080895222547,0.19091418192038745,-1.2552578952839966,-0.013139546069584895,0.0068244590948118855,-0.03858221237749149,0.0,70.0,255.0,255.0,255.0
461,23.05,-6.472598807703845,-5.0768411894573715,-15.921212973844726,-0.3922414188469059,0.19123790615448222,-1.2571781042955266,-0.013093953142284676,0.005865328033394235,-0.03812672675973516,0.0,70.0,255.0,255.0,255.0
462,23.1,-6.49222734479445,-5.06727185156969,-15.984119581072427,-0.39289020426645394,0.19150071472372687,-1.25907056795997,-0.012732486718380898,0.00457042953829756,-0.0375415977522664,0.0,70.0,255.0,255.0,255.0
463,23.150000000000002,-6.51188782813049,-5.057691117984999,-16.047120030640723,-0.393514667518744,0.19169494910831197,-1.2609322640707532,-0.012186114780465829,0.003311059675770167,-0.03697108643780922,0.0,70.0,255.0,255.0,255.0
464,23.200000000000003,-6.531578811546324,-5.048102356658859,-16.110212807479503,-0.3941088157445005,0.1918318206913039,-1.262767676603751,-0.011586182659062416,0.002454699789211645,-0.03656269190877026,0.0,70.0,255.0,255.0,255.0
465,23.25,-6.55129870970494,-5.038507935915868,-16.1733967983011,-0.3946732857846502,0.19194041908723314,-1.2645885332616302,-0.011053104618330423,0.0023563813740246076,-0.03646054295245449,0.0,70.0,255.0,255.0,255.0
466,23.3,-6.571046140124789,-5.028908314750136,-16.236671660805666,-0.39521412620633356,0.19206745882870635,-1.2664137308989964,-0.010660657817496144,0.0031792198430302676,-0.0367308707382108,0.0,70.0,255.0,255.0,255.0
467,23.35,-6.590820122325574,-5.019301190032998,-16.300038171390998,-0.39573935156639983,0.19225834107153617,-1.2682616203354513,-0.010436805066404986,0.00469213253442291,-0.037279186777894324,0.0,70.0,255.0,255.0,255.0
468,23.400000000000002,-6.610620075281429,-5.009682480642982,-16.36349782283921,-0.39625780671297406,0.19253667208214864,-1.2701416495767859,-0.010403174860762476,0.006445196478654935,-0.037921911241411976,0.0,70.0,255.0,255.0,255.0
469,23.450000000000003,-6.630445902996871,-5.000047522824783,-16.427052336348677,-0.3967796690524761,0.19290286071940166,-1.2720538114595925,-0.010582272101800072,0.007974836345514547,-0.0384699342145467,0.0,70.0,255.0,255.0,255.0
470,23.5,-6.650298042186677,-4.990392194571042,-16.49070320398517,-0.39731603392315407,0.1933341557167001,-1.2739886429982406,-0.011004026132699352,0.008834024732884416,-0.03873962513729623,0.0,70.0,255.0,255.0,255.0
471,23.55,-6.670177506389186,-4.980714107253113,-16.5544512006485,-0.397880071665746,0.1937862631926901,-1.2759277739733221,-0.01166444122864263,0.008791219167214592,-0.038636503573741265,0.0,70.0,255.0,255.0,255.0
472,23.6,-6.690086049353251,-4.971013568251773,-16.618295981382502,-0.39848247804601833,0.19421327763342155,-1.2778522933556147,-0.012439453854717897,0.007994560137891682,-0.03822706306166879,0.0,70.0,255.0,255.0,255.0
473,23.650000000000002,-6.710025754193788,-4.961292779489771,-16.682236429984062,-0.3991240170512178,0.19458571920647927,-1.279750480279489,-0.01312034661582473,0.006774634597306317,-0.03765586066997173,0.0,70.0,255.0,255.0,255.0
474,23.700000000000003,-6.729998451058373,-4.951554996331125,-16.74627102941045,-0.3997945127076008,0.1948907410931522,-1.2816178794226118,-0.013492467862707969,0.005472528255179299,-0.03707085794637521,0.0,70.0,255.0,255.0,255.0
475,23.75,-6.750005205464548,-4.9418037053804555,-16.810398217926323,-0.4004732638374886,0.1951329720319972,-1.2834575660741265,-0.013338809498630866,0.004423510369822026,-0.03661694717820296,0.0,70.0,255.0,255.0,255.0
476,23.8,-6.770045777442122,-4.932041699127925,-16.874616786017864,-0.4011283936574639,0.1953330921301344,-1.2852795741404321,-0.01256726491289939,0.0038209384523035794,-0.036375888858586336,0.0,70.0,255.0,255.0,255.0
477,23.85,-6.790118044830295,-4.922270396167442,-16.938926175340367,-0.40172999032877854,0.19551506587722756,-1.2870951549599852,-0.01137162660151958,0.003641421785527399,-0.036328924607431645,0.0,70.0,255.0,255.0,255.0
478,23.900000000000002,-6.810218776475,-4.9124901925402025,-17.003326301513862,-0.40226555631761585,0.19569723430868713,-1.2889124666011753,-0.010110869911450493,0.0037869877439256072,-0.03641912160539107,0.0,70.0,255.0,255.0,255.0
479,23.950000000000003,-6.830344600462056,-4.902700672736573,-17.067817422000484,-0.4027410773199236,0.19589376465162012,-1.2907370671205243,-0.009153404233241957,0.004166938746585913,-0.03659283446815209,0.0,70.0,255.0,255.0,255.0
480,24.0,-6.850492884206992,-4.8929008160750405,-17.132400008225915,-0.40318089674094004,0.19611392818334572,-1.2925717500479905,-0.008868707901044104,0.004687971083239262,-0.03680060479709368,0.0,70.0,255.0,255.0,255.0
481,24.05,-6.87066269013615,-4.883089279918239,-17.197074597005283,-0.403627948110028,0.19636256175994404,-1.2944171276002336,-0.009433585366114272,0.005279992057616312,-0.03700716709857943,0.0,70.0,255.0,255.0,255.0
482,24.1,-6.890855679017995,-4.873264559899046,-17.261841720985938,-0.40412425527755147,0.19664192738910735,-1.2962724667578485,-0.010624156288763231,0.0058798459604325615,-0.03717817090986841,0.0,70.0,255.0,255.0,255.0
483,24.150000000000002,-6.911075115663905,-4.863425087179328,-17.326701843681068,-0.4046903637389043,0.1969505463559873,-1.2981349446912205,-0.01200521802697807,0.006394803704257157,-0.03726588134647102,0.0,70.0,255.0,255.0,255.0
484,24.200000000000003,-6.931324715391885,-4.853569505263447,-17.39165521545506,-0.4053247770802493,0.19728140775953307,-1.2999990548924956,-0.013134567885320081,0.006714541933483531,-0.037218316998988143,0.0,70.0,255.0,255.0,255.0
485,24.25,-6.95160759337193,-4.843696946403375,-17.456701749170318,-0.40600382052743633,0.19762200054933565,-1.3018567763911193,-0.013566405518172786,0.006728568001879154,-0.036980633634797755,0.0,70.0,255.0,255.0,255.0
486,24.3,-6.971925097444629,-4.833807305208514,-17.521840893094172,-0.40668141763206656,0.19795426455972098,-1.3036971182559753,-0.013078533482779875,0.006391867209742941,-0.036534929929032955,0.0,70.0,255.0,255.0,255.0
487,24.35,-6.992275735135137,-4.823901519947403,-17.587071460995915,-0.4073116738757143,0.19826118727030995,-1.3055102693840226,-0.011902564093890788,0.005803669896931041,-0.03596016331322005,0.0,70.0,255.0,255.0,255.0
488,24.400000000000002,-7.0126562648322,-4.813981186481483,-17.652391920032574,-0.40787167404145563,0.1985346315494141,-1.3072931345872973,-0.010497442129242529,0.005150161074674031,-0.035396420604527634,0.0,70.0,255.0,255.0,255.0
489,24.450000000000003,-7.033062902539283,-4.804048056792461,-17.717800774454645,-0.4083614180886386,0.19877620337777735,-1.3090499114444754,-0.009321471078838073,0.004627667412737679,-0.034986671428427485,0.0,70.0,255.0,255.0,255.0
490,24.5,-7.053492406641064,-4.794103566143705,-17.783296911177022,-0.40880382114933944,0.19899739829068785,-1.31079180173014,-0.008833595434509789,0.004433747586318759,-0.03486884202068552,0.0,70.0,255.0,255.0,255.0
491,24.55,-7.0739432846542165,-4.7841483169633925,-17.84887995462766,-0.40924477763208955,0.19921957813640923,-1.312536795646544,-0.00926542755541604,0.0046658258160192645,-0.03510691271948474,0.0,70.0,255.0,255.0,255.0
492,24.6,-7.094416884404273,-4.774181608330064,-17.914550590741676,-0.40973036390488105,0.19946398087228978,-1.3143024930020886,-0.010394771485344734,0.00522006652605711,-0.03561670030762798,0.0,70.0,255.0,255.0,255.0
493,24.650000000000002,-7.114916321044705,-4.7642019188761635,-17.980310203927868,-0.410284254780624,0.19974158478901494,-1.3160984656773067,-0.011775829307136831,0.005889959922633636,-0.03623207259835226,0.0,70.0,255.0,255.0,255.0
494,24.700000000000003,-7.135445309882336,-4.754207449851163,-18.046160437309407,-0.41090794683559473,0.20005297686455314,-1.3179257002619238,-0.012966400945746415,0.006468214989219234,-0.03678222339722481,0.0,70.0,255.0,255.0,255.0
495,24.75,-7.156007115728264,-4.744196621189708,-18.11210277395406,-0.41158089487519867,0.20038840628793686,-1.3197766880170292,-0.013531287335855069,0.0067524789489681325,-0.03710800760892141,0.0,70.0,255.0,255.0,255.0
496,24.8,-7.1766033993698555,-4.734168609222369,-18.17813810611111,-0.41226107556918024,0.20072822475944996,-1.321636501022816,-0.013246609442862933,0.006638256099389395,-0.03712413248102564,0.0,70.0,255.0,255.0,255.0
497,24.85,-7.197233223285182,-4.724123798713763,-18.24426642405634,-0.41290555581948496,0.2010522318978758,-1.3234891012651318,-0.012289165815460024,0.0062014719244274374,-0.03685844337937283,0.0,70.0,255.0,255.0,255.0
498,24.900000000000002,-7.217893954951804,-4.714063386032581,-18.310487016237623,-0.41348999215072624,0.2013483719518927,-1.3253223453607532,-0.011028424791348357,0.005604591309715801,-0.036389881076459574,0.0,70.0,255.0,255.0,255.0
499,24.950000000000003,-7.238582222500255,-4.703988961518574,-18.376798658592417,-0.4140083982986198,0.20161269102884738,-1.3271280893727777,-0.009832785278174327,0.005012759343259177,-0.03580443498378827,0.0,70.0,255.0,255.0,255.0
500,25.0,-7.259294794781666,-4.693902116929697,-18.4431998251749,-0.41447327067854367,0.20184964788621862,-1.328902788859132,-0.009061208601135462,0.004592327292751719,-0.035187146188064844,0.0,70.0,255.0,255.0,255.0
501,25.05,-7.280029549568109,-4.683803996729952,-18.50968893747833,-0.41491451915873334,0.20207192375812255,-1.3306468039915842,-0.008907481992981303,0.004433923678970331,-0.03459553171616392,0.0,70.0,255.0,255.0,255.0
502,25.1,-7.300786246697539,-4.673694924553884,-18.57626450557406,-0.4153640188778418,0.20229304025411565,-1.3323623420307484,-0.009279520964344812,0.004490409413993035,-0.03406766137494799,0.0,70.0,255.0,255.0,255.0
503,25.150000000000002,-7.321565951455893,-4.6635746927045405,-18.642925171681405,-0.4158424712551678,0.20252096469952185,-1.334053570129079,-0.009960354976801256,0.00465615036420175,-0.033651946218782314,0.0,70.0,255.0,255.0,255.0
504,25.200000000000003,-7.342370493823056,-4.653442828083932,-18.709669862586967,-0.4163600543755219,0.20275865529053583,-1.3357275366526267,-0.010735371694625684,0.004826948102731876,-0.03339901102776821,0.0,70.0,255.0,255.0,255.0
505,25.25,-7.3632019568934455,-4.643298827175487,-18.776497925346668,-0.4169160084246304,0.20300365950979504,-1.3373934712318558,-0.011395906231648212,0.004886230526768287,-0.03334340763494481,0.0,70.0,255.0,255.0,255.0
506,25.3,-7.384062094665519,-4.633142462132953,-18.843409209710153,-0.41749964499868675,0.20324727834321266,-1.3390618774161211,-0.011817914799916451,0.004773275292446755,-0.03349476629388448,0.0,70.0,255.0,255.0,255.0
507,25.35,-7.404951921393314,-4.622974099341166,-18.91040411308828,-0.41809779990462204,0.20348098703903972,-1.3407429478612443,-0.011997319091605618,0.004557822821205093,-0.03382736800148223,0.0,70.0,255.0,255.0,255.0
508,25.400000000000002,-7.425871874655981,-4.612794363429049,-18.977483504496277,-0.4186993769078473,0.20370306062533317,-1.3424446142162694,-0.011963908214607244,0.0043690356724468415,-0.034284198851963765,0.0,70.0,255.0,255.0,255.0
509,25.450000000000003,-7.446821859084099,-4.602603793278632,-19.044648574509907,-0.41929419072608276,0.2039178906062844,-1.3441713677464406,-0.011740040298136023,0.004326534492715695,-0.034793833259882945,0.0,70.0,255.0,255.0,255.0
510,25.5,-7.46780129372859,-4.59240257436842,-19.11190064127092,-0.4198733809376609,0.20413571407460473,-1.3459239975422577,-0.011347147824825043,0.004558694655365514,-0.03529917664870652,0.0,70.0,255.0,255.0,255.0
511,25.55,-7.488809197177865,-4.582190221871172,-19.179240974264133,-0.42042890550856526,0.20437376007182095,-1.3477012854113113,-0.010813119879227173,0.005120061398500297,-0.03575920264005106,0.0,70.0,255.0,255.0,255.0
512,25.6,-7.509844184279446,-4.571965198361238,-19.246670769812052,-0.42095469292558363,0.20464772021445476,-1.3494999178062628,-0.010212041829937846,0.005876527739445692,-0.03610650298533358,0.0,70.0,255.0,255.0,255.0
513,25.650000000000002,-7.530904666470423,-4.561725449849726,-19.31419096604476,-0.42145010969155905,0.20496141284576552,-1.3513119357098446,-0.00966485132583017,0.006588639346905012,-0.03624678285021332,0.0,70.0,255.0,255.0,255.0
514,25.700000000000003,-7.551989195248602,-4.551469057076662,-19.381801963383037,-0.42192117805816665,0.20530658414914527,-1.353124596091284,-0.009303441471431029,0.007020853320671705,-0.03609288204096117,0.0,70.0,255.0,255.0,255.0
515,25.75,-7.57309678427624,-4.541194791434812,-19.449503425653887,-0.42238045383870215,0.2056634981778327,-1.3549212239139408,-0.009259511792780728,0.006939037471820342,-0.035555923064478634,0.0,70.0,255.0,255.0,255.0
516,25.8,-7.594227240632472,-4.530902707258878,-19.51729408577443,-0.4228471292374447,0.2060004878963273,-1.356680188397732,-0.009590118503943756,0.006238880045739137,-0.03461359797007901,0.0,70.0,255.0,255.0,255.0
517,25.85,-7.6153814971999845,-4.520594742645179,-19.58517144449366,-0.42333946568909653,0.2062873861824066,-1.3583825837109487,-0.010190038064550322,0.005102313306881712,-0.03342923078264448,0.0,70.0,255.0,255.0,255.0
518,25.900000000000002,-7.636561187201382,-4.510273968640638,-19.653132344145526,-0.42386613304389975,0.20651071922701547,-1.3600231114759964,-0.010860322846095727,0.0038718381747848696,-0.03228857650654504,0.0,70.0,255.0,255.0,255.0
519,25.950000000000003,-7.6577681105043744,-4.499943670722478,-19.72117375564126,-0.4244254979737061,0.2066745699998851,-1.3616114413616032,-0.011393419922800518,0.002895600010521804,-0.0314863868272397,0.0,70.0,255.0,255.0,255.0
520,26.0,-7.6790037369987525,-4.489606511640649,-19.789293488281686,-0.4250054750361798,0.20680027922806765,-1.3631717501587204,-0.011578814326806963,0.00251312748575927,-0.03131312177053758,0.0,70.0,255.0,255.0,255.0
521,26.05,-7.700268658007992,-4.479263642799671,-19.857490930657132,-0.4255833794063868,0.20692588274846102,-1.364742753538657,-0.011313119392308835,0.0028915046653921195,-0.03190071783301107,0.0,70.0,255.0,255.0,255.0
522,26.1,-7.721562074939391,-4.468913923365803,-19.92576776363555,-0.4261367869754107,0.20708942969460686,-1.3663618219420215,-0.010713213838098312,0.0038643355828149595,-0.03304762283633522,0.0,70.0,255.0,255.0,255.0
523,26.150000000000002,-7.7428823367055335,-4.45855469983021,-19.994127112851334,-0.42665470079019663,0.20731231630674252,-1.3680475158222904,-0.010008449364207195,0.0050930522429659675,-0.03436618385102008,0.0,70.0,255.0,255.0,255.0
524,26.200000000000003,-7.764227545018411,-4.448182691735129,-20.06257251521778,-0.4271376319118314,0.20759873491890346,-1.3697984403271235,-0.00942945226398706,0.006230686031916122,-0.03545602286081362,0.0,70.0,255.0,255.0,255.0
525,26.25,-7.785596099896717,-4.43779482633832,-20.131106956884047,-0.42759764601659533,0.20793538490993413,-1.3715931181083718,-0.009209193603698651,0.006936471232865671,-0.03591960850108933,0.0,70.0,255.0,255.0,255.0
526,26.3,-7.80698730962007,-4.427389153244135,-20.199731827028618,-0.42805855127220127,0.20829238204219003,-1.3733904011772324,-0.009463977353618702,0.0070290406860351595,-0.03555695727150976,0.0,70.0,255.0,255.0,255.0
527,26.35,-7.828401955023937,-4.416965588134101,-20.26844599700177,-0.4285440437519572,0.20863828897853764,-1.3751488138355228,-0.01007169865676616,0.006609388651401815,-0.03455109372367815,0.0,70.0,255.0,255.0,255.0
528,26.400000000000002,-7.849841713995266,-4.406525324346282,-20.33724670841217,-0.4290657211378779,0.2089533209073302,-1.3768455105496002,-0.010791287621714218,0.005906069403849301,-0.033275872241489424,0.0,70.0,255.0,255.0,255.0
529,26.450000000000003,-7.8713085271377246,-4.396070256043368,-20.40613054805673,-0.4296231725141286,0.20922889591892257,-1.3784764010596717,-0.011382197596088162,0.005148742109195581,-0.032109381867329034,0.0,70.0,255.0,255.0,255.0
530,26.5,-7.892804031246679,-4.385602434754389,-20.475094348518137,-0.4302039408974867,0.20946819511824977,-1.3800564487363332,-0.011600448555437737,0.004568959610562473,-0.03142839760350569,0.0,70.0,255.0,255.0,255.0
531,26.55,-7.914328921227473,-4.375123436531543,-20.544136192930363,-0.4307832173696724,0.20968579187997882,-1.3816192408200223,-0.011324397766276917,0.004297880374970475,-0.031430800401466286,0.0,70.0,255.0,255.0,255.0
532,26.6,-7.935882352983646,-4.3646338555663915,-20.61325627260014,-0.4313363806741144,0.20989798315574681,-1.3831995287764798,-0.010685399459209322,0.004293541047495353,-0.03197895797981687,0.0,70.0,255.0,255.0,255.0
533,26.650000000000002,-7.957462559294885,-4.354133638215968,-20.68245614580801,-0.43185175731559333,0.21011514598472836,-1.384817136618004,-0.009940992223445022,0.004448917229193938,-0.03278021063479741,0.0,70.0,255.0,255.0,255.0
534,26.700000000000003,-7.9790675287152055,-4.343622340967919,-20.75173798626194,-0.4323304798964589,0.2103428748786662,-1.3864775498399595,-0.009348330778724545,0.0046667464630445465,-0.0335460767093565,0.0,70.0,255.0,255.0,255.0
535,26.75,-8.00069560728453,-4.3330993507281015,-20.821103900792007,-0.4327865903934658,0.2105818206310328,-1.3881717442889396,-0.009172974879145812,0.004847736944135761,-0.033990857028243227,0.0,70.0,255.0,255.0,255.0
