idx,t,px,py,pz,vx,vy,vz,ax,ay,az,yaw,mode,ledr,ledg,ledb
0,0.0,1.5000000000000004,13.500000000000005,-1.634496274101184e-19,-0.0005724757062619545,0.00038654592508180485,-0.00033032572899530284,0.0014165047084180316,-0.00044363950060244406,-0.005797828473364642,0.0,70.0,255.0,255.0,255.0
1,0.05,1.4999713762146873,13.50001932729626,-1.6516286449765304e-05,-0.000501650470841053,0.00036436395005168265,-0.000620217152663535,0.0018476939740663667,-0.0004100043133448139,-0.008972014150876381,0.0,70.0,255.0,255.0,255.0
2,0.1,1.4999498349529163,13.50003643639501,-6.202171526635367e-05,-0.00038770630885531787,0.00034554549374732346,-0.001227527144082941,0.001724757062615545,0.0001345407490305206,-0.012696742710046966,0.0,70.0,255.0,255.0,255.0
3,0.15000000000000002,1.4999326055838018,13.500053881845634,-0.00013926900085805942,-0.00032917476457949846,0.0003778180249547347,-0.0018898914236682317,0.0006165047087725029,0.0011563605026410073,-0.013797828473365543,0.0,70.0,255.0,255.0,255.0
4,0.2,1.4999169174764584,13.500074218197506,-0.00025101085763317685,-0.0003260558379780676,0.0004611815440114242,-0.0026073099914194955,-0.000501571121369615,0.0021861904576425673,-0.014908587364585205,0.0,70.0,255.0,255.0,255.0
5,0.25,1.499900000000004,13.500100000000035,-0.00040000000000000896,-0.00037933187671645996,0.0005964370707189914,-0.003380750160126752,-0.0016761319390212748,0.0032620790818782552,-0.01607496674123828,0.0,70.0,255.0,255.0,255.0
6,0.30000000000000004,1.4998789842887867,13.500133861904578,-0.0005890858736458521,-0.0004936690318801951,0.0007873894521992497,-0.004214806665543323,-0.0029221858310890525,0.004396264201567135,-0.017311744993177853,0.0,70.0,255.0,255.0,255.0
7,0.35000000000000003,1.499850633096816,13.500178738945255,-0.0008214806665543413,-0.0006715504598253652,0.001036063490875705,-0.0051119246594445375,-0.004111754736024764,0.00548439064900208,-0.018492902759683107,0.0,70.0,255.0,255.0,255.0
8,0.4,1.4998118292428042,13.500237468253665,-0.0011002783395903059,-0.0009048445054826715,0.0013358285170994577,-0.006064096941511634,-0.005040455779625752,0.006359801660771325,-0.019417185240796227,0.0,70.0,255.0,255.0,255.0
9,0.45,1.4997601486462677,13.500312321796965,-0.0014278903607055048,-0.0011755960377879404,0.0016720436569528374,-0.00705364318352416,-0.005532123605167527,0.006883806159407868,-0.019911534273401085,0.0,70.0,255.0,255.0,255.0
10,0.5,1.4996942696390254,13.50040467261936,-0.0018056426579427219,-0.0014580568659994242,0.0020242091330402445,-0.008055250368851742,-0.005429429857195522,0.006951660660803327,-0.01982298159589891,0.0,70.0,255.0,255.0,255.0
11,0.55,1.4996143429596678,13.50051474271027,-0.002233415397590679,-0.0017185390235074927,0.00236720972303317,-0.009035941343114052,-0.004680622903796561,0.006528738874678197,-0.019101195530243087,0.0,70.0,255.0,255.0,255.0
12,0.6000000000000001,1.4995224157366747,13.500641393591664,-0.002709236792254127,-0.0019261191563790803,0.0026770830205080642,-0.009965369921876051,-0.0034805230825218914,0.0057093253122531,-0.017932660449150283,0.0,70.0,255.0,255.0,255.0
13,0.65,1.4994217310440299,13.50078245101232,-0.003229952389778284,-0.002066591331759682,0.00293814225425848,-0.01082920738802908,-0.002186202013820804,0.004681454403332452,-0.01666043219276884,0.0,70.0,255.0,255.0,255.0
14,0.7000000000000001,1.4993157566034987,13.50093520781709,-0.003792157531057035,-0.0021447393577611606,0.0031452284608413095,-0.011631413141152935,-0.0011818166522070683,0.0036644046543798936,-0.01565388348962124,0.0,70.0,255.0,255.0,255.0
15,0.75,1.4992072571082538,13.501096973858404,-0.004393093703893578,-0.0021847729969803886,0.0033045827196964694,-0.012394595736991204,-0.0008583178672472158,0.002873450595153315,-0.01528411091244174,0.0,70.0,255.0,255.0,255.0
16,0.8,1.4990972793038007,13.50126566608906,-0.0050316171047561555,-0.0022305711444858822,0.003432573520356641,-0.013159824232397109,-0.0014051460297759277,0.0024291914320073715,-0.015733146013751156,0.0,70.0,255.0,255.0,255.0
17,0.8500000000000001,1.4989841999938052,13.50144023121044,-0.005709076127133289,-0.0023252875999579814,0.0035475018628972066,-0.01396791033836632,-0.002595337083044491,0.0023110353755129154,-0.01680563959290003,0.0,70.0,255.0,255.0,255.0
18,0.9,1.4988647505438049,13.50162041627535,-0.0064284081385927875,-0.0024901048527903313,0.0036636770579079325,-0.014840388191687112,-0.003985552016128047,0.0024433317758365547,-0.018111901838944646,0.0,70.0,255.0,255.0,255.0
19,0.9500000000000001,1.4987351895085261,13.50180659891623,-0.007193114946302,-0.002723842801570786,0.003791835040480862,-0.015779100522260784,-0.005127462932930094,0.002744262870102432,-0.019259784914968017,0.0,70.0,255.0,255.0,255.0
20,1.0,1.4985923662636478,13.501999599779397,-0.008006318190818866,-0.0030028511460833407,0.003938103344918176,-0.016766366683183914,-0.00556937326587903,0.0031185462825433774,-0.01987264934640933,0.0,70.0,255.0,255.0,255.0
21,1.05,1.4984349043939178,13.502200409250722,-0.008869751614620391,-0.003280780128158689,0.0041036896687352,-0.017766365456901717,-0.005085646123736964,0.003502747144423779,-0.01975307356160496,0.0,70.0,255.0,255.0,255.0
22,1.1,1.498264288250832,13.50240996874627,-0.009782954736509038,-0.003511415758457037,0.004288378059360554,-0.01874167403934441,-0.003908944436070705,0.0038866264258530236,-0.019015597030065147,0.0,70.0,255.0,255.0,255.0
23,1.1500000000000001,1.498083762818072,13.502629247056658,-0.010743919018554832,-0.0036716745717657595,0.004492352311320502,-0.019667925159908232,-0.0025007740712235105,0.004262607769867088,-0.01792114460063745,0.0,70.0,255.0,255.0,255.0
24,1.2000000000000002,1.4978971207936553,13.502859203977403,-0.011749747252499861,-0.003761493165579388,0.0047146388363472624,-0.020533788499408154,-0.0013214784691184533,0.004606655754280098,-0.016733550277081913,0.0,70.0,255.0,255.0,255.0
25,1.25,1.4977076135015142,13.503100710940293,-0.012797297868495648,-0.003803822418677605,0.004953017886748512,-0.021341280187616423,-0.0008321144769896094,0.004904299008323676,-0.01569727305390338,0.0,70.0,255.0,255.0,255.0
26,1.3,1.4975167385517876,13.503354505766078,-0.013883875271261503,-0.003844704613278349,0.00520506873717963,-0.022103515804798492,-0.001265416328521951,0.005146393415600414,-0.014960107525375556,0.0,70.0,255.0,255.0,255.0
27,1.35,1.4973231430401863,13.503621217814011,-0.015007649448975497,-0.0039303640515298,0.005467657228308553,-0.02283729094015398,-0.0023980693217406923,0.00530516288392846,-0.014564699559565554,0.0,70.0,255.0,255.0,255.0
28,1.4000000000000001,1.4971237021466346,13.503901271488909,-0.0161676043652769,-0.004084511545452418,0.005735585025572476,-0.023559985760755048,-0.0037821675499261076,0.005343533181267901,-0.014532470807457343,0.0,70.0,255.0,255.0,255.0
29,1.4500000000000002,1.496914691885641,13.504194776316568,-0.017363648025051002,-0.004308580806522411,0.0060020105464353435,-0.024290538020899713,-0.004973476337521987,0.005235827398308857,-0.014884988335679,0.0,70.0,255.0,255.0,255.0
30,1.5,1.4966928440659824,13.504501472543552,-0.018596658167366872,-0.004581859179204617,0.006259167765403362,-0.025048484594322948,-0.0055342434180483124,0.004960294981870561,-0.015650239789957374,0.0,70.0,255.0,255.0,255.0
31,1.55,1.4964565059677206,13.504820693093109,-0.019868496484483297,-0.004862005148327242,0.0064980400446224,-0.02585556199989545,-0.005239541709189943,0.004517366838996395,-0.01680854761894439,0.0,70.0,255.0,255.0,255.0
32,1.6,1.4962066435511496,13.505151276548014,-0.021182214367356417,-0.005105813350123611,0.006710904449303001,-0.026729339356217387,-0.0042695941278037,0.003973561198478137,-0.018163926409995798,0.0,70.0,255.0,255.0,255.0
33,1.6500000000000001,1.4959459246327083,13.505491783538039,-0.022541430420105035,-0.005288964561107612,0.006895396164470213,-0.02767195464089503,-0.0029997398780734486,0.0034440986647510385,-0.019387293847855994,0.0,70.0,255.0,255.0,255.0
34,1.7000000000000002,1.4956777470950389,13.505840816164461,-0.02394940983144592,-0.005405787337930956,0.007055314315778105,-0.028668068741002986,-0.0018044763207214487,0.0030490090113133306,-0.02013526094896516,0.0,70.0,255.0,255.0,255.0
35,1.75,1.4954053458989152,13.506197314969617,-0.025408237294205334,-0.005469412193179757,0.007200297065601546,-0.029685480735791546,-0.0010508652307450461,0.0028985303906381432,-0.0200657771102751,0.0,70.0,255.0,255.0,255.0
36,1.8,1.495130805875721,13.506560845871022,-0.026917957905025075,-0.005510873861005461,0.007345167354841919,-0.030674646452030496,-0.0009357641540974626,0.0030446520488780493,-0.019030876824023893,0.0,70.0,255.0,255.0,255.0
37,1.85,1.4948542585128146,13.506931831705101,-0.028475701939408384,-0.005562988608589503,0.007504762270489351,-0.031588568418193935,-0.0013545098780598508,0.003436116795541011,-0.01731031741117467,0.0,70.0,255.0,255.0,255.0
38,1.9000000000000001,1.494574507014862,13.50731132209807,-0.03007681474684447,-0.005646324848811446,0.0076887790343960205,-0.03240567819314796,-0.002068756387330062,0.003963708523713194,-0.015430148672913868,0.0,70.0,255.0,255.0,255.0
39,1.9500000000000002,1.4942896260279335,13.50770070960854,-0.03171626975872318,-0.005769864247322509,0.00790113312286067,-0.03313158328548532,-0.0028415321326136223,0.004508649378998086,-0.013932289546783605,0.0,70.0,255.0,255.0,255.0
40,2.0,1.4939975205901297,13.508101435410357,-0.033389973075393,-0.005930478062072808,0.00813964397229583,-0.033798907147826324,-0.003434323631412717,0.004957564807206438,-0.013350614472906058,0.0,70.0,255.0,255.0,255.0
41,2.0500000000000003,1.4936965782217262,13.50851467400577,-0.03509616047350581,-0.006113296610463781,0.008396889603581315,-0.03446664473277593,-0.0037118538888769592,0.005244537784854231,-0.013948318045331476,0.0,70.0,255.0,255.0,255.0
42,2.1,1.4933861909290833,13.508941124370715,-0.036836637548670594,-0.006301663450960504,0.008664097750781252,-0.03519373895235947,-0.003716935124309373,0.005365607983520704,-0.015459512570012435,0.0,70.0,255.0,255.0,255.0
43,2.15,1.4930664118766301,13.509381083780848,-0.03861553436874176,-0.006484990122894718,0.008933450401933385,-0.03601259598977717,-0.003558987486007581,0.005336591715909833,-0.01734656367494286,0.0,70.0,255.0,255.0,255.0
44,2.2,1.4927376919167938,13.509834469410908,-0.04043789714764831,-0.006657562199561262,0.009197756922372236,-0.03692839531985376,-0.0033369942165073496,0.005176906294224182,-0.019062946831269884,0.0,70.0,255.0,255.0,255.0
45,2.25,1.492400655656674,13.510300859473086,-0.042308373900727135,-0.006818689544545453,0.009451141031355803,-0.03791889067290416,-0.003151793623912269,0.004915219704493268,-0.020075820942155875,0.0,70.0,255.0,255.0,255.0
46,2.3000000000000003,1.4920558229623393,13.510779583514044,-0.04422978621493873,-0.006972741561952489,0.009689278892821562,-0.038935977414069345,-0.0030628808965094123,0.004576171167869347,-0.02010321696200995,0.0,70.0,255.0,255.0,255.0
47,2.35,1.4917033815004788,13.511269787362368,-0.04620197164213407,-0.007124977634196394,0.009908758148142738,-0.039929212369105155,-0.0030568172236566937,0.0041822904313093545,-0.01930608452322541,0.0,70.0,255.0,255.0,255.0
48,2.4000000000000004,1.4913433251989197,13.511770459328858,-0.04822270745184924,-0.0072784232843181584,0.010107507935952498,-0.040866585866391886,-0.0030970652302286794,0.0037707637764228252,-0.018048305252033048,0.0,70.0,255.0,255.0,255.0
49,2.45,1.490975539172047,13.512280538155963,-0.05028863022877326,-0.007434684157219262,0.01028583452578502,-0.04173404289430846,-0.0031566914675096314,0.0033894130892164753,-0.016696296088517665,0.0,70.0,255.0,255.0,255.0
50,2.5,1.4905998567831977,13.512799042781436,-0.05239611174128009,-0.007594092431069122,0.010446449244874145,-0.04253621547524365,-0.003210529845110166,0.0030775936695093264,-0.01561006446242491,0.0,70.0,255.0,255.0,255.0
51,2.5500000000000003,1.49021612992894,13.51332518308045,-0.05454225177629762,-0.007755737141730279,0.010593593892735953,-0.04329504934055095,-0.0032433358118533206,0.0028574908313316882,-0.014997135784946408,0.0,70.0,255.0,255.0,255.0
52,2.6,1.4898242830690247,13.51385840217071,-0.05672561667533518,-0.007918426012254454,0.010732198328007314,-0.04403592905373829,-0.003255795981127463,0.0027425263271041445,-0.014827944208882504,0.0,70.0,255.0,255.0,255.0
53,2.6500000000000004,1.4894242873277146,13.514398402913251,-0.05894584468167145,-0.008081316739843025,0.010867846525446367,-0.0447778437614392,-0.0032527515931635165,0.002743057141962879,-0.014990937927648884,0.0,70.0,255.0,255.0,255.0
54,2.7,1.4890161513950404,13.514945186823255,-0.0612034010514791,-0.008243701171570805,0.011006504042203602,-0.04553502284650318,-0.003236239913295691,0.002858728062449245,-0.015383756926551362,0.0,70.0,255.0,255.0,255.0
55,2.75,1.4885999172105575,13.515499053317471,-0.06349934696632177,-0.008404940731172594,0.011153719331691292,-0.04631621945409434,-0.003206086995444224,0.0030783683197199707,-0.015899958504181355,0.0,70.0,255.0,255.0,255.0
56,2.8000000000000003,1.4881756573219231,13.516060558756424,-0.06583502299688854,-0.008564309871115228,0.011314340874175599,-0.04712501869692132,-0.0031637758561187113,0.003388177864316333,-0.01646320493316894,0.0,70.0,255.0,255.0,255.0
57,2.85,1.487743486223446,13.516630487404889,-0.0682118488360139,-0.008721318316784465,0.011492537118122925,-0.04796253994741123,-0.0031199988520302924,0.0037667650993000734,-0.01702223188133206,0.0,70.0,255.0,255.0,255.0
58,2.9000000000000004,1.4873035254902447,13.517209812468236,-0.07063127699162966,-0.008876309756318257,0.011691017384105606,-0.04882724188505452,-0.0030919283971808653,0.004176168492264765,-0.017505332314761424,0.0,70.0,255.0,255.0,255.0
59,2.95,1.4868558552478142,13.5177995891433,-0.07309457302451935,-0.009030511156502552,0.011910153967349402,-0.049713073178887374,-0.00309834887919358,0.004569987015301535,-0.01782350138010841,0.0,70.0,255.0,255.0,255.0
60,3.0,1.4864004743745944,13.518400827864971,-0.0756025843095184,-0.009186144644237615,0.01214801608563576,-0.050609592023065364,-0.0031651221729545043,0.0049128957558153274,-0.0178940642248146,0.0,70.0,255.0,255.0,255.0
61,3.0500000000000003,1.4859372407833904,13.519014390751863,-0.07815553222682589,-0.009347023373798002,0.012401443542930934,-0.051502479601368834,-0.0033015607637132405,0.005183084426008122,-0.017682818375153175,0.0,70.0,255.0,255.0,255.0
62,3.1,1.4854657720372146,13.519640972219264,-0.08075283226965528,-0.009516300720608939,0.012666324528236572,-0.05237787386058068,-0.003464208610948205,0.005353117239259575,-0.017247603790256083,0.0,70.0,255.0,255.0,255.0
63,3.1500000000000004,1.4849856107113295,13.520281023204687,-0.08339331961288396,-0.009693444234892823,0.012936755266856892,-0.05322723998039444,-0.0035795348181544284,0.005389564925728507,-0.016704096449667027,0.0,70.0,255.0,255.0,255.0
64,3.2,1.4844964276137254,13.52093464774595,-0.08607555626769473,-0.009874254202424382,0.013205281020809423,-0.054048283505547384,-0.0035770778564980787,0.005268037162231565,-0.0161817247325044,0.0,70.0,255.0,255.0,255.0
65,3.25,1.483998185291087,13.521601551306768,-0.0887981479634387,-0.01005115202054263,0.013463558983080048,-0.05484541245364488,-0.003385452284665469,0.0049660859525957335,-0.015811803244582257,0.0,70.0,255.0,255.0,255.0
66,3.3000000000000003,1.483491312411671,13.522281003644258,-0.09156009751305921,-0.010212799430890929,0.013701889616068996,-0.05562946383000561,-0.0029761815552697968,0.00448517207747301,-0.015665008745714692,0.0,70.0,255.0,255.0,255.0
67,3.35,1.482976905347998,13.522971740268375,-0.09436109434643926,-0.01034877017606961,0.01391207619082735,-0.05641191332821635,-0.002424938266076815,0.0039016051063711643,-0.015703716593996886,0.0,70.0,255.0,255.0,255.0
68,3.4000000000000004,1.4824564353940641,13.52367221126334,-0.09720128884588085,-0.01045529325749861,0.014092050126706113,-0.0571998354894053,-0.0018689999294219106,0.0033464109661096586,-0.01584275741104285,0.0,70.0,255.0,255.0,255.0
69,3.45,1.4819313760222481,13.524380945281045,-0.10008107789537979,-0.010535670169011802,0.014246717287438315,-0.057996189069320636,-0.0014461135873444775,0.0029568386924694323,-0.015995800156079487,0.0,70.0,255.0,255.0,255.0
70,3.5,1.481402868377163,13.525096882992084,-0.10300090775281291,-0.010599904616233058,0.014387733995953056,-0.05879941550501325,-0.001285050040134017,0.002866769757403631,-0.016066741444878407,0.0,70.0,255.0,255.0,255.0
71,3.5500000000000003,1.4808713855606248,13.52581971868064,-0.10596101944588111,-0.010664175173025203,0.014533394263178678,-0.05960286321380848,-0.0014475125492907637,0.0031367400856296968,-0.016004372749220397,0.0,70.0,255.0,255.0,255.0
72,3.6,1.4803364508598604,13.526550222418402,-0.10896119407419376,-0.010744655871162134,0.014701408004516026,-0.06039985277993529,-0.0018715628004262186,0.003675986812368137,-0.015858462234674686,0.0,70.0,255.0,255.0,255.0
73,3.6500000000000004,1.4797969199735086,13.527289859481092,-0.11200100472387464,-0.010851331453067825,0.014900992944415492,-0.061188709437275945,-0.002428101827578466,0.004308427572929929,-0.015723102344399054,0.0,70.0,255.0,255.0,255.0
74,3.7,1.4792513177145536,13.528040321712844,-0.11508006501792135,-0.010987466053919981,0.015132250761809019,-0.06197216301437519,-0.0029789806144098208,0.004851834172647784,-0.015682160890270747,0.0,70.0,255.0,255.0,255.0
75,3.75,1.4786981733681166,13.528803084557273,-0.11819822102531216,-0.011149229514508807,0.01538617636168027,-0.06275692552630302,-0.0033863289069069324,0.00513084434246025,-0.015817175031840325,0.0,70.0,255.0,255.0,255.0
76,3.8000000000000003,1.4781363947631028,13.529578939349012,-0.12135575757055166,-0.011326098944610674,0.015645335196055044,-0.06355388051755922,-0.0035742810683192516,0.005054580867991376,-0.016164586504495426,0.0,70.0,255.0,255.0,255.0
77,3.85,1.4775655634736555,13.530367618076879,-0.12455360907706808,-0.011506657621340732,0.015891634448479408,-0.06437338417675256,-0.0035724468960163236,0.004679855569378333,-0.016660662905523815,0.0,70.0,255.0,255.0,255.0
78,3.9000000000000004,1.4769857290009687,13.53116810279386,-0.1277930959882269,-0.011683343634212306,0.016113320752992877,-0.0652199468081116,-0.003454117235834886,0.004134470816730129,-0.017185765612297288,0.0,70.0,255.0,255.0,255.0
79,3.95,1.4763972291102343,13.531978950152178,-0.13107560375787924,-0.011852069344924221,0.01630508153015242,-0.06609196073798229,-0.003291763488477706,0.00354911132909308,-0.017622782390064318,0.0,70.0,255.0,255.0,255.0
80,4.0,1.4758005220664763,13.532798610946875,-0.13440229206202514,-0.012012519983060077,0.016468231885902185,-0.06698222504711804,-0.0031616156840552634,0.0030458435473335044,-0.017872577075769835,0.0,70.0,255.0,255.0,255.0
81,4.05,1.4751959771119283,13.533625773340768,-0.13777382626259105,-0.012168230913329747,0.01660966588488577,-0.06787921844555928,-0.003108137070295669,0.002697710336363457,-0.017883481699004777,0.0,70.0,255.0,255.0,255.0
82,4.1000000000000005,1.4745836989751433,13.534459577535364,-0.14119021390658107,-0.012323333690089644,0.01673800291953853,-0.06877057321701852,-0.0031177172146623633,0.0025209545484017326,-0.017663361667716315,0.0,70.0,255.0,255.0,255.0
83,4.15,1.4739636437429193,13.535299573632722,-0.1446508835842929,-0.012480002634795984,0.016861761339725945,-0.0696455546123309,-0.00315720079109294,0.0025181646854832707,-0.017250198842777564,0.0,70.0,255.0,255.0,255.0
84,4.2,1.4733356987116637,13.536145753669336,-0.14815476936781416,-0.012639053769198938,0.016989819388086858,-0.07049559310129627,-0.00320016589774319,0.002691207688876318,-0.016692910015661533,0.0,70.0,255.0,255.0,255.0
85,4.25,1.4726997383659994,13.53699855557153,-0.15170044289442253,-0.012800019224570303,0.017130882108613577,-0.07131484561389706,-0.003219236328666497,0.003041772141898491,-0.016032563285123258,0.0,70.0,255.0,255.0,255.0
86,4.3,1.4720556967892067,13.537858841880198,-0.15528625392920387,-0.012960977402065588,0.017293996602276707,-0.0720988494298086,-0.003199883937332615,0.0035556034291062133,-0.015307174345177699,0.0,70.0,255.0,255.0,255.0
87,4.3500000000000005,1.4714036406257929,13.538727955231758,-0.1589103278374034,-0.013120007618303564,0.017486442451524198,-0.07284556304841483,-0.0031566842452424027,0.004155487077284192,-0.014604025621758887,0.0,70.0,255.0,255.0,255.0
88,4.4,1.4707436960273763,13.53960748612535,-0.16257081023404535,-0.013276645826589828,0.017709545310005126,-0.07355925199198449,-0.0031170795998569645,0.004712031279829887,-0.014056982140131513,0.0,70.0,255.0,255.0,255.0
89,4.45,1.470075976043134,13.540498909762759,-0.16626625303660184,-0.01343171557828926,0.017957645579507187,-0.07425126126242798,-0.0031075729208129843,0.005087083556709615,-0.013797838619525327,0.0,70.0,255.0,255.0,255.0
90,4.5,1.4694005244695474,13.5414032506833,-0.16999593636028815,-0.013587403118671126,0.018218253665676087,-0.07493903585393702,-0.003161439001209132,0.0051430585607192825,-0.01394514181170814,0.0,70.0,255.0,255.0,255.0
91,4.55,1.4687172357312668,13.542320735129326,-0.17376015662199554,-0.013747859478410174,0.018471951435579115,-0.0756457754435988,-0.0032923271802598464,0.004819363127062104,-0.014542646095119793,0.0,70.0,255.0,255.0,255.0
92,4.6000000000000005,1.4680257385217064,13.543250445826859,-0.17756051390464803,-0.013916635836697111,0.018700189978382298,-0.076393300463449,-0.003455545804165183,0.004221572667262308,-0.015475221159949593,0.0,70.0,255.0,255.0,255.0
93,4.65,1.467325572147597,13.544190754127165,-0.18139948666834044,-0.014093414058826692,0.018894108702305346,-0.07719329755959375,-0.003574480809409586,0.0035500738315263902,-0.016524669799528047,0.0,70.0,255.0,255.0,255.0
94,4.7,1.4666163971158237,13.545139856697089,-0.1852798436606074,-0.01427408391763807,0.019055197361534937,-0.0780457674434018,-0.003576255706017051,0.003013231975934616,-0.017457273967760867,0.0,70.0,255.0,255.0,255.0
95,4.75,1.4658981637558333,13.546096273863318,-0.18920406341268062,-0.014451039629428397,0.019195431899898807,-0.07893902495636984,-0.0033870356386689338,0.0028219842894472436,-0.018054841495970808,0.0,70.0,255.0,255.0,255.0
96,4.800000000000001,1.4651712931528809,13.547059399887079,-0.19317374615624439,-0.014612787481504963,0.01933739579047966,-0.07985125159299888,-0.0029770078077140383,0.003080230777641191,-0.018202241274345443,0.0,70.0,255.0,255.0,255.0
97,4.8500000000000005,1.4644368850076828,13.548030013442366,-0.1971891885719805,-0.014748740410199801,0.019503454977662926,-0.08075924908380439,-0.0024229040996637252,0.0036728143305353456,-0.01794320162658014,0.0,70.0,255.0,255.0,255.0
98,4.9,1.4636964191118609,13.549009745384845,-0.20124967106462482,-0.014855077891471336,0.019704677223533196,-0.0816455717556569,-0.001864064761458728,0.0043730813201747765,-0.017396226773669365,0.0,70.0,255.0,255.0,255.0
99,4.95,1.4629513772185356,13.55000048116472,-0.2053537457475462,-0.014935146886345674,0.019940763109680404,-0.08249887176117132,-0.0014401781480266607,0.004953415111152992,-0.01669306550940719,0.0,70.0,255.0,255.0,255.0
100,5.0,1.4622029044232263,13.551003821695813,-0.20949955824074196,-0.014999095706274002,0.020200018734648495,-0.08331487830659762,-0.0012823997962208011,0.005185041575828109,-0.015967520176402017,0.0,70.0,255.0,255.0,255.0
101,5.050000000000001,1.4614514676479082,13.552020483038184,-0.21368523357820596,-0.015063386865967754,0.020459267267263215,-0.08409562377881152,-0.0014534411226563293,0.004953140336816375,-0.015306850345972456,0.0,70.0,255.0,255.0,255.0
102,5.1000000000000005,1.4606965657366295,13.55304974842254,-0.2179091206186231,-0.015144439818539635,0.020695332768330132,-0.08484556334119486,-0.0018883622726839633,0.004372577937417077,-0.014749175130937542,0.0,70.0,255.0,255.0,255.0
103,5.15,1.4599370236660543,13.554090016315017,-0.22216978991232544,-0.01525222309323615,0.020896525061004922,-0.08557054129190528,-0.0024528965083092658,0.0036721929632221872,-0.014335737791112968,0.0,70.0,255.0,255.0,255.0
104,5.2,1.459171343427306,13.55513940092864,-0.22646617474781364,-0.015389729469370561,0.02106255206465235,-0.08627913712030616,-0.0030035445225173873,0.0030796810037259092,-0.01411563881979494,0.0,70.0,255.0,255.0,255.0
105,5.25,1.4583980507191172,13.556196271521483,-0.23079770362435606,-0.015552577545487889,0.021204493161377513,-0.08698210517388477,-0.003395346528689558,0.0028218121093104287,-0.01412710577044507,0.0,70.0,255.0,255.0,255.0
106,5.300000000000001,1.4576160856727571,13.557259850244778,-0.2351643852652021,-0.015729264122239517,0.021344733275583394,-0.08769184769735067,-0.0035497405220130673,0.003013781303806695,-0.014378096269496154,0.0,70.0,255.0,255.0,255.0
107,5.3500000000000005,1.4568251243068933,13.55833074484904,-0.23956688839409113,-0.015907551597689196,0.021505871291758183,-0.08841991480083439,-0.003507283172998754,0.003551465996132208,-0.01481655472612975,0.0,70.0,255.0,255.0,255.0
108,5.4,1.4560253305129882,13.559410437373954,-0.24400637674528555,-0.016079992439539392,0.021699879875196615,-0.08917350316996364,-0.003359873680741643,0.004223554750737435,-0.015342686863756283,0.0,70.0,255.0,255.0,255.0
109,5.45,1.4552171250629393,13.56050073283656,-0.2484842387110875,-0.01624353896576336,0.021928226766831926,-0.08995418348721002,-0.0031994432958981633,0.004821287445544442,-0.015838691565717156,0.0,70.0,255.0,255.0,255.0
110,5.5,1.4544009766164119,13.561603260050637,-0.25300179509400655,-0.01639993676912921,0.02218200861975106,-0.09075737232653536,-0.0031281954412598623,0.005143747283220534,-0.01618401012176418,0.0,70.0,255.0,255.0,255.0
111,5.550000000000001,1.4535771313860264,13.562718933698536,-0.257559975943741,-0.016556358509889346,0.02244260149515398,-0.09157258449938643,-0.003200370681932796,0.005085161022577722,-0.016314564109864982,0.0,70.0,255.0,255.0,255.0
112,5.6000000000000005,1.452745340765423,13.563847520200152,-0.2621590535439452,-0.016719973837322488,0.02269052472200883,-0.09238882873752186,-0.0033615726341418295,0.004706966003986679,-0.016268242328176807,0.0,70.0,255.0,255.0,255.0
113,5.65,1.4519051340022942,13.564987986170737,-0.2667988588174932,-0.01689251577330353,0.022913298095552648,-0.09319940873220411,-0.0035093803304020454,0.004148180107854671,-0.01612903922939557,0.0,70.0,255.0,255.0,255.0
114,5.7,1.4510560891880926,13.566138850009708,-0.2714789944171656,-0.017070911870362693,0.0231053427327943,-0.09400173266046141,-0.0035515960471022012,0.0035484559274934213,-0.015983394451146715,0.0,70.0,255.0,255.0,255.0
115,5.75,1.4501980428152579,13.567298520444016,-0.27619903208353935,-0.01724767537801375,0.02326814368830199,-0.09479774817731879,-0.0033959276505068914,0.0030391894329184765,-0.015928835094447535,0.0,70.0,255.0,255.0,255.0
116,5.800000000000001,1.4493313216502912,13.568465664378538,-0.2809587692348975,-0.017410504635413382,0.023409261676086146,-0.09559461616990617,-0.003001690502846266,0.0026983484991305318,-0.01601642118381208,0.0,70.0,255.0,255.0,255.0
117,5.8500000000000005,1.4484569923517165,13.569639446611625,-0.28575849370052997,-0.017547844428298376,0.023537978538215043,-0.0963993902957,-0.0024481978521562198,0.0025370336258490056,-0.0161895435602466,0.0,70.0,255.0,255.0,255.0
118,5.9,1.4475765372074614,13.57081946223236,-0.2905987082644675,-0.017655324420629004,0.023662965038671047,-0.09721357052593083,-0.001881672596826256,0.002548200341934148,-0.01634292778042723,0.0,70.0,255.0,255.0,255.0
119,5.95,1.4466914599096536,13.572005743115492,-0.29547985075312305,-0.017736011687981,0.023792798572408458,-0.09803368307374272,-0.0014469464085342665,0.0027243760243322868,-0.016380644382590903,0.0,70.0,255.0,255.0,255.0
120,6.0,1.4458029360386633,13.5731987420896,-0.30040207657184176,-0.01780001906148243,0.023935402641104275,-0.09885163496418992,-0.0012800753087294225,0.003055485660574675,-0.016204705444511358,0.0,70.0,255.0,255.0,255.0
121,6.050000000000001,1.4449114580035054,13.574399283379602,-0.30536501424954204,-0.017864019218853944,0.024098347138465925,-0.09965415361819385,-0.0014466668401658112,0.0035224706207870327,-0.015772664907803824,0.0,70.0,255.0,255.0,255.0
122,6.1000000000000005,1.4440165341167779,13.575608576803447,-0.31036749193366114,-0.01794468574549901,0.02428764970318298,-0.1004289014549703,-0.0018811604328705656,0.004064060331465669,-0.015175354992613688,0.0,70.0,255.0,255.0,255.0
123,6.15,1.4431169894289555,13.57682804834992,-0.3154079043950391,-0.018052135262141,0.024504753171612492,-0.10117168911745522,-0.0024475656462463746,0.004578179364322921,-0.014578317247970762,0.0,70.0,255.0,255.0,255.0
124,6.2,1.4422113205905638,13.578059052120608,-0.32048466084540667,-0.01818944231012365,0.02474546763961527,-0.10188673317976737,-0.0030011311391131557,0.004955065618261756,-0.014146801911263385,0.0,70.0,255.0,255.0,255.0
125,6.25,1.4412980451979431,13.579302595113882,-0.3255965777130158,-0.018352248376052316,0.025000259733438668,-0.10258636930858156,-0.003395752466350821,0.005094858599719032,-0.014044324479511872,0.0,70.0,255.0,255.0,255.0
126,6.300000000000001,1.4403760957529586,13.580559078093952,-0.3307432977762648,-0.01852901755675873,0.025254953499587174,-0.10329116562771856,-0.003552154957020548,0.004951256194551945,-0.014346718718738494,0.0,70.0,255.0,255.0,255.0
127,6.3500000000000005,1.4394451434422673,13.58182809046384,-0.33592569427578767,-0.01870746387175437,0.025495385352893862,-0.10402104118045541,-0.003510796780226144,0.004571200574154943,-0.014944560944774032,0.0,70.0,255.0,255.0,255.0
128,6.4,1.4385053493657831,13.583108616629241,-0.34114540189431036,-0.018880097234781346,0.025712073557002668,-0.10478562172219597,-0.003363589293803315,0.004055445838879734,-0.015627439591336945,0.0,70.0,255.0,255.0,255.0
129,6.45,1.4375571337187891,13.584399297819541,-0.34640425644800726,-0.019043822801134702,0.025900929936781836,-0.1055837851395891,-0.003202328568696622,0.003514848681618332,-0.016179374079616782,0.0,70.0,255.0,255.0,255.0
130,6.5,1.4366009670856696,13.58569870962292,-0.3517037804082693,-0.019200330091651008,0.0260635584251645,-0.10640355913015764,-0.003128896177639895,0.0030530985869248184,-0.016382005961473878,0.0,70.0,255.0,255.0,255.0
131,6.550000000000001,1.435637100709624,13.587005653662057,-0.35704461236102303,-0.01935671241889869,0.026206239795474318,-0.10722198573573649,-0.0031974872244822095,0.0027319917792922865,-0.016127173503965864,0.0,70.0,255.0,255.0,255.0
132,6.6000000000000005,1.4346652958437798,13.588319333602467,-0.3624259789818429,-0.01952007881409923,0.02633675760309373,-0.10801627648055423,-0.0033547200455341653,0.0025675010098424877,-0.015531809153690457,0.0,70.0,255.0,255.0,255.0
133,6.65,1.433685092828214,13.589639329422367,-0.36784624000907845,-0.019692184423452108,0.026462989896458566,-0.10877516665110554,-0.0034998487404624967,0.0025645128060247657,-0.014826516461263761,0.0,70.0,255.0,255.0,255.0
134,6.7,1.4326960774014346,13.590965632592113,-0.3733034956469535,-0.01987006368814548,0.026593208883696207,-0.1094989281266806,-0.0035424683389129186,0.002725026834227151,-0.014242275196874044,0.0,70.0,255.0,255.0,255.0
135,6.75,1.4316980864593996,13.592298650310736,-0.3787961328217465,-0.0200464312573434,0.02673549257988128,-0.11019939417079294,-0.0033927187668814085,0.003048737728583717,-0.014011614378534043,0.0,70.0,255.0,255.0,255.0
136,6.800000000000001,1.4306914342757002,13.5936391818501,-0.38432343506403277,-0.02020933556483362,0.02689808265655458,-0.11090008956453401,-0.0030108098978853803,0.003521802329053969,-0.01425116069191934,0.0,70.0,255.0,255.0,255.0
137,6.8500000000000005,1.4296771529029162,13.594988458576392,-0.3898861417781999,-0.020347512247131938,0.02708767281278668,-0.11162451023998488,-0.0024720945996925536,0.004077956224968204,-0.014842794515079749,0.0,70.0,255.0,255.0,255.0
138,6.9,1.428656683050987,13.59634794913138,-0.39548588608803126,-0.020456545024802875,0.0273058782790514,-0.11238436901604199,-0.001916083343589392,0.004605663777468294,-0.015551902489058245,0.0,70.0,255.0,255.0,255.0
139,6.95,1.427631498400436,13.597719046404297,-0.4011245786798041,-0.020539120581490877,0.027548239190533508,-0.1131797004888907,-0.001480571968270894,0.004986069622781031,-0.016144951706315025,0.0,70.0,255.0,255.0,255.0
140,7.0,1.426602770992838,13.599102773050433,-0.4068038561369203,-0.020604602221629964,0.027804485241329502,-0.11399886418667349,-0.0012922101066514813,0.005107941173498887,-0.01638757382038669,0.0,70.0,255.0,255.0,255.0
141,7.050000000000001,1.425571038178273,13.60049949492843,-0.41252446509847146,-0.020668341592156025,0.028059033307883396,-0.11481845787092937,-0.0014130727177263935,0.004920286082921166,-0.016161610301773655,0.0,70.0,255.0,255.0,255.0
142,7.1000000000000005,1.4245359368336223,13.601908676381221,-0.41828570192401326,-0.020745909493402603,0.02829651384962162,-0.11561502521685085,-0.0017924260313995077,0.004485149614730233,-0.01558242071143523,0.0,70.0,255.0,255.0,255.0
143,7.15,1.4234964472289326,13.603329146313392,-0.42408596762015655,-0.020847584195295976,0.02850754826935642,-0.11637669994207289,-0.00231945424888913,0.003929195721674716,-0.014880465657085562,0.0,70.0,255.0,255.0,255.0
144,7.2,1.4224511784140927,13.604759431208157,-0.42992337191822055,-0.020977854918291516,0.02868943342178909,-0.11710307178255941,-0.002875756608333724,0.0033901818550674534,-0.014284491404420452,0.0,70.0,255.0,255.0,255.0
145,7.25,1.4213986617371035,13.606198089655571,-0.4357962747984125,-0.02113515985612935,0.028846566454863165,-0.11780514908251494,-0.0033504221585545224,0.003007516225039808,-0.01402205304388282,0.0,70.0,255.0,255.0,255.0
146,7.300000000000001,1.4203376624284798,13.607644087853643,-0.44170388682647205,-0.02131289713414697,0.02899018504429307,-0.11850527708694769,-0.0036774120517613085,0.0028565405168379243,-0.014208971527546188,0.0,70.0,255.0,255.0,255.0
147,7.3500000000000005,1.4192673720236888,13.60909710816,-0.44764680250710726,-0.02150290106130548,0.029132220506546957,-0.11922604623526956,-0.0038418376384186104,0.002897808952440073,-0.01474211471379494,0.0,70.0,255.0,255.0,255.0
148,7.4,1.4181873723223493,13.610557309904298,-0.453626491449999,-0.02169708089798883,0.029279965939537078,-0.11997948855832719,-0.0038416241365357706,0.003042028862765278,-0.015411642808010884,0.0,70.0,255.0,255.0,255.0
149,7.45,1.41709766393389,13.612025104753954,-0.45964475136294,-0.021887063474959056,0.029436423392823485,-0.12076721051607064,-0.00367691441878204,0.003199403424503089,-0.01601050924939229,0.0,70.0,255.0,255.0,255.0
150,7.5,1.4159986659748534,13.61350095224358,-0.46570321250160607,-0.022064772339867034,0.029599906281987387,-0.12158053948326641,-0.003350110582989174,0.00327001257289794,-0.01634025130013428,0.0,70.0,255.0,255.0,255.0
151,7.550000000000001,1.4148911866999032,13.614985095382153,-0.4718028053112666,-0.022222074533257974,0.02976342465011328,-0.12240123564608407,-0.00287625343411424,0.0032007779553921978,-0.01629593016149733,0.0,70.0,255.0,255.0,255.0
152,7.6000000000000005,1.4137764585215276,13.616477294708591,-0.4779433360662145,-0.022352397683278458,0.029919984077526607,-0.12321013249941615,-0.0023210625759828574,0.0030445469764828204,-0.015934528358813038,0.0,70.0,255.0,255.0,255.0
153,7.65,1.4126559469315754,13.617977093789905,-0.48412381856120823,-0.02245418079085626,0.03006787934776156,-0.12399468848196538,-0.001794888365980185,0.0029009172665794836,-0.015387555185442103,0.0,70.0,255.0,255.0,255.0
154,7.7,1.411531040442442,13.619484082643368,-0.490342804914411,-0.022531886519876476,0.030210075804184555,-0.12474888801796036,-0.0014155600751131203,0.0028592906947011443,-0.014786758311219339,0.0,70.0,255.0,255.0,255.0
155,7.75,1.4104027582795877,13.620998101370324,-0.49659870736300427,-0.02259573679836757,0.030353808417231676,-0.1254733643130873,-0.0012931448331920947,0.0030083775387268474,-0.014252932431579879,0.0,70.0,255.0,255.0,255.0
156,7.800000000000001,1.4092714667626052,13.62251946348509,-0.5028901413457197,-0.022661201003195686,0.03051091355805724,-0.12617418126111835,-0.0014780870324582196,0.003387433908663695,-0.01386008171930242,0.0,70.0,255.0,255.0,255.0
157,7.8500000000000005,1.4081366381792682,13.62404919272613,-0.5092161254891161,-0.022743545501613394,0.030692551808098045,-0.12685937248501755,-0.0019094365335536878,0.003922231579522872,-0.013636135487360423,0.0,70.0,255.0,255.0,255.0
158,7.9,1.4069971122124438,13.6255887186659,-0.5155760785942215,-0.022852144656551054,0.030903136716009527,-0.1275377948098544,-0.002462458763252684,0.004475234471357226,-0.013602611974705692,0.0,70.0,255.0,255.0,255.0
159,7.95,1.405851423713613,13.62713950639773,-0.5219699049701015,-0.022989791377938662,0.031140075255233768,-0.12821963368248812,-0.0030013581009846746,0.004910659904133752,-0.013781944685142822,0.0,70.0,255.0,255.0,255.0
160,8.0,1.40469813307465,13.628702726191424,-0.5283980419624703,-0.023152280466649522,0.0313942027064229,-0.12891598927836867,-0.0033892914361732807,0.005104495921059993,-0.014204009649498861,0.0,70.0,255.0,255.0,255.0
161,8.05,1.403536195666948,13.630278926668373,-0.5348615038979384,-0.02332872052155599,0.03165052484733977,-0.129640034647438,-0.0035519112567383715,0.004995686876263505,-0.014864768602418366,0.0,70.0,255.0,255.0,255.0
162,8.1,1.4023652610224944,13.631867778676158,-0.5413620454272141,-0.02350747159232336,0.03189377139404925,-0.1304024661386105,-0.0035248276534227685,0.004631002228272507,-0.015640090530955053,0.0,70.0,255.0,255.0,255.0
163,8.15,1.4011854485077158,13.633468303807778,-0.5479017505117995,-0.023681203286898267,0.03211362507016702,-0.1312040437005335,-0.003390801056490922,0.004114508483432644,-0.016321157754783933,0.0,70.0,255.0,255.0,255.0
164,8.200000000000001,1.3999971406938045,13.635079141183175,-0.5544824497972675,-0.02384655169797245,0.03230522224239252,-0.1320345819140889,-0.003232807054898146,0.0035575568686496695,-0.016693201875894736,0.0,70.0,255.0,255.0,255.0
165,8.25,1.3988007933379185,13.636698826032017,-0.5611052087032083,-0.02400448399238808,0.032469380757031985,-0.132873363888123,-0.0031416707743092687,0.0030616574273167885,-0.016539047618513436,0.0,70.0,255.0,255.0,255.0
166,8.3,1.3975966922945657,13.638326079258878,-0.5677697861860798,-0.024160718775403378,0.032611387985124196,-0.13368848667594024,-0.003167041833140871,0.002689305765635197,-0.015766531516769877,0.0,70.0,255.0,255.0,255.0
167,8.35,1.3963847214603782,13.63995996483053,-0.5744740573708024,-0.02432118817570217,0.032738311333595504,-0.13445001703979997,-0.003270320451398412,0.002470123141762315,-0.014569749475101812,0.0,70.0,255.0,255.0,255.0
168,8.4,1.3951645734769955,13.641599910392237,-0.5812147878900598,-0.02448775082054322,0.03285840029930043,-0.13514546162345042,-0.0033761085727057605,0.0024312071198906438,-0.013308188241534236,0.0,70.0,255.0,255.0,255.0
169,8.450000000000001,1.3939359463783239,13.64324580486046,-0.5879886035331474,-0.024658799032972745,0.03298143204558457,-0.1357808358639534,-0.003420327432634984,0.002598599800762713,-0.012350795596738351,0.0,70.0,255.0,255.0,255.0
170,8.5,1.3926986935736982,13.644898053596796,-0.5947928714764551,-0.024829783563806718,0.0331182602793767,-0.13638054118312426,-0.003348081410825543,0.0030048650463854187,-0.012067771904467062,0.0,70.0,255.0,255.0,255.0
171,8.55,1.3914529680219432,13.646557630888397,-0.6016266576514598,-0.0249936071740553,0.03328191855022311,-0.1369876130544001,-0.003132835163444092,0.0036481157030365807,-0.012636191577597433,0.0,70.0,255.0,255.0,255.0
172,8.6,1.3901993328562927,13.648226245451818,-0.6084916327818951,-0.025143067080151127,0.03348307184968036,-0.137644160340884,-0.0027956621023284,0.004407666042638425,-0.013831028118738153,0.0,70.0,255.0,255.0,255.0
173,8.65,1.388938661313928,13.649905938073365,-0.6153910736855482,-0.02527317338428814,0.03372268515448695,-0.13837071586627392,-0.0023838322518843214,0.0050798238767413295,-0.015215133568136086,0.0,70.0,255.0,255.0,255.0
174,8.700000000000001,1.387672015517864,13.651598513967267,-0.6223287043685225,-0.02538145030533956,0.03399105423735449,-0.1391656736976976,-0.0019453703943073108,0.005455782857133329,-0.016344268417789465,0.0,70.0,255.0,255.0,255.0
175,8.75,1.3864005162833941,13.6533050434971,-0.629307641055318,-0.02546771042371887,0.034268263440200286,-0.14000514270805287,-0.0015100129063139178,0.00532690103351996,-0.016769911383718306,0.0,70.0,255.0,255.0,255.0
176,8.8,1.385125244475492,13.655025340311287,-0.6363292186393278,-0.02553245159597095,0.034523744340706486,-0.14084266483606944,-0.001101617513099562,0.0046039190676694375,-0.01626884203297374,0.0,70.0,255.0,255.0,255.0
177,8.85,1.383847271123797,13.656757417931171,-0.643391907538925,-0.025577872175028826,0.03472865534696723,-0.14163202691135024,-0.0007843271766061477,0.0034654597749650407,-0.015076953900672319,0.0,70.0,255.0,255.0,255.0
178,8.9,1.3825674572579891,13.658498205845984,-0.6504924213304628,-0.025610884313631566,0.03487029031820299,-0.14235036022613667,-0.000651266382378779,0.002244928608696739,-0.013660461635112142,0.0,70.0,255.0,255.0,255.0
179,8.950000000000001,1.3812861826924339,13.660244446962992,-0.6576269435615386,-0.025642998813266704,0.034953148207836904,-0.14299807307486145,-0.0007847644168501589,0.0012838165559969639,-0.01248527758536122,0.0,70.0,255.0,255.0,255.0
180,9.0,1.3800031573766625,13.661993520666767,-0.664792228637949,-0.02568936075531658,0.034998671973802686,-0.1435988879846728,-0.0012638016958721465,0.0009155028473983862,-0.012020507968557581,0.0,70.0,255.0,255.0,255.0
181,9.05,1.3787172466169022,13.663744314160372,-0.6719868323600059,-0.02576937898285392,0.03504469849257674,-0.1442001238717172,-0.0021088066721963727,0.0013032942735691222,-0.012501587143520787,0.0,70.0,255.0,255.0,255.0
182,9.1,1.377426219478377,13.665497990516025,-0.6792122410251207,-0.02590024142253622,0.0351290014011596,-0.14484904669902487,-0.003184418468715755,0.002280611407456945,-0.013690340427841008,0.0,70.0,255.0,255.0,255.0
183,9.15,1.3761272224746486,13.667257214300488,-0.6864717370299084,-0.026087820829725494,0.03527275963332244,-0.1455691579145013,-0.004251195458637724,0.0035095059768508463,-0.015113835742297521,0.0,70.0,255.0,255.0,255.0
184,9.200000000000001,1.3748174373954045,13.669025266479357,-0.6937691568165708,-0.02632536096839999,0.03547995199884468,-0.14636043027325463,-0.005063823686457525,0.004642890312211989,-0.016301474387525605,0.0,70.0,255.0,255.0,255.0
185,9.25,1.3734946863778086,13.670805209500372,-0.7011077800572338,-0.026594203198371247,0.035737048664543636,-0.14719930535325387,-0.005398789634192269,0.005339106226998069,-0.016780131334115378,0.0,70.0,255.0,255.0,255.0
186,9.3,1.3721580170755674,13.672598971345812,-0.7084890873518962,-0.026865239931819218,0.03601386262154449,-0.14803844340666616,-0.005148843443714135,0.005416843232453061,-0.01631166253982519,0.0,70.0,255.0,255.0,255.0
187,9.35,1.3708081623846267,13.674406595762527,-0.7159116243979005,-0.02710908754274266,0.03627873298778894,-0.1488304716072364,-0.004406949997570742,0.004981138882698133,-0.015132500238790314,0.0,70.0,255.0,255.0,255.0
188,9.4,1.3694471083212931,13.67622684464459,-0.7233721345126198,-0.027305934931576292,0.0365119765098143,-0.1495516934305452,-0.0033766790559441873,0.004267164032789594,-0.013713379544910698,0.0,70.0,255.0,255.0,255.0
189,9.450000000000001,1.368077568891469,13.678057793413508,-0.730866793740955,-0.02744675544833708,0.0367054493910679,-0.15020180956172746,-0.0022789151961299936,0.0035117084411950827,-0.012521971717671665,0.0,70.0,255.0,255.0,255.0
190,9.5,1.3667024327764594,13.679897389583697,-0.7383923154687926,-0.02753382645118929,0.03686314735393381,-0.15080389060231236,-0.001317077063234251,0.002956044274604608,-0.012026892102945386,0.0,70.0,255.0,255.0,255.0
191,9.55,1.36532418624635,13.681744108148902,-0.7459471828011862,-0.027578463154660504,0.03700105381852836,-0.151404498772022,-0.0006147939120459966,0.002734880583687982,-0.012464909550424785,0.0,70.0,255.0,255.0,255.0
192,9.600000000000001,1.3639445864609934,13.68359749496555,-0.7535327653459948,-0.02759530584239389,0.03713663541230261,-0.15205038155735484,-0.00022050881394175548,0.002790264296947953,-0.013608842766144047,0.0,70.0,255.0,255.0,255.0
193,9.65,1.3625646556621107,13.685457771690132,-0.7611522209569217,-0.02760051403605468,0.03728008024822316,-0.1527653830486364,-0.00017103936642559603,0.0029880849767849327,-0.015003461928808637,0.0,70.0,255.0,255.0,255.0
194,9.700000000000001,1.361184535057388,13.687325502990372,-0.7688093036508584,-0.02761240977903645,0.0374354439099811,-0.1535507277502357,-0.0004994898879617793,0.003202676854208164,-0.016197491888625404,0.0,70.0,255.0,255.0,255.0
195,9.75,1.359803414684207,13.68920131608113,-0.7765072937319453,-0.027650463024850858,0.037600347933643974,-0.15438513223749895,-0.0012448834650236051,0.003296763295779215,-0.016744374846155985,0.0,70.0,255.0,255.0,255.0
196,9.8,1.3584194887549028,13.691085537783737,-0.7842478168746083,-0.02773689812553881,0.037765120239559025,-0.1552251652348513,-0.002394032190133899,0.0031975738275846766,-0.01641555240532444,0.0,70.0,255.0,255.0,255.0
197,9.850000000000001,1.3570297248716532,13.692977828105086,-0.7920298102554304,-0.027889866243864248,0.03792010531640244,-0.1560266874780314,-0.0037493364249741035,0.00297873633172685,-0.01540294454744906,0.0,70.0,255.0,255.0,255.0
198,9.9,1.3556305021305164,13.694877548315377,-0.7998504856224115,-0.028111831768036222,0.03806299387273171,-0.1567654596895962,-0.0049774851564210465,0.002778724497787266,-0.014101956889100986,0.0,70.0,255.0,255.0,255.0
199,9.950000000000001,1.3542185416948496,13.696784127492359,-0.80770635622439,-0.028387614759506352,0.03819797776618117,-0.1574368831669415,-0.005731889820737024,0.002724670387088679,-0.012907920867721856,0.0,70.0,255.0,255.0,255.0
200,10.0,1.3527917406545658,13.698697346091995,-0.8155941739391056,-0.028685020750109924,0.03833546091144058,-0.1580562517763684,-0.0056673984009547596,0.002952846598169856,-0.01221556189224815,0.0,70.0,255.0,255.0,255.0
201,10.05,1.3513500396198386,13.700617673583503,-0.8235119814020269,-0.028954354599601828,0.038493262425998154,-0.1586584393561663,-0.004634252152491136,0.003521910353221358,-0.01223222814764613,0.0,70.0,255.0,255.0,255.0
202,10.100000000000001,1.3498963051946056,13.702546672334595,-0.8314600178747222,-0.029148445965359038,0.03868765194676271,-0.159279474591133,-0.002912868096882626,0.004293018816881045,-0.012810334755097852,0.0,70.0,255.0,255.0,255.0
203,10.15,1.3484351950233027,13.70448643877818,-0.8394399288611402,-0.02924564140929009,0.03892256430768626,-0.1599394728316761,-0.001030814879565689,0.005017949434105162,-0.013638593964626633,0.0,70.0,255.0,255.0,255.0
204,10.200000000000001,1.3469717410536766,13.706438928765364,-0.8474539651578898,-0.029251527453315607,0.03918944689017323,-0.16064333398759567,0.0004687274927750451,0.005452580987785893,-0.014410451680191283,0.0,70.0,255.0,255.0,255.0
205,10.25,1.345510042277971,13.708405383467197,-0.8555042622598997,-0.029198768660012586,0.03946782240646485,-0.16138051799969522,0.001050514364608901,0.005351896930250177,-0.014817433528846458,0.0,70.0,255.0,255.0,255.0
206,10.3,1.3440518641876753,13.71038571100601,-0.8635920169578594,-0.029146476016854717,0.03972463658319825,-0.16212507734048032,0.00045066783960212575,0.004607185693217275,-0.014696187684670736,0.0,70.0,255.0,255.0,255.0
207,10.350000000000001,1.3425953946762856,13.712377847125516,-0.8717167699939478,-0.029153701876052374,0.039928540975786575,-0.1628501367681623,-0.001063899812225877,0.003415435488385299,-0.014162056758548758,0.0,70.0,255.0,255.0,255.0
208,10.4,1.34113649400007,13.714378565103589,-0.8798770306346756,-0.029252865998077304,0.04006618013203678,-0.1635412830163352,-0.002953707539776751,0.002144909001700057,-0.013456487765206582,0.0,70.0,255.0,255.0,255.0
209,10.450000000000001,1.339670108076478,13.71638446513872,-0.8880708982955813,-0.02944907263003005,0.04014303187595658,-0.16419578554468295,-0.004670386117489045,0.0011705534459949263,-0.012810645371930107,0.0,70.0,255.0,255.0,255.0
210,10.5,1.338191586737067,13.718392868291184,-0.8962966091891439,-0.02971990460982621,0.04018323547663627,-0.1648223475535282,-0.005678715001655732,0.0008675377088707137,-0.012446638724239456,0.0,70.0,255.0,255.0,255.0
211,10.55,1.3366981176154953,13.720402788686384,-0.9045531330509341,-0.030016944130195622,0.04022978564684365,-0.1654404494171069,-0.005695785173376322,0.0014164331215482662,-0.012482881253517153,0.0,70.0,255.0,255.0,255.0
212,10.600000000000001,1.3351898923240475,13.722415846855869,-0.9128406541308546,-0.03028948312716384,0.040324878788791096,-0.16607063567887992,-0.004885984868496784,0.00259535577882275,-0.01285603028533533,0.0,70.0,255.0,255.0,255.0
213,10.65,1.333669169302779,13.724435276565263,-0.9211601966188221,-0.0305055426170453,0.04048932122472593,-0.16672605244564043,-0.0036190635863020404,0.003971458847651377,-0.013420862899893304,0.0,70.0,255.0,255.0,255.0
214,10.700000000000001,1.332139338062343,13.726464778978341,-0.9295132593754186,-0.030651389485794045,0.040722024673556234,-0.16741272196886925,-0.0022675559830709346,0.005105857909981637,-0.014033680118896719,0.0,70.0,255.0,255.0,255.0
215,10.75,1.3306040303541995,13.728507479032618,-0.937901468815709,-0.030732298215352394,0.04099990701572409,-0.1681294204575301,-0.0011996170616423996,0.00555799885564312,-0.014560020898257697,0.0,70.0,255.0,255.0,255.0
216,10.8,1.3290661082408077,13.730564769679914,-0.9463262014211716,-0.030771351191958285,0.041277824559120546,-0.16886872405869502,-0.0006258488245869387,0.005107221679523377,-0.014919513408429008,0.0,70.0,255.0,255.0,255.0
217,10.850000000000001,1.3275268952350037,13.73263526148853,-0.9547883412215785,-0.030794883097811088,0.04151062918367643,-0.169621371798373,-0.0005039555856845013,0.003973957245584359,-0.015097458463697588,0.0,70.0,255.0,255.0,255.0
218,10.9,1.3259866199310266,13.734715832598281,-0.9632883386010089,-0.030821746750526735,0.04167522028367898,-0.17037846990506478,-0.000700760725891314,0.0025984397565181894,-0.015095585110713738,0.0,70.0,255.0,255.0,255.0
219,10.950000000000001,1.324444720559951,13.736802783516898,-0.971826188212085,-0.03086495917040022,0.04177047315932825,-0.17113093030944437,-0.0010912780619820595,0.0014191617671244217,-0.01491514697311569,0.0,70.0,255.0,255.0,255.0
220,11.0,1.3229001240139866,13.738892879914214,-0.9804014316319534,-0.03093087455672494,0.041817136460391424,-0.17186998460237635,-0.0015388540475003154,0.0008683922780861053,-0.014557287006811137,0.0,70.0,255.0,255.0,255.0
221,11.05,1.3213516331042785,13.740984497162938,-0.9890131866723226,-0.03101884457515025,0.04185731238713686,-0.1725866590101255,-0.0019557845633899618,0.001167827014647571,-0.014038039471608865,0.0,70.0,255.0,255.0,255.0
222,11.100000000000001,1.3197982395564716,13.743078611152928,-0.9976600975329659,-0.031126453013063937,0.04193391916185618,-0.17327378854953723,-0.00233828602909103,0.002137999386775391,-0.013434975020643058,0.0,70.0,255.0,255.0,255.0
223,11.15,1.318238987802972,13.745177889079123,-1.0063405655272764,-0.031252673178059354,0.0420711123258144,-0.1739301565121898,-0.002695282787534836,0.0034055979762470656,-0.012877635818231425,0.0,70.0,255.0,255.0,255.0
224,11.200000000000001,1.3166729722386656,13.74728572238551,-1.015053113184185,-0.03139598129181742,0.04227447895948089,-0.17456155213136038,-0.003015443656928518,0.00459763488223075,-0.012504706347638006,0.0,70.0,255.0,255.0,255.0
225,11.25,1.3150993896737904,13.749405336975071,-1.0237967207404124,-0.031554217543752205,0.04253087581403747,-0.1751806271469536,-0.003296901480287495,0.005348478652500432,-0.012454840398401501,0.0,70.0,255.0,255.0,255.0
226,11.3,1.3135175504842904,13.751538809966913,-1.0325711758988803,-0.03172567143984617,0.04280932682473093,-0.17580703617120053,-0.0035375863486120096,0.005462122943100667,-0.012788841525646077,0.0,70.0,255.0,255.0,255.0
227,11.350000000000001,1.3119268225298057,13.753686269657544,-1.0413774243575324,-0.031907976178613406,0.04307708810834754,-0.1764595112995182,-0.0037056042606398165,0.005043089496226116,-0.013398165929268124,0.0,70.0,255.0,255.0,255.0
228,11.4,1.310326752866429,13.755846518777748,-1.050217127028832,-0.03209623186591015,0.04331363577435354,-0.17714685276412734,-0.003755404161176479,0.004329284887738538,-0.014077507980059245,0.0,70.0,255.0,255.0,255.0
229,11.450000000000001,1.3087171993432147,13.75801763323498,-1.0590921096339452,-0.032283516594731054,0.04351001659712139,-0.17786726209752413,-0.003653660596869557,0.003557384951236031,-0.014613253743611665,0.0,70.0,255.0,255.0,255.0
230,11.5,1.307098401206956,13.76019752043746,-1.0680038532385845,-0.03246159792559711,0.043669374269477146,-0.1786081781384885,-0.0033695773275610463,0.0029656651413745294,-0.01478736072355602,0.0,70.0,255.0,255.0,255.0
231,11.55,1.305471039550655,13.762384570661927,-1.076952927447794,-0.03262047432748716,0.043806583111258846,-0.17934599816987973,-0.0028995576880852525,0.0026892289987756612,-0.014493307712415415,0.0,70.0,255.0,255.0,255.0
232,11.600000000000001,1.3038363537742073,13.764578178748586,-1.0859384530555725,-0.03275155369440563,0.04393829716935471,-0.18005750890973005,-0.002320136088895808,0.0026850738610306735,-0.013857769187608504,0.0,70.0,255.0,255.0,255.0
233,11.65,1.3021958841812145,13.766778400378863,-1.094958678338767,-0.03285248793637674,0.04407509049736191,-0.18073177508864058,-0.001763939728416375,0.002843509558836388,-0.013126924336148704,0.0,70.0,255.0,255.0,255.0
234,11.700000000000001,1.3005511049805696,13.768985687798322,-1.1040116305644365,-0.03292794766724727,0.04422264812523835,-0.18137020134334492,-0.001368888314723371,0.0030652262466901448,-0.01254885210462131,0.0,70.0,255.0,255.0,255.0
235,11.75,1.2989030894144897,13.771200665191387,-1.1130956984731015,-0.03298937676784908,0.04438161312203093,-0.1819866602991027,-0.001268798533726745,0.003248907402308987,-0.01237967941138951,0.0,70.0,255.0,255.0,255.0
236,11.8,1.2972521673037847,13.773423849110525,-1.1222102965943468,-0.033054827520619945,0.04454753886546925,-0.18260816928448387,-0.0015246957195458322,0.003334900456941625,-0.01274450105110958,0.0,70.0,255.0,255.0,255.0
237,11.850000000000001,1.2955976066624277,13.775655419077934,-1.13135651540155,-0.03314184633980366,0.04471510316772509,-0.18326111040421367,-0.002049375858970137,0.0033375474590258136,-0.013485349394803947,0.0,70.0,255.0,255.0,255.0
238,11.9,1.2939379826698043,13.777895359427298,-1.1405364076347682,-0.03325976510651696,0.04488129361137183,-0.18395670422396426,-0.0026724732887117852,0.0032949053135666873,-0.01430020260078102,0.0,70.0,255.0,255.0,255.0
239,11.950000000000001,1.292271630151776,13.78014354843907,-1.1497521858239463,-0.03340909366867484,0.04504459369908176,-0.18469113066429177,-0.0032180122516933807,0.0032355095973102266,-0.01489147769822008,0.0,70.0,255.0,255.0,255.0
240,12.0,1.2905970733029368,13.782399818797206,-1.1590055207011973,-0.0335815663316863,0.045204844571102853,-0.18544585199378627,-0.003519237861704383,0.00318667727796651,-0.014961986899075796,0.0,70.0,255.0,255.0,255.0
241,12.05,1.2889134735186074,13.784664032896181,-1.168296771023325,-0.03376101745484528,0.04536326142687841,-0.18618732935419935,-0.0034883727202394965,0.0031644558873722417,-0.014368315122670339,0.0,70.0,255.0,255.0,255.0
242,12.100000000000001,1.2872209715574523,13.786936144939894,-1.1776242536366173,-0.033930403603710246,0.04552129015984008,-0.1868826835060533,-0.003167768400413884,0.003164736302707638,-0.013288012720202858,0.0,70.0,255.0,255.0,255.0
243,12.15,1.2855204331582364,13.789216161912165,-1.1869850393739303,-0.034077794294886665,0.04567973505714917,-0.18751613062621963,-0.0026607591915084328,0.003176869185139708,-0.012065924934323569,0.0,70.0,255.0,255.0,255.0
244,12.200000000000001,1.2838131921279636,13.791504118445609,-1.1963758666992392,-0.03419647952286109,0.04583897707835405,-0.18808927599948566,-0.002072349391957218,0.0031927353647986934,-0.011044584422048587,0.0,70.0,255.0,255.0,255.0
245,12.25,1.2821007852059503,13.79380005962,-1.2057939669738789,-0.03428502923408239,0.04599900859362904,-0.1886205890684245,-0.001490240695445344,0.003204383486732354,-0.01054831704825343,0.0,70.0,255.0,255.0,255.0
246,12.3,1.2803846892045554,13.796104019304972,-1.2152379256060817,-0.034345503592405624,0.046159415427027284,-0.189144107704311,-0.0009745872921351761,0.003207275991634617,-0.010742611418446124,0.0,70.0,255.0,255.0,255.0
247,12.350000000000001,1.2786662348467097,13.798416001162703,-1.22470837774431,-0.034382487963295905,0.046319736192792504,-0.1896948502102691,-0.0005959141756717301,0.0032035073298075645,-0.011512716274486579,0.0,70.0,255.0,255.0,255.0
248,12.4,1.2769464404082258,13.80073599292425,-1.2342074106271086,-0.0344050950099728,0.04647976616000804,-0.19029537933175966,-0.00044896546986805674,0.003197617947492404,-0.012605141950938759,0.0,70.0,255.0,255.0,255.0
249,12.450000000000001,1.2752257253457124,13.803063977778704,-1.243737915677486,-0.03442738451028271,0.046639497987541745,-0.19095536440536298,-0.0006253640731257448,0.003193548944580016,-0.013757410721026986,0.0,70.0,255.0,255.0,255.0
250,12.5,1.2735037019571975,13.805399942723005,-1.253302947067645,-0.03446763141728537,0.04679912105446604,-0.19167112040386236,-0.0012237620603094967,0.003195788774590369,-0.014720735583928501,0.0,70.0,255.0,255.0,255.0
251,12.55,1.271778962203984,13.80774388988415,-1.2629050277178722,-0.03454976071631366,0.04695907686500078,-0.19242743796375583,-0.0022681032862736927,0.0032064401453979485,-0.015348978131046742,0.0,70.0,255.0,255.0,255.0
252,12.600000000000001,1.2700487258855662,13.810095850409505,-1.2725456908640205,-0.03469444174591274,0.04711976506900584,-0.19320601821696703,-0.0035659641745677817,0.0032212343777260344,-0.015628394909072973,0.0,70.0,255.0,255.0,255.0
253,12.65,1.2683095180293926,13.812455866391051,-1.2822256295395689,-0.03490635713377044,0.047281200302773385,-0.19399027745466313,-0.004783472169078706,0.003232659024554607,-0.015584556213110723,0.0,70.0,255.0,255.0,255.0
254,12.700000000000001,1.2665580901721891,13.814823970439782,-1.2919447186094868,-0.03517278896282061,0.0474430309714613,-0.1947644738382781,-0.005581159350320775,0.0032330688588544376,-0.015246798335022405,0.0,70.0,255.0,255.0,255.0
255,12.75,1.2647922391331106,13.817200169488197,-1.3017020769233967,-0.035464473068802516,0.04760450718865883,-0.19551495728816537,-0.00563074835921995,0.003212461415280643,-0.014656759263975694,0.0,70.0,255.0,255.0,255.0
256,12.8,1.2630116428653089,13.819584421158648,-1.3114962143383033,-0.035735863798742606,0.04776427711298936,-0.19623014976467568,-0.004784887674569305,0.003166963424838798,-0.013859424775297668,0.0,70.0,255.0,255.0,255.0
257,12.850000000000001,1.2612186527532363,13.821976597199496,-1.3213250918998642,-0.035942961836259446,0.04792120353114271,-0.19690089976569514,-0.0032709517369777785,0.0031115551577087786,-0.012935382410872442,0.0,70.0,255.0,255.0,255.0
258,12.9,1.259417346681683,13.824376541511763,-1.3311863043148728,-0.036062958972440384,0.04807543262876024,-0.19752368800576292,-0.0015289407258922694,0.003071745954841276,-0.012018311518224856,0.0,70.0,255.0,255.0,255.0
259,12.950000000000001,1.2576123568559923,13.826784140462372,-1.3410774607004405,-0.03609585590884867,0.048228378126626836,-0.19810273091751762,-1.5033490452509568e-05,0.0030741756226859707,-0.011260057943607293,0.0,70.0,255.0,255.0,255.0
260,13.0,1.255807761090798,13.829199379324425,-1.3509965774066246,-0.036064462321485635,0.04838285019102884,-0.19864969380012365,0.0008307648214689323,0.0031543655643062607,-0.010792273980153588,0.0,70.0,255.0,255.0,255.0
261,13.05,1.2540059106238437,13.831622425481475,-1.360942430080453,-0.03601277942670178,0.04854381468305746,-0.19918195831553298,0.0007810805580099611,0.0033257061536673405,-0.010680548875074969,0.0,70.0,255.0,255.0,255.0
262,13.100000000000001,1.2522064831481279,13.834053760792731,-1.370914773238178,-0.03598635426568464,0.04871542080639557,-0.19971774868763115,-1.670906411010975e-05,0.0035325449896816963,-0.010902895960329673,0.0,70.0,255.0,255.0,255.0
263,13.15,1.2504072751972752,13.836493967562115,-1.380914204949216,-0.03601445033311279,0.04889706918202563,-0.20027224791156595,-0.0012342847410806712,0.0036803571568100324,-0.01138853804028006,0.0,70.0,255.0,255.0,255.0
264,13.200000000000001,1.2486050381148166,13.838943467710934,-1.3909419980293345,-0.036109782739792706,0.049083456522076574,-0.20085660249165915,-0.002532133261357039,0.003676941940256029,-0.012046769424434167,0.0,70.0,255.0,255.0,255.0
265,13.25,1.246796296923296,13.841402313214322,-1.400999865198382,-0.036267663659248495,0.049264763376051235,-0.20147692485400936,-0.0035763202505645353,0.0034221042984228234,-0.012790088871161842,0.0,70.0,255.0,255.0,255.0
266,13.3,1.2449782717488918,13.843869944048539,-1.4110896905147354,-0.03646741476484916,0.049425666951918856,-0.20213561137877534,-0.004174399592415945,0.0028764124246905,-0.013553204898997251,0.0,70.0,255.0,255.0,255.0
267,13.350000000000001,1.243149555446811,13.846344879909514,-1.4212134263362595,-0.03668510361849009,0.049552404618520285,-0.2028322453439091,-0.004350417134757478,0.0021600364460638843,-0.014255830950915538,0.0,70.0,255.0,255.0,255.0
268,13.4,1.2413097613870427,13.84882518451039,-1.4313729150491263,-0.03690245647832491,0.049641670596525245,-0.2035611944738669,-0.004203197698937622,0.0014858930175165597,-0.014782221635600834,0.0,70.0,255.0,255.0,255.0
269,13.450000000000001,1.2394593097989786,13.851309046969167,-1.4415695457836462,-0.03710542338838385,0.04970099392027194,-0.20431046750746917,-0.0038245453521934536,0.0010641172227821016,-0.015014402819946149,0.0,70.0,255.0,255.0,255.0
270,13.5,1.2375992190482044,13.853795283902418,-1.4518039617998733,-0.03728491101354425,0.049748082318803455,-0.2050626347558615,-0.003309446523314108,0.001097170621200405,-0.014847370535009397,0.0,70.0,255.0,255.0,255.0
271,13.55,1.2357308186976241,13.856283855201047,-1.4620758092592323,-0.03743636804071526,0.04981071098239198,-0.2057952045609701,-0.00272851715348299,0.0016762432139216799,-0.014245093067355441,0.0,70.0,255.0,255.0,255.0
272,13.600000000000001,1.2338555822441328,13.858776355000657,-1.4723834822559703,-0.03755776272889255,0.04991570664019562,-0.20648714406259705,-0.0021415291565407557,0.0026610621411293778,-0.01331909492148231,0.0,70.0,255.0,255.0,255.0
273,13.65,1.2319750424247349,13.861275425865067,-1.482724523665492,-0.03765052095636934,0.05007681719650492,-0.20712711405311834,-0.001635535185684489,0.00378063953849761,-0.012279778214807635,0.0,70.0,255.0,255.0,255.0
274,13.700000000000001,1.230090530148496,13.863784036720308,-1.493096193661282,-0.037721316247461,0.050293770594045384,-0.2077151218840778,-0.001314860155221531,0.004754328095657456,-0.011354080834058422,0.0,70.0,255.0,255.0,255.0
275,13.75,1.2282029107999888,13.866304802924471,-1.5034960358538998,-0.03778200697189149,0.050552250006070665,-0.2082625221365242,-0.0012819309522127398,0.005309213217330466,-0.010752456960716472,0.0,70.0,255.0,255.0,255.0
276,13.8,1.2263123294513067,13.868839261720915,-1.5139224458749345,-0.037849509342682275,0.05082469191577843,-0.20879036758014946,-0.0015787579008552655,0.005305328006421917,-0.010586422831759812,0.0,70.0,255.0,255.0,255.0
277,13.850000000000001,1.2244179598657206,13.87138727211605,-1.5243750726119147,-0.03793988276197702,0.051082782806712856,-0.20932116441970017,-0.002118990714672364,0.004843826875422508,-0.010819677475049083,0.0,70.0,255.0,255.0,255.0
278,13.9,1.222518341175109,13.873947540001586,-1.5348545623169045,-0.03806140841414951,0.05130907460332068,-0.20987233532765437,-0.0027382979220558212,0.004143436940395873,-0.011346777393317353,0.0,70.0,255.0,255.0,255.0
279,13.950000000000001,1.2206118190243056,13.876518179576381,-1.5453623061446802,-0.0382137125541826,0.051497126500752444,-0.2104558421590319,-0.0032632401340881856,0.0034318571103142403,-0.012049273843639519,0.0,70.0,255.0,255.0,255.0
280,14.0,1.2186969699196908,13.879097252651661,-1.5559001465328077,-0.03838773242755833,0.051652260314352105,-0.21107726271201832,-0.0035268389917630927,0.0029459765098494017,-0.012810773649918339,0.0,70.0,255.0,255.0,255.0
281,14.05,1.2167730457815498,13.881683405607816,-1.566470032415882,-0.03856639645335891,0.051791724151737384,-0.21173691952402374,-0.0034431645299148883,0.002814705832498987,-0.013550754067370718,0.0,70.0,255.0,255.0,255.0
282,14.100000000000001,1.214840330274355,13.884276425066835,-1.57707383848521,-0.03873204888054982,0.051933730897602004,-0.2124323381187554,-0.0030679159101598685,0.0029590615902463924,-0.014204992381205983,0.0,70.0,255.0,255.0,255.0
283,14.15,1.2128998408934948,13.886876778697577,-1.5877132662277575,-0.038873188044374896,0.05208763031076202,-0.21315741876214434,-0.0025258652006199256,0.0032118597843577845,-0.014687797526469204,0.0,70.0,255.0,255.0,255.0
284,14.200000000000001,1.2109530114699174,13.889485188097911,-1.5983895803614245,-0.03898463540061181,0.05225491687603778,-0.2139011178714023,-0.0019454660216577935,0.0034173576855422994,-0.01491036225285125,0.0,70.0,255.0,255.0,255.0
285,14.25,1.2090013773534336,13.89210227038518,-1.6091033780148978,-0.039067734646540675,0.05242936607931625,-0.21464845498742946,-0.0014467037566578966,0.003418955336798035,-0.014804448439598161,0.0,70.0,255.0,255.0,255.0
286,14.3,1.2070462380052633,13.894728124705843,-1.6198544258601675,-0.0391293057762776,0.052596812409717586,-0.21538156271536213,-0.0011013578723906292,0.003135988522195987,-0.01434902243728775,0.0,70.0,255.0,255.0,255.0
287,14.350000000000001,1.2050884467758058,13.897361951626152,-1.630641534286434,-0.03917787043377974,0.05274296493153585,-0.21608335723115824,-0.0009257092811187917,0.00264263072473625,-0.01360566768560112,0.0,70.0,255.0,255.0,255.0
288,14.4,1.2031284509618854,13.900002421198996,-1.6414627615832833,-0.03922187670438948,0.05286107548219121,-0.21674212948392224,-0.0009227167998782093,0.0020864199598236155,-0.012699235297963796,0.0,70.0,255.0,255.0,255.0
289,14.450000000000001,1.201166259105367,13.902648059174371,-1.6523157472348262,-0.03927014211376756,0.05295160692751821,-0.21735328076095461,-0.0010943829587217735,0.001605285575401183,-0.011774451969892574,0.0,70.0,255.0,255.0,255.0
290,14.5,1.1992014367505086,13.905297581891748,-1.6631980896593788,-0.03933131500026166,0.05302160403973133,-0.2179195746809115,-0.0014423366574423113,0.0013181555228669595,-0.010955488535668856,0.0,70.0,255.0,255.0,255.0
291,14.55,1.1972331276053407,13.907950219578344,-1.6741077047029174,-0.03941437577951179,0.05308342247980491,-0.2184488296145215,-0.0019524296215545078,0.001288426326517822,-0.010319356649834965,0.0,70.0,255.0,255.0,255.0
292,14.600000000000001,1.1952599991725574,13.910605924139729,-1.685042972620831,-0.03952655796241711,0.05315044667238311,-0.218951510345895,-0.0025484078048032544,0.0015059399867567436,-0.009925996550186333,0.0,70.0,255.0,255.0,255.0
293,14.65,1.193280471809099,13.913265264245583,-1.6960028557375069,-0.039669216559992115,0.053234016478480584,-0.21944142926954013,-0.0031024284391056867,0.0019260967389911343,-0.009842440768803584,0.0,70.0,255.0,255.0,255.0
294,14.700000000000001,1.1912930775165582,13.915929325787577,-1.706987115547785,-0.03983680080632768,0.053343056346282225,-0.21993575442277535,-0.0034780277843760032,0.0024952995456573035,-0.010124603760353068,0.0,70.0,255.0,255.0,255.0
295,14.75,1.1892967917284663,13.918599569880211,-1.7179964311797844,-0.040017019338429716,0.053483546433046314,-0.22045388964557544,-0.0035399402894542575,0.003168375952355973,-0.010833550797739733,0.0,70.0,255.0,255.0,255.0
296,14.8,1.1872913755827152,13.921277680430881,-1.7290325045123425,-0.0401907948352731,0.05365989394151782,-0.22101910950254933,-0.003228410820810268,0.0039046185271729428,-0.011968888958557855,0.0,70.0,255.0,255.0,255.0
297,14.850000000000001,1.185277712244939,13.923965559274363,-1.7400983421300393,-0.04033986042051074,0.05387400828576361,-0.22165077854143123,-0.0026451350243039684,0.004615474128577546,-0.013328667791889792,0.0,70.0,255.0,255.0,255.0
298,14.9,1.1832573895406642,13.926665081259458,-1.7511975823664856,-0.0404553083377035,0.05412144135437558,-0.2223519762817383,-0.0019839330800630606,0.0051656499586272275,-0.014569323305413384,0.0,70.0,255.0,255.0,255.0
299,14.950000000000001,1.1812321814111686,13.9293777034098,-1.7623335397582132,-0.04053825372851705,0.05439057328162633,-0.22310771087197256,-0.0014462797963910035,0.0054212551711785295,-0.01533589755760012,0.0,70.0,255.0,255.0,255.0
300,15.0,1.1792035641678125,13.93210413858762,-1.7735083534536829,-0.0405999363173426,0.05466356687149343,-0.22388556603749832,-0.0012338928608190969,0.005260368641479829,-0.015274317597113729,0.0,70.0,255.0,255.0,255.0
301,15.05,1.1771721877794343,13.93484406009695,-1.784722096361963,-0.04066164301459896,0.054916610145774314,-0.22463514263168394,-0.0014472138086807362,0.004638274389812125,-0.01423026234097513,0.0,70.0,255.0,255.0,255.0
302,15.100000000000001,1.1751373998663526,13.937595799602198,-1.7959718677168512,-0.04074465769821067,0.05512739431047464,-0.22530859227159583,-0.0019856441725085716,0.0036774781841941717,-0.01249005489314392,0.0,70.0,255.0,255.0,255.0
303,15.15,1.1730977220096133,13.940356799527997,-1.8072529555891226,-0.040860207431849815,0.05528435796419373,-0.22588414812099833,-0.002647247165854516,0.00260850622257891,-0.010592060881542409,0.0,70.0,255.0,255.0,255.0
304,15.200000000000001,1.1710513791231676,13.943124235398617,-1.818560282528951,-0.041009382414796125,0.05538824493273253,-0.22636779835975007,-0.0032302796035388326,0.0016781413066269124,-0.00909012768754991,0.0,70.0,255.0,255.0,255.0
305,15.25,1.1689967837681337,13.94589562402127,-1.8298897354250976,-0.0411832353922037,0.05545217209485642,-0.22679316088975332,-0.0035405255633724764,0.0011221774546044117,-0.008533141517430565,0.0,70.0,255.0,255.0,255.0
306,15.3,1.1669330555839472,13.948669452608103,-1.8412395986179264,-0.04136343497113337,0.055500462678192974,-0.22722111251149313,-0.0034761605178790234,0.0010622839150542518,-0.009190434637851297,0.0,70.0,255.0,255.0,255.0
307,15.350000000000001,1.1648604402710203,13.95144567028909,-1.852611846676247,-0.0415308514439916,0.05555840048636185,-0.22771220435353845,-0.003097696211051826,0.0014265012456604609,-0.010775821260433638,0.0,70.0,255.0,255.0,255.0
308,15.4,1.162779970439548,13.954225292656739,-1.8640108190532803,-0.041673204592238555,0.05564311280275902,-0.2282986946375365,-0.0025416703311131883,0.002048437038837392,-0.012716885382979548,0.0,70.0,255.0,255.0,255.0
309,15.450000000000001,1.1606931198117965,13.957009981569366,-1.8754417161400005,-0.04178501847710292,0.05576324419024559,-0.2289838928918364,-0.0019458885028189599,0.002752892890001135,-0.014430957659605781,0.0,70.0,255.0,255.0,255.0
310,15.5,1.1586014685918378,13.959801617075764,-1.886909208342464,-0.04186779344252045,0.055918402091759134,-0.22974179040349707,-0.0014399955616584137,0.0033709215399468917,-0.015337172277107847,0.0,70.0,255.0,255.0,255.0
311,15.55,1.1565063404675444,13.962601821778541,-1.8984158951803503,-0.04192901803326876,0.056100336344240276,-0.2305176101195472,-0.0011009180125309825,0.0038003288775456667,-0.015135365074936402,0.0,70.0,255.0,255.0,255.0
312,15.600000000000001,1.154408566788511,13.965411650710188,-1.9099609693544186,-0.04197788524377355,0.0562984349795137,-0.2312553269109907,-0.0009399346196037328,0.004021085597294416,-0.014061112279528665,0.0,70.0,255.0,255.0,255.0
313,15.65,1.152308551943167,13.968231665276493,-1.9215414278714493,-0.042023011495229134,0.05650244490396972,-0.23192372134750006,-0.0009505470341064637,0.004031498535894684,-0.012605106211260875,0.0,70.0,255.0,255.0,255.0
314,15.700000000000001,1.150206265638988,13.971061895200585,-1.9331533414891686,-0.042072939947184196,0.05670158483310317,-0.2325158375321168,-0.0011256535646930743,0.003824599489021807,-0.011259701347832163,0.0,70.0,255.0,255.0,255.0
315,15.75,1.1481012579484486,13.973901823759803,-1.944793011624661,-0.04213557685169844,0.0568849048528719,-0.23304969148228327,-0.001455482866008495,0.003386117738024552,-0.010530104106121208,0.0,70.0,255.0,255.0,255.0
316,15.8,1.1459927079538181,13.976750385685872,-1.956458310637397,-0.042218488233785045,0.057040196606905624,-0.23356884794272892,-0.0019211930731843907,0.002728661647033448,-0.010680226274328852,0.0,70.0,255.0,255.0,255.0
317,15.850000000000001,1.1438794091250701,13.979605843420494,-1.968149896418934,-0.04232769615901688,0.05715777101757524,-0.23411771410971616,-0.002461726149793897,0.001969995525108459,-0.011489752931348463,0.0,70.0,255.0,255.0,255.0
318,15.9,1.1417599383379164,13.98246616278763,-1.9798700820483686,-0.042464660848764435,0.05723719615941647,-0.23471782323586377,-0.002975302371432953,0.0013064079773528192,-0.012514344783887132,0.0,70.0,255.0,255.0,255.0
319,15.950000000000001,1.1396329430401937,13.985329563036435,-1.9916216787425203,-0.042625226396160176,0.057288411815310525,-0.23536914858810487,-0.00335252287926302,0.00094097022671491,-0.01332277774166446,0.0,70.0,255.0,255.0,255.0
320,16.0,1.1374974156983004,13.98819500396916,-2.003406996907179,-0.04279991313669074,0.05733129318208796,-0.2360501010100302,-0.003494063650255619,0.0010765888607267016,-0.013470523186276395,0.0,70.0,255.0,255.0,255.0
321,16.05,1.1353529517265246,13.991062692354644,-2.0152266888435233,-0.04297463276118574,0.057396070701383195,-0.2367162009067325,-0.00335379687448345,0.0017993368896185302,-0.012737296261278175,0.0,70.0,255.0,255.0,255.0
322,16.1,1.1331999524221819,13.993934611039299,-2.0270786169978523,-0.04313529282413908,0.057511226871049814,-0.23732383063615803,-0.002977636305900866,0.0029326852153843674,-0.011387987883448858,0.0,70.0,255.0,255.0,255.0
323,16.150000000000002,1.1310394224441107,13.99681381504175,-2.038959071907139,-0.043272396391775825,0.05768933922292163,-0.2378549996950774,-0.0024646071161704697,0.004147438318646834,-0.009929402765251893,0.0,70.0,255.0,255.0,255.0
324,16.2,1.1288727127830043,13.99970354496159,-2.05086411696736,-0.04338175353575613,0.0579259707029145,-0.23831677091268322,-0.0019237420975981578,0.0051059718183310565,-0.008855621251768753,0.0,70.0,255.0,255.0,255.0
325,16.25,1.126701247090535,14.00260641211204,-2.0627907489984074,-0.04346477060153564,0.05819993640475474,-0.23874056182025427,-0.0014562811812224297,0.005479554789644681,-0.008659691260426428,0.0,70.0,255.0,255.0,255.0
326,16.3,1.1245262357228507,14.005523538602066,-2.0747381731493855,-0.04352738165387837,0.058473926181878966,-0.23918274003872586,-0.001123106608424962,0.00510690454813556,-0.00957804788805916,0.0,70.0,255.0,255.0,255.0
327,16.35,1.1223485089251473,14.008453804730228,-2.08670902300228,-0.04357708126237814,0.05871062685956829,-0.2396983666090602,-0.0009440922629666559,0.004149147063436942,-0.01130664052348962,0.0,70.0,255.0,255.0,255.0
328,16.400000000000002,1.120168527596613,14.011394601288023,-2.0987080098102915,-0.04362179088017504,0.05888884088822266,-0.24031340409107482,-0.0009307446882766968,0.0029347944584756647,-0.013258020844952867,0.0,70.0,255.0,255.0,255.0
329,16.45,1.1179863298371298,14.01434268881905,-2.1107403634113875,-0.043670155731205806,0.05900410630541586,-0.24102416869355547,-0.0010919959097410725,0.0018012031066660938,-0.014842616038901468,0.0,70.0,255.0,255.0,255.0
330,16.5,1.1158015120234923,14.017295011918565,-2.122810426679647,-0.043730990471149145,0.05906896119888927,-0.24179766569496497,-0.0014368023009359021,0.0010771733315095844,-0.015478777040112135,0.0,70.0,255.0,255.0,255.0
331,16.55,1.1136132307900148,14.02024958493894,-2.134920129980884,-0.0438138359612994,0.05911182363856682,-0.2425720463975667,-0.0019548023328708197,0.0009391055238339163,-0.014876852512779593,0.0,70.0,255.0,255.0,255.0
332,16.6,1.1114201284273624,14.023206194282421,-2.1470676313194037,-0.04392647070443623,0.05916287175127266,-0.24328535094624293,-0.002565155481337733,0.0013016822443034926,-0.013320741398104019,0.0,70.0,255.0,255.0,255.0
333,16.650000000000002,1.1092205837195712,14.026165872114067,-2.1592486650755083,-0.04407035150943317,0.05924199186299717,-0.2439041205373771,-0.003131574969916784,0.0019632672980662846,-0.011384061640473675,0.0,70.0,255.0,255.0,255.0
334,16.7,1.107013093276419,14.029130393468721,-2.1714580433731414,-0.044239628201427905,0.05935919848107929,-0.2444237571102903,-0.0035092999045360784,0.0027221295054502548,-0.009646548625052986,0.0,70.0,255.0,255.0,255.0
335,16.75,1.1047966208994284,14.032101791962175,-2.1836910407865373,-0.04442128149988678,0.05951420481354219,-0.2448687753998824,-0.0035525002910263836,0.003383779854893021,-0.008681144635236393,0.0,70.0,255.0,255.0,255.0
336,16.8,1.1025709651264304,14.035081813950075,-2.1959449209131296,-0.044594878230530544,0.05969757646656859,-0.24529187157381394,-0.0031971712395106877,0.003831125573228178,-0.008787176093560944,0.0,70.0,255.0,255.0,255.0
337,16.85,1.1003371330763754,14.038071549608832,-2.2082202279439187,-0.04474099862383785,0.05989731737086501,-0.24574749300923848,-0.00255976133607394,0.0040486927254335114,-0.009755941669720158,0.0,70.0,255.0,255.0,255.0
338,16.900000000000002,1.0980968652640466,14.041071545687162,-2.2205196702140535,-0.04485085436413794,0.06010244573911194,-0.24626746574078595,-0.0018593190685090022,0.004045889262371816,-0.011141023968486152,0.0,70.0,255.0,255.0,255.0
339,16.95,1.0958520476399616,14.044081794182743,-2.2328469745179973,-0.04492693053068875,0.06030190629710219,-0.2468615954060871,-0.0013235783649978572,0.003824591225054519,-0.01249752978691454,0.0,70.0,255.0,255.0,255.0
340,17.0,1.0936041722109777,14.047101736316872,-2.245205829754662,-0.04498321220063772,0.060484904861617395,-0.2475172187194774,-0.001189187210859366,0.0033796886002690485,-0.013384709686903307,0.0,70.0,255.0,255.0,255.0
341,17.05,1.0913537264198978,14.050130284668905,-2.257598696389945,-0.04504584925177468,0.0606398751571291,-0.24820006637477743,-0.0015697994223184963,0.0027286532549908316,-0.013562321901305907,0.0,70.0,255.0,255.0,255.0
342,17.1,1.0890995872858003,14.053165723832585,-2.27002583639214,-0.04514019214286957,0.06075777018711648,-0.248873450909608,-0.0023103912489830236,0.0019843860155077664,-0.013145468613151579,0.0,70.0,255.0,255.0,255.0
343,17.150000000000002,1.0868397072056108,14.056206061687616,-2.282486041480906,-0.045276888376672986,0.060838313758679874,-0.2495146132360926,-0.003116556681570515,0.0013340148143470287,-0.012400187473637914,0.0,70.0,255.0,255.0,255.0
344,17.2,1.084571898448133,14.059249555208453,-2.294977297715749,-0.045451847811026624,0.06089117166855118,-0.2501134696569718,-0.0036965264956334565,0.0009717666660691293,-0.011584218007865132,0.0,70.0,255.0,255.0,255.0
345,17.25,1.0822945224245082,14.062295178854471,-2.307497388446603,-0.04564654102623633,0.06093549042528679,-0.2506730350368791,-0.003758816133392351,0.001089447095736773,-0.010955960672864862,0.0,70.0,255.0,255.0,255.0
346,17.3,1.0800072443455093,14.065343104250982,-2.320044601219437,-0.04582772942436586,0.06100011637812486,-0.2512090657242583,-0.0031632581108054225,0.0017685737619288489,-0.010662370800407217,0.0,70.0,255.0,255.0,255.0
347,17.35,1.0777117494820716,14.068395190492284,-2.332618295019029,-0.045962866837316874,0.06111234780147967,-0.2517392721169198,-0.0020858531552869763,0.002847516126180949,-0.010657615113673913,0.0,70.0,255.0,255.0,255.0
348,17.400000000000002,1.0754109576617776,14.07145433903113,-2.345218528431129,-0.04603631473989456,0.06128486799074295,-0.25227482723562566,-0.0008681138788935172,0.0040226202438375935,-0.010824473223047804,0.0,70.0,255.0,255.0,255.0
349,17.45,1.0731081180080821,14.074523677291358,-2.3578457777425914,-0.046049678225206225,0.06151460982586343,-0.2528217194392246,0.00015033702811528826,0.004982794325769646,-0.011057999113406325,0.0,70.0,255.0,255.0,255.0
350,17.5,1.070805989839257,14.077605800013716,-2.3705007003750516,-0.04602128103708303,0.06178314742331992,-0.2533806271469663,0.0006485076885498486,0.005434550988603348,-0.011251494241371063,0.0,70.0,255.0,255.0,255.0
351,17.55,1.0685059899043738,14.08070199203369,-2.383183840457288,-0.04598482745635124,0.062058064924723766,-0.2539468688633617,0.0004624589053037198,0.005229965449871088,-0.01134213429128117,0.0,70.0,255.0,255.0,255.0
352,17.6,1.0662075070936219,14.083811606506188,-2.3958953872613877,-0.045975035146552656,0.062306143968307026,-0.2545148405760944,-0.0002963126800814564,0.0044754329303842155,-0.011345003333707027,0.0,70.0,255.0,255.0,255.0
353,17.650000000000002,1.0639084863897186,14.086932606430521,-2.4086353245148975,-0.046014458724359386,0.06250560821776219,-0.2550813691967324,-0.0013800320920021036,0.0034064599208960544,-0.011300148072512783,0.0,70.0,255.0,255.0,255.0
354,17.7,1.061606061221186,14.090062167327964,-2.421403524181061,-0.04611303835575287,0.06264678996039663,-0.2556448553833457,-0.002532047724046471,0.0022698299245504927,-0.011237585071866008,0.0,70.0,255.0,255.0,255.0
355,17.75,1.0592971825541433,14.09319728542656,-2.434199810053232,-0.04626766349676403,0.06273259121021724,-0.256205127703919,-0.003511205296713449,0.001296358272462328,-0.011186034389520927,0.0,70.0,255.0,255.0,255.0
356,17.8,1.0569792948715095,14.096335426448986,-2.447024036951453,-0.04646415888542421,0.06277642578764286,-0.2567634588222978,-0.0041743164381546904,0.0006238255082280375,-0.011162378747764379,0.0,70.0,255.0,255.0,255.0
357,17.85,1.0546507666656009,14.099474928005325,-2.459876155935462,-0.0466850951405795,0.06279497376104004,-0.25732136557869545,-0.0044961688516531595,0.00028347942624407096,-0.011162371551698413,0.0,70.0,255.0,255.0,255.0
358,17.900000000000002,1.0523107853574516,14.10261492382509,-2.4727561735093224,-0.04691377577058953,0.06280477373026727,-0.2578796959774676,-0.00448280670413137,0.0002804911241938157,-0.011174934487057087,0.0,70.0,255.0,255.0,255.0
359,17.95,1.049959389088542,14.105755405378352,-2.4856641255332086,-0.04713337581099264,0.06282302287345942,-0.25843885902740116,-0.004143171773085541,0.0006168603352563196,-0.011191660598974806,0.0,70.0,255.0,255.0,255.0
360,18.0,1.0475974477763523,14.108897226112436,-2.4986000594120625,-0.04732809294789808,0.0628664597637929,-0.2589988620373651,-0.0034917051496163864,0.0012919972723679507,-0.011204368200656845,0.0,70.0,255.0,255.0,255.0
361,18.05,1.045226579793752,14.11204205135473,-2.511564011736945,-0.04748254632595428,0.06295222260069622,-0.25955929584746684,-0.0025631418705707176,0.0022767837995374407,-0.011208350717550886,0.0,70.0,255.0,255.0,255.0
362,18.1,1.042849193143757,14.115192448372506,-2.524555988996809,-0.04758440713495515,0.06309413814374665,-0.2601196971091202,-0.0014806902350450457,0.003428971042396256,-0.011205510459255663,0.0,70.0,255.0,255.0,255.0
363,18.150000000000002,1.0404681390802566,14.118351465169106,-2.537575981447857,-0.04763061534945878,0.06329511970493584,-0.2606798468933924,-0.0004504194130117156,0.004509897260618345,-0.011200113979281667,0.0,70.0,255.0,255.0,255.0
364,18.2,1.038086131608811,14.121521960343,-2.5506239736861485,-0.047629449076256325,0.06354512786980848,-0.26123970850704836,0.00030678609839185356,0.005264780017633086,-0.0111957725324352,0.0,70.0,255.0,255.0,255.0
365,18.25,1.035705194172631,14.124705977956086,-2.563699952298562,-0.0475999367396196,0.06382159770669915,-0.26179942414663593,0.0005900072470144124,0.005447633990485201,-0.01119649280796331,0.0,70.0,255.0,255.0,255.0
366,18.3,1.033326137934849,14.12790412011367,-2.576803916100812,-0.047570448351554884,0.064089891268857,-0.2623593577878447,0.0003058582795034681,0.004948013652139593,-0.011204218381655195,0.0,70.0,255.0,255.0,255.0
367,18.35,1.0309481493374755,14.131114967082972,-2.5899358880773464,-0.04756935091166925,0.06431639907191311,-0.26291984598480145,-0.0004521191591999596,0.003929587451878547,-0.01121558661094646,0.0,70.0,255.0,255.0,255.0
368,18.400000000000002,1.0285692028436821,14.13433576002086,-2.603095900699292,-0.04761566026747488,0.06448285001404486,-0.26348091644893934,-0.0014827883710655243,0.0027126471051630574,-0.011224609596194313,0.0,70.0,255.0,255.0,255.0
369,18.45,1.026186583310728,14.137563252084377,-2.6162839797222404,-0.0477176297487758,0.06458766378242942,-0.2640423069444209,-0.0025649982615227884,0.0016362806681158304,-0.01122524927179569,0.0,70.0,255.0,255.0,255.0
370,18.5,1.0237974398688046,14.140794526399104,-2.6295001313937343,-0.04787216009362716,0.06464647808085644,-0.2646034413761189,-0.0034922865425945915,0.001041476090968274,-0.011209660567290669,0.0,70.0,255.0,255.0,255.0
371,18.55,1.0213993673013653,14.144027899892462,-2.6427443238598523,-0.04806685840303526,0.06469181139152624,-0.26516327300114995,-0.004141316888328639,0.0011039354820496783,-0.01117477575545145,0.0,70.0,255.0,255.0,255.0
372,18.6,1.018990754028501,14.147263707538256,-2.6560164586938493,-0.04828629178246002,0.06475687162906141,-0.26572091895166405,-0.004478105855376668,0.0016836348612159213,-0.011132143097247749,0.0,70.0,255.0,255.0,255.0
373,18.650000000000002,1.0165707381231193,14.150503587055368,-2.6693164157550187,-0.04851466898857293,0.06486017487764784,-0.2662764873108747,-0.004489476053937125,0.0024893977705886527,-0.011101447636230333,0.0,70.0,255.0,255.0,255.0
374,18.7,1.0141392871296437,14.153749725026021,-2.6826441074249368,-0.048735239387853735,0.06500581140612027,-0.2668310637152871,-0.004167818693279202,0.003229724348763341,-0.011103230380227203,0.0,70.0,255.0,255.0,255.0
375,18.75,1.011697214184334,14.15700416819598,-2.6959995221265474,-0.04893145085790085,0.06518314731252417,-0.26738681034889744,-0.0035088797246007886,0.0036105175883704987,-0.011164864922719175,0.0,70.0,255.0,255.0,255.0
376,18.8,1.0092461420438537,14.160268039757273,-2.7093827884598265,-0.049086127360313814,0.06536686316495732,-0.267947550207559,-0.002538539444052468,0.0034768970989418335,-0.011296678596295351,0.0,70.0,255.0,255.0,255.0
377,18.85,1.0067886014483025,14.163540854512476,-2.7227942771473033,-0.049185304802306096,0.06553083702241835,-0.268516478208527,-0.0013971357410547114,0.0029422134316448023,-0.011455840999907707,0.0,70.0,255.0,255.0,255.0
378,18.900000000000002,1.004327611563623,14.166821123459515,-2.736234436280679,-0.049225840934419285,0.0656610845081218,-0.2690931343075498,-0.0003209857350583434,0.0022425823278382495,-0.01156959985904038,0.0,70.0,255.0,255.0,255.0
379,18.95,1.0018660173548606,14.170106962963288,-2.7497035905780582,-0.04921740337581193,0.06575509525520218,-0.269673438194431,0.0004383243167094264,0.0016051948948714312,-0.011568542494266865,0.0,70.0,255.0,255.0,255.0
380,19.0,0.9994058712260419,14.173396632985035,-2.7632017801001223,-0.04918200850274834,0.06582160399760895,-0.27024998855697646,0.0006397867930996171,0.0012483882859015694,-0.01138290771374173,0.0,70.0,255.0,255.0,255.0
381,19.05,0.9969478165045857,14.17668912336305,-2.776728589433756,-0.04915342469650197,0.06587993408379234,-0.2708117289658052,0.00017444902368213278,0.0012883362634497075,-0.01098471032530135,0.0,70.0,255.0,255.0,255.0
382,19.1,0.9944905287563917,14.179984626393415,-2.790282952996703,-0.04916456360038013,0.06595043762395392,-0.2713484595895066,-0.0008044001314266858,0.001662103487021227,-0.010446264465180377,0.0,70.0,255.0,255.0,255.0
383,19.150000000000002,0.9920313601445477,14.183284167125445,-2.8038634353927065,-0.04923386470964464,0.06604614443249446,-0.2718563554123232,-0.0019938537332175876,0.0022256808437148834,-0.009899220526987662,0.0,70.0,255.0,255.0,255.0
384,19.200000000000003,0.9895671422854272,14.186589240836664,-2.817468588537935,-0.04936394897370189,0.0661730057083254,-0.27233838164220536,-0.003073217501325942,0.0028362093583922388,-0.009475373535527964,0.0,70.0,255.0,255.0,255.0
385,19.25,0.9870949652471775,14.189901467696277,-2.831097273556927,-0.04954118645977723,0.06632976536833368,-0.272803892765876,-0.003726258123804005,0.0033599385909965918,-0.009295485574067897,0.0,70.0,255.0,255.0,255.0
386,19.3,0.9846130236394495,14.193222217373497,-2.8447489778145227,-0.04973657478608229,0.06650899956742506,-0.27326793019961215,-0.0037864827579614513,0.0037169839556483453,-0.009418279636097537,0.0,70.0,255.0,255.0,255.0
387,19.35,0.9821213077685693,14.19655236765302,-2.8584240665768883,-0.049919834735573376,0.06670146376389852,-0.2737457207294858,-0.0033543080222742105,0.003893008983801849,-0.009794625615233699,0.0,70.0,255.0,255.0,255.0
388,19.400000000000002,0.9796210401658921,14.199892363749887,-2.8721235498874713,-0.05007200558830971,0.06689830046580525,-0.2742473927611355,-0.0026537158820505446,0.0038902187716516323,-0.01031715439681058,0.0,70.0,255.0,255.0,255.0
389,19.450000000000003,0.9771141072097383,14.2032421976996,-2.885848805853002,-0.05018520632377843,0.06709048564106368,-0.27477743616916683,-0.0019125405583908517,0.0037104804931686886,-0.010870476183821864,0.0,70.0,255.0,255.0,255.0
390,19.5,0.9746025195335143,14.206601412313994,-2.899601293504388,-0.050263259644148794,0.06726934851512212,-0.2753344403795177,-0.0013627263259929911,0.003355866674503716,-0.011347131341743477,0.0,70.0,255.0,255.0,255.0
391,19.55,0.9720877812453235,14.209969132551112,-2.9133822498909536,-0.05032147895637773,0.06742607230851405,-0.2759121493033412,-0.001134065777541604,0.0028427022719768047,-0.011682683950864359,0.0,70.0,255.0,255.0,255.0
392,19.6,0.9695703716378765,14.213344019544845,-2.927192508434722,-0.050376666221902955,0.0675536187423198,-0.27650270877460414,-0.0011737990148641408,0.0022466997389614107,-0.01185886943755321,0.0,70.0,255.0,255.0,255.0
393,19.650000000000002,0.9670501146231332,14.216724494425344,-2.941032520768414,-0.050438858857864144,0.06765074228241019,-0.2770980362470965,-0.0013575298246970569,0.0016942832308686206,-0.011867686361277663,0.0,70.0,255.0,255.0,255.0
394,19.700000000000003,0.9645264857520901,14.220109093773086,-2.9549023120594318,-0.05051241920437266,0.06772304706540666,-0.2776894774107319,-0.0015690211975227797,0.0013208430269529003,-0.011703234549687025,0.0,70.0,255.0,255.0,255.0
395,19.75,0.9619988727026959,14.223496799131885,-2.9688014685094872,-0.05059576097761642,0.06778282658510548,-0.2782683597020652,-0.0016828831924220466,0.0012606040359131043,-0.011359998383086989,0.0,70.0,255.0,255.0,255.0
396,19.8,0.9594669096543285,14.226887376431597,-2.9827291480296383,-0.050680707523614865,0.06784910746899797,-0.2788254772490406,-0.0016311935257751209,0.0015727197782311464,-0.010849958919312286,0.0,70.0,255.0,255.0,255.0
397,19.85,0.9569308019503344,14.230281709878785,-2.9966840162343913,-0.050758880330193934,0.0679400985629286,-0.27935335559399643,-0.0014714283190553346,0.0021557165336361095,-0.010250735795258592,0.0,70.0,255.0,255.0,255.0
398,19.900000000000002,0.9543910216213091,14.23368138628789,-3.010664483589038,-0.0508278503555204,0.06806467912236158,-0.27985055082856647,-0.0013143932573678185,0.002816284667517266,-0.009692939319361216,0.0,70.0,255.0,255.0,255.0
399,19.950000000000003,0.9518480169147824,14.237088177791021,-3.024669071317248,-0.050890319655930716,0.06822172702968032,-0.28032264952593255,-0.0012584608987453727,0.003353373507941626,-0.009315559976563748,0.0,70.0,255.0,255.0,255.0
400,20.0,0.949301989655716,14.240503558990858,-3.038696748541631,-0.050953696445394936,0.06840001647315574,-0.28078210682622284,-0.0014016849602671577,0.0035657265067712274,-0.009256884449460046,0.0,70.0,255.0,255.0,255.0
401,20.05,0.9467526472702429,14.243928179438337,-3.05274728199987,-0.05103048815195743,0.06857829968035745,-0.28124833797087856,-0.0017882463662854953,0.003353131901207007,-0.009577993192033674,0.0,70.0,255.0,255.0,255.0
402,20.1,0.9441989408405203,14.247361388958893,-3.066821582338719,-0.051132521082023485,0.06873532966327645,-0.2817399061454262,-0.002338716147198827,0.002815842049663786,-0.01017371185749738,0.0,70.0,255.0,255.0,255.0
403,20.150000000000002,0.9416393951620405,14.250801712404664,-3.080921272614413,-0.051264359766677314,0.06885988388532382,-0.2822657091566283,-0.0029058295468065154,0.0021551701752997587,-0.010844192725478763,0.0,70.0,255.0,255.0,255.0
404,20.200000000000003,0.9390725048638525,14.254247377347426,-3.095048153254382,-0.05142310403670414,0.06895084668080642,-0.2828243254179741,-0.0033443613147499107,0.0015722363707837417,-0.011381751651029504,0.0,70.0,255.0,255.0,255.0
405,20.25,0.9364970847583701,14.257696797072745,-3.1092037051562103,-0.051598795898152305,0.0690171075224022,-0.28340388432173125,-0.0035183956145212747,0.0012604526395065818,-0.011576473142760335,0.0,70.0,255.0,255.0,255.0
406,20.3,0.9339126252740373,14.261149088099666,-3.123388541686555,-0.051774943598156264,0.06907689194475708,-0.2839819727322501,-0.0033620214751839406,0.0013213260418254436,-0.01132478159879824,0.0,70.0,255.0,255.0,255.0
407,20.35,0.9313195903985545,14.26460448626722,-3.1376019024294353,-0.0519349980456707,0.06914924012658474,-0.28453636248161107,-0.0029381826167074188,0.0016955073418145616,-0.010739824700101153,0.0,70.0,255.0,255.0,255.0
408,20.400000000000002,0.9287191254694702,14.268064012112324,-3.151842177934716,-0.052068761859827006,0.06924644267893854,-0.28505595520226024,-0.00237865219183675,0.002248442557650776,-0.010044881853898957,0.0,70.0,255.0,255.0,255.0
409,20.450000000000003,0.9261127142125718,14.271529130535114,-3.1661074979496613,-0.052172863264854374,0.06937408438234982,-0.28554085066700097,-0.0018235810217426263,0.00284439429769634,-0.009464006846249262,0.0,70.0,255.0,255.0,255.0
410,20.5,0.9235018391429848,14.27500142055056,-3.180396263001416,-0.05225111996200127,0.06953088210870817,-0.28600235588688516,-0.0014127512296457923,0.003356472258353449,-0.009221185683117028,0.0,70.0,255.0,255.0,255.0
411,20.55,0.9208876022163717,14.278482218745985,-3.19470773353835,-0.052314138387818954,0.06970973160818517,-0.28646296923531267,-0.001223154912399771,0.0037087900365051496,-0.00942945383859417,0.0,70.0,255.0,255.0,255.0
412,20.6,0.9182704253042029,14.281972393711378,-3.2090425599249475,-0.052373435453241246,0.06990176111235868,-0.2869453012707446,-0.0012249170223577188,0.0038857649460766197,-0.009981581416829144,0.0,70.0,255.0,255.0,255.0
413,20.650000000000002,0.9156502586710475,14.285472394857221,-3.2234022636654243,-0.052436630090054726,0.07009830810279283,-0.2874611273769956,-0.0013440372103046272,0.0038865840700452736,-0.010661687785118446,0.0,70.0,255.0,255.0,255.0
414,20.700000000000003,0.9130267622951974,14.288982224521657,-3.237788672662647,-0.05250783917427171,0.07029041951936321,-0.2880114700492564,-0.0015075150644472401,0.0037106992611057876,-0.011255647537433688,0.0,70.0,255.0,255.0,255.0
415,20.75,0.9103994747536204,14.292501436809157,-3.25220341067035,-0.05258738159649945,0.0704693780289034,-0.28858669213073895,-0.001638618114929713,0.003357667652359453,-0.01155482142043418,0.0,70.0,255.0,255.0,255.0
416,20.8,0.9077680241355475,14.296029162324547,-3.266647341875721,-0.05267170098576468,0.07062618628459916,-0.28916695219129984,-0.001692584982471157,0.0028424881699962157,-0.011450829619930047,0.0,70.0,255.0,255.0,255.0
417,20.85,0.9051323046550439,14.299564055437617,-3.28112010588948,-0.052756640094746565,0.07075362684590303,-0.28973177509273196,-0.0016830816948809613,0.0022422720324044576,-0.011019257558020357,0.0,70.0,255.0,255.0,255.0
418,20.900000000000002,0.9024923601260728,14.303104525009138,-3.295620519384994,-0.052840009155252776,0.0708504134878396,-0.2902688779471019,-0.0016434274051180253,0.001686060322114713,-0.010422959080758076,0.0,70.0,255.0,255.0,255.0
419,20.950000000000003,0.8998483037395186,14.306649096786401,-3.31014699368419,-0.05292098283525837,0.0709222328781145,-0.29077407100080777,-0.0016001582542335413,0.0013117830190978452,-0.00982668971731826,0.0,70.0,255.0,255.0,255.0
420,21.0,0.897200261842547,14.31019674829695,-3.324697926485075,-0.05300002498067613,0.07098159178974939,-0.2912515469188337,-0.0015807483386365284,0.0012568664573109345,-0.009395519310739786,0.0,70.0,255.0,255.0,255.0
421,21.05,0.894548301241451,14.313747255965376,-3.3392721483760734,-0.05307905766912202,0.07104791952384559,-0.29171362293188174,-0.0015997918709986791,0.0015817701029874343,-0.009220001574572478,0.0,70.0,255.0,255.0,255.0
422,21.1,0.8918923560756348,14.317301540249334,-3.353869288778263,-0.053160004167776,0.07113976880004813,-0.29217354707629095,-0.0016427561981613437,0.0021806713997207794,-0.009257751987767904,0.0,70.0,255.0,255.0,255.0
423,21.150000000000002,0.8892323008246734,14.320861232845381,-3.3684895030837025,-0.053243333288938155,0.07126598666381767,-0.29263939813065853,-0.0016822531690996456,0.002852811005382705,-0.009410951416422009,0.0,70.0,255.0,255.0,255.0
424,21.200000000000003,0.886568022746741,14.324428138915716,-3.383133228591329,-0.05332822948468596,0.0714250499005864,-0.29311464221793315,-0.001691851918605991,0.003389394769470755,-0.009583794059109252,0.0,70.0,255.0,255.0,255.0
425,21.25,0.8838994778762048,14.32800373783544,-3.397800967305496,-0.053412518480798754,0.07160492614076475,-0.29359777753656946,-0.0016383885306558987,0.00357887584208072,-0.009671119984222543,0.0,70.0,255.0,255.0,255.0
426,21.3,0.8812267708986611,14.331588631529792,-3.412493006344986,-0.05349206833775155,0.07178293748479447,-0.2940817542163554,-0.0015082475335659318,0.003317144705050623,-0.009616390189393087,0.0,70.0,255.0,255.0,255.0
427,21.35,0.8785502710424297,14.33518203158392,-3.4272091427271314,-0.05356334323415535,0.07193664061126981,-0.29455941655550877,-0.001345893512394447,0.0027204502947242304,-0.009470666892275048,0.0,70.0,255.0,255.0,255.0
428,21.400000000000002,0.8758704365752455,14.338782295590919,-3.4419489480005367,-0.053626657688991,0.0720549825142669,-0.2950288209055829,-0.0012275599183375618,0.0020172877306379178,-0.009331463691575337,0.0,70.0,255.0,255.0,255.0
429,21.450000000000003,0.8731876052735306,14.342387529835346,-3.4567120248176897,-0.0536860992259891,0.0721383693843336,-0.2954925629246663,-0.0012257207846810836,0.0014372113289695676,-0.009285220293042684,0.0,70.0,255.0,255.0,255.0
430,21.5,0.8705018266526466,14.345996132529352,-3.4714982042930034,-0.053749229767459106,0.07219870364716385,-0.2959573429348872,-0.0014136695668409693,0.0012115928781142316,-0.009415944808077725,0.0,70.0,255.0,255.0,255.0
431,21.55,0.8678126822967847,14.349607400200062,-3.4863077591111784,-0.0538274661826732,0.07225952867214502,-0.2964341574054741,-0.0018210175285804375,0.00145622450382632,-0.009761523914697534,0.0,70.0,255.0,255.0,255.0
432,21.6,0.8651190800343793,14.353222085396567,-3.501141620033551,-0.05393133152031715,0.07234432609754649,-0.29693349532635693,-0.0023718981903786407,0.0020521194967315637,-0.010257808881419805,0.0,70.0,255.0,255.0,255.0
433,21.650000000000002,0.8624195491447529,14.356841832809817,-3.516001108643814,-0.054064656001711064,0.07246474062181818,-0.29745993829361606,-0.0029284395584361356,0.002763445997189251,-0.010784126218510437,0.0,70.0,255.0,255.0,255.0
434,21.700000000000003,0.8597126144342082,14.360468559458749,-3.5308876138629124,-0.05422417547616076,0.07262067069726541,-0.298011907948208,-0.003352491050023776,0.003355186487574713,-0.011222550876155424,0.0,70.0,255.0,255.0,255.0
435,21.75,0.8569971315971369,14.364103899879543,-3.545802299438635,-0.05439990510671344,0.07280025927057565,-0.2985821933812316,-0.003514951849936665,0.003590789941831929,-0.011473119431526513,0.0,70.0,255.0,255.0,255.0
436,21.8,0.8542726239235369,14.367748585385806,-3.5607458332010355,-0.05457567066115443,0.0729797496914486,-0.29915921989136063,-0.003353882818224463,0.003351383852212564,-0.011483714618121255,0.0,70.0,255.0,255.0,255.0
437,21.85,0.8515395645310214,14.371401874848688,-3.575718221427771,-0.05473529338853589,0.07313539765579691,-0.2997305648430437,-0.002930989250649052,0.0027564796438284134,-0.01126257310621881,0.0,70.0,255.0,255.0,255.0
438,21.900000000000002,0.8487990945846833,14.375062125151386,-3.59071888968534,-0.054868769586219335,0.07325539765583144,-0.3002854772019825,-0.0023750454843707303,0.002043520356842521,-0.010848395070528483,0.0,70.0,255.0,255.0,255.0
439,21.950000000000003,0.8460526875723995,14.378727414614271,-3.605746769147969,-0.05497279793697296,0.07333974969148116,-0.30081540435009657,-0.0018238021947003524,0.0014486161473925563,-0.010290776668808732,0.0,70.0,255.0,255.0,255.0
440,22.0,0.843301814790986,14.382396100120534,-3.6208004301203496,-0.05505114980568937,0.0734002592705707,-0.3013145548688634,-0.0014145416813660106,0.0012092100575955556,-0.009631624086114954,0.0,70.0,255.0,255.0,255.0
441,22.05,0.8405475725918305,14.386067440541328,-3.6358782246348555,-0.05511425210510956,0.07346067069724072,-0.30177856675870807,-0.0012229383779316372,0.0014448135120304073,-0.008909305258875122,0.0,70.0,255.0,255.0,255.0
442,22.1,0.837790389580475,14.389742167190258,-3.6509782867962204,-0.055173443643482534,0.07354474062177374,-0.3022054853947509,-0.00122050844340027,0.0020365540031264118,-0.008210033891664636,0.0,70.0,255.0,255.0,255.0
443,22.150000000000002,0.8350302282274823,14.393421914603506,-3.6660987731743306,-0.05523630294944959,0.07366432609755336,-0.30259957014787453,-0.0013358540285945963,0.0027478805039393706,-0.007665836622150479,0.0,70.0,255.0,255.0,255.0
444,22.200000000000003,0.8322667592855301,14.397108599800013,-3.681238243811008,-0.05530702904634199,0.07381952867216768,-0.30297206905696594,-0.0014985006373535725,0.003343775495956436,-0.007406603520765387,0.0,70.0,255.0,255.0,255.0
445,22.25,0.8294995253228481,14.400803867470723,-3.6963959800800272,-0.05538615301318495,0.073998703647149,-0.30334023049995107,-0.0016349000726667562,0.0035884071214908886,-0.007548356252762289,0.0,70.0,255.0,255.0,255.0
446,22.3,0.8267281439842116,14.404508470164728,-3.711572266861003,-0.05547051905360867,0.07417836938431677,-0.30372690468224217,-0.0017015897773475785,0.0033627886711684596,-0.008133889521477755,0.0,70.0,255.0,255.0,255.0
447,22.35,0.8239524734174872,14.408221704409154,-3.7267686705482514,-0.055556311990919705,0.07433498251426585,-0.30415361945209884,-0.0017079093767136122,0.002782712269677745,-0.009051976641361037,0.0,70.0,255.0,255.0,255.0
448,22.400000000000002,0.8211725127851196,14.411941968416155,-3.741987628806213,-0.05564130999128003,0.07445664061128454,-0.3046321023463783,-0.0016797668393686571,0.002079549705413797,-0.01009105564335755,0.0,70.0,255.0,255.0,255.0
449,22.450000000000003,0.8183883424183592,14.415667368470283,-3.7572318807828893,-0.05572428867485657,0.07454293748480723,-0.3051627250164346,-0.0016359947895949745,0.0014828552949097684,-0.011024347709653881,0.0,70.0,255.0,255.0,255.0
450,22.5,0.815600083917634,14.419396262164636,-3.7725039013078563,-0.05580490947023953,0.07460492614077552,-0.30573453711734366,-0.0015938300560125462,0.0012211241580573073,-0.011642922931143218,0.0,70.0,255.0,255.0,255.0
451,22.55,0.8128078514713353,14.42312786108436,-3.7878053344946236,-0.055883671680457825,0.07466504990061296,-0.3063270173095489,-0.0015639892260721489,0.001410605230312001,-0.011835136655324874,0.0,70.0,255.0,255.0,255.0
452,22.6,0.8100117167495882,14.426862767154697,-3.803136603038811,-0.05596130839284674,0.07474598666380672,-0.30691805078287615,-0.0015478540497770865,0.0019471889942224152,-0.011630171430843106,0.0,70.0,255.0,255.0,255.0
453,22.650000000000002,0.8072117206320506,14.430602459750741,-3.8184971395729113,-0.056038457085435534,0.0748597688000352,-0.30749003445263323,-0.0015450786138293537,0.0026193286005948835,-0.011121828916049736,0.0,70.0,255.0,255.0,255.0
454,22.700000000000003,0.8044078710410446,14.4343487440347,-3.8338856064840745,-0.05611581625422968,0.0750079195238662,-0.3080302336744811,-0.0015575202042428238,0.0032182298969729572,-0.010416005640578874,0.0,70.0,255.0,255.0,255.0
455,22.75,0.8016001390066276,14.438103251703128,-3.8493001629403594,-0.056194209105859816,0.0751815917897325,-0.3085316350166911,-0.0015897797032926597,0.0035431335424718213,-0.00961197999522767,0.0,70.0,255.0,255.0,255.0
456,22.8,0.7987884501304586,14.441866903213674,-3.8647387699857436,-0.056274794224558944,0.07536223287811339,-0.3089914316740039,-0.0016424533183068135,0.003488216981040182,-0.008784025395636164,0.0,70.0,255.0,255.0,255.0
457,22.85,0.7959726595841717,14.445639474990939,-3.8801993061077598,-0.0563584544376905,0.07553041348783651,-0.30941003755625474,-0.0017006744241987448,0.003113939678023314,-0.008024540432005622,0.0,70.0,255.0,255.0,255.0
458,22.900000000000002,0.7931526046866896,14.449419944562457,-3.895679773741369,-0.05644486166697882,0.07567362684591572,-0.30979388571720445,-0.0017399187054123466,0.0025577279677335696,-0.0074669433776097804,0.0,70.0,255.0,255.0,255.0
459,22.950000000000003,0.7903281734174739,14.45320683767553,-3.91117869467948,-0.05653244630823173,0.07578618628460987,-0.3101567318940157,-0.0017339243934211268,0.0019575118296089045,-0.007250091266630676,0.0,70.0,255.0,255.0,255.0
460,23.0,0.7874993600558664,14.456998563190918,-3.9266954469307707,-0.05661825410632093,0.07586937802887661,-0.3105188948438675,-0.0016470511307042912,0.0014423323477785743,-0.0075091570882701575,0.0,70.0,255.0,255.0,255.0
461,23.05,0.7846663480068418,14.460793775478418,-3.942230584163867,-0.05669715142130216,0.07593041951938773,-0.31090764760284273,-0.001466197500710198,0.001089300739387511,-0.008290300223334768,0.0,70.0,255.0,255.0,255.0
462,23.1,0.7818296449137362,14.464591605142857,-3.957786211691055,-0.05676487385639195,0.07597830810281536,-0.311347924866201,-0.0012494482534708418,0.0009134159293822108,-0.009426352155772477,0.0,70.0,255.0,255.0,255.0
463,23.150000000000002,0.7789898606212026,14.4683916062887,-3.973365376650487,-0.056822096246649245,0.07602176111232595,-0.31185028281842,-0.0010952465645752696,0.0009142350535285004,-0.010613194776976087,0.0,70.0,255.0,255.0,255.0
464,23.200000000000003,0.7761474352890713,14.47219378125409,-3.988971239972897,-0.05687439851284948,0.07606973160816821,-0.3124092443438986,-0.0011000689353890536,0.0010912099636328776,-0.01153188104097147,0.0,70.0,255.0,255.0,255.0
465,23.25,0.7733024207699176,14.475998579449517,-4.004606301084877,-0.05693210314018815,0.07613088210868924,-0.3130034709225171,-0.0013699878017803258,0.001443527741962214,-0.011871391651485652,0.0,70.0,255.0,255.0,255.0
466,23.3,0.7704542249750524,14.479806869464959,-4.020271587065149,-0.05701139729302751,0.07621408438236443,-0.31359638350904717,-0.0019465562126397273,0.0019556057027969587,-0.011480974177402459,0.0,70.0,255.0,255.0,255.0
467,23.35,0.7676012810406149,14.483619987887753,-4.035965939435782,-0.05712675876145212,0.07632644267896893,-0.31415156834025737,-0.002699761000224399,0.0025515574421319798,-0.010519934394448427,0.0,70.0,255.0,255.0,255.0
468,23.400000000000002,0.7647415490989072,14.487439513732856,-4.051686743899174,-0.05728137339304995,0.07646924012657763,-0.314648376948492,-0.0034000274372170125,0.0031044926577905585,-0.009311233225517412,0.0,70.0,255.0,255.0,255.0
469,23.450000000000003,0.7618731437013099,14.49126691190041,-4.067430777130631,-0.057466761505173825,0.07663689194474799,-0.3150826916628091,-0.003819739258914545,0.0034786739583125836,-0.008188445175516534,0.0,70.0,255.0,255.0,255.0
470,23.5,0.7589948729483899,14.49510320292733,-4.083195013065455,-0.057663347318941405,0.07681710752240889,-0.31546722146604367,-0.0037330442822058885,0.0035395473604538097,-0.007477257657484415,0.0,70.0,255.0,255.0,255.0
471,23.55,0.7561068089694157,14.498948622652652,-4.098977499277235,-0.05784006593339441,0.07699084668079337,-0.31583041742855755,-0.00303997858108751,0.0032277636288213785,-0.007351863673488168,0.0,70.0,255.0,255.0,255.0
472,23.6,0.7532108663550504,14.50280228759541,-4.114778054808311,-0.057967345177050156,0.07713988388529103,-0.3162024078333925,-0.0019177548318705107,0.002644829825015904,-0.007724865977465356,0.0,70.0,255.0,255.0,255.0
473,23.650000000000002,0.7503100744517107,14.50666261104118,-4.1305977400605745,-0.058031841416581464,0.07725532966329496,-0.3166029040263041,-0.0007000749220442692,0.0019841579508295126,-0.008391755770897902,0.0,70.0,255.0,255.0,255.0
474,23.700000000000003,0.7474076822133923,14.51052782056174,-4.1464383452109415,-0.05803735266925458,0.07733829968037398,-0.3170415834104823,0.00027347818545297997,0.0014468680980428417,-0.009147252009888973,0.0,70.0,255.0,255.0,255.0
475,23.75,0.7445063391847853,14.514396441009218,-4.162301898401623,-0.058004493598036166,0.07740001647309924,-0.317517629227293,0.0006741929026388149,0.0012342734928338928,-0.009791605690256944,0.0,70.0,255.0,255.0,255.0
476,23.8,0.7416072328535886,14.518267822209049,-4.178190108133671,-0.0579699333789907,0.07746172702965737,-0.31802074397950797,0.0003393842899934718,0.0014466264932622153,-0.010206023343073412,0.0,70.0,255.0,255.0,255.0
477,23.85,0.7387093458468862,14.522142613712184,-4.1941039727995735,-0.05797055516903682,0.07754467912242546,-0.3185382315616003,-0.0005793362224060239,0.0019837153326207613,-0.010385170461013615,0.0,70.0,255.0,255.0,255.0
478,23.900000000000002,0.735810177336685,14.526022290121292,-4.210043931289831,-0.058027867001231304,0.07766009856291944,-0.31905926102560933,-0.0017687171637081889,0.0026442834656137393,-0.01035549660537427,0.0,70.0,255.0,255.0,255.0
479,23.950000000000003,0.7329065591467631,14.529908623568476,-4.226009898902134,-0.05814742688540764,0.07780910746898684,-0.31957378122213775,-0.0029081128768648767,0.003227280221729245,-0.010136859138576426,0.0,70.0,255.0,255.0,255.0
480,24.0,0.7299954346481442,14.53380320086819,-4.242001309412045,-0.05831867828891779,0.07798282658509237,-0.320072946939467,-0.003691745976430738,0.003539395964047287,-0.009748300932788112,0.0,70.0,255.0,255.0,255.0
481,24.05,0.7270746913178713,14.537706906226985,-4.258017193596081,-0.05851660148305071,0.07816304706539157,-0.32054861131541657,-0.00395149797270955,0.003479156973718034,-0.009216304026171684,0.0,70.0,255.0,255.0,255.0
482,24.1,0.7241437744998391,14.54161950557473,-4.274056170543586,-0.058713828086188746,0.07833074228246417,-0.32099457734208414,-0.0037339445674411387,0.0031057167694470422,-0.008615291339086895,0.0,70.0,255.0,255.0,255.0
483,24.150000000000002,0.7212033085092524,14.545539980455231,-4.2901166513302895,-0.058889995939794826,0.07847361874233627,-0.32141014044932525,-0.0031751729733686673,0.0025533002606437094,-0.008067096969277543,0.0,70.0,255.0,255.0,255.0
484,24.200000000000003,0.7182547749058596,14.549466867448963,-4.306197184588519,-0.05903134538352561,0.07858607230852854,-0.3218012870390119,-0.0024148262118717234,0.0019572977286941295,-0.007704285795373522,0.0,70.0,255.0,255.0,255.0
485,24.25,0.7153001739708998,14.553398587686084,-4.322296780034191,-0.059131478560982,0.07866934851520568,-0.3221805690288626,-0.001587208996867151,0.001444133325811947,-0.007659199902043667,0.0,70.0,255.0,255.0,255.0
486,24.3,0.7123416270497614,14.557333802300484,-4.338415241491405,-0.05919006628321233,0.07873048564110974,-0.32256720702921626,-0.000785140650827465,0.0010895195057258888,-0.007989273372022154,0.0,70.0,255.0,255.0,255.0
487,24.35,0.7093811673425786,14.561271636250195,-4.354553500737112,-0.059209992626064745,0.07877830046577827,-0.3229794963660648,-8.208830503120268e-05,0.0009097812274205808,-0.008589188658003621,0.0,70.0,255.0,255.0,255.0
488,24.400000000000002,0.706420627787155,14.565211632347062,-4.3707131911280115,-0.05919827511371545,0.0788214637638518,-0.3234261258950166,0.0004240943718647472,0.0009069910149150928,-0.009259751881884881,0.0,70.0,255.0,255.0,255.0
489,24.450000000000003,0.7034613398312071,14.56915378262658,-4.386896113326614,-0.05916758318887827,0.07886899956726978,-0.3239054715542533,0.0006289561858996429,0.0010830160423580537,-0.009793223787646355,0.0,70.0,255.0,255.0,255.0
490,24.5,0.7005038694682671,14.573098532303788,-4.403103738283437,-0.059135379495125484,0.0789297653680876,-0.32440544827378126,0.0004405819637676167,0.001440061408786164,-0.009978908782581897,0.0,70.0,255.0,255.0,255.0
491,24.55,0.6975478018816945,14.57704675916339,-4.419336658153992,-0.05912352499250151,0.0790130057081484,-0.3249033624325115,-0.00016947788556986865,0.0019637906438774166,-0.009713315772152953,0.0,70.0,255.0,255.0,255.0
492,24.6,0.694591516969017,14.580999832874603,-4.435594074526688,-0.05915232728368247,0.07912614443247534,-0.32537677985099656,-0.0010923875270352212,0.0025743191599758575,-0.009113361954327104,0.0,70.0,255.0,255.0,255.0
493,24.650000000000002,0.6916325691533263,14.584959373606637,-4.451874336139092,-0.05923276374520503,0.07927043762414598,-0.3258146986279442,-0.0021240017167967196,0.003137896518801142,-0.00840848757777124,0.0,70.0,255.0,255.0,255.0
494,24.700000000000003,0.6886682405944965,14.588926876637018,-4.468175544389482,-0.05936472745536214,0.07943993408435546,-0.3262176286087737,-0.003042536993269618,0.003511663742727933,-0.007829392480918074,0.0,70.0,255.0,255.0,255.0
495,24.75,0.6856960964077901,14.592903367015072,-4.484496098999969,-0.05953701744453199,0.07962160399841878,-0.326597637876036,-0.0036430908862516986,0.0035516117156575433,-0.007609127671681648,0.0,70.0,255.0,255.0,255.0
496,24.8,0.6827145388500433,14.59688903703686,-4.500835308177086,-0.05972903654398731,0.07979509525592121,-0.32697854137594184,-0.0038169478068117435,0.0031948050992269827,-0.00786403696579896,0.0,70.0,255.0,255.0,255.0
497,24.85,0.6797231927533913,14.600882876540664,-4.517193953137563,-0.05991871222521317,0.07994108450834148,-0.3273840415726159,-0.003596473475009354,0.002557417657023109,-0.008471955599009817,0.0,70.0,255.0,255.0,255.0
498,24.900000000000002,0.676722667627522,14.604883145487694,-4.533573712334348,-0.06008868389148825,0.08005083702162352,-0.3278257369358428,-0.003079975616715469,0.0018577865461111287,-0.009191705732369826,0.0,70.0,255.0,255.0,255.0
499,24.950000000000003,0.6737143243642425,14.608887960242827,-4.549976526831148,-0.06022670978688471,0.08012686316295259,-0.3283032121458529,-0.0023788082127329524,0.0013231028795246402,-0.009782632862442853,0.0,70.0,255.0,255.0,255.0
500,25.0,0.6706999966488335,14.61289583180399,-4.566404033548933,-0.06032656471276154,0.08018314730957599,-0.3288040002220871,-0.0016002463906539255,0.0011894824032410156,-0.010000617826744218,0.0,70.0,255.0,255.0,255.0
501,25.05,0.6676816678929663,14.616906274973784,-4.582856926853356,-0.060386734425950106,0.08024581140327669,-0.3293032739285273,-0.0008211924255707714,0.0015702756725133327,-0.009723962938412711,0.0,70.0,255.0,255.0,255.0
502,25.1,0.6646613232062385,14.620920412944317,-4.599334360941786,-0.06040868395531862,0.08034017487682732,-0.3297763965159284,-0.00011892137025126814,0.0023106022878138788,-0.009084223574795658,0.0,70.0,255.0,255.0,255.0
503,25.150000000000002,0.6616407994974345,14.624940292461467,-4.615834566504949,-0.06039862656297523,0.08047687163205808,-0.3302116962860069,0.0003985894982627691,0.003116365222588513,-0.00833928156671604,0.0,70.0,255.0,255.0,255.0
504,25.200000000000003,0.658621460549941,14.628968100107523,-4.632355530570386,-0.060368825005492344,0.08065181139908617,-0.3306103246726,0.000619308305804811,0.0036960645987349494,-0.007746649496276348,0.0,70.0,255.0,255.0,255.0
505,25.25,0.6556039169968852,14.633005473601376,-4.648895598972209,-0.06033669573239475,0.08084647809193157,-0.3309863612356345,0.0004440764488800042,0.0037585239375914625,-0.007572363725838471,0.0,70.0,255.0,255.0,255.0
506,25.3,0.6525877909767015,14.637052747916716,-4.66545416669395,-0.06032441736060434,0.08102766379284532,-0.33136756104518383,-0.00015982095241673377,0.0031637192508426892,-0.007946684707071938,0.0,70.0,255.0,255.0,255.0
507,25.35,0.6495714752608248,14.64110823998066,-4.6820323550767275,-0.060352677827636425,0.08116285001701584,-0.3317810297063417,-0.0010825263587199707,0.0020873526809239706,-0.00870574217595177,0.0,70.0,255.0,255.0,255.0
508,25.400000000000002,0.6465525231939379,14.645169032918417,-4.698632269664584,-0.06043266999647634,0.08123639906093771,-0.332238135262779,-0.002117179579153028,0.0008704122377523049,-0.009536575926194502,0.0,70.0,255.0,255.0,255.0
509,25.450000000000003,0.6435282082611772,14.649231879886754,-4.7152561686030054,-0.06056439578555173,0.08124989124079107,-0.33273468729896116,-0.00303996347197355,-0.00014801395611385715,-0.010130909012673328,0.0,70.0,255.0,255.0,255.0
510,25.5,0.6404960836153827,14.653294022042497,-4.73190573839448,-0.060736666343673695,0.08122159766532633,-0.33325122616404634,-0.003644031432814554,-0.0006476340994154839,-0.010177992537840908,0.0,70.0,255.0,255.0,255.0
511,25.55,0.6374545416268098,14.657354039653287,-4.74858129121941,-0.06092879892883318,0.08118512783084952,-0.33375248655274525,-0.003819523764758692,-0.00046477971409331076,-0.00952892527354976,0.0,70.0,255.0,255.0,255.0
512,25.6,0.6344032037224994,14.661412534825581,-4.765280987049755,-0.061118618720149565,0.081175119693917,-0.3342041186914013,-0.003599085083072495,0.00029010353976843817,-0.008379987208861905,0.0,70.0,255.0,255.0,255.0
513,25.650000000000002,0.6313426797547949,14.665471551622678,-4.78200170308855,-0.06128870743714043,0.08121413818482637,-0.33459048527363144,-0.003081759293566133,0.0013710301137948022,-0.00710807440125194,0.0,70.0,255.0,255.0,255.0
514,25.700000000000003,0.6282743329787853,14.669533948644064,-4.798740035577118,-0.06142679464950618,0.08131222270529648,-0.3349149261315265,-0.0023794544178668,0.0025232173319622575,-0.0060890617716857776,0.0,70.0,255.0,255.0,255.0
515,25.75,0.6252000002898442,14.673602773893208,-4.815493195701703,-0.06152665287892711,0.0814664599180226,-0.3351993914508,-0.001599978689637016,0.003508003136687421,-0.005691610178804041,0.0,70.0,255.0,255.0,255.0
516,25.8,0.6221216676908926,14.677680594635866,-4.832259974722198,-0.06158679251846988,0.08166302301896522,-0.3354840871494069,-0.0008205455269250095,0.004183138534585851,-0.00609798715993648,0.0,70.0,255.0,255.0,255.0
517,25.85,0.6190413210379972,14.681769076195105,-4.849041604416644,-0.061608707431619614,0.08188477377148118,-0.33580919016679367,-0.00011833610616962531,0.0045195058875791005,-0.00712442553876258,0.0,70.0,255.0,255.0,255.0
518,25.900000000000002,0.6159607969477306,14.685869072013015,-4.865840893738877,-0.06159862612908684,0.08211497360772313,-0.3361965297032832,0.00039890206797732475,0.004516516257702108,-0.008400170757383307,0.0,70.0,255.0,255.0,255.0
519,25.950000000000003,0.6128814584250886,14.689980573555877,-4.882661257386972,-0.06156881722482188,0.08233642539725139,-0.336649207242532,0.0006193196049553151,0.004176170267378154,-0.009546783294478445,0.0,70.0,255.0,255.0,255.0
520,26.0,0.6098039152252485,14.69410271455274,-4.89950581446313,-0.06153669416859131,0.08253259063446095,-0.337151208032731,0.0004439461913974263,0.0035036402000088174,-0.010183585394507588,0.0,70.0,255.0,255.0,255.0
521,26.05,0.6067277890082294,14.698233832619323,-4.916376378190245,-0.06152442260568214,0.08268678941725227,-0.33766756578198276,-0.0001598325890417307,0.0025301742958561135,-0.01011306548113211,0.0,70.0,255.0,255.0,255.0
522,26.1,0.6036514729646802,14.702371393494465,-4.9332725710413285,-0.061552677427495484,0.08278560806404656,-0.33816251458084423,-0.0010822558068501742,0.0013935512335194744,-0.00949135492529507,0.0,70.0,255.0,255.0,255.0
523,26.150000000000002,0.6005725212654799,14.706512393425728,-4.950192629648329,-0.061632648186367156,0.08282614454060422,-0.33861670127451227,-0.0021166461812049953,0.0003245831763365459,-0.008641359119732073,0.0,70.0,255.0,255.0,255.0
524,26.200000000000003,0.5974882081460435,14.710654007948525,-4.96713424116878,-0.06176434204561598,0.08281806638168021,-0.33902665049281744,-0.0030393624635416394,-0.00042994968669773925,-0.007884178010986176,0.0,70.0,255.0,255.0,255.0
525,26.25,0.5943960870609183,14.714794200063896,-4.984095294697611,-0.06193658443272132,0.08278314957193444,-0.3394051190756109,-0.0036437781039344586,-0.0006345452883138591,-0.007549992298105934,0.0,70.0,255.0,255.0,255.0
526,26.3,0.5912945497027714,14.718932322905719,-5.001074753076341,-0.06212871985600943,0.08275461185284883,-0.33978164972262803,-0.003820124116937773,-0.00018281007463372134,-0.007809098235256329,0.0,70.0,255.0,255.0,255.0
527,26.35,0.5881832150753173,14.72306966124918,-5.018073459669874,-0.0623185968444151,0.08276486856447107,-0.3401860288991365,-0.0036007525544223817,0.0007773381296871662,-0.008503814433780121,0.0,70.0,255.0,255.0,255.0
528,26.400000000000002,0.5850626900183299,14.727208809762166,-5.0350933559662545,-0.06248879511145167,0.08283234566581754,-0.34063203116600604,-0.0030842054549951037,0.0019524237632850827,-0.009321572251153043,0.0,70.0,255.0,255.0,255.0
