idx,t,px,py,pz,vx,vy,vz,ax,ay,az,yaw,mode,ledr,ledg,ledb
0,0.0,7.500000000000002,-10.500000000000005,1.3075970192809473e-18,-0.00036490515508802446,0.00046065637668846193,0.0008261132702988767,0.004032701034084596,0.003328957489046047,-0.03777408846865919,0.0,70.0,255.0,255.0,255.0
1,0.05,7.499981754742247,-10.499976967181171,4.130566351494514e-05,-0.00016327010338379466,0.0006271042511407643,-0.0010625911531340832,0.005944963921766799,0.005177316547211319,-0.056839371644406396,0.0,70.0,255.0,255.0,255.0
2,0.1,7.499983672989663,-10.499937289574891,-0.00010625911531340703,0.00022959123708865548,0.0009783880314095939,-0.004857823894141763,0.007649051550906449,0.007393436233193995,-0.07626113270298882,0.0,70.0,255.0,255.0,255.0
3,0.15000000000000002,7.500004713865956,-10.49987912837803,-0.0004444767258992312,0.0006016350517068503,0.0013664478744601638,-0.008688704423432966,0.007232701035508882,0.008128957486164268,-0.07697408846866334,0.0,70.0,255.0,255.0,255.0
4,0.2,7.500043836494834,-10.499800644787445,-0.0009751295576567036,0.0009528613406395436,0.0017912837800260206,-0.012555232741008098,0.0068143291788835825,0.008866482684055654,-0.07769528806158663,0.0,70.0,255.0,255.0,255.0
5,0.25,7.50010000000002,-10.499700000000027,-0.001700000000000041,0.0012830679695952085,0.0022530961428657292,-0.01645823322959163,0.00638433461688237,0.009615530556672525,-0.07846388966119967,0.0,70.0,255.0,255.0,255.0
6,0.30000000000000004,7.500172143291794,-10.499575335173159,-0.002620952880615867,0.0015912948023277806,0.002752836835693273,-0.020401621707128066,0.005939629198792318,0.010379162671192432,-0.07929248800359612,0.0,70.0,255.0,255.0,255.0
7,0.35000000000000003,7.500259129480253,-10.499424716316458,-0.003740162170712848,0.0018770308894744403,0.0032910124099849725,-0.02438748202995124,0.005506546484124186,0.011131272113473756,-0.08007368433929882,0.0,70.0,255.0,255.0,255.0
8,0.4,7.500359846380741,-10.49924623393216,-0.005059701083610991,0.0021419494507401993,0.0038659640470406487,-0.02840899014105795,0.0051271415613562965,0.011830165754922461,-0.08063596126242192,0.0,70.0,255.0,255.0,255.0
9,0.45,7.500473324425327,-10.499038119911754,-0.006581061184818643,0.00238974504561007,0.004474028985477219,-0.032451078156193434,0.004836475496183823,0.01244785535501336,-0.08082908620323719,0.0,70.0,255.0,255.0,255.0
10,0.5,7.500598820885302,-10.498798831033612,-0.008304808899230335,0.0026255970003585816,0.005110749582541985,-0.03649189876138167,0.004661279022055709,0.012990002807811152,-0.08050965250710682,0.0,70.0,255.0,255.0,255.0
11,0.55,7.500735884125363,-10.4985270449535,-0.01023025106095681,0.002855872947815641,0.005773029266258334,-0.040502043406904116,0.0046103861575552685,0.013458194811377666,-0.07963057103631051,0.0,70.0,255.0,255.0,255.0
12,0.6000000000000001,7.500884408180084,-10.498221528106987,-0.012355013239920746,0.0030866356161141084,0.006456569063679751,-0.04445495586501272,0.004659184063893207,0.013788620423405007,-0.07838653859054252,0.0,70.0,255.0,255.0,255.0
13,0.65,7.501044547686974,-10.497881388047132,-0.014675746647458082,0.0033217913542049615,0.0071518913085988345,-0.04834069726595837,0.004758912638980206,0.01388874429153475,-0.07712704208681483,0.0,70.0,255.0,255.0,255.0
14,0.7000000000000001,7.501216587315504,-10.497506338976127,-0.017189082966516583,0.003562526880012129,0.007845443492833226,-0.0521676600736942,0.004849548088969868,0.01369156481079159,-0.07621964761514777,0.0,70.0,255.0,255.0,255.0
15,0.75,7.5014008003749755,-10.497096843697848,-0.019892512654827502,0.0038067461631019484,0.008521047789677993,-0.055962662027473145,0.004858846615807266,0.01313611930449099,-0.07604138997157395,0.0,70.0,255.0,255.0,255.0
16,0.8,7.501597261931814,-10.496654234197159,-0.022785349169263898,0.004048411541592856,0.009159055423282325,-0.059771799070851596,0.00475060436331276,0.012214863895465555,-0.07676727121221222,0.0,70.0,255.0,255.0,255.0
17,0.8500000000000001,7.501805641529135,-10.49618093815552,-0.025869692561912662,0.004281806599433224,0.009742534179224549,-0.06363938914869437,0.004577649661197114,0.011075924514258872,-0.07813027784864778,0.0,70.0,255.0,255.0,255.0
18,0.9,7.502025442591758,-10.495679980779236,-0.029149288084133335,0.004506176507712567,0.010266647874708212,-0.06758482685571637,0.004435436321248432,0.009976535399225384,-0.07962491467936317,0.0,70.0,255.0,255.0,255.0
19,0.9500000000000001,7.502256259179906,-10.49515427336805,-0.0326281752474843,0.0047253502315580675,0.010740187719147087,-0.07160188061663068,0.004412418395460804,0.009183834120030099,-0.08073968930354114,0.0,70.0,255.0,255.0,255.0
20,1.0,7.502497977614913,-10.494605962007322,-0.0363094761457964,0.0049474183472586475,0.011185031286711222,-0.07565879578607049,0.00459927857061615,0.008953538622868962,-0.08095686219867296,0.0,70.0,255.0,255.0,255.0
21,1.05,7.502751001014632,-10.494035770239378,-0.04019405482609135,0.0051852780886196825,0.011635541581433984,-0.07969756683649798,0.005034282635385523,0.009403375247885037,-0.08002668444117844,0.0,70.0,255.0,255.0,255.0
22,1.1,7.503016505423775,-10.493442407849178,-0.0442792328294462,0.0054508466107972,0.012125368811499726,-0.08366146423018833,0.005628445729044529,0.010378730469540187,-0.0782649374274566,0.0,70.0,255.0,255.0,255.0
23,1.1500000000000001,7.503296085675712,-10.492823233358228,-0.04856020124911018,0.005748122661524135,0.012673414628388002,-0.08752406057924364,0.006220274477808374,0.01157238683902051,-0.0762815509439907,0.0,70.0,255.0,255.0,255.0
24,1.2000000000000002,7.503591317689928,-10.49217506638634,-0.053031638887370565,0.006072874058578037,0.013282607495401777,-0.0912896193245874,0.006648004437437294,0.012660837637845646,-0.0746875159166098,0.0,70.0,255.0,255.0,255.0
25,1.25,7.503903373081569,-10.491494972608688,-0.05768916318156892,0.006412923105267865,0.013939498392172567,-0.09499281217090462,0.006752057749537244,0.013325716879286631,-0.07409106799363477,0.0,70.0,255.0,255.0,255.0
26,1.3,7.504232610000455,-10.490781116547122,-0.06253092010446103,0.0067480798335317616,0.01461517918333044,-0.09869872612395088,0.006458465560132964,0.013398861219293678,-0.0747929374100155,0.0,70.0,255.0,255.0,255.0
27,1.35,7.504578181064923,-10.490033454690355,-0.06755903579396401,0.007058769661281161,0.015279384514101935,-0.10247210591190617,0.005873042946991092,0.012978197896806876,-0.07647468106624575,0.0,70.0,255.0,255.0,255.0
28,1.4000000000000001,7.504938486966583,-10.489253178095712,-0.07277813069565164,0.007335384128230871,0.015912998973011128,-0.10634619423057545,0.005199829404478606,0.012284033795495475,-0.07850333375913343,0.0,70.0,255.0,255.0,255.0
29,1.4500000000000002,7.505311719477746,-10.488442154793054,-0.07819365521702155,0.007578752601729022,0.016507787893651482,-0.11032243928781951,0.0046483377478701016,0.011539901576007594,-0.08024432628409434,0.0,70.0,255.0,255.0,255.0
30,1.5,7.505696362226756,-10.487602399306347,-0.0838103746244336,0.007800217903017881,0.017066989130611887,-0.11437062685898489,0.004428481107332516,0.010971565887452073,-0.0810749497428695,0.0,70.0,255.0,255.0,255.0
31,1.55,7.5060917412680475,-10.486735455879993,-0.08963071790292004,0.008021600712462273,0.01760494448239669,-0.11842993426210646,0.004645141836956412,0.010706727660192428,-0.0806751323523272,0.0,70.0,255.0,255.0,255.0
32,1.6,7.506498522298002,-10.485841904858107,-0.09565336805064424,0.008264732086713522,0.01813766189663113,-0.1224381400942176,0.005193974557826664,0.010703909179277105,-0.07929256208379643,0.0,70.0,255.0,255.0,255.0
33,1.6500000000000001,7.506918214476719,-10.48492168969033,-0.1018745319123418,0.00854099816824494,0.0186753354003244,-0.1263591904704861,0.005865815830130572,0.010857725065349655,-0.07744889024325352,0.0,70.0,255.0,255.0,255.0
34,1.7000000000000002,7.507352622114826,-10.483974371318075,-0.10828928709769285,0.00885131366972658,0.019223434403166095,-0.13018302911854296,0.006452071144114058,0.01107195699088237,-0.07566832580014615,0.0,70.0,255.0,255.0,255.0
35,1.75,7.5078033458436915,-10.482999346250013,-0.1148928348241961,0.009186205282656346,0.019782531099412637,-0.13392602305050072,0.006750055117343834,0.011248066191704709,-0.07446507709083505,0.0,70.0,255.0,255.0,255.0
36,1.8,7.508271242643092,-10.481996118208134,-0.12168188940274292,0.009526319181460963,0.020348241022336566,-0.13762953682762646,0.00665439366525078,0.011328167532909106,-0.07411865439280879,0.0,70.0,255.0,255.0,255.0
37,1.85,7.508755977761838,-10.48096452214778,-0.12865578850695875,0.009851644649181424,0.020915347852703547,-0.1413378884897816,0.006236466746845082,0.011327097786661966,-0.07450238994588243,0.0,70.0,255.0,255.0,255.0
38,1.9000000000000001,7.50925640710801,-10.479904583422863,-0.13581567825172108,0.01014996585614547,0.021480950801002763,-0.1450797758222147,0.005651499349390576,0.011283294382202769,-0.07531546424220797,0.0,70.0,255.0,255.0,255.0
39,1.9500000000000002,7.509770974347452,-10.47881642706768,-0.14316376608918022,0.010416794584120481,0.022043677290923824,-0.1488694349140024,0.005056664388281007,0.0112260699944855,-0.07626148473443561,0.0,70.0,255.0,255.0,255.0
40,2.0,7.510298086566422,-10.47770021569377,-0.15070262174312132,0.010655632294973572,0.022603557800451313,-0.15270592429565827,0.004607289100366785,0.011184141374442902,-0.07704478851384977,0.0,70.0,255.0,255.0,255.0
41,2.0500000000000003,7.5108365375769495,-10.476556071287634,-0.15843435851874604,0.01087752349415716,0.023162091428368115,-0.15657391376538737,0.004390057395298186,0.01117388892115656,-0.07749192839812402,0.0,70.0,255.0,255.0,255.0
42,2.1,7.511385838915838,-10.475384006550934,-0.16636001311966006,0.01109463803450339,0.02372094669256697,-0.16045511713547067,0.004376522090421275,0.011187699672632334,-0.07762337929815288,0.0,70.0,255.0,255.0,255.0
43,2.15,7.5119460013804,-10.474183976618377,-0.1744798702322931,0.011315175703199287,0.024280861395631348,-0.16433625169520266,0.004492662296939898,0.011209097405107116,-0.07752123413989342,0.0,70.0,255.0,255.0,255.0
44,2.2,7.512517356486158,-10.472955920411371,-0.18279363828918033,0.01154390426419738,0.02484185643307768,-0.16820724054946,0.004667471768904363,0.011223763031509293,-0.07725384715022154,0.0,70.0,255.0,255.0,255.0
45,2.25,7.5131003918068195,-10.47169979097507,-0.1913005942872391,0.011781922880089724,0.025403237698782277,-0.17206163641022482,0.004828807128998136,0.01121536831139025,-0.07689572223373298,0.0,70.0,255.0,255.0,255.0
46,2.3000000000000003,7.513695548774167,-10.470415596641493,-0.1999998019302028,0.012026784977097194,0.025963393264216705,-0.1758968127728333,0.004932602860918678,0.011176276782798311,-0.07649917980026288,0.0,70.0,255.0,255.0,255.0
47,2.35,7.514303070304529,-10.469103451648648,-0.20889027556452244,0.012275183166181591,0.02652086537706211,-0.1797115543902511,0.00497837729254158,0.01112210352260945,-0.07608493202232447,0.0,70.0,255.0,255.0,255.0
48,2.4000000000000004,7.514923067090785,-10.467763510103786,-0.21797095736922792,0.012524622706351352,0.02707560361647765,-0.18350530597506576,0.004976079900842478,0.011080315996281342,-0.07568043835906313,0.0,70.0,255.0,255.0,255.0
49,2.45,7.515555532575164,-10.466395891287,-0.22724080616202902,0.01277279115626584,0.027628896976690243,-0.18727959822615742,0.00492724807008571,0.011078877879988624,-0.0753288143103853,0.0,70.0,255.0,255.0,255.0
50,2.5,7.5162003462064115,-10.465000620406117,-0.23669891719184366,0.013017347513359923,0.028183491404476513,-0.1910381874061043,0.004825454412671348,0.011154385381217935,-0.07506835984726068,0.0,70.0,255.0,255.0,255.0
51,2.5500000000000003,7.5168572673265,-10.463577542146552,-0.24634462490263945,0.013255336597532974,0.028744335514812036,-0.19478643421088349,0.004672817873885293,0.011321003947450947,-0.07491806568753479,0.0,70.0,255.0,255.0,255.0
52,2.6,7.517525879866165,-10.462126186854636,-0.256177560612932,0.013484629300748452,0.029315591799221608,-0.19852999397485777,0.0045099687384642095,0.011523886236375347,-0.07487418864982054,0.0,70.0,255.0,255.0,255.0
53,2.6500000000000004,7.518205730256575,-10.46064598296663,-0.2661976243001252,0.013706333471379395,0.02989672413844957,-0.20227385307586554,0.004403018100074263,0.011669638608502453,-0.07491971638654837,0.0,70.0,255.0,255.0,255.0
54,2.7,7.518896513213303,-10.459136514440791,-0.27640494592051856,0.013924931110755878,0.030482555660071853,-0.2060219656135126,0.004416822664410347,0.011667438736218116,-0.07503089560825238,0.0,70.0,255.0,255.0,255.0
55,2.75,7.519598223367651,-10.457597727400623,-0.2867998208614765,0.01414801573782043,0.031063468012071382,-0.20977694263669078,0.004617347248192516,0.01141911813729024,-0.07518682905321983,0.0,70.0,255.0,255.0,255.0
56,2.8000000000000003,7.520311314787085,-10.456030167639584,-0.29738264018418764,0.01438666583557513,0.03162446747380088,-0.21354064851883459,0.005029925176369687,0.010885907892799196,-0.07536907027012596,0.0,70.0,255.0,255.0,255.0
57,2.85,7.521036889951208,-10.454435280653243,-0.30815388571335994,0.014651008255457398,0.0321520588013513,-0.21731384966370337,0.005579976191949498,0.010184123093459618,-0.07553924577932691,0.0,70.0,255.0,255.0,255.0
58,2.9000000000000004,7.5217764156126306,-10.452814961759449,-0.319114025150558,0.01494466345477008,0.03264287978314684,-0.22109457309676728,0.006132780100731594,0.009520197168555455,-0.0756389245329614,0.0,70.0,255.0,255.0,255.0
59,2.95,7.522531356296685,-10.451170992674928,-0.33026334302303667,0.015264286265530558,0.03310407851820685,-0.2248777421169995,0.006552687379546285,0.009097427780169198,-0.07560811607715823,0.0,70.0,255.0,255.0,255.0
60,3.0,7.523302844239184,-10.449504553907628,-0.34160179936225793,0.015599932192724708,0.03355262256116376,-0.2286553847044831,0.006713175242634151,0.00910909544913352,-0.07538432393984218,0.0,70.0,255.0,255.0,255.0
61,3.0500000000000003,7.524091349515958,-10.447815730418812,-0.353128881493485,0.015935603789793973,0.0340149880631202,-0.23241617451098373,0.006553681886067864,0.00964296355032701,-0.07494514041141431,0.0,70.0,255.0,255.0,255.0
62,3.1,7.524896404618163,-10.446103055101316,-0.3648434168133563,0.016255300381331494,0.03451691891619646,-0.23614989874562453,0.006134602017837665,0.010573374304811978,-0.07437059979467087,0.0,70.0,255.0,255.0,255.0
63,3.1500000000000004,7.525716879554091,-10.444364038527192,-0.37674387136804743,0.01654906399157774,0.0350723254936014,-0.23985323449045082,0.005582225133782259,0.011654141479766622,-0.07380365308067294,0.0,70.0,255.0,255.0,255.0
64,3.2,7.526551311017321,-10.442595822551956,-0.3888287402624014,0.01681352289470972,0.03568233306417312,-0.24353026405369183,0.005031914997744025,0.01263058906921799,-0.07338941397589394,0.0,70.0,255.0,255.0,255.0
65,3.25,7.527398231843562,-10.440795805220775,-0.4010968977734166,0.017052255491352142,0.036335384400523196,-0.2471921758880402,0.0046179704296100965,0.013264500067222684,-0.07326785653940515,0.0,70.0,255.0,255.0,255.0
66,3.3000000000000003,7.528256536566456,-10.438962284111904,-0.4135479578512054,0.01727531993767073,0.03700878307089539,-0.25085704970763234,0.004414834457655559,0.013428951194960348,-0.07350416761798817,0.0,70.0,255.0,255.0,255.0
67,3.35,7.529125763837329,-10.437094926913685,-0.42618260274417985,0.017493738937117698,0.03767827952001923,-0.25454259264983903,0.004397979372416927,0.013170491576453003,-0.07401387951748717,0.0,70.0,255.0,255.0,255.0
68,3.4000000000000004,7.530005910460168,-10.435194456159902,-0.4390022171161893,0.017715117874912423,0.03832583222854069,-0.25825843765938106,0.004502794888683326,0.012615125020865037,-0.0746300995080107,0.0,70.0,255.0,255.0,255.0
69,3.45,7.53089727562482,-10.433262343690831,-0.45200844651011796,0.01794401842598603,0.038939792022105735,-0.2620056026006401,0.004665853096774697,0.011900215942617365,-0.07518145412649946,0.0,70.0,255.0,255.0,255.0
70,3.5,7.531800312302766,-10.431300476957691,-0.4652027773762533,0.018181703184589892,0.03951585382280243,-0.265776583072031,0.004822961687622751,0.011164932255702809,-0.07550825922655324,0.0,70.0,255.0,255.0,255.0
71,3.5500000000000003,7.532715445943279,-10.429310758308551,-0.47858610481732106,0.018426314594748305,0.040056285247676016,-0.2695564285232954,0.0049342063894286525,0.010499693208032568,-0.07552490240337884,0.0,70.0,255.0,255.0,255.0
72,3.6,7.533642943762241,-10.427294848432924,-0.49215842022858286,0.018675123823532758,0.040565823143605684,-0.2733290733123689,0.004994412893033484,0.00994186218754578,-0.07525929006074183,0.0,70.0,255.0,255.0,255.0
73,3.6500000000000004,7.5345829583256325,-10.42525417599419,-0.505919012148558,0.018925755884051654,0.041050471466430594,-0.2770823575293696,0.0050048237503652615,0.009530673120750066,-0.074790540961861,0.0,70.0,255.0,255.0,255.0
74,3.7,7.535535519350646,-10.42318980128628,-0.5198666559815198,0.019175606198569284,0.04151889045568069,-0.280808127408555,0.004958472149230175,0.00931372198547109,-0.07420476951815469,0.0,70.0,255.0,255.0,255.0
75,3.75,7.5365005189454894,-10.421102286948623,-0.5339998248894134,0.01942160309897467,0.0419818436649777,-0.2845028344811851,0.004838154847686127,0.009327798883163041,-0.07358712520240118,0.0,70.0,255.0,255.0,255.0
76,3.8000000000000003,7.537477679660544,-10.418991616919783,-0.5483169394296383,0.019659421683337897,0.042451670343996994,-0.2881668399287951,0.004641626697488022,0.009580014899590594,-0.07299519712745672,0.0,70.0,255.0,255.0,255.0
77,3.85,7.538466461113823,-10.416857119914223,-0.562816508882293,0.019885765768723473,0.04293984515493676,-0.29180235419393075,0.004424369055389121,0.010018516550402978,-0.07246709543766716,0.0,70.0,255.0,255.0,255.0
78,3.9000000000000004,7.539466256237416,-10.41469763240429,-0.5774971748490314,0.02010185858887681,0.04345352199903729,-0.2954135494725618,0.004277910110506156,0.010544047298033377,-0.07205127976813719,0.0,70.0,255.0,255.0,255.0
79,3.95,7.540476646972711,-10.412511767714319,-0.5923578638295491,0.02031355677977409,0.0439942498847401,-0.29900748217074447,0.004293545019606881,0.011039208468766049,-0.07179844215988718,0.0,70.0,255.0,255.0,255.0
80,4.0,7.541497611915394,-10.410298207415815,-0.6073979230661058,0.020531213090837497,0.0445574428459139,-0.30259339368855054,0.0045723909490646975,0.011383825592403696,-0.07174323996375076,0.0,70.0,255.0,255.0,255.0
81,4.05,7.542529768281795,-10.408056023429728,-0.6226172031984042,0.02077079587468056,0.04513263244398047,-0.30618180616711954,0.005153086354159342,0.011514046728855476,-0.07189533472783394,0.0,70.0,255.0,255.0,255.0
82,4.1000000000000005,7.543574691502862,-10.405784944171417,-0.6380161036828178,0.02104652172625343,0.045708847518799445,-0.30978292716133393,0.005906339324024401,0.011467707974333052,-0.07222878506508712,0.0,70.0,255.0,255.0,255.0
83,4.15,7.54463442045442,-10.403485138677848,-0.6535954959145376,0.021361429807083,0.046279403241413775,-0.31340468467362825,0.006604468208859515,0.011328662160714487,-0.07268620476741372,0.0,70.0,255.0,255.0,255.0
84,4.2,7.54571083448357,-10.401157003847276,-0.6693565721501806,0.021706968547139383,0.04684171373487089,-0.3170515476380753,0.007021287166075751,0.011183243672618914,-0.0731957741966105,0.0,70.0,255.0,255.0,255.0
85,4.25,7.546805117309134,-10.39880096730436,-0.6853006506783451,0.022063558523690574,0.047397727608675666,-0.3207242620932893,0.006932327976905128,0.011128880100663707,-0.07369986832254094,0.0,70.0,255.0,255.0,255.0
86,4.3,7.547917190335939,-10.396417231086408,-0.7014289983595096,0.022400201344829895,0.047954601744937264,-0.3244215344703294,0.0062384288183281456,0.011216572078609488,-0.07415726349504492,0.0,70.0,255.0,255.0,255.0
87,4.3500000000000005,7.549045137443617,-10.394005507129867,-0.717742804125378,0.02268740140552339,0.048519384816536615,-0.3281399884427938,0.0051165207333170315,0.011389719150933786,-0.07450140066562749,0.0,70.0,255.0,255.0,255.0
88,4.4,7.550185930476491,-10.391565292604755,-0.7342429972037889,0.0229118534181616,0.04909357366003064,-0.33187167453689215,0.003899648289173996,0.011543075620323862,-0.07463942563770143,0.0,70.0,255.0,255.0,255.0
89,4.45,7.551336322785433,-10.389096149763864,-0.7509299715790673,0.023077366234440788,0.049673692378569,-0.33560393100656394,0.0029268541025473382,0.011580730593152566,-0.07448568716089676,0.0,70.0,255.0,255.0,255.0
90,4.5,7.552493667099935,-10.386597923366898,-0.7678033903044453,0.023204538828416332,0.0502516467193459,-0.3393202432529818,0.002526269172076212,0.01140470994958065,-0.07395332404209753,0.0,70.0,255.0,255.0,255.0
91,4.55,7.553656776668275,-10.38407098509193,-0.7848619959043655,0.02332999315164841,0.050814163373527066,-0.3429992634107737,0.0028602846191994047,0.010972578709100844,-0.07302078611720608,0.0,70.0,255.0,255.0,255.0
92,4.6000000000000005,7.5548266664151,-10.381516507029545,-0.8021033166455227,0.023490567290336273,0.051348904590255984,-0.34662232186470243,0.0037776942919620637,0.010375186982436446,-0.07184822299507454,0.0,70.0,255.0,255.0,255.0
93,4.65,7.556005833397308,-10.378936094632904,-0.8195242280908357,0.023707762580844616,0.05185168207177071,-0.35018408571028115,0.004965982923899048,0.009778102960034118,-0.07071599944169504,0.0,70.0,255.0,255.0,255.0
94,4.7,7.557197442673185,-10.376331338822368,-0.8371217252165508,0.023987165582726178,0.052326714886259396,-0.35369392180887194,0.006105235817699395,0.009346607848215172,-0.0699132254114887,0.0,70.0,255.0,255.0,255.0
95,4.75,7.558404549955581,-10.373703423144278,-0.8548936202717229,0.024318286162614555,0.05278634285659223,-0.35717540825143,0.006890613981980209,0.0092442614498367,-0.06972282618502579,0.0,70.0,255.0,255.0,255.0
96,4.800000000000001,7.559629271289446,-10.371052704536709,-0.8728392660416938,0.0246762269809242,0.053251141031243066,-0.3606662044273745,0.007154372099371642,0.009546912618141334,-0.0702739043905165,0.0,70.0,255.0,255.0,255.0
97,4.8500000000000005,7.560872172653673,-10.368378309041153,-0.8909602407144603,0.02503372337255172,0.05374103411840636,-0.36420279869048167,0.006941746388378078,0.010145057395938295,-0.0713767563051082,0.0,70.0,255.0,255.0,255.0
98,4.9,7.562132643626701,-10.365678601124868,-0.909259545910742,0.025370401619762006,0.054265646770836895,-0.36780388005788534,0.006386536565194945,0.010828148905162038,-0.0726638493227072,0.0,70.0,255.0,255.0,255.0
99,4.95,7.56340921281565,-10.36295174436407,-0.9277406287202489,0.025672377029071214,0.054823849008922565,-0.3714691836227524,0.005626002160763477,0.011380064121091493,-0.07375586340764295,0.0,70.0,255.0,255.0,255.0
100,5.0,7.5646998813296085,-10.360196216223976,-0.9464064642730172,0.025933001835838354,0.055403653182946044,-0.37517946639864963,0.004791274899496045,0.011582253573472201,-0.07428338986590344,0.0,70.0,255.0,255.0,255.0
101,5.050000000000001,7.566002512999233,-10.357411379045775,-0.9652585753601138,0.02615150451902082,0.055982074366269785,-0.37889752260934273,0.0039739752351053426,0.011326484104223766,-0.07405702289410288,0.0,70.0,255.0,255.0,255.0
102,5.1000000000000005,7.5673150317815105,-10.354598008787349,-0.9842962165339515,0.02633039935934889,0.05653630159336842,-0.3825851686880599,0.003252522952568171,0.010729991358715552,-0.07321556763524306,0.0,70.0,255.0,255.0,255.0
103,5.15,7.568635552935168,-10.351757748886438,-1.0035170922289198,0.026476756814277635,0.05705507350214134,-0.38621907937286704,0.002733185499792512,0.010023893495691993,-0.07205778741666835,0.0,70.0,255.0,255.0,255.0
104,5.2,7.569962707462938,-10.348892501437135,-1.0229181244712382,0.02660371790932814,0.05753869094293762,-0.38979094742972675,0.0025292170775514933,0.009439709095104831,-0.07088989438459592,0.0,70.0,255.0,255.0,255.0
105,5.25,7.571295924726101,-10.346003879792145,-1.0424961869718925,0.026729678522032785,0.05799904441165182,-0.3933080688113266,0.0027442864205085016,0.009210686958915915,-0.07001559570345428,0.0,70.0,255.0,255.0,255.0
106,5.300000000000001,7.572635675315142,-10.34309259699597,-1.0622489313523709,0.02687814655137899,0.05845975963882921,-0.3967925070000722,0.003411265420982801,0.009453724391050855,-0.06960355181850897,0.0,70.0,255.0,255.0,255.0
107,5.3500000000000005,7.573983739381239,-10.340157903828262,-1.0821754376718997,0.027070805064131065,0.05894441685075691,-0.4002684239931775,0.0044028471163137795,0.010049569243975043,-0.06959370042654012,0.0,70.0,255.0,255.0,255.0
108,5.4,7.575342755821555,-10.337198155310894,-1.1022757737516886,0.027318431263010368,0.059464716563226716,-0.4037518770427262,0.005483518638804696,0.01076168503804098,-0.06983395205955034,0.0,70.0,255.0,255.0,255.0
109,5.45,7.57671558250754,-10.334211432171939,-1.1225506253761723,0.027619156928011535,0.06002058535456101,-0.40725181919913256,0.006398667990747953,0.011354526071727378,-0.07017695998636775,0.0,70.0,255.0,255.0,255.0
110,5.5,7.578104671514356,-10.331196096775438,-1.1430009556716019,0.027958298062085163,0.060600169170399454,-0.41076957304136297,0.006899551446348795,0.011591035885949452,-0.07047026461657335,0.0,70.0,255.0,255.0,255.0
111,5.550000000000001,7.579511412313749,-10.328151415254899,-1.1636275826803086,0.028309112072646414,0.06117968894315595,-0.4142988456607899,0.006860963080246307,0.011352044905699188,-0.07062322204636207,0.0,70.0,255.0,255.0,255.0
112,5.6000000000000005,7.5809355827216205,-10.325078127881122,-1.1844308402376809,0.028644394370109794,0.06173537366096937,-0.4178318952459992,0.006384200470765933,0.010757139590822362,-0.07065149546017224,0.0,70.0,255.0,255.0,255.0
113,5.65,7.58237585175076,-10.321977877888802,-1.2054107722049086,0.028947532119723007,0.06225540290223819,-0.4213639952068071,0.005684628057078811,0.010043958426209088,-0.07060286122149151,0.0,70.0,255.0,255.0,255.0
114,5.7,7.583830335933593,-10.318852587590898,-1.2265672397583616,0.029212857175817675,0.06273976950359028,-0.4248921813681483,0.0049893976728832,0.009448760045493998,-0.07050986473766674,0.0,70.0,255.0,255.0,255.0
115,5.75,7.585297137468341,-10.315703900938443,-1.2478999903417234,0.029446471887011327,0.06320027890678759,-0.4284149816805738,0.004537507794388773,0.00920913220259223,-0.07039928988639144,0.0,70.0,255.0,255.0,255.0
116,5.800000000000001,7.586774983122294,-10.31253255970022,-1.269408737926419,0.029666607955256552,0.0636606827238495,-0.43193211035678747,0.0044571433299722685,0.00944466941259492,-0.07029013342263468,0.0,70.0,255.0,255.0,255.0
117,5.8500000000000005,7.588263798263867,-10.309337832666058,-1.2910932013774021,0.029892186220008554,0.06414474584804708,-0.43544399502283726,0.0046557822360071555,0.010036464466622874,-0.07020031773268265,0.0,70.0,255.0,255.0,255.0
118,5.9,7.589764201744295,-10.306118085115415,-1.3129531374287027,0.030132186178857268,0.06466432917051179,-0.43895214213005573,0.004944216218305542,0.010747889182916026,-0.07015460305443977,0.0,70.0,255.0,255.0,255.0
119,5.95,7.591277016881753,-10.302871399749007,-1.3349884155904077,0.03038660784183911,0.06521953476633868,-0.44245945532828124,0.0051428555368993045,0.011343860319534826,-0.07018358106285483,0.0,70.0,255.0,255.0,255.0
120,6.0,7.592802862528479,-10.299596131638781,-1.3571990829615308,0.030646471732547198,0.06579871520246527,-0.4459705002363412,0.005062491969454186,0.011588472598944577,-0.07033257583790586,0.0,70.0,255.0,255.0,255.0
121,6.050000000000001,7.594341664055007,-10.29629152822876,-1.3795854656140418,0.030892857038784527,0.06637838202623314,-0.4494927129120718,0.00461060345937625,0.011362704016981695,-0.07061624426321078,0.0,70.0,255.0,255.0,255.0
122,6.1000000000000005,7.595892148232357,-10.292958293436158,-1.402148354252738,0.031107532078484823,0.06693498560416344,-0.4530321246626623,0.003915374547425188,0.010782410468834769,-0.0709472336090089,0.0,70.0,255.0,255.0,255.0
123,6.15,7.597452417262856,-10.289598029668344,-1.424888678080308,0.031284394493527046,0.06745662307311662,-0.4565874362729727,0.0032158031070039783,0.010079076917435259,-0.07117872656072777,0.0,70.0,255.0,255.0,255.0
124,6.2,7.59902058768171,-10.286212631128846,-1.4478070978800353,0.03142911238918522,0.06794289329590697,-0.46014999731873507,0.0027390403195326485,0.00948237210209868,-0.07116923758434535,0.0,70.0,255.0,255.0,255.0
125,6.25,7.600595328501774,-10.282803740338753,-1.4709036778121816,0.03155829852548031,0.06840486028332649,-0.46370436003140725,0.002700449736714461,0.009220940104093245,-0.07077446270598031,0.0,70.0,255.0,255.0,255.0
126,6.300000000000001,7.602176417534258,-10.279372145100513,-1.494177533883176,0.03169915736285667,0.0688649873063163,-0.4672274435893331,0.0032013286125121,0.009411087946453733,-0.06993729045710051,0.0,70.0,255.0,255.0,255.0
127,6.3500000000000005,7.60376524423806,-10.275917241608122,-1.5176264221711149,0.03187843138673152,0.06934596907797186,-0.4706980890771173,0.004116472487503131,0.009948485733701773,-0.06881429095497715,0.0,70.0,255.0,255.0,255.0
128,6.4,7.605364260672931,-10.272437548192716,-1.5412473427908877,0.03211080461160698,0.06985983587968647,-0.4741088726848308,0.005197140119062027,0.010621211072248116,-0.0676886259006304,0.0,70.0,255.0,255.0,255.0
129,6.45,7.606976324699221,-10.268931258020153,-1.565037309439598,0.03239814539863772,0.07040809018519667,-0.47746695166718034,0.006188722112554501,0.011220077846019194,-0.06684501638516416,0.0,70.0,255.0,255.0,255.0
130,6.5,7.608604075212795,-10.265396739174196,-1.5889940379576057,0.03272967682286243,0.07098184366428839,-0.48079337432334723,0.006855709083630757,0.01154380428118884,-0.06655353604214653,0.0,70.0,255.0,255.0,255.0
131,6.550000000000001,7.610249292381507,-10.261833073653724,-1.6131166468719327,0.0330837163070008,0.07156247061331555,-0.484122305271395,0.0070707953771176335,0.011486370769553389,-0.06694219297613824,0.0,70.0,255.0,255.0,255.0
132,6.6000000000000005,7.611912446843495,-10.258240492112865,-1.6374062684847452,0.033436756360574194,0.07213048074124373,-0.48748759362096106,0.0068668473905297844,0.011109054521263317,-0.06786665152205273,0.0,70.0,255.0,255.0,255.0
133,6.65,7.6135929680175645,-10.2546200255796,-1.6618654062340288,0.03377040104605378,0.07267337606544189,-0.49090897042360027,0.006347524529370929,0.01055067086888073,-0.0690340425638869,0.0,70.0,255.0,255.0,255.0
134,6.7,7.6152894869481,-10.25097315450632,-1.6864971655271053,0.034071508813511286,0.0731855478281318,-0.49439099787734975,0.005626071230313556,0.009950603228148225,-0.07013843580272461,0.0,70.0,255.0,255.0,255.0
135,6.75,7.617000118898916,-10.247301470796787,-1.7113045060217638,0.03433300816908513,0.07366843638825671,-0.4979228140038727,0.004808741899964275,0.009439833447011381,-0.07088738380147674,0.0,70.0,255.0,255.0,255.0
136,6.800000000000001,7.618722787765009,-10.243606310867495,-1.7362894469274925,0.034552383003507714,0.07412953117283294,-0.5014797362574974,0.003973951417179933,0.009096202867020509,-0.07112116374592414,0.0,70.0,255.0,255.0,255.0
137,6.8500000000000005,7.620455357199266,-10.239888517679503,-1.7614524796475135,0.034730403310803126,0.07457805667495876,-0.5050349303784651,0.00321334074797619,0.008931659817434934,-0.0708881472456957,0.0,70.0,255.0,255.0,255.0
138,6.9,7.622195828096089,-10.2361485052,-1.786792939965339,0.03487371707830533,0.07502269715457643,-0.508568550982067,0.002658076448991409,0.008940580977601087,-0.07032532039372708,0.0,70.0,255.0,255.0,255.0
139,6.95,7.623942728907097,-10.232386247964046,-1.8123093347457202,0.03499621095570227,0.07547211477271887,-0.5120674624178378,0.002445454504940159,0.009116996421276724,-0.06957503993794134,0.0,70.0,255.0,255.0,255.0
140,7.0,7.625695449191659,-10.228601293722727,-1.8379996862071228,0.03511826252879935,0.0759343967967041,-0.5155260549758611,0.002709323316896217,0.00945285260645079,-0.06877692875186803,0.0,70.0,255.0,255.0,255.0
141,7.050000000000001,7.627454555159977,-10.224792808284375,-1.8638619402433063,0.03526714328739189,0.07641740003336395,-0.5189451552930247,0.003494937415737809,0.009929843402645133,-0.06802490029202968,0.0,70.0,255.0,255.0,255.0
142,7.1000000000000005,7.6292221635203985,-10.220959553719391,-1.8898942017364253,0.03546775627037313,0.07692738113696862,-0.5223285450050641,0.004634474931730637,0.010483467046817907,-0.0673779622923254,0.0,70.0,255.0,255.0,255.0
143,7.15,7.631001330787014,-10.217100070170678,-1.9160947947438127,0.03573059078056495,0.07746574673804574,-0.5256829515222572,0.0058229668766784926,0.011006166060489875,-0.06690999054626001,0.0,70.0,255.0,255.0,255.0
144,7.2,7.632795222598455,-10.213212979045586,-1.942462496888651,0.03605005295804098,0.07802799774301761,-0.5290195440596901,0.006740362498813823,0.011382436729157064,-0.06670657927074775,0.0,70.0,255.0,255.0,255.0
145,7.25,7.634606336082818,-10.209297270396377,-1.9689967491497817,0.036404627030446335,0.07860399041096144,-0.532353609449332,0.007073964833015367,0.011504746803225885,-0.06685692916321706,0.0,70.0,255.0,255.0,255.0
146,7.300000000000001,7.6364356853015,-10.20535258000449,-1.9956978578335842,0.036757449441342516,0.0791784724233402,-0.5357052369760118,0.006672499385729225,0.011323910701577233,-0.06738697401389437,0.0,70.0,255.0,255.0,255.0
147,7.3500000000000005,7.6382820810269525,-10.201379423154043,-2.022567272847383,0.03707187696901926,0.07973638148111917,-0.5390923068507214,0.0056986429749272816,0.010898947518356294,-0.06815646046132162,0.0,70.0,255.0,255.0,255.0
148,7.4,7.640142872998402,-10.197378941856378,-2.0496070885186564,0.037327313738835244,0.08026836717517583,-0.542520883022144,0.004481011754986497,0.010351118416984662,-0.06891658222285546,0.0,70.0,255.0,255.0,255.0
149,7.45,7.642014812400836,-10.193352586436525,-2.0768193611495973,0.03751997814451791,0.08077149332281763,-0.545983965073007,0.0033591561056312003,0.009812743842907423,-0.06940638190684467,0.0,70.0,255.0,255.0,255.0
150,7.5,7.643894870812853,-10.189301792524097,-2.104205485025957,0.037663229349398364,0.08124964155946657,-0.5494615212128284,0.002666798703465645,0.009416178829546595,-0.06935936391934128,0.0,70.0,255.0,255.0,255.0
151,7.550000000000001,7.645781135335776,-10.185227622280578,-2.13176551327088,0.03778665801486447,0.08171311120577229,-0.5529199014649411,0.0025811256477048516,0.009234000970970158,-0.06865340411876808,0.0,70.0,255.0,255.0,255.0
152,7.6000000000000005,7.64767353661434,-10.18113048140352,-2.159497475172451,0.03792134191416885,0.08217304165656358,-0.5563268616247052,0.0030019088789856596,0.009237106515413984,-0.06748337534960847,0.0,70.0,255.0,255.0,255.0
153,7.65,7.649573269527193,-10.177010318114922,-2.1873981994333507,0.03808684890276304,0.08263682185731369,-0.5596682389999019,0.003702869553556809,0.00935383579570015,-0.06621734023575243,0.0,70.0,255.0,255.0,255.0
154,7.7,7.651482221504616,-10.172866799217788,-2.2154642990724414,0.03829162886952453,0.0831084252361336,-0.5629485956482805,0.004455926831870016,0.009512788364496316,-0.06522724042103967,0.0,70.0,255.0,255.0,255.0
155,7.75,7.653402432414145,-10.168699475591309,-2.2436930589981787,0.03853244158595004,0.08358810069376332,-0.5661909630420059,0.005030868324507054,0.00963855652624801,-0.06488155921551275,0.0,70.0,255.0,255.0,255.0
156,7.800000000000001,7.655335465663211,-10.164507989148412,-2.272083395376642,0.038794715701975235,0.0840722808887584,-0.5694367515698318,0.005297450237939927,0.009687311523087772,-0.06535978247170782,0.0,70.0,255.0,255.0,255.0
157,7.8500000000000005,7.657281903984343,-10.160292247502433,-2.300636734155162,0.03906218660974403,0.0845568318460721,-0.5727269412891767,0.005298290273980655,0.009673558821532424,-0.06646015469047306,0.0,70.0,255.0,255.0,255.0
158,7.9,7.6592416843241855,-10.156052305963804,-2.3293560895055596,0.0393245447293733,0.08503963677091164,-0.5760827670388791,0.005141262944796665,0.0096317668377921,-0.067783101123009,0.0,70.0,255.0,255.0,255.0
159,7.95,7.66121435845728,-10.151788283825342,-2.35824501085905,0.0395763129042237,0.08552000852985131,-0.5795052514014776,0.004924735634315169,0.009589902231788017,-0.06892530908935157,0.0,70.0,255.0,255.0,255.0
160,8.0,7.663199315614608,-10.14750030511082,-2.3873066146457074,0.03981701829280482,0.08599862699409044,-0.5829752979478142,0.004749681377447246,0.009577567092833306,-0.06949444583859155,0.0,70.0,255.0,255.0,255.0
161,8.05,7.6651960602865605,-10.143188421125933,-2.4165425406538312,0.04005128104196842,0.08647776523913464,-0.5864546959853367,0.00467513400659314,0.009610039652052649,-0.06928760585482863,0.0,70.0,255.0,255.0,255.0
162,8.1,7.667204443718805,-10.138852528586906,-2.445952084244241,0.04028453169346413,0.08695963095929571,-0.5899040585332971,0.004683997624965741,0.009668658199046831,-0.06844682173952066,0.0,70.0,255.0,255.0,255.0
163,8.15,7.669224513455907,-10.134492458030003,-2.475532946507161,0.040519680804465,0.08744463105903932,-0.5932993781592888,0.004733850228966219,0.009719096850169251,-0.06727943942133052,0.0,70.0,255.0,255.0,255.0
164,8.200000000000001,7.671256411799251,-10.130108065481002,-2.50528202206017,0.040757916716360754,0.08793154064431263,-0.5966320024754301,0.004791331096942741,0.009727602708231586,-0.06609809664808175,0.0,70.0,255.0,255.0,255.0
165,8.25,7.673300305127543,-10.125699303965572,-2.535196146754704,0.04099881391415927,0.08841739132986248,-0.599909187824097,0.004822434137885523,0.009651175104785636,-0.06521263878198624,0.0,70.0,255.0,255.0,255.0
166,8.3,7.675356293190667,-10.121266326348016,-2.5652729408425796,0.041240160130149306,0.0888966581547912,-0.6031532663536288,0.00480872702235402,0.009472529869825053,-0.0647953418946301,0.0,70.0,255.0,255.0,255.0
167,8.35,7.677424321140558,-10.116809638150093,-2.595511473390067,0.04147968661639467,0.08936464431684499,-0.60638872201356,0.004765719226185183,0.009251808380383864,-0.0647852856241471,0.0,70.0,255.0,255.0,255.0
168,8.4,7.679504261852307,-10.112329861916331,-2.6259118130439356,0.041716732052767824,0.08982183899282958,-0.6096317949160435,0.0047233361392784445,0.009091845759812145,-0.06502809224047112,0.0,70.0,255.0,255.0,255.0
169,8.450000000000001,7.681595994345835,-10.10782745425081,-2.656474652881671,0.04195202023032252,0.0902738288928262,-0.6128915312376071,0.004709939978386757,0.009092973650126623,-0.06537470525085354,0.0,70.0,255.0,255.0,255.0
170,8.5,7.683699463875339,-10.103302479027048,-2.6872009661676963,0.0421877260506065,0.09073113635784225,-0.6161692654411288,0.004760582071217101,0.009365704517172446,-0.06567103632897364,0.0,70.0,255.0,255.0,255.0
171,8.55,7.685814766950895,-10.098754340615026,-2.718091579425784,0.04242807843744423,0.09121039934454345,-0.6194586348705045,0.004889957902687314,0.009953640401860753,-0.06582547878104528,0.0,70.0,255.0,255.0,255.0
172,8.6,7.687942271719083,-10.094181439092594,-2.7491468296547468,0.04267672184087523,0.09172650039802832,-0.6227518133192333,0.005053125469967057,0.010722336716106895,-0.06585390056645934,0.0,70.0,255.0,255.0,255.0
173,8.65,7.690082439134983,-10.089581690575223,-2.7803667607577074,0.04293339098444093,0.09228263301615414,-0.6260440249271504,0.005172805214836984,0.011434452511771553,-0.06580464849323953,0.0,70.0,255.0,255.0,255.0
174,8.700000000000001,7.692235610817527,-10.084953175790979,-2.811751232147462,0.04319400236235893,0.09286994564920548,-0.6293322781685573,0.005175622276887282,0.01185444208644526,-0.0657106814159647,0.0,70.0,255.0,255.0,255.0
175,8.75,7.694401839371219,-10.080294696010302,-2.843299988574563,0.04345095321212966,0.09346807722479866,-0.6326150930687469,0.004987265549782904,0.011746053446159976,-0.06559915995780763,0.0,70.0,255.0,255.0,255.0
176,8.8,7.69658070613874,-10.075606368068499,-2.8750127414543365,0.04369272891733722,0.09404455099382147,-0.6358921941643381,0.004577641832526069,0.011005309455924817,-0.0654893164076853,0.0,70.0,255.0,255.0,255.0
177,8.85,7.6987711122629525,-10.07089024091092,-2.906889207990997,0.04390871739538227,0.09456860817039114,-0.6391640247095154,0.00402355045512337,0.009825091841797473,-0.06539911211040916,0.0,70.0,255.0,255.0,255.0
178,8.9,7.700971577878279,-10.06614950725146,-2.938929143925288,0.04409508396284956,0.09502706017800122,-0.642432105375379,0.0034645106005370963,0.00856577542727166,-0.06535331378647591,0.0,70.0,255.0,255.0,255.0
179,8.950000000000001,7.7031806206592375,-10.06138753489312,-2.971132418528535,0.04425516845543598,0.09542518571311831,-0.645699356088163,0.003040344806581885,0.007594805790134274,-0.06538256908532603,0.0,70.0,255.0,255.0,255.0
180,9.0,7.705397094723822,-10.056606988680148,-3.0034990795341043,0.044399118443507746,0.09578654075701465,-0.6489703622839116,0.0028823370823438665,0.007278053726089695,-0.06553232384010066,0.0,70.0,255.0,255.0,255.0
181,9.05,7.707620532503588,-10.051808880817418,-3.036029454756926,0.044543402163670365,0.09615299108572728,-0.652252588472173,0.0030532743015676544,0.0077922080205183875,-0.06581725558789664,0.0,70.0,255.0,255.0,255.0
182,9.1,7.709851434940189,-10.046991689571575,-3.0687243383813216,0.04470444587366451,0.09656576155906649,-0.6555520878427012,0.003488197183987296,0.00892741246829587,-0.06614965099149828,0.0,70.0,255.0,255.0,255.0
183,9.15,7.712090977090955,-10.042152304661512,-3.101584663541196,0.044892221882069094,0.09704573233255687,-0.6588675535713229,0.004052788745845248,0.010271490067559341,-0.06638209636093961,0.0,70.0,255.0,255.0,255.0
184,9.200000000000001,7.714340657128396,-10.03728711633832,-3.134611093738454,0.045109724748249036,0.09759291056582242,-0.6621902974787952,0.0046035113176579046,0.011406987432849292,-0.06637246881653347,0.0,70.0,255.0,255.0,255.0
185,9.25,7.71660194956578,-10.03239301360493,-3.1678036932890756,0.045352573013834885,0.0981864310758418,-0.6655048004529762,0.0049953674736258336,0.011921778270540528,-0.06597560062591157,0.0,70.0,255.0,255.0,255.0
186,9.3,7.71887591442978,-10.027468473230735,-3.2011615737837515,0.04560926149561162,0.09878508839287647,-0.6687878575413864,0.0051497737813654965,0.011605998320796118,-0.06513406217290019,0.0,70.0,255.0,255.0,255.0
187,9.35,7.721162875715341,-10.022514504765642,-3.2346824790432143,0.045867550391971434,0.09934703090792141,-0.6720182066702662,0.005107297171669245,0.010636074136449736,-0.06400582704713109,0.0,70.0,255.0,255.0,255.0
188,9.4,7.723462669468977,-10.017533770139943,-3.268363394450778,0.046119991212778544,0.09984869580652145,-0.6751884402460995,0.004959858892039648,0.00937744845224131,-0.06287643596798453,0.0,70.0,255.0,255.0,255.0
189,9.450000000000001,7.725774874836619,-10.01252963518499,-3.302201323067824,0.0463635362811754,0.10028477575314554,-0.6783058502670647,0.004799409457323378,0.008197104617302386,-0.06203310343431134,0.0,70.0,255.0,255.0,255.0
190,9.5,7.728099023097094,-10.007505292564629,-3.3361939794774846,0.04659993215851088,0.10066840626825169,-0.6813917505895306,0.004728174375312477,0.007454786572047567,-0.06174923636037555,0.0,70.0,255.0,255.0,255.0
191,9.55,7.73043486805247,-10.002462794558165,-3.3703404981267773,0.04683635371870665,0.1010302544103503,-0.6844807739031022,0.004800404465932218,0.007343146016403068,-0.06215409478778078,0.0,70.0,255.0,255.0,255.0
192,9.600000000000001,7.732782658468965,-9.997402267123594,-3.404642056867795,0.0470799726051041,0.101402720869892,-0.6876071600683087,0.004961681728055112,0.007759246697602862,-0.06309808977076337,0.0,70.0,255.0,255.0,255.0
193,9.65,7.73514286531298,-9.992322522471175,-3.439101214133608,0.04733252189151216,0.10180617908011058,-0.6907905828801786,0.005109547247528212,0.008468599572708513,-0.06427943249476264,0.0,70.0,255.0,255.0,255.0
194,9.700000000000001,7.737515910658116,-9.987221649215583,-3.4737211151558127,0.047590927329856925,0.10224958082716284,-0.694035103317785,0.0051517646062038125,0.00923750785020161,-0.06538285637427421,0.0,70.0,255.0,255.0,255.0
195,9.75,7.739901958045966,-9.982097564388459,-3.5085047244653866,0.04784769835213254,0.10272992986513074,-0.697328868517606,0.004995990969369757,0.00983110341294946,-0.06610344460842299,0.0,70.0,255.0,255.0,255.0
196,9.8,7.742300680493329,-9.97694865622907,-3.5434540020075733,0.0480905264267939,0.10323269116845779,-0.7006454477786273,0.004601522107972045,0.010115869828730695,-0.06627678478272614,0.0,70.0,255.0,255.0,255.0
197,9.850000000000001,7.744711010688645,-9.971774295271613,-3.5785692692432494,0.048307850562929744,0.10374151684800381,-0.7039565469958786,0.004047747476843,0.010131507839261644,-0.06597085815847059,0.0,70.0,255.0,255.0,255.0
198,9.9,7.747131465549622,-9.966574504544269,-3.613849656707161,0.0484953011744782,0.10424584195238396,-0.7072425335944743,0.0034810197162116197,0.00998190616972039,-0.0653559506035073,0.0,70.0,255.0,255.0,255.0
199,9.950000000000001,7.749560540806093,-9.961349711076375,-3.649293522602697,0.048655952534550906,0.10473970746497585,-0.7104921420562293,0.003046306011889044,0.009760463047925327,-0.06460927060252253,0.0,70.0,255.0,255.0,255.0
200,10.0,7.7519970608030775,-9.956100533797771,-3.684898870912784,0.048799931775667105,0.10522188825717649,-0.7137034606547266,0.0028798430999898983,0.009560753156101498,-0.06391698520564759,0.0,70.0,255.0,255.0,255.0
201,10.05,7.75444053398366,-9.950827522250657,-3.7206638686681694,0.048943936844549896,0.105695782780586,-0.7168838405767941,0.0030473066352953992,0.009439435275737651,-0.06339051433328358,0.0,70.0,255.0,255.0,255.0
202,10.100000000000001,7.7568914544875325,-9.945530955519713,-3.7565872549704635,0.049104662439196645,0.10616583178475025,-0.7200425120880549,0.003482852839287176,0.009393789545697473,-0.06301568039268624,0.0,70.0,255.0,255.0,255.0
203,10.15,7.759351000227579,-9.940210939072182,-3.792668119876975,0.04929222212847861,0.10663516173515575,-0.7231854086160627,0.0040500102510776514,0.009405547310059603,-0.06274207977661206,0.0,70.0,255.0,255.0,255.0
204,10.200000000000001,7.76182067670038,-9.934867439346197,-3.82890579583207,0.04950966346430441,0.10710638651575621,-0.7263167200657161,0.004603524167912099,0.009466840423222322,-0.06253194932734907,0.0,70.0,255.0,255.0,255.0
205,10.25,7.76430196657401,-9.929500300420607,-3.8652997918835466,0.04975257454526982,0.10758184577747798,-0.7294386035487976,0.00499661798363249,0.009577911934499639,-0.06233267051261038,0.0,70.0,255.0,255.0,255.0
206,10.3,7.766795934154907,-9.92410925476845,-3.9018496561869496,0.05000932526266766,0.10806417770920618,-0.7325499871169772,0.005149764170475635,0.009733102353592926,-0.06211509727847009,0.0,70.0,255.0,255.0,255.0
207,10.350000000000001,7.769302899100277,-9.918693882649686,-3.9385547905952443,0.05026755096231739,0.10855515601283727,-0.7356501132766446,0.005104477528661278,0.00989333397836134,-0.06192464870968806,0.0,70.0,255.0,255.0,255.0
208,10.4,7.771822689251139,-9.913253739167166,-3.975414667514614,0.050519773015533787,0.10905351110704231,-0.738742451987946,0.004954463755080241,0.009995904592230431,-0.06183666269068411,0.0,70.0,255.0,255.0,255.0
209,10.450000000000001,7.77435487640183,-9.907788531538982,-4.012429035794039,0.05076299733782541,0.10955474647206032,-0.7418337795457131,0.004793396850999443,0.009978888544814879,-0.06191001833464327,0.0,70.0,255.0,255.0,255.0
210,10.5,7.776898988984922,-9.90229826451996,-4.049598045469185,0.05099911270063373,0.1100513999615238,-0.7449334538214103,0.004725666318172728,0.009779627077755038,-0.062204267475785,0.0,70.0,255.0,255.0,255.0
211,10.55,7.779454787671893,-9.89678339154283,-4.08692238117618,0.05123556396964268,0.11053270917983582,-0.7480542062932916,0.004806410574964559,0.009374355775904064,-0.06273669562073536,0.0,70.0,255.0,255.0,255.0
212,10.600000000000001,7.782022545381886,-9.891244993601976,-4.1244034660985145,0.05147975375813019,0.1109888355391142,-0.7512071233834838,0.0049783046437212874,0.008834646102506838,-0.06340488560834245,0.0,70.0,255.0,255.0,255.0
213,10.65,7.784602763047706,-9.885684507988918,-4.162043093514528,0.05173339443401481,0.1114161737900865,-0.7543946948541258,0.005133906291021617,0.008289901921187948,-0.06403043029949984,0.0,70.0,255.0,255.0,255.0
214,10.700000000000001,7.787195884825287,-9.880103376222968,-4.199842935583927,0.05199314438723235,0.111817825731233,-0.7576101664134338,0.005175802181511813,0.007870379289975915,-0.06443571626117972,0.0,70.0,255.0,255.0,255.0
215,10.75,7.78980207748643,-9.874502725415795,-4.237804110155872,0.05225097465216599,0.1122032117190841,-0.7608382664802438,0.005004772686856285,0.007695561106046966,-0.06445827823249317,0.0,70.0,255.0,255.0,255.0
216,10.8,7.792420982290504,-9.86888305505106,-4.2759267622319515,0.05249362165591798,0.1125873818418377,-0.7640559942366831,0.004577507282998994,0.007823274076912412,-0.06402380788435025,0.0,70.0,255.0,255.0,255.0
217,10.850000000000001,7.795051439652021,-9.86324398723161,-4.31420970957954,0.05270872538046589,0.11298553912677534,-0.7672406472686788,0.003984075458518532,0.00820360608830839,-0.06322205594333496,0.0,70.0,255.0,255.0,255.0
218,10.9,7.7976918548285505,-9.857584501138382,-4.352650826958819,0.05289202920176983,0.11340774245066854,-0.7703781998310166,0.0033889786802632216,0.008728124085877198,-0.06223704734686919,0.0,70.0,255.0,255.0,255.0
219,10.950000000000001,7.800340642572198,-9.851903212986544,-4.391247529562642,0.053047623248492215,0.11385835153536306,-0.7734643520033657,0.0029561683156487106,0.009280107114761904,-0.061266090979117394,0.0,70.0,255.0,255.0,255.0
220,11.0,7.8029966171534,-9.846198665984845,-4.429997262159156,0.0531876460333347,0.11433575316214473,-0.7765048089289284,0.00284722428496309,0.009750109849981925,-0.06049464756614498,0.0,70.0,255.0,255.0,255.0
221,11.05,7.805659407175532,-9.84046963767033,-4.4688980104555345,0.053332345676988524,0.11483336252036125,-0.7795138167599802,0.0031373598267769864,0.010073060736459638,-0.060027560021680415,0.0,70.0,255.0,255.0,255.0
222,11.100000000000001,7.808329851721099,-9.83471532973281,-4.507948643835154,0.0535013820160124,0.11534305923579069,-0.7825075649310964,0.0037209179988728636,0.01023456590836247,-0.05986055029207904,0.0,70.0,255.0,255.0,255.0
223,11.15,7.811009545377133,-9.82893533174675,-4.547148766948644,0.05370443747687581,0.1158568191111975,-0.7854998717891881,0.004393815353065378,0.010233126211467436,-0.05994855980020475,0.0,70.0,255.0,255.0,255.0
224,11.200000000000001,7.813700295468786,-9.82312964782169,-4.586498631014073,0.05394076355131894,0.11636637185693743,-0.7885024209111169,0.004946750663048505,0.010069705072801582,-0.06023940700146113,0.0,70.0,255.0,255.0,255.0
225,11.25,7.816403621732265,-9.817298694561057,-4.625999009039756,0.05419911254318066,0.11686378961847765,-0.7915238124893342,0.005170339495386145,0.009748008817744847,-0.06067511285472449,0.0,70.0,255.0,255.0,255.0
226,11.3,7.819120206723104,-9.811443268859842,-4.665651012263006,0.05445779750085755,0.11734117273871192,-0.7945699321965893,0.004959766696632784,0.009283457334952061,-0.06120749049127738,0.0,70.0,255.0,255.0,255.0
227,11.350000000000001,7.821849401482351,-9.805564577287186,-4.705456002259415,0.05469508921284394,0.11779213535197286,-0.797644561538462,0.004417660472277873,0.008738969439292532,-0.061775836128674655,0.0,70.0,255.0,255.0,255.0
228,11.4,7.824589715644389,-9.799664055324644,-4.745415468416852,0.05489956354808534,0.11821506968264117,-0.8007475158094568,0.003750351982567679,0.008220210229126224,-0.06228610272920321,0.0,70.0,255.0,255.0,255.0
229,11.450000000000001,7.827339357837159,-9.793743070318921,-4.78553075384036,0.05507012441110071,0.11861415637488548,-0.8038731718113823,0.0031634024582061215,0.007840046953333513,-0.06263110618975887,0.0,70.0,255.0,255.0,255.0
230,11.5,7.830096728085499,-9.787802639687156,-4.825802785597991,0.05521590379390595,0.11899907437797452,-0.8070106264284327,0.002855380436184163,0.0077018642024029305,-0.06270886371915196,0.0,70.0,255.0,255.0,255.0
231,11.55,7.83286094821655,-9.781843162881124,-4.866231816483204,0.05535566245471912,0.11938434279512578,-0.8101440581832975,0.002930146814161816,0.007853622742892696,-0.06247525190605785,0.0,70.0,255.0,255.0,255.0
232,11.600000000000001,7.835632294330971,-9.775864205407643,-4.90681719141632,0.05550891847532213,0.11978443665226379,-0.8132581516190385,0.0033230321871968727,0.008245080811164485,-0.06200058071756942,0.0,70.0,255.0,255.0,255.0
233,11.65,7.838411840064082,-9.769864719215898,-4.9475576316451075,0.05568796567343881,0.12020885087624222,-0.8163441162550544,0.003890184641264227,0.008769669236663447,-0.06142339291894672,0.0,70.0,255.0,255.0,255.0
234,11.700000000000001,7.8412010908983145,-9.763843320320019,-4.988451603041826,0.055897936939448556,0.12066140357593014,-0.8194004909109331,0.004486352791044368,0.009310619933877717,-0.0608956554184914,0.0,70.0,255.0,255.0,255.0
235,11.75,7.844001633758027,-9.757798578858305,-5.029497680736201,0.05613660095254325,0.12113991286963,-0.8224336817969036,0.004972148084370076,0.009756515724923531,-0.06057745091698763,0.0,70.0,255.0,255.0,255.0
236,11.8,7.846814750993569,-9.751729329033056,-5.070694971221516,0.056395151747885564,0.12163705514842249,-0.8254582360026319,0.005266872153786295,0.010042564512779961,-0.06055098906401213,0.0,70.0,255.0,255.0,255.0
237,11.850000000000001,7.8496411489328155,-9.745634873343462,-5.112043504336464,0.05666328816792188,0.12214416932090799,-0.8284887807033048,0.005373847142653432,0.010164343679441856,-0.06073820463781132,0.0,70.0,255.0,255.0,255.0
238,11.9,7.852481079810361,-9.739514912100965,-5.153543849291847,0.05693253646215091,0.12265348951636668,-0.831532056466413,0.005324433927889061,0.010136637301627616,-0.06098480112024518,0.0,70.0,255.0,255.0,255.0
239,11.950000000000001,7.855334402579031,-9.733369524391826,-5.195196709983105,0.05719573156071078,0.12315783305107075,-0.8345872608153293,0.005151699197902815,0.009977986131559646,-0.0611391858883259,0.0,70.0,255.0,255.0,255.0
240,12.0,7.858200652966432,-9.727199128795858,-5.2370025753733795,0.05744770638194119,0.12365128812952264,-0.8376459750552456,0.004900036550026243,0.009716082221444822,-0.061041379232396054,0.0,70.0,255.0,255.0,255.0
241,12.05,7.861079173217225,-9.721004395578873,-5.27896130748863,0.05768573521571341,0.12412944127321524,-0.8406913987385689,0.004601338929433041,0.00937509356511157,-0.060614218411814136,0.0,70.0,255.0,255.0,255.0
242,12.100000000000001,7.8639692264880035,-9.714786184668537,-5.321071715247236,0.05790784027488449,0.1245887974860338,-0.843707396896427,0.004262418403655488,0.008978383631053077,-0.0599693046948957,0.0,70.0,255.0,255.0,255.0
243,12.15,7.866869957244713,-9.70854551583027,-5.363332047178273,0.058111977056078956,0.12502727963632054,-0.8466883292080585,0.0038929188083791644,0.008564620717166349,-0.05931469863806882,0.0,70.0,255.0,255.0,255.0
244,12.200000000000001,7.869780424193611,-9.702283456704905,-5.405740548168042,0.05829713215572241,0.12544525955775043,-0.8496388667602339,0.003512538063077386,0.008183123186533692,-0.058854174453326635,0.0,70.0,255.0,255.0,255.0
245,12.25,7.872699670460285,-9.696000989874495,-5.448295933854296,0.058463230862386695,0.1258455919549739,-0.8525737466533911,0.0031237430112796005,0.007875192685879995,-0.0587969855322612,0.0,70.0,255.0,255.0,255.0
246,12.3,7.87562674727985,-9.689698897509407,-5.490997922833381,0.05860950645685037,0.12623277882633843,-0.85551856531346,0.002734485414634946,0.007663774513133603,-0.0592392235367889,0.0,70.0,255.0,255.0,255.0
247,12.350000000000001,7.87856062110597,-9.683377711991861,-5.533847790385642,0.05873667940385019,0.12661196940628727,-0.85849766900707,0.002413775280007968,0.007559417832503357,-0.06002010105881084,0.0,70.0,255.0,255.0,255.0
248,12.4,7.881500415220235,-9.677037700568778,-5.576847689734088,0.058850883984851166,0.12698872060958877,-0.8615205754193411,0.002266594801447752,0.007567583792145172,-0.0608400406911791,0.0,70.0,255.0,255.0,255.0
249,12.450000000000001,7.884445709504456,-9.670678839930902,-5.619999847927576,0.058963338883994965,0.1273687277855018,-0.8645816730761879,0.0023847219766892636,0.007682807837383621,-0.06139805569223,0.0,70.0,255.0,255.0,255.0
250,12.5,7.8873967491086345,-9.664300827790228,-5.663305857041707,0.05908935618252009,0.12775700139332713,-0.8676603809885641,0.0028569261368183163,0.00788710973882445,-0.06138671593367562,0.0,70.0,255.0,255.0,255.0
251,12.55,7.890354645122708,-9.65790313979157,-5.7067658860264325,0.059249031497676796,0.12815743875938423,-0.8707203446695555,0.0037088312999422612,0.008164120735187907,-0.06066180119326248,0.0,70.0,255.0,255.0,255.0
252,12.600000000000001,7.893321652258402,-9.65148508391429,-5.750377891508663,0.05946023931251432,0.12857341346684592,-0.8737265611078904,0.0047998697541906665,0.008503105878610029,-0.05943747055807691,0.0,70.0,255.0,255.0,255.0
253,12.65,7.896300669053959,-9.645045798444885,-5.794138542137222,0.05972901847309586,0.12900774934724524,-0.8766640917253632,0.005880795225898794,0.008884204954284769,-0.05811879827168909,0.0,70.0,255.0,255.0,255.0
254,12.700000000000001,7.899294554105712,-9.638584308979565,-5.838044300681199,0.0600483188351042,0.1294618339622744,-0.8795384409350593,0.006696825777563475,0.009279957818897344,-0.05711295009680484,0.0,70.0,255.0,255.0,255.0
255,12.75,7.902305500937469,-9.632099615048658,-5.8820923862307275,0.06039870105085221,0.12993574512913497,-0.8823753867350437,0.0070125617653182815,0.009680331062433822,-0.05683209478872797,0.0,70.0,255.0,255.0,255.0
256,12.8,7.905334424210797,-9.625590734466652,-5.926281839354703,0.060749575011636026,0.13042986706851778,-0.8852216504139321,0.0067158770319153405,0.010073029257995358,-0.05747394464963307,0.0,70.0,255.0,255.0,255.0
257,12.850000000000001,7.908380458438633,-9.619056628341806,-5.970614551272121,0.061070288754043744,0.1309430480549345,-0.888122781200007,0.005915696752367694,0.010390862616027619,-0.05878013325943954,0.0,70.0,255.0,255.0,255.0
258,12.9,7.911441453086201,-9.612496429661158,-6.015094117474704,0.061341144686872795,0.13146895333012054,-0.891099663739876,0.004842951567152198,0.010532892430070717,-0.0602538105122008,0.0,70.0,255.0,255.0,255.0
259,12.950000000000001,7.91451457290732,-9.605909733008794,-6.059724517646108,0.061554583910758964,0.13199633729794158,-0.8941481622512271,0.0037469492716546426,0.010410787461268,-0.061397509886873536,0.0,70.0,255.0,255.0,255.0
260,13.0,7.917596911477277,-9.599296795931364,-6.104508933699827,0.06171583961403826,0.13251003207624734,-0.8972394147285634,0.0028688640981044955,0.009939631277866567,-0.06171697950314581,0.0,70.0,255.0,255.0,255.0
261,13.05,7.920686156868724,-9.592658729801169,-6.149448459118965,0.061841470320569414,0.13299030042572824,-0.9003198602015416,0.002346634932504088,0.009095650342949568,-0.060968760534851896,0.0,70.0,255.0,255.0,255.0
262,13.100000000000001,7.923781058509334,-9.585997765888791,-6.194540919719981,0.06195050310728867,0.1334195971105423,-0.9033362907820486,0.0021700705091554084,0.008016054380455273,-0.05941458381704123,0.0,70.0,255.0,255.0,255.0
263,13.15,7.926881207179453,-9.579316770090115,-6.2397820881971695,0.062058477371484955,0.13379190586377376,-0.9062613185832458,0.0022763495531208378,0.0069441320869501055,-0.05757421142824626,0.0,70.0,255.0,255.0,255.0
264,13.200000000000001,7.929986906246483,-9.572618575302414,-6.285167051578306,0.06217813806260075,0.1341140103192373,-0.9090937119248732,0.0026010647812491072,0.0061286405873772765,-0.05596964438723262,0.0,70.0,255.0,255.0,255.0
265,13.25,7.933099020985713,-9.565905369058191,-6.330691459389657,0.062318583849609865,0.1344047699225115,-0.911858283021969,0.003075991166578973,0.005797134501861478,-0.055111921930173224,0.0,70.0,255.0,255.0,255.0
266,13.3,7.936218764631444,-9.559178098310163,-6.3763528798805025,0.06248573717925865,0.13469372376942346,-0.9146049041178905,0.0036458349868873086,0.006058681723608572,-0.05526416006507162,0.0,70.0,255.0,255.0,255.0
267,13.350000000000001,7.939347594703639,-9.552435996681249,-6.422151949801446,0.0626831673482986,0.13501063809487235,-0.9173846990284762,0.0042441144514349105,0.0068159688115798645,-0.056228011659520405,0.0,70.0,255.0,255.0,255.0
268,13.4,7.942487081366274,-9.545677034500676,-6.46809134978335,0.06291014862440214,0.13537532065058144,-0.9202277052838426,0.004769039497443117,0.007857851950809902,-0.05758286358856779,0.0,70.0,255.0,255.0,255.0
269,13.450000000000001,7.945638609566079,-9.53889846461619,-6.51417472032983,0.06316007129804291,0.13579642328995334,-0.923142985387333,0.005103616778168174,0.008955675830968346,-0.05890405242370278,0.0,70.0,255.0,255.0,255.0
270,13.5,7.948803088496078,-9.53209739217168,-6.560405648322083,0.06342051030221896,0.13627088823367828,-0.9261181105262128,0.005131133939606514,0.009895793418834842,-0.05977137007127098,0.0,70.0,255.0,255.0,255.0
271,13.55,7.951980660596301,-9.525271375792823,-6.606786531382451,0.06367318469200356,0.13678600263183682,-0.9291201223944601,0.004802799012537662,0.010550648403828689,-0.059955764706032255,0.0,70.0,255.0,255.0,255.0
272,13.600000000000001,7.955170406965278,-9.518418791908497,-6.653317660561529,0.06390079020347272,0.13732595307406115,-0.9321136869968161,0.004217947210172213,0.010887343099952318,-0.05956334623542503,0.0,70.0,255.0,255.0,255.0
273,13.65,7.958370739616648,-9.511538780485417,-6.699997900082133,0.06409497941302078,0.13787473694183205,-0.9350764570180026,0.003563856094057627,0.010895509060659947,-0.058842679206616566,0.0,70.0,255.0,255.0,255.0
274,13.700000000000001,7.96157990490658,-9.504631318214313,-6.74682530626333,0.06425717581287849,0.13841550398012714,-0.9379979549174777,0.0030372419979940446,0.010569681728789249,-0.058035031698544515,0.0,70.0,255.0,255.0,255.0
275,13.75,7.964796457197936,-9.497697230087404,-6.793797695573881,0.06439870361282019,0.13893170511471098,-0.940879960187857,0.002835463750283651,0.009907710471779296,-0.057378541839447905,0.0,70.0,255.0,255.0,255.0
276,13.8,7.968019775267862,-9.490738147702842,-6.840913302282115,0.06454072218790685,0.13940627502730507,-0.9437358091014225,0.0030562556767144144,0.008936673379444926,-0.057011615610225164,0.0,70.0,255.0,255.0,255.0
277,13.850000000000001,7.971250529416727,-9.483756602584673,-6.888171276484023,0.06470432918049163,0.13982537245265547,-0.9465811217488795,0.003598688782879833,0.007796337109233775,-0.05691403463519151,0.0,70.0,255.0,255.0,255.0
278,13.9,7.9744902081859115,-9.476755610457577,-6.935571414457003,0.06490059106619483,0.14018590873822845,-0.9494272125649417,0.004260944051370785,0.0067217901294824856,-0.05701266667097471,0.0,70.0,255.0,255.0,255.0
279,13.950000000000001,7.977740588523346,-9.46973801171085,-6.983113997740517,0.0651304235856287,0.14049755146560372,-0.952282388415977,0.004840841802788987,0.005963545972598183,-0.05724822171391253,0.0,70.0,255.0,255.0,255.0
280,14.0,7.981003250544474,-9.462705855311016,-7.030799653298601,0.06538467524647373,0.14078226333548827,-0.9551520347363329,0.005143048355371604,0.005761383341784665,-0.05757450919103846,0.0,70.0,255.0,255.0,255.0
281,14.05,7.984279056047994,-9.455659785377302,-7.0786292012141505,0.06564472842116587,0.1410736897997822,-0.9580398393350809,0.00506560485433738,0.006223683718431516,-0.05795171224765028,0.0,70.0,255.0,255.0,255.0
282,14.100000000000001,7.987567723386591,-9.448598486331038,-7.126603637232109,0.06589123573190747,0.14140463170733142,-0.960947205961098,0.004672705583264047,0.007198357412718792,-0.05830144762448697,0.0,70.0,255.0,255.0,255.0
283,14.15,7.9908681796211845,-9.441519322206569,-7.17472392181026,0.06611199897949227,0.14179352554105407,-0.9638699840975296,0.004106959775018737,0.00838460314938061,-0.058504882547083525,0.0,70.0,255.0,255.0,255.0
284,14.200000000000001,7.99417892328454,-9.434419133776933,-7.222990635641862,0.06630193170940935,0.14224309202226948,-0.9667976942158063,0.0035126775045135616,0.009463873309911719,-0.05843930755302651,0.0,70.0,255.0,255.0,255.0
285,14.25,7.997498372792125,-9.427295013004342,-7.271403691231841,0.06646326672994363,0.14273991287204524,-0.9697139148528322,0.003028333504495606,0.010122746836671581,-0.05797544936907428,0.0,70.0,255.0,255.0,255.0
286,14.3,8.000825249957535,-9.420145142489728,-7.319962027127145,0.0666047650598589,0.14325536670593664,-0.9725952391527137,0.002734098798384821,0.010195817852931555,-0.05706722304479328,0.0,70.0,255.0,255.0,255.0
287,14.350000000000001,8.004158849298111,-9.412969476333748,-7.368663215147112,0.06673667660978211,0.1437594946573384,-0.9754206371573115,0.0026268525194161896,0.009779277528565444,-0.055883717989413384,0.0,70.0,255.0,255.0,255.0
288,14.4,8.007498917618513,-9.405769193023994,-7.417504090842876,0.06686745031180052,0.14423329445879318,-0.9781836109516551,0.0026756923743320726,0.00908991382431168,-0.05472593833930617,0.0,70.0,255.0,255.0,255.0
289,14.450000000000001,8.010845594329291,-9.398546146887869,-7.466481576242278,0.06700424584721532,0.14466848603976956,-0.9808932309912421,0.0028479353598953594,0.008348047036754735,-0.05390009586054845,0.0,70.0,255.0,255.0,255.0
290,14.5,8.014199342203234,-9.391302344420017,-7.515593413942001,0.06715224384779006,0.14506809916246866,-0.9835736205377099,0.0030996083022927223,0.007775601338977367,-0.05370765603629479,0.0,70.0,255.0,255.0,255.0
291,14.55,8.01756081871407,-9.384039336971622,-7.564838938296049,0.06731420667744459,0.1454460461736673,-0.9862639965948716,0.00339902559236549,0.007498592654009428,-0.054286994640673214,0.0,70.0,255.0,255.0,255.0
292,14.600000000000001,8.020930762870979,-9.37675773980265,-7.614219813601488,0.06749214640702661,0.1458179584278696,-0.9890023200017772,0.003739045177653111,0.007479963708867388,-0.05543472936837546,0.0,70.0,255.0,255.0,255.0
293,14.65,8.024310033354773,-9.369457541128835,-7.6637391702962265,0.0676881111952099,0.14619404254455404,-0.9918074695317092,0.0041094315676559745,0.0076219886398831704,-0.05675863682261806,0.0,70.0,255.0,255.0,255.0
294,14.700000000000001,8.0276995739905,-9.362138335548195,-7.713400560554659,0.06790308956379221,0.14658015729185792,-0.994678183684039,0.0044898934103088095,0.007836339475630894,-0.057854761220266226,0.0,70.0,255.0,255.0,255.0
295,14.75,8.031100342311152,-9.354799525399649,-7.76320698866463,0.06813710053624078,0.14697767649211713,-0.9975929456537358,0.00487719599018277,0.008034894428021744,-0.058321945133332775,0.0,70.0,255.0,255.0,255.0
296,14.8,8.034513284044124,-9.347440567898984,-7.813159855120032,0.06839080916281048,0.1473836467346601,-1.0005103781973723,0.00526308554515964,0.008163750924694568,-0.05795822496557079,0.0,70.0,255.0,255.0,255.0
297,14.850000000000001,8.037939423227433,-9.340061160726183,-7.863258026484368,0.06866340909075674,0.14779405158458658,-1.0033887681502929,0.005579670730782027,0.008221800035812521,-0.05694818038843863,0.0,70.0,255.0,255.0,255.0
298,14.9,8.0413796249532,-9.332661162740525,-7.913498731935062,0.06894877623588869,0.14820582673824134,-1.0062051962362162,0.0057238773926826525,0.008220360053456943,-0.05566869851936218,0.0,70.0,255.0,255.0,255.0
299,14.950000000000001,8.044834300851022,-9.325240578052359,-7.963878546107989,0.06923579683002501,0.14861608758993228,-1.008955638002229,0.005605917574058594,0.008160394594902698,-0.05450071939820944,0.0,70.0,255.0,255.0,255.0
300,15.0,8.048303204636202,-9.317799553981532,-8.014394295735285,0.06950936799329455,0.1490218661977316,-1.0116552681760371,0.005139673004528333,0.008032792978518444,-0.05382451680988609,0.0,70.0,255.0,255.0,255.0
301,15.05,8.051785237650352,-9.310338391432586,-8.065044072925593,0.06974976413047784,0.14941936688778412,-1.0143380896832177,0.004300520338418323,0.007839690361066687,-0.05383945281645097,0.0,70.0,255.0,255.0,255.0
302,15.100000000000001,8.05527818104925,-9.302857617292753,-8.115828104703606,0.06993942002713638,0.14980583523383828,-1.0170392134576822,0.0032248826213887583,0.0076328361458877225,-0.05440350478913558,0.0,70.0,255.0,255.0,255.0
303,15.15,8.058779179653065,-9.295357807909202,-8.166747994271361,0.07007225239261672,0.1501826505023729,-1.0197784401621313,0.0021549656212371815,0.007496571145360065,-0.05521645254944474,0.0,70.0,255.0,255.0,255.0
304,15.200000000000001,8.062285406288511,-9.287839352242516,-8.21780594871982,0.0701549165892601,0.1505554923483743,-1.0225608587126267,0.001338184547172716,0.007515368859323246,-0.05598198822642786,0.0,70.0,255.0,255.0,255.0
305,15.25,8.065794671311991,-9.280302258674364,-8.269004080142624,0.07020607084733399,0.15093418738830522,-1.025376638984774,0.0010001026682360248,0.007781905685888546,-0.056404043571767204,0.0,70.0,255.0,255.0,255.0
306,15.3,8.069306013373245,-9.272745933503685,-8.320343612618297,0.0702549268560837,0.15133368291696314,-1.0282012630698034,0.0012491454530305646,0.008331287164331513,-0.05632461644964337,0.0,70.0,255.0,255.0,255.0
307,15.350000000000001,8.0728201639976,-9.265168890382668,-8.371824206449604,0.07033098539263705,0.15176731610473837,-1.0310091006297384,0.001991847734572616,0.009045083818826072,-0.05584414078061428,0.0,70.0,255.0,255.0,255.0
308,15.4,8.076339111912509,-9.257569201893212,-8.42344452268127,0.07045411162954096,0.15223819129884575,-1.0337856771478648,0.003023532851287314,0.00971428776672667,-0.055178311795067714,0.0,70.0,255.0,255.0,255.0
309,15.450000000000001,8.079865575160554,-9.249945071252784,-8.47520277416439,0.07063333867776578,0.15273874488141104,-1.0365269318092452,0.0041223698783454665,0.010132069362356333,-0.05453841394444936,0.0,70.0,255.0,255.0,255.0
310,15.5,8.083402445780285,-9.24229532740507,-8.527097215862195,0.07086634861737551,0.15325139823508138,-1.0392395185423098,0.00508387902655727,0.010099630897464351,-0.05414327160817578,0.0,70.0,255.0,255.0,255.0
311,15.55,8.086952210022291,-9.234619931429275,-8.579126726018622,0.0711417265804215,0.15374870797115747,-1.0419412589700627,0.005783923490376708,0.00952756191434645,-0.054108141990738545,0.0,70.0,255.0,255.0,255.0
312,15.600000000000001,8.090516618438327,-9.226920456607955,-8.631291341759201,0.07144474096641318,0.15420415442651603,-1.0446503327413836,0.006174999167640749,0.008553075665140852,-0.05433629572397791,0.0,70.0,255.0,255.0,255.0
313,15.65,8.094096684118933,-9.219199515986624,-8.68359175929276,0.07175922649718558,0.15460401553767156,-1.0473748885424605,0.006221951924523239,0.007441709022515397,-0.05463477579414899,0.0,70.0,255.0,255.0,255.0
314,15.700000000000001,8.097692541088046,-9.211460055054188,-8.736028830613447,0.0720669361588655,0.15494832532876757,-1.0501138103207985,0.005893361579900613,0.006468614764187919,-0.05481726974903012,0.0,70.0,255.0,255.0,255.0
315,15.75,8.10130337773482,-9.203704683453747,-8.78860314032484,0.07234856265517564,0.15525087701409035,-1.0528566155173635,0.0051523998743974175,0.005899570724565706,-0.05468291661561153,0.0,70.0,255.0,255.0,255.0
316,15.8,8.104927397353563,-9.195934967352779,-8.841314492165184,0.07258217614630524,0.15553828240122414,-1.0555821019823597,0.004013109303890872,0.005871751891106669,-0.05413624216092927,0.0,70.0,255.0,255.0,255.0
317,15.850000000000001,8.10856159534945,-9.188150855213625,-8.894161350523076,0.07274987358556473,0.15583805220320102,-1.0582702397334565,0.002669833916080222,0.006294501631920468,-0.0533333802858138,0.0,70.0,255.0,255.0,255.0
318,15.9,8.11220238471212,-9.180351162132458,-8.94714151613853,0.07284915953791327,0.15616773256441618,-1.060915440010941,0.0014503377714802923,0.006966988030576715,-0.05255988106487308,0.0,70.0,255.0,255.0,255.0
319,15.950000000000001,8.115846511303241,-9.172534081957183,-9.00025289452417,0.07289490736271276,0.1565347510062587,-1.0635262278399438,0.0006954192333097353,0.0076801848681640195,-0.05209236719974086,0.0,70.0,255.0,255.0,255.0
320,16.0,8.119491875448391,-9.164697687031833,-9.053494138922524,0.07291870146124424,0.15693575105123259,-1.0661246767309152,0.0007425121530957313,0.008222086205300627,-0.052212987338151606,0.0,70.0,255.0,255.0,255.0
321,16.05,8.123138381449365,-9.15684050685206,-9.106865362197262,0.07296915857802233,0.15735695962678875,-1.068747526573759,0.0017384644685591866,0.008473169449985107,-0.053047775145920184,0.0,70.0,255.0,255.0,255.0
322,16.1,8.126788791306193,-9.148961991069154,-9.1603688915799,0.07309254790810016,0.1577830679962311,-1.0714294542455072,0.003414942556823064,0.008473486571425326,-0.05436393604476564,0.0,70.0,255.0,255.0,255.0
323,16.150000000000002,8.130447636240175,-9.141062200052437,-9.214008307621812,0.07331065283370464,0.15820430828393128,-1.0741839201782355,0.005264902118007342,0.00832409176645399,-0.05573026871150688,0.0,70.0,255.0,255.0,255.0
324,16.2,8.134119856589564,-9.13314156024076,-9.267787283597723,0.07361903811990089,0.1586154771728765,-1.0770024811166579,0.00676663980812009,0.008118244830512822,-0.05671442695476259,0.0,70.0,255.0,255.0,255.0
325,16.25,8.137809540052166,-9.125200652335149,-9.321708555733478,0.07398731681451665,0.15901613276698257,-1.0798553628737118,0.00741358880897991,0.0079520378362119,-0.056889189976061516,0.0,70.0,255.0,255.0,255.0
326,16.3,8.141518588271015,-9.117239946964062,-9.375772819885094,0.07436039700079888,0.15941068095649769,-1.082691400114264,0.006952659862058397,0.007881630915029803,-0.05605177147334217,0.0,70.0,255.0,255.0,255.0
327,16.35,8.145245579752245,-9.1092595842395,-9.429977695744904,0.07468258280072249,0.15980429585848555,-1.085460540021046,0.005605687232446144,0.007890619681028,-0.05446253054568473,0.0,70.0,255.0,255.0,255.0
328,16.400000000000002,8.148986846551088,-9.101259517378214,-9.484318873887199,0.0749209657240435,0.16019974292460049,-1.0881376531688325,0.003835601541446465,0.007938416465691489,-0.052629067401177565,0.0,70.0,255.0,255.0,255.0
329,16.45,8.15273767632465,-9.09323960994704,-9.538791461061788,0.07506614295486713,0.1605981375050547,-1.0907234467611637,0.002117368852339041,0.00799303627463388,-0.05106875948168721,0.0,70.0,255.0,255.0,255.0
330,16.5,8.156493460846574,-9.085199703627708,-9.593391218563315,0.0751327026092774,0.16099904655206387,-1.0932445291170012,0.0009111046392007438,0.008021790421608443,-0.05029421545952317,0.0,70.0,255.0,255.0,255.0
331,16.55,8.160250946585577,-9.077139705291833,-9.648115913973488,0.0751572534187872,0.16140031654721554,-1.095752868307116,0.00046973058314137006,0.008007020177558388,-0.05056499909912304,0.0,70.0,255.0,255.0,255.0
332,16.6,8.164009186188453,-9.069059671972987,-9.702966505394027,0.07517967566759154,0.1617997485698197,-1.0983010290269135,0.0007096278606510964,0.00796403470371132,-0.051652421959857975,0.0,70.0,255.0,255.0,255.0
333,16.650000000000002,8.167768914152337,-9.06095973043485,-9.75794601687618,0.07522821620485232,0.16219672001758667,-1.1009181105031018,0.0014070506905383695,0.007922242371094512,-0.05308698149821822,0.0,70.0,255.0,255.0,255.0
334,16.7,8.171532007808938,-9.052839999971228,-9.813058316444337,0.07532038073664538,0.16259197280692916,-1.1036097271767353,0.0023362857136888238,0.007909610071621387,-0.05439738826549245,0.0,70.0,255.0,255.0,255.0
335,16.75,8.175300952226001,-9.044700533154158,-9.868306989593853,0.0754618447762212,0.1629876810247488,-1.106357849329651,0.0032700112818417892,0.007960800477135876,-0.05512201345325707,0.0,70.0,255.0,255.0,255.0
336,16.8,8.17907819228656,-9.036541231868753,-9.923694101377302,0.07564738186482955,0.16338805285464275,-1.109121928522061,0.004063895662653749,0.008090288375406374,-0.05501559809726331,0.0,70.0,255.0,255.0,255.0
337,16.85,8.182865690412484,-9.028361727868694,-9.979219182446059,0.07586823434248657,0.16379670986228945,-1.1118594091393774,0.00467953092915252,0.008253241503553,-0.05421952986708334,0.0,70.0,255.0,255.0,255.0
338,16.900000000000002,8.18666501572081,-9.020161560882524,-10.03488004229124,0.0761153349577448,0.16421337700499805,-1.1145438815087694,0.005089109448697116,0.008372614049534377,-0.05305041919303477,0.0,70.0,255.0,255.0,255.0
339,16.95,8.190477223908259,-9.011940390168194,-10.090673570596936,0.07637714528735629,0.16463397126724288,-1.117164451058681,0.005246113000367814,0.008375236726188007,-0.05182206041585147,0.0,70.0,255.0,255.0,255.0
340,17.0,8.194302730249545,-9.0036981637558,-10.146596487397108,0.07663994625778159,0.16505090067761685,-1.1197260875503545,0.005104794290033965,0.00818703564213763,-0.05083768410738543,0.0,70.0,255.0,255.0,255.0
341,17.05,8.198141218534037,-8.995435300100432,-10.202646179351971,0.07688762471635968,0.16545267483145665,-1.1222482194694194,0.004660234552922304,0.0077780267876192966,-0.0502714430110629,0.0,70.0,255.0,255.0,255.0
342,17.1,8.20199149272118,-8.987152896272654,-10.25882130934405,0.07710596971307382,0.16582870335637878,-1.1247532318514608,0.0040157915456973114,0.007224770842917394,-0.05010218584580173,0.0,70.0,255.0,255.0,255.0
343,17.150000000000002,8.205851815505344,-8.978852429764794,-10.315121502537117,0.07728920387092941,0.1661751519157484,-1.1272584380539996,0.0033546467125944446,0.006666369029773023,-0.05024029277951314,0.0,70.0,255.0,255.0,255.0
344,17.2,8.209720413108274,-8.97053538108108,-10.37154715314945,0.07744143438433326,0.16649534025935608,-1.1297772611294121,0.002878236642978038,0.006242216916874099,-0.05060005771539977,0.0,70.0,255.0,255.0,255.0
345,17.25,8.213595958943777,-8.962202895738859,-10.428099228650058,0.07757702753522722,0.1667993736074358,-1.1323184438255396,0.002798830205996694,0.006083038305071398,-0.05109125944020576,0.0,70.0,255.0,255.0,255.0
346,17.3,8.217478115861796,-8.953855443720336,-10.484778997532004,0.07772131740493293,0.16710364408986322,-1.1348863870734327,0.00321516612640238,0.00625140400796198,-0.05164688160768094,0.0,70.0,255.0,255.0,255.0
347,17.35,8.22136809068427,-8.945492531329872,-10.541587867357402,0.07789854414786745,0.167424514008232,-1.1374831319863077,0.003971894962617739,0.006683199601198453,-0.05221181999104374,0.0,70.0,255.0,255.0,255.0
348,17.400000000000002,8.225267970276583,-8.937112992319513,-10.598527310730635,0.0781185069011947,0.16777196404998307,-1.140107569072537,0.004777711627390602,0.007245546196088526,-0.05270579896503591,0.0,70.0,255.0,255.0,255.0
349,17.45,8.22917994137439,-8.928715334924874,-10.655598624264655,0.07837631531060651,0.16814906862784085,-1.1427537118828113,0.005341080287557531,0.007796408426763435,-0.053032533896235634,0.0,70.0,255.0,255.0,255.0
350,17.5,8.233105601807644,-8.920298085456729,-10.712802681918916,0.07865261492995046,0.1685516048926594,-1.1454108224621606,0.005367950152290746,0.00819279248851501,-0.053101240837349906,0.0,70.0,255.0,255.0,255.0
351,17.55,8.237045202867385,-8.911860174435608,-10.770139706510871,0.07891311032583559,0.16896834787669235,-1.1480638359665463,0.004718727982044868,0.00835687000098062,-0.05287380445135881,0.0,70.0,255.0,255.0,255.0
352,17.6,8.240996912840227,-8.90340125066906,-10.82760906551557,0.07912448772815495,0.16938729189275747,-1.1506982029072965,0.003583808092777474,0.008326067115760338,-0.05241500971422397,0.0,70.0,255.0,255.0,255.0
353,17.650000000000002,8.2449576516402,-8.894921445246332,-10.885209526801601,0.07927149113511334,0.16980095458826838,-1.1533053369379687,0.0023281664518037815,0.008186970661405724,-0.05185287499607227,0.0,70.0,255.0,255.0,255.0
354,17.7,8.248924061953739,-8.886421155210233,-10.942939599209367,0.07935730437333532,0.17020598895889805,-1.1558834904069037,0.0013167895247079286,0.008025948909740066,-0.05132929387858809,0.0,70.0,255.0,255.0,255.0
355,17.75,8.252893382077534,-8.877900846350443,-11.000797875842292,0.07940317008758413,0.1706035494792424,-1.1584382663258275,0.000905313239307759,0.007937773092869804,-0.05099179585918989,0.0,70.0,255.0,255.0,255.0
356,17.8,8.256864378962497,-8.869360800262308,-11.05878342584195,0.0794478356972661,0.17099976626818503,-1.1609826699928227,0.0012702949069520741,0.007973889880830143,-0.05091738776652477,0.0,70.0,255.0,255.0,255.0
357,17.85,8.260838165647261,-8.860800869723624,-11.116896142841574,0.07953019957827934,0.1714009384673254,-1.16353000510248,0.0022429892174713473,0.00809159953423233,-0.05104450478921052,0.0,70.0,255.0,255.0,255.0
358,17.900000000000002,8.264817398920325,-8.852220706415576,-11.175136426352198,0.07967213461901324,0.17180892622160826,-1.1660871204717438,0.0034786668537734045,0.008208342721083284,-0.051247176574342745,0.0,70.0,255.0,255.0,255.0
359,17.95,8.268805379109162,-8.843619977101463,-11.233504854888748,0.07987806626365668,0.17222177273943373,-1.1686547227599142,0.004625701005700478,0.008252709687361914,-0.05140320434158241,0.0,70.0,255.0,255.0,255.0
360,18.0,8.27280520554669,-8.834998529141632,-11.29200189862819,0.08013470471958328,0.17263419719034445,-1.171227440905902,0.005338815537747621,0.00816017108355993,-0.05139162234719663,0.0,70.0,255.0,255.0,255.0
361,18.05,8.27681884958112,-8.826356557382429,-11.350627598979338,0.08041194781743144,0.17303778984778972,-1.1737938849946339,0.005434031785611637,0.007900484229139693,-0.051150071054628654,0.0,70.0,255.0,255.0,255.0
362,18.1,8.280846400328434,-8.817694750156853,-11.409381287127653,0.08067810789814445,0.17342424561325842,-1.176342448011365,0.005013279328025533,0.007509306308861596,-0.05072967509089921,0.0,70.0,255.0,255.0,255.0
363,18.150000000000002,8.284886660370935,-8.809014132821103,-11.468261843780475,0.08091327575023399,0.17378872047867588,-1.1788668525037238,0.0043072826830581334,0.007058726053621456,-0.05023571474485067,0.0,70.0,255.0,255.0,255.0
364,18.2,8.288937727903457,-8.800315878108986,-11.527267972378025,0.08110883616645026,0.17413011821862057,-1.18136601948585,0.003547492697109078,0.006622699518921138,-0.04977117546935972,0.0,70.0,255.0,255.0,255.0
365,18.25,8.29299754398758,-8.79160112099924,-11.58639844572906,0.0812680250199449,0.174450990430568,-1.1838439700506598,0.002967396637210129,0.006265551894912846,-0.04943369610437287,0.0,70.0,255.0,255.0,255.0
366,18.3,8.297064530405452,-8.782870779065929,-11.645652369383091,0.08140557583017127,0.17475667340811185,-1.1863093890962872,0.002699125738025998,0.006024173204366434,-0.04927561472616304,0.0,70.0,255.0,255.0,255.0
367,18.35,8.301138101570597,-8.77412545365843,-11.705029384638689,0.0815379375937475,0.17505340775100464,-1.188771531523276,0.002699324706689765,0.0059084712702883735,-0.04927409088377743,0.0,70.0,255.0,255.0,255.0
368,18.400000000000002,8.305218324164827,-8.765365438290829,-11.764529522535419,0.08167550830084025,0.1753475205351407,-1.191236798184665,0.002858449499321125,0.0059194570271259295,-0.049372668411606924,0.0,70.0,255.0,255.0,255.0
369,18.45,8.309305652400681,-8.756590701604916,-11.824153064457155,0.08182378254367961,0.17564535345371723,-1.1937087983644368,0.0030767291372413297,0.006049778947847528,-0.049512093781878264,0.0,70.0,255.0,255.0,255.0
370,18.5,8.313400702419194,-8.747800902945457,-11.883900402371863,0.08198318121456438,0.17595249842992544,-1.1961880075628528,0.0032516445338970357,0.006281584039591337,-0.04962958390919425,0.0,70.0,255.0,255.0,255.0
371,18.55,8.317503970522138,-8.738995451761923,-11.94377186521344,0.08214894699706932,0.17627351185767637,-1.1986717567553562,0.003323404657074036,0.006597135309327484,-0.04968798286029141,0.0,70.0,255.0,255.0,255.0
372,18.6,8.321615597118901,-8.73017355175969,-12.003767578047398,0.08231552168027179,0.1766122119608582,-1.201156805848882,0.003310354246366387,0.0069759694516946524,-0.04969489377621983,0.0,70.0,255.0,255.0,255.0
373,18.650000000000002,8.325735522690165,-8.721334230565837,-12.063887545798329,0.08247998242170596,0.17697110880284583,-1.2036412461329782,0.00325714775684105,0.0073826066770976695,-0.0496718400489371,0.0,70.0,255.0,255.0,255.0
374,18.7,8.329863595361072,-8.712476440879405,-12.124131702660696,0.08264123645595589,0.17735047262856796,-1.2061239898537757,0.003199390287633719,0.007772497041713677,-0.04963424893666968,0.0,70.0,255.0,255.0,255.0
375,18.75,8.33399964633576,-8.70359918330298,-12.184499944783706,0.08279992145046933,0.1777483585070172,-1.2086046710266451,0.0031739972563116226,0.008112074649524459,-0.04959594028477454,0.0,70.0,255.0,255.0,255.0
376,18.8,8.338143587506119,-8.694701605028703,-12.24499216976336,0.08295863618158705,0.1781616800935204,-1.2110835838822531,0.003200542347592261,0.00838057227223743,-0.0495657405457095,0.0,70.0,255.0,255.0,255.0
377,18.85,8.342295509953919,-8.685783015293628,-12.305608303171931,0.08311997568522855,0.17858641573424094,-1.213561245081216,0.003259258308041524,0.008550354887582046,-0.049546334012262605,0.0,70.0,255.0,255.0,255.0
378,18.900000000000002,8.346455585074642,-8.676842963455279,-12.366348294271482,0.0832845620123912,0.1790167155822786,-1.2160382172834794,0.003312959472445698,0.008587412302318853,-0.049539971393031124,0.0,70.0,255.0,255.0,255.0
379,18.95,8.350623966155158,-8.6678813437354,-12.42721212490028,0.08345127163247312,0.17944515696447283,-1.2185152422205192,0.0033257097118877255,0.008466946170671008,-0.04955091047094129,0.0,70.0,255.0,255.0,255.0
380,19.0,8.35480071223789,-8.658898447758832,-12.488199818493534,0.08361713298357998,0.1798634101993457,-1.2209933083305735,0.003252366441230947,0.0081661546571965,-0.04958665494978476,0.0,70.0,255.0,255.0,255.0
381,19.05,8.358985679453516,-8.649895002715466,-12.549311455733337,0.08377650827659622,0.18026177243019248,-1.2234739077154977,0.003074425952576121,0.007686263247208558,-0.04964905495619121,0.0,70.0,255.0,255.0,255.0
382,19.1,8.363178363065549,-8.640872270515812,-12.610547209265084,0.08392457557883759,0.18063203652406656,-1.2259582138261926,0.002852612521131448,0.007103450160350633,-0.049719770177247824,0.0,70.0,255.0,255.0,255.0
383,19.150000000000002,8.3673781370114,-8.63183179906306,-12.671907277115956,0.08406176952870936,0.18097211744622754,-1.2284458847332225,0.0026910143532177244,0.006548583275467479,-0.04976827438127884,0.0,70.0,255.0,255.0,255.0
384,19.200000000000003,8.37158454001842,-8.62277505877119,-12.733391797738406,0.08419367701415936,0.1812868948516133,-1.2309350412643205,0.002691057578729783,0.006158692633206897,-0.0497688224655235,0.0,70.0,255.0,255.0,255.0
385,19.25,8.375797504712816,-8.613703109577898,-12.795000781242388,0.08433087528658234,0.18158798670954823,-1.2334227669797748,0.0029645090064533974,0.006067316043889548,-0.04970946788542818,0.0,70.0,255.0,255.0,255.0
386,19.3,8.380017627547078,-8.604616260100235,-12.856734074436384,0.0844901279148047,0.18189362645600227,-1.2359059880528633,0.0035555533756337354,0.006334887559944491,-0.049584240095157384,0.0,70.0,255.0,255.0,255.0
387,19.35,8.384246517504296,-8.595513746932298,-12.918591380047674,0.08468643062414571,0.18222147546554268,-1.2383811909892906,0.004328520045859818,0.006871368948857537,-0.04937635684161279,0.0,70.0,255.0,255.0,255.0
388,19.400000000000002,8.388486270609492,-8.58639411255368,-12.980572193535313,0.08492297991939068,0.18258076335088802,-1.2408436237370246,0.005043915515834385,0.007501890959993318,-0.049065998682529255,0.0,70.0,255.0,255.0,255.0
389,19.450000000000003,8.392738815496235,-8.577255670597209,-13.042675742421377,0.08519082217572915,0.182971664561542,-1.2432877908575435,0.005463999367272265,0.008045509402165862,-0.0486400001344478,0.0,70.0,255.0,255.0,255.0
390,19.5,8.397005352827065,-8.568096946097526,-13.104900972621067,0.08546937985611791,0.1833853142911046,-1.2457076237504694,0.005349644152197186,0.00832859048891521,-0.04807151080257199,0.0,70.0,255.0,255.0,255.0
391,19.55,8.401285753481847,-8.558917139168098,-13.167246504796424,0.08572578659094887,0.18380452361043353,-1.2480949419378007,0.004595761477510507,0.008260899799417132,-0.04736018512705442,0.0,70.0,255.0,255.0,255.0
392,19.6,8.40557793148616,-8.549716493736483,-13.229710466814847,0.08592895600386896,0.18421140427104632,-1.2504436422631748,0.0033995543823550634,0.007896481971947367,-0.04661387005473472,0.0,70.0,255.0,255.0,255.0
393,19.650000000000002,8.409878649082234,-8.540495998740994,-13.292290869022741,0.08606574202918438,0.18459417180762827,-1.2527563289432742,0.0021287548181092575,0.007358444960026134,-0.04600950245272628,0.0,70.0,255.0,255.0,255.0
394,19.700000000000003,8.414184505689079,-8.53125707655572,-13.354986099709174,0.08614183148567989,0.18494724876704893,-1.2550445925084475,0.0011584927378294196,0.006772556470835411,-0.0457172376059134,0.0,70.0,255.0,255.0,255.0
395,19.75,8.418492832230802,-8.522001273864289,-13.417795328273586,0.08618159130296732,0.1852714274547118,-1.2573280527038655,0.000864886412976773,0.0062543126746916755,-0.045900432957957094,0.0,70.0,255.0,255.0,255.0
396,19.8,8.422802664819375,-8.512729933810249,-13.480718904979561,0.08622832012697756,0.1855726800345181,-1.2596346358042432,0.0014284869608971462,0.005874287135299028,-0.046623131282785835,0.0,70.0,255.0,255.0,255.0
397,19.85,8.4271156642435,-8.503444005860837,-13.54375879185401,0.08632443999905703,0.18585885616824172,-1.261990365832144,0.0026233789753860037,0.005659066801833035,-0.04772284825502737,0.0,70.0,255.0,255.0,255.0
398,19.900000000000002,8.431435108819281,-8.494144048193425,-13.606917941562775,0.08649065802451616,0.1861385867147014,-1.264406920629746,0.00401010950081826,0.005628804723301073,-0.04889878870901754,0.0,70.0,255.0,255.0,255.0
399,19.950000000000003,8.435764730045952,-8.484830147189367,-13.670199483916985,0.08672545094913886,0.18642173664057182,-1.2668802447030458,0.005142682361913842,0.0058037518929410226,-0.049839301189891216,0.0,70.0,255.0,255.0,255.0
400,20.0,8.440107653914195,-8.475501874529368,-13.73360596603308,0.08700492626070755,0.1867189619039955,-1.269390850748735,0.005570856815850789,0.006210149489582761,-0.05024675736535755,0.0,70.0,255.0,255.0,255.0
401,20.05,8.444465222672022,-8.466158250998967,-13.797138568991858,0.08728253663072394,0.1870427515895301,-1.2719049204395816,0.005070430538189896,0.006842977301246833,-0.049973490208721216,0.0,70.0,255.0,255.0,255.0
402,20.1,8.448835907577267,-8.456797599370415,-13.860796458077038,0.08751196931452654,0.1874032596341202,-1.2743881997696072,0.0038777455673155714,0.007586411659232795,-0.04914462037621803,0.0,70.0,255.0,255.0,255.0
403,20.150000000000002,8.453216419603475,-8.447417925035555,-13.92457738896882,0.0876703111874555,0.18780139275545338,-1.2768193824772034,0.002459991328862543,0.00824549698545951,-0.04802629842153294,0.0,70.0,255.0,255.0,255.0
404,20.200000000000003,8.457602938696013,-8.43801746009487,-13.988478396324759,0.08775796844741279,0.18822780933266614,-1.2791908296117604,0.001283924667738745,0.008620174884832466,-0.04689833152635714,0.0,70.0,255.0,255.0,255.0
405,20.25,8.461992216448216,-8.428595144102289,-14.052496471929995,0.08779870365422937,0.18866341024393662,-1.281509215629839,0.0008196117310177442,0.008513108016217075,-0.04603654690527037,0.0,70.0,255.0,255.0,255.0
406,20.3,8.466382809061436,-8.419151119070476,-14.116629317887742,0.08783992962051457,0.18907912013428785,-1.2837944843022875,0.0013029377392115293,0.007839491306960156,-0.04559516895472626,0.0,70.0,255.0,255.0,255.0
407,20.35,8.470776209410268,-8.40968723208886,-14.180875920360224,0.08792899742815052,0.18944735937463264,-1.2860687325253117,0.0024948229052412785,0.006761533645516238,-0.045531397511133775,0.0,70.0,255.0,255.0,255.0
408,20.400000000000002,8.475175708804251,-8.400206383133012,-14.245236191140274,0.0880894119110387,0.18975527349883947,-1.2883476240534009,0.003920741034946218,0.005584638569189337,-0.04572496865531406,0.0,70.0,255.0,255.0,255.0
409,20.450000000000003,8.479585150601372,-8.390711704738976,-14.309710682765564,0.08832107153164515,0.19000582323155157,-1.2906412293908431,0.005108472113057871,0.004621096354107124,-0.04605977363958402,0.0,70.0,255.0,255.0,255.0
410,20.5,8.484007815957415,-8.381205800809857,-14.374300314079358,0.08860025912234448,0.19021738313425018,-1.2929536014173593,0.005582770850764973,0.0041653904741423275,-0.04642309230753483,0.0,70.0,255.0,255.0,255.0
411,20.55,8.488445176513606,-8.371689966425551,-14.4390060429073,0.08887934861672164,0.1904223622789658,-1.2952835386215966,0.0051046716521341295,0.004366143718392834,-0.04674028618509851,0.0,70.0,255.0,255.0,255.0
412,20.6,8.492895750819088,-8.36216356458196,-14.503828667941518,0.0891107262875579,0.19065399750608947,-1.2976276300358691,0.00391377866435505,0.005117570307433539,-0.04697165438187767,0.0,70.0,255.0,255.0,255.0
413,20.650000000000002,8.497356249142362,-8.352624566674942,-14.568768805910887,0.08927072648315715,0.19093411930970916,-1.2999807040597844,0.0024862286803539746,0.006184993026536745,-0.04707028383528211,0.0,70.0,255.0,255.0,255.0
414,20.700000000000003,8.501822823467403,-8.34307015265099,-14.633826738347496,0.08935934915559329,0.19127249680874314,-1.3023346584193973,0.0012953337318322156,0.007322665807052431,-0.04697688626986718,0.0,70.0,255.0,255.0,255.0
415,20.75,8.506292184057921,-8.333497316994068,-14.699002271752827,0.08940025985634037,0.1916663858904144,-1.304678392686771,0.0008172302731423997,0.008301320762527098,-0.04661905589102844,0.0,70.0,255.0,255.0,255.0
416,20.8,8.510762849453037,-8.323903514061948,-14.764294577616173,0.08944107218290753,0.19210262888499585,-1.3069965640085002,0.0012915225056531199,0.008983672747753246,-0.04597646019757207,0.0,70.0,255.0,255.0,255.0
417,20.85,8.515236291276212,-8.314287054105568,-14.829701928153677,0.08952941210690568,0.19256475316518973,-1.3092760387065283,0.002479246587760997,0.00933545785208878,-0.04518375652438067,0.0,70.0,255.0,255.0,255.0
418,20.900000000000002,8.519715790663728,-8.30464703874543,-14.895222181486826,0.08968899684168363,0.19303617467020473,-1.3115149396609382,0.003905160095563076,0.009346438275059654,-0.04447296360314823,0.0,70.0,255.0,255.0,255.0
419,20.950000000000003,8.52420519096038,-8.294983436638548,-14.96085342211977,0.08991992811646199,0.1934993969926957,-1.3137233350668431,0.005097046106250502,0.009009266059578636,-0.04407874188530059,0.0,70.0,255.0,255.0,255.0
420,21.0,8.528707783475374,-8.28529709904616,-15.02659451499351,0.09019870145230868,0.1939371012761626,-1.3159228138494683,0.005580382647352167,0.008317345123387554,-0.044240637508075054,0.0,70.0,255.0,255.0,255.0
421,21.05,8.533225061105611,-8.275589726510931,-15.092445703504717,0.0904779663811972,0.19433113150503445,-1.3181473988176506,0.005116091472068263,0.007297114008864014,-0.045061472092911004,0.0,70.0,255.0,255.0,255.0
422,21.1,8.537755580113494,-8.265863985895656,-15.158409254875275,0.09071031059951551,0.194666812677049,-1.3204289610587594,0.00394005083546034,0.006102276605801649,-0.04632707243370504,0.0,70.0,255.0,255.0,255.0
423,21.150000000000002,8.542296092165563,-8.256123045243227,-15.224488599610593,0.09087197146474324,0.1949413591656146,-1.3227801060610211,0.0025223150871056532,0.004990932193571496,-0.04764243051749162,0.0,70.0,255.0,255.0,255.0
424,21.200000000000003,8.546842777259968,-8.246369849979095,-15.290687265481377,0.09096254210822607,0.19516590589640614,-1.3251932041105086,0.0013296286974551208,0.004238218673791039,-0.04860931169048399,0.0,70.0,255.0,255.0,255.0
425,21.25,8.551392346376385,-8.236606454653586,-15.357007920021644,0.09100493433448875,0.19536518103299372,-1.3276410372300695,0.0008291645450242413,0.004117317392449138,-0.04884245002028109,0.0,70.0,255.0,255.0,255.0
426,21.3,8.555943270693417,-8.226833331875795,-15.423451369204384,0.0910454585627285,0.19557763763565106,-1.3300774491125367,0.0012572584584091828,0.004748896856554552,-0.048156765649487454,0.0,70.0,255.0,255.0,255.0
427,21.35,8.560496892232658,-8.21704869089002,-15.490015664932898,0.09113066018032967,0.19584007071864917,-1.3324567137950183,0.0023897342179779457,0.00592648467616641,-0.046759608752466875,0.0,70.0,255.0,255.0,255.0
428,21.400000000000002,8.56505633671145,-8.20724932480393,-15.556697040583886,0.09128443198452629,0.1961702861032677,-1.3347534099877834,0.003776395407584232,0.007257105678171172,-0.04506733763687265,0.0,70.0,255.0,255.0,255.0
429,21.450000000000003,8.56962533543111,-8.197431662279694,-15.623491005931676,0.0915082997210881,0.1965657812864663,-1.3369634475587056,0.0049712922516320646,0.00833231145946911,-0.043509559138676934,0.0,70.0,255.0,255.0,255.0
430,21.5,8.574207166683559,-8.187592746675284,-15.690393385339757,0.0917815612096895,0.1970035172492146,-1.339104365901651,0.005535033763592878,0.00874140395445977,-0.04250555308846771,0.0,70.0,255.0,255.0,255.0
431,21.55,8.57880349155208,-8.177731310554773,-15.757401442521841,0.09206180309744738,0.19743992168191227,-1.3412140028675523,0.005241727842708599,0.008280725137943534,-0.04227752591425826,0.0,70.0,255.0,255.0,255.0
432,21.6,8.583413346993304,-8.167848754507093,-15.824514785626512,0.09230573399396036,0.19783158976300896,-1.3433321184930769,0.0042718281433096195,0.007162600541477104,-0.04270274430275833,0.0,70.0,255.0,255.0,255.0
433,21.650000000000002,8.588034064951476,-8.157948151578472,-15.891734654371149,0.09248898591177834,0.19815618173605998,-1.3454842772978282,0.0030012874304929937,0.005809829243297315,-0.04350080634853981,0.0,70.0,255.0,255.0,255.0
434,21.700000000000003,8.592662245584481,-8.148033136333487,-15.959063213356295,0.09260586273700966,0.1984125726873387,-1.3476821991279309,0.001805062437476579,0.004645682340687074,-0.04438536550814831,0.0,70.0,255.0,255.0,255.0
435,21.75,8.597294651225177,-8.138106894309738,-16.026502874283942,0.092669492155526,0.19862074997012868,-1.349922813848643,0.001050653781042854,0.004084992197483928,-0.04506335627318947,0.0,70.0,255.0,255.0,255.0
436,21.8,8.601929194800034,-8.128171061336474,-16.09405549474116,0.09271092811511394,0.1988210719070871,-1.3521885347552498,0.0009351774894028608,0.004341349445624587,-0.045368095728193225,0.0,70.0,255.0,255.0,255.0
437,21.85,8.606565744036688,-8.11822478711903,-16.161721727759467,0.09276300990446629,0.19905488491469114,-1.3544596234214623,0.0013539089190217624,0.005252297307833942,-0.04535491520059054,0.0,70.0,255.0,255.0,255.0
438,21.900000000000002,8.61120549579048,-8.108265572845005,-16.229501457083305,0.09284631900701612,0.19934630163787048,-1.3567240262753089,0.0020683383194608496,0.006474393198452333,-0.04516141832269227,0.0,70.0,255.0,255.0,255.0
439,21.950000000000003,8.61585037593739,-8.098290156955242,-16.297394130386998,0.09296984373641237,0.19970232423453638,-1.3589757652537315,0.002841371753170563,0.007665099036913148,-0.044910377431506276,0.0,70.0,255.0,255.0,255.0
440,22.0,8.620502480164122,-8.088295340421551,-16.36539903360868,0.09313045618233318,0.2001128115415618,-1.3612150640184595,0.0034343790851210088,0.00849867387593406,-0.04472894722447052,0.0,70.0,255.0,255.0,255.0
441,22.05,8.625163421555623,-8.078278875801086,-16.433515636788844,0.09331328164492447,0.20055219162212978,-1.3634486599761786,0.0037120144122937404,0.008794529760791647,-0.04468943849396112,0.0,70.0,255.0,255.0,255.0
442,22.1,8.629833808328614,-8.068240121259338,-16.501743899606296,0.09350165762356255,0.20099226451764096,-1.3656840078678556,0.0037171049442008552,0.00859725451647364,-0.04475666249419419,0.0,70.0,255.0,255.0,255.0
443,22.150000000000002,8.63451358731798,-8.058179649349322,-16.57008403757563,0.09368499213934456,0.20141191707377715,-1.367924326225598,0.0035591122049538626,0.008042714512512816,-0.04485529192201909,0.0,70.0,255.0,255.0,255.0
444,22.200000000000003,8.639202307542549,-8.04809892955196,-16.638536332228856,0.09385756884405794,0.20179653596889224,-1.3701695370600575,0.0033370496188567245,0.007267721045067788,-0.044926038519932376,0.0,70.0,255.0,255.0,255.0
445,22.25,8.643899344202385,-8.037999995752433,-16.707100991281635,0.09401869710123023,0.20213868917828393,-1.3724169300775912,0.0031517832598026985,0.006400312298460165,-0.0449249107710159,0.0,70.0,255.0,255.0,255.0
446,22.3,8.648604177252672,-8.027885060634132,-16.775778025236615,0.0941727471700382,0.20243656719873826,-1.374662028137159,0.0030628254670261867,0.0055322797637202825,-0.04482706404793646,0.0,70.0,255.0,255.0,255.0
447,22.35,8.653316618919389,-8.017756339032559,-16.84456719409535,0.09432497964793285,0.20269191715465595,-1.376899636482385,0.003056738902174061,0.004755887425034189,-0.04462020638520414,0.0,70.0,255.0,255.0,255.0
448,22.400000000000002,8.658036675217465,-8.007615868918666,-16.913467988884854,0.09447842106025561,0.20291215594124168,-1.3791240487756795,0.003096984421446791,0.0042000634365102485,-0.04429648158925659,0.0,70.0,255.0,255.0,255.0
449,22.450000000000003,8.662764461025414,-7.997465123438435,-16.98247959897292,0.09463467809007753,0.20311192349830698,-1.3813292846413106,0.003156630239331548,0.004002478320330738,-0.043851668957017864,0.0,70.0,255.0,255.0,255.0
450,22.5,8.667500143026473,-7.987304676568836,-17.051600917348985,0.09479408408418877,0.20331240377327475,-1.3835092156713813,0.0032105158489059704,0.004300076929197871,-0.04326744698879281,0.0,70.0,255.0,255.0,255.0
451,22.55,8.672243869433833,-7.977133883061107,-17.120830520540057,0.09495572967496813,0.20354193119122677,-1.3856560293401898,0.0032433970039491555,0.0051378896457343615,-0.04254850577645186,0.0,70.0,255.0,255.0,255.0
452,22.6,8.67699571599397,-7.966950483449713,-17.190166520283004,0.09511842378458368,0.2038261927378482,-1.3877640662490265,0.0032559394455233814,0.006333881099607197,-0.04180157956099606,0.0,70.0,255.0,255.0,255.0
453,22.650000000000002,8.681755711812292,-7.956751263787322,-17.25960692716496,0.09528132361952046,0.20417531930118749,-1.3898361872962894,0.003252950111765074,0.007559828944359026,-0.04120055328584726,0.0,70.0,255.0,255.0,255.0
454,22.700000000000003,8.686523848355922,-7.946532951519594,-17.329150139012633,0.09544371879576019,0.2045821756322841,-1.3918841215776112,0.003236429426323184,0.008470617420996973,-0.04091334626004084,0.0,70.0,255.0,255.0,255.0
455,22.75,8.691300083691868,-7.936293046224094,-17.39879533932272,0.09560496656215278,0.20502238104328718,-1.3939275219222935,0.003206153342638629,0.008719379984700737,-0.04110124533127646,0.0,70.0,255.0,255.0,255.0
456,22.8,8.696084345012137,-7.926030713415265,-17.468542891204862,0.09576433413002405,0.20545411363075416,-1.3959942461107389,0.0031635865147094933,0.008142362119301083,-0.04182702473300992,0.0,70.0,255.0,255.0,255.0
457,22.85,8.70087651710487,-7.9157476348610185,-17.538394763933795,0.09592132521362373,0.2058366172552173,-1.3981102243955945,0.003119503316284522,0.006958471626639096,-0.042928160682365046,0.0,70.0,255.0,255.0,255.0
458,22.900000000000002,8.7056764775335,-7.905447051689744,-17.60835391364442,0.0960762844616525,0.20614996079341807,-1.4002870621789754,0.0030912151339990146,0.0055915764976433024,-0.04410410247146501,0.0,70.0,255.0,255.0,255.0
459,22.950000000000003,8.710484145551035,-7.895132638781677,-17.678423470151692,0.09623044672702363,0.20639577490498162,-1.402520634642741,0.0030976520559278242,0.0044743993149687356,-0.0450431977508714,0.0,70.0,255.0,255.0,255.0
460,23.0,8.715299522206202,-7.8848074741992455,-17.748605977108696,0.09638604966724529,0.20659740072491495,-1.4047913819540625,0.003164870778249451,0.004042356511479994,-0.04544757168645219,0.0,70.0,255.0,255.0,255.0
461,23.05,8.72012275051776,-7.874472898709185,-17.8189026083471,0.09654693380484858,0.20680001055612962,-1.4070653918113862,0.0033022569359886234,0.004512522016231202,-0.04516959575759927,0.0,70.0,255.0,255.0,255.0
462,23.1,8.724954215586687,-7.864127473143633,-17.889312516289834,0.09671627536084415,0.20704865292653807,-1.4093083415298224,0.0034660472891800964,0.005661416543834008,-0.04433566115729093,0.0,70.0,255.0,255.0,255.0
463,23.150000000000002,8.729794378053844,-7.853768033416531,-17.95983344250008,0.09689353853376659,0.20736615221051302,-1.4114989579271153,0.0035821893533238836,0.007044680917100976,-0.04321399253939262,0.0,70.0,255.0,255.0,255.0
464,23.200000000000003,8.734643569440063,-7.843390857922581,-18.030462412082546,0.09707449429617654,0.20775312101824817,-1.4136297407837617,0.0035796756385764184,0.008218638465429251,-0.04208663662943479,0.0,70.0,255.0,255.0,255.0
465,23.25,8.739501827483462,-7.832992721314707,-18.101196416578457,0.09725150609762423,0.20818801605705595,-1.4157076215900588,0.003386391516180254,0.008743268560618134,-0.041232477249053545,0.0,70.0,255.0,255.0,255.0
466,23.3,8.744368720049826,-7.822572056316876,-18.17203317424155,0.09741313344779456,0.20862744787430998,-1.417752988508667,0.0029735862064228513,0.00839440296234173,-0.04080685330798417,0.0,70.0,255.0,255.0,255.0
467,23.35,8.749243140828241,-7.812129976527276,-18.242971715429324,0.09754886471826651,0.20902745635329012,-1.4197883069208572,0.002418079088073455,0.0073666780498804485,-0.04076192195903161,0.0,70.0,255.0,255.0,255.0
468,23.400000000000002,8.754123606521652,-7.801669310681547,-18.314012004933637,0.09765494135660191,0.20936411567929802,-1.4218291807045702,0.0018590950523034167,0.006058883983595109,-0.040968878422020794,0.0,70.0,255.0,255.0,255.0
469,23.450000000000003,8.759008634963902,-7.791193564959346,-18.38515463349978,0.09773477422349686,0.20963334475164963,-1.4238851947630593,0.0014364192839622092,0.004870906961329524,-0.041302656665109794,0.0,70.0,255.0,255.0,255.0
470,23.5,8.763897083944002,-7.780705976206382,-18.456400524409943,0.09779858328499813,0.20985120637543098,-1.4259594463710812,0.0012815445083802501,0.0042045226258835555,-0.0416385566133215,0.0,70.0,255.0,255.0,255.0
471,23.55,8.768788493292401,-7.770208444321803,-18.52775057813689,0.09786292867433488,0.210053797014238,-1.4280490504243915,0.0014571977709820771,0.0042692134549326965,-0.04189744322289357,0.0,70.0,255.0,255.0,255.0
472,23.6,8.773683376811436,-7.759700596504958,-18.599205429452383,0.09794430306209634,0.21027812772092425,-1.4301491906933705,0.0018971608348294922,0.004902826967345675,-0.04205851580749709,0.0,70.0,255.0,255.0,255.0
473,23.650000000000002,8.778582923598611,-7.74918063154971,-18.670765497206226,0.09805264475781783,0.21054407971097255,-1.4322549020051412,0.002465066801526916,0.0057696665981765705,-0.04210695065118841,0.0,70.0,255.0,255.0,255.0
474,23.700000000000003,8.783488641287217,-7.738646188533861,-18.742430919652897,0.09819080974224903,0.2108550943807419,-1.4343598857584894,0.003015160045549692,0.0065373607287533275,-0.042017049065279366,0.0,70.0,255.0,255.0,255.0
475,23.75,8.788402004572836,-7.728095122111636,-18.814201485782075,0.0983541607623728,0.2111978157838479,-1.436456606911669,0.003399411802007535,0.006862696880460817,-0.04176126832575733,0.0,70.0,255.0,255.0,255.0
476,23.8,8.793324057363455,-7.717526406955476,-18.886076580344064,0.09853075092244978,0.21154136406878798,-1.4385360125910651,0.003538135530689601,0.006569395898825547,-0.04133614769337157,0.0,70.0,255.0,255.0,255.0
477,23.85,8.798255079665081,-7.706940985704757,-18.95805508704118,0.09870797431544176,0.21185475537373044,-1.4405902216810063,0.003476913936495407,0.005828354406034464,-0.04080578637157828,0.0,70.0,255.0,255.0,255.0
478,23.900000000000002,8.803194854794999,-7.696340931418103,-19.030135602512164,0.09887844231609932,0.21212419950939143,-1.442616591228223,0.003316162216471241,0.004975270137030918,-0.04028238657340921,0.0,70.0,255.0,255.0,255.0
479,23.950000000000003,8.80814292389669,-7.685728565753818,-19.102316746164004,0.09903959053708888,0.21235228238743353,-1.4446184603383472,0.0031567400680998503,0.00433330979827673,-0.039881920969619955,0.0,70.0,255.0,255.0,255.0
480,24.0,8.813098813848708,-7.6751057031793595,-19.174597448546,0.09919411632290931,0.2125575304892191,-1.446604783325185,0.0031127896365390484,0.004224596612267817,-0.03970835143398688,0.0,70.0,255.0,255.0,255.0
481,24.05,8.818062335528982,-7.664472812704896,-19.246977224496522,0.09935086950074279,0.21277474204866031,-1.4485892954817459,0.0032430339983235967,0.00480686262305241,-0.039811765533315224,0.0,70.0,255.0,255.0,255.0
482,24.1,8.823033900798782,-7.653828228974493,-19.319456378094173,0.09951841972274167,0.21303821675152435,-1.4505859598785165,0.0034742510166552165,0.005896575920782965,-0.04015386318130254,0.0,70.0,255.0,255.0,255.0
483,24.150000000000002,8.828014177501256,-7.643168991029744,-19.392035820484374,0.09969829460240831,0.2133643996407386,-1.4526046817998761,0.0036720558943770243,0.007135593180240818,-0.040647139421068346,0.0,70.0,255.0,255.0,255.0
484,24.200000000000003,8.833003730259023,-7.63249178901042,-19.46471684627416,0.09988562531217937,0.21375177606954843,-1.4546506738206233,0.0037107934367952566,0.008170052758682544,-0.04119577988070944,0.0,70.0,255.0,255.0,255.0
485,24.25,8.838002740032474,-7.621793813422789,-19.537500887866436,0.10006937394608784,0.21418140491660687,-1.456724259787947,0.003453485596516259,0.008662972614104092,-0.04171730729112255,0.0,70.0,255.0,255.0,255.0
486,24.3,8.843010667653632,-7.611073648518759,-19.610389272252956,0.100230973871831,0.21461807333095884,-1.4588224045497356,0.0028426422273852836,0.008442780648643122,-0.04215730298966491,0.0,70.0,255.0,255.0,255.0
487,24.35,8.848025837419657,-7.600332006089693,-19.68338312832141,0.10035363816882636,0.21502568298147118,-1.4609399900869136,0.002027853557073911,0.00763522536129102,-0.042462397263065554,0.0,70.0,255.0,255.0,255.0
488,24.400000000000002,8.853046031470514,-7.589571080220612,-19.756483271261647,0.10043375922753839,0.21538159586708794,-1.463068644276042,0.001274681804552813,0.006513312852884923,-0.042564580216719605,0.0,70.0,255.0,255.0,255.0
489,24.450000000000003,8.85806921334241,-7.578793846502984,-19.829689992749014,0.10048110634928165,0.21567701426675967,-1.4651964481085855,0.0008461467919218535,0.005359253058934144,-0.04240218561832876,0.0,70.0,255.0,255.0,255.0
490,24.5,8.863094142105442,-7.568003378793936,-19.903002916072506,0.10051837390673057,0.21591752117298135,-1.467308862837875,0.0010132213592584094,0.0044475222554574145,-0.0419184567000741,0.0,70.0,255.0,255.0,255.0
491,24.55,8.868121050733084,-7.557202094385686,-19.9764208790328,0.10058242848520749,0.2161217664923054,-1.469388293778593,0.001893996159907374,0.003934275855232983,-0.04110419732974435,0.0,70.0,255.0,255.0,255.0
492,24.6,8.873152384953963,-7.546391202144705,-20.049941745450365,0.10070777352272131,0.21631094875850465,-1.4714192825708494,0.0032480876678064874,0.003795249907234677,-0.04007915848838195,0.0,70.0,255.0,255.0,255.0
493,24.650000000000002,8.878191828085356,-7.535570999509836,-20.123562807289886,0.10090723725198814,0.21650129148302888,-1.4733962096274311,0.004633785650476341,0.0039401064573674205,-0.03905444647323009,0.0,70.0,255.0,255.0,255.0
494,24.700000000000003,8.883243108679162,-7.524741072996402,-20.197281366413108,0.10117115208776895,0.2167049594042414,-1.4753247272181724,0.00560578489672281,0.004278622650577546,-0.03825393918432951,0.0,70.0,255.0,255.0,255.0
495,24.75,8.888308943294133,-7.5139005035694115,-20.271095280011703,0.10146781574166042,0.21692915374808663,-1.477221603545864,0.0057176849130868845,0.004710947687769362,-0.03789688455881901,0.0,70.0,255.0,255.0,255.0
496,24.8,8.893389890253328,-7.503048157621594,-20.345003526767695,0.10174292057907763,0.21717605417301833,-1.4791144156740543,0.004760487352584164,0.005168367678454189,-0.038086420511262986,0.0,70.0,255.0,255.0,255.0
497,24.85,8.89848323535204,-7.49218289815211,-20.41900672157911,0.10194386447691883,0.21744599051593205,-1.4810302455969904,0.003031450782309264,0.005623868249760022,-0.03869378929479694,0.0,70.0,255.0,255.0,255.0
498,24.900000000000002,8.90358427670102,-7.4813035585700005,-20.493106551327394,0.10204606565730856,0.21773844099799433,-1.482983794603534,0.0011001989026482306,0.00604365059606593,-0.039463974218989506,0.0,70.0,255.0,255.0,255.0
499,24.950000000000003,8.908687841917772,-7.47040905405231,-20.567305101039462,0.10205388436718366,0.21805035557553865,-1.4849766430188893,-0.00045716516723359746,0.006374368227035632,-0.04012928375267677,0.0,70.0,255.0,255.0,255.0
500,25.0,8.913789665137738,-7.459498523012447,-20.641604215629282,0.1020003491405852,0.2183758778206979,-1.4869967229788017,-0.0010720262784147394,0.006560621724815974,-0.040414005063738045,0.0,70.0,255.0,255.0,255.0
501,25.05,8.91888787683183,-7.4485714662702405,-20.716004773337342,0.10194668173934218,0.21870641774802024,-1.4890180435252631,-0.00046228589560826094,0.00657882685688449,-0.04017734672956408,0.0,70.0,255.0,255.0,255.0
502,25.1,8.923984333311672,-7.437627881237645,-20.79050601998181,0.10195412055102437,0.21903376050638634,-1.491014457651758,0.0010908178275315095,0.006471981056588305,-0.03955202465810714,0.0,70.0,255.0,255.0,255.0
503,25.150000000000002,8.929083288886932,-7.426668090219602,-20.86510621910252,0.10205576352209533,0.21935361585367907,-1.4929732459910738,0.003019870952414294,0.006322587196638807,-0.03880247716665508,0.0,70.0,255.0,255.0,255.0
504,25.200000000000003,8.934189909663882,-7.415692519652277,-20.939803344580916,0.1022561076462658,0.21966601922605022,-1.4948947053684236,0.0047502417388045615,0.006223904441426953,-0.03818929876722166,0.0,70.0,255.0,255.0,255.0
505,25.25,8.939308899651559,-7.404701488296997,-21.01459568963936,0.10253078769597579,0.21997600629782177,-1.496792175867796,0.005714476145257663,0.0062905747364006,-0.037979029916357376,0.0,70.0,255.0,255.0,255.0
506,25.3,8.94444298843348,-7.3936949190224945,-21.089482562167696,0.10282755526079157,0.22029507669969028,-1.4986926083600594,0.005616022197685311,0.006575812073350562,-0.03830405270655035,0.0,70.0,255.0,255.0,255.0
507,25.35,8.949591655177638,-7.382671980627028,-21.164464950475367,0.10309238991574432,0.22063358750515683,-1.500622581138451,0.00465973012087062,0.006967275123326289,-0.0390127041470123,0.0,70.0,255.0,255.0,255.0
508,25.400000000000002,8.954752227425054,-7.371631560271979,-21.23954482028154,0.10329352827287863,0.2209918042120229,-1.5025938787747606,0.003285025911026196,0.007267772179186949,-0.039811525042310336,0.0,70.0,255.0,255.0,255.0
509,25.450000000000003,8.959921008004926,-7.3605728002058255,-21.314724338352843,0.10342089250684694,0.22136036472307552,-1.504603733642682,0.0019298578861182136,0.0072896410468814565,-0.040413661040972215,0.0,70.0,255.0,255.0,255.0
510,25.5,8.965094316675739,-7.349495523799671,-21.39000519364581,0.10348651406149045,0.22172076831671106,-1.5066352448788578,0.0010260564316411092,0.006833163245278939,-0.04053794053753279,0.0,70.0,255.0,255.0,255.0
511,25.55,8.970269659411075,-7.338400723374154,-21.46538786284073,0.10352349815001105,0.22204368104760341,-1.5086575276964354,0.0008103183175123263,0.005817039068389818,-0.04004606948342371,0.0,70.0,255.0,255.0,255.0
512,25.6,8.97544666649074,-7.327291155694911,-21.540870946415453,0.10356754589324169,0.22230247222355004,-1.5106398518272002,0.0011802849970266038,0.004462461574039622,-0.03908433824086899,0.0,70.0,255.0,255.0,255.0
513,25.650000000000002,8.9806264140004,-7.316170476151799,-21.61645184802345,0.10364152664971371,0.22248992720500738,-1.5125659615205223,0.0018916804149782251,0.003164459285809329,-0.03794508233490035,0.0,70.0,255.0,255.0,255.0
514,25.700000000000003,8.985810819155711,-7.30504216297441,-21.692127542567505,0.10375671393473951,0.22261891815213097,-1.5144343600606902,0.0027094409364991634,0.002316365869692305,-0.03692211767898357,0.0,70.0,255.0,255.0,255.0
515,25.75,8.991002085393873,-7.293908584336586,-21.767895284029517,0.10391247074336363,0.2227215637919766,-1.5162581732884206,0.0034053540726830533,0.0023087070130323184,-0.036297179963185044,0.0,70.0,255.0,255.0,255.0
516,25.8,8.996202066230047,-7.282770006595213,-21.843753359896347,0.10409724934200781,0.2228497888534342,-1.5180640780570087,0.0038438700340037713,0.0033174302539684675,-0.03621824278212671,0.0,70.0,255.0,255.0,255.0
517,25.85,9.001411810328074,-7.271623605451243,-21.91970169183522,0.104296857746764,0.22305330681737345,-1.5198799975666333,0.004023698655686303,0.005052155970197703,-0.03660183100038239,0.0,70.0,255.0,255.0,255.0
518,25.900000000000002,9.006631752004724,-7.260464675913475,-21.99574135965301,0.10449961920757644,0.22335500445045398,-1.521724261157047,0.003982005341640615,0.006962595806836447,-0.037256257508744284,0.0,70.0,255.0,255.0,255.0
519,25.950000000000003,9.011861772248832,-7.2492881050061975,-22.071874117950923,0.10469505828092807,0.2237495663980571,-1.5236056233175077,0.0037466907215844003,0.008486573796329111,-0.03798458153205786,0.0,70.0,255.0,255.0,255.0
520,26.0,9.017101257832817,-7.2380897192736695,-22.14810192198476,0.10487428827973488,0.2242036618300869,-1.5255227193102527,0.003344508631286658,0.009068045997828733,-0.038593339608183896,0.0,70.0,255.0,255.0,255.0
521,26.05,9.022349201076805,-7.226867738823189,-22.22442638988195,0.10502950914405673,0.22465637099783997,-1.527464957278326,0.0028064626187429553,0.008432866954777296,-0.03896869831336858,0.0,70.0,255.0,255.0,255.0
522,26.1,9.027604208747222,-7.2156240821738855,-22.300848417712594,0.10515493454160918,0.22504694852556462,-1.5294195891415896,0.0022057595396418606,0.00686420592019843,-0.039112906518923296,0.0,70.0,255.0,255.0,255.0
523,26.150000000000002,9.032864694530966,-7.204363043970632,-22.377368348796107,0.10525008509802092,0.22534279158985981,-1.5313762479302184,0.0016611373782282612,0.004930705273142877,-0.03906364054735434,0.0,70.0,255.0,255.0,255.0
524,26.200000000000003,9.038129217257024,-7.1930898030148995,-22.453986042505615,0.105321048279432,0.2255400190528789,-1.533325953196325,0.001302770537314757,0.003209972978890363,-0.038853868553445636,0.0,70.0,255.0,255.0,255.0
525,26.25,9.04339679935891,-7.181809042065344,-22.53070094411574,0.1053803621517524,0.22566378888774885,-1.535261634785563,0.0012606207283383242,0.0022750530508375277,-0.038521442953154406,0.0,70.0,255.0,255.0,255.0
526,26.3,9.0486672534722,-7.170523424126125,-22.60751220598417,0.10544711035226584,0.22576752435796266,-1.5371780974916405,0.0015907923112123967,0.0024237359585121965,-0.03809922503137386,0.0,70.0,255.0,255.0,255.0
527,26.35,9.053941510394136,-7.159232289629548,-22.684418753864904,0.10553944138287363,0.22590616248360007,-1.5390715572887004,0.0021887876592074917,0.0034365681345960297,-0.03762738208372696,0.0,70.0,255.0,255.0,255.0
528,26.400000000000002,9.059221197610487,-7.147932807877765,-22.761419361713042,0.10566598911818659,0.22611118117142226,-1.5409408357000132,0.0028570815080897205,0.004849874476864358,-0.03717001946661469,0.0,70.0,255.0,255.0,255.0
529,26.450000000000003,9.064508109305955,-7.136621171512406,-22.838512837434905,0.1058251495336826,0.2263911499312865,-1.5427885592353618,0.0033894532389666665,0.006199874615386847,-0.03680563190435748,0.0,70.0,255.0,255.0,255.0
530,26.5,9.069803712563855,-7.125293692884636,-22.915698217636578,0.10600493444208325,0.22673116863296094,-1.544621398890449,0.0035770177799321345,0.007019807065855588,-0.036616925873644846,0.0,70.0,255.0,255.0,255.0
531,26.55,9.075108602750163,-7.11394805464911,-22.99297497732395,0.10618285131167582,0.22709313063787206,-1.5464502518227263,0.0033170814216276767,0.007060067998665431,-0.03664111484482646,0.0,70.0,255.0,255.0,255.0
532,26.6,9.080421997695023,-7.102584379820849,-23.07034324281885,0.10633664258424602,0.2274371754328275,-1.5482855103749316,0.0027244977488294353,0.006479498231826142,-0.036814861184097936,0.0,70.0,255.0,255.0,255.0
533,26.650000000000002,9.085742267008587,-7.091204337105827,-23.147803528361443,0.10645530108655876,0.22774108046105468,-1.5501317379411361,0.002025128663873943,0.005618141808039212,-0.037018985549863714,0.0,70.0,255.0,255.0,255.0
534,26.700000000000003,9.091067527803679,-7.079810271774743,-23.225356416612964,0.10653915545063342,0.2279989896136314,-1.551987408929918,0.0014459899345453664,0.0048047010534624235,-0.0371303171156967,0.0,70.0,255.0,255.0,255.0
535,26.75,9.09639618255365,-7.068404438144464,-23.303002269254435,0.1065999000800133,0.22822155056640092,-1.5538447696527058,0.0012152708558588188,0.00436963476850849,-0.037018872198757435,0.0,70.0,255.0,255.0,255.0
536,26.8,9.10172751781168,-7.056988116718103,-23.380740893578235,0.1066606825362193,0.22843595309048226,-1.5556892961497937,0.0014474554273391504,0.004488626079801605,-0.03662302887583735,0.0,70.0,255.0,255.0,255.0
537,26.85,9.107062250807273,-7.045560842835416,-23.458571198869414,0.10674464562274721,0.22867041317438108,-1.5575070725402895,0.002027813419047675,0.005039098613046633,-0.03603587714309242,0.0,70.0,255.0,255.0,255.0
538,26.900000000000002,9.112401982373955,-7.034121075400665,-23.536491600832264,0.10686346387812407,0.22893986295178692,-1.559292883864103,0.002727811762603949,0.005764737778957141,-0.03543133436956225,0.0,70.0,255.0,255.0,255.0
539,26.950000000000003,9.117748597195085,-7.022666856540237,-23.614500487255825,0.10701742679900761,0.2292468869522768,-1.5610502059772458,0.003320013598617777,0.00642094820939576,-0.03497967306032024,0.0,70.0,255.0,255.0,255.0
540,27.0,9.123103725053856,-7.011196386705437,-23.69259662142999,0.10719546523798584,0.2295819577727265,-1.562790851170135,0.003577936092646894,0.006769719126697993,-0.03484753871312307,0.0,70.0,255.0,255.0,255.0
541,27.05,9.128468143718884,-6.999708660762964,-23.770779572372838,0.1073752204082723,0.2299238588649466,-1.564534959848558,0.003386523441228917,0.006685567542774606,-0.03511385589760607,0.0,70.0,255.0,255.0,255.0
