idx,t,px,py,pz,vx,vy,vz,ax,ay,az,yaw,mode,ledr,ledg,ledb
0,0.0,7.500000000000004,1.500000000000001,2.6151940385618948e-19,0.00042121720447596545,-0.00010330084355025804,-0.00012034154395021914,0.0014585519702237093,0.004422005623627712,-0.014931056373665201,0.0,70.0,255.0,255.0,255.0
1,0.05,7.500021060860228,1.4999948349578236,-6.017077197510695e-06,0.0004941448029871509,0.00011779943763112755,-0.0008668943626334792,0.0024055089588692624,0.006680257732494255,-0.022630202513789655,0.0,70.0,255.0,255.0,255.0
2,0.1,7.500049414480303,1.5000117799437642,-8.668943626334767e-05,0.0006617681003628917,0.0005647249296991674,-0.0023833617953291845,0.003787827954937484,0.009033008435443968,-0.030796584560497806,0.0,70.0,255.0,255.0,255.0
3,0.15000000000000002,7.5000872376702645,1.5000513074507935,-0.0002443532567304292,0.0008729275984808993,0.0010211002811755243,-0.00394655281868326,0.004658551972003266,0.009222005624054397,-0.03173105637366707,0.0,70.0,255.0,255.0,255.0
4,0.2,7.500136707240151,1.5001138899718818,-0.00048134471813167373,0.0011276232975632183,0.0014869254921046071,-0.005556467432695892,0.005534116350780494,0.009414967788234918,-0.03267170591718112,0.0,70.0,255.0,255.0,255.0
5,0.25,7.500200000000021,1.500200000000004,-0.0008000000000000185,0.0014263392335589486,0.001962597059999016,-0.007213723410401372,0.006437512818369129,0.00963072856339231,-0.03364787741018189,0.0,70.0,255.0,255.0,255.0
6,0.30000000000000004,7.500279341163507,1.5003101496778817,-0.001202717059171811,0.0017713745794001312,0.002449998348443838,-0.00892125517371408,0.007376136383729914,0.00987534555345615,-0.034669009051815955,0.0,70.0,255.0,255.0,255.0
7,0.35000000000000003,7.500377137457961,1.5004449998348484,-0.0016921255173714266,0.00216395287193194,0.002950131615344631,-0.010680624315582967,0.008286927858147664,0.010097163932165643,-0.03565461874396155,0.0,70.0,255.0,255.0,255.0
8,0.4,7.5004957364507,1.5006051628394161,-0.0022707794907301077,0.0026000673652148976,0.0034597147416604024,-0.012486717048110236,0.009069180776766217,0.010213690170601808,-0.036476175374690625,0.0,70.0,255.0,255.0,255.0
9,0.45,7.500637144194482,1.5007909713090144,-0.00294079722218245,0.0030708709496085618,0.003971500632404812,-0.01432824185305203,0.009643000812786795,0.010149694719041591,-0.03702614571032367,0.0,70.0,255.0,255.0,255.0
10,0.5,7.500802823545661,1.5010023129026566,-0.003703603676035311,0.003564367446493577,0.0044746842135645615,-0.016189331619142603,0.00996368174757123,0.009822081386157144,-0.03722103990648654,0.0,70.0,255.0,255.0,255.0
11,0.55,7.500993580939132,1.5012384397303709,-0.004559730384096711,0.004067239124365685,0.004953708771020526,-0.018050345843700685,0.010016278264224354,0.009203659586809465,-0.0370332819629007,0.0,70.0,255.0,255.0,255.0
12,0.6000000000000001,7.501209547458098,1.5014976837797587,-0.005508638260405379,0.0045659952729160125,0.005395050172245508,-0.019892659815432673,0.009806784029553484,0.008426806003702936,-0.03654301508415961,0.0,70.0,255.0,255.0,255.0
13,0.65,7.501450180466423,1.5017779447475954,-0.006548996365639978,0.005047917527321033,0.00579638937139082,-0.021704647352116645,0.00936740754911014,0.007721470848820466,-0.035907120042402534,0.0,70.0,255.0,255.0,255.0
14,0.7000000000000001,7.50171433921083,1.5020773227168978,-0.007679102995617044,0.0055027360278270265,0.006167197257127555,-0.023483371819672926,0.008757894169164615,0.007318662307764789,-0.03531013659206477,0.0,70.0,255.0,255.0,255.0
15,0.75,7.502000454069206,1.5023946644733082,-0.00889733354760727,0.0059237069442374946,0.006528255602167299,-0.025235661011323123,0.008033384896410922,0.0074516278354641585,-0.0349519242901386,0.0,70.0,255.0,255.0,255.0
16,0.8,7.502306709905254,1.5027301482771145,-0.010202669096749356,0.006306074517468119,0.0069123600406739705,-0.026978564248686786,0.007242192320333629,0.008221580142708795,-0.0349364417593279,0.0,70.0,255.0,255.0,255.0
17,0.8500000000000001,7.502631061520953,1.5030859004773756,-0.01159518997247595,0.0066479261762708575,0.007350413616438178,-0.028729305187255912,0.00648313882134488,0.009429364966795362,-0.035168752154830785,0.0,70.0,255.0,255.0,255.0
18,0.9,7.502971502522881,1.5034651896387583,-0.013075599615474947,0.006954388399602607,0.007855296537353507,-0.030495439464169865,0.005906503712349576,0.010704995198351774,-0.03546159154194716,0.0,70.0,255.0,255.0,255.0
19,0.9500000000000001,7.503326500360913,1.503871430131111,-0.014644733918892936,0.007238576547505815,0.008420913136273356,-0.03227546434145063,0.005663884049411649,0.011670108264083545,-0.03563242214053224,0.0,70.0,255.0,255.0,255.0
20,1.0,7.503695360177631,1.5043072809523856,-0.01630314604962001,0.007520776804543772,0.009022307363761861,-0.03405868167822309,0.005902778666388997,0.011943435244154976,-0.03548333752503317,0.0,70.0,255.0,255.0,255.0
21,1.05,7.5040785780413675,1.504773660867487,-0.018050602086715245,0.007828854414144715,0.009615256660688853,-0.035823798093953946,0.0066764909161243224,0.011342933595637206,-0.03492109085992838,0.0,70.0,255.0,255.0,255.0
22,1.1,7.504478245619046,1.5052688066184545,-0.019885525859015405,0.008188425896156204,0.010156600723325582,-0.03755079076421593,0.00781534599996192,0.01010561757912587,-0.03410468025922056,0.0,70.0,255.0,255.0,255.0
23,1.1500000000000001,7.504897420630983,1.5057893209398197,-0.021805681163136838,0.008610389014140907,0.01062581841860144,-0.039234266119876,0.009009374803881087,0.008689504068537524,-0.03332380982710645,0.0,70.0,255.0,255.0,255.0
24,1.2000000000000002,7.50533928452046,1.5063313884603147,-0.023808952471003005,0.009089363376544313,0.011025551130179334,-0.04088317174692657,0.00993482138103019,0.0075602519549633485,-0.03286003498567079,0.0,70.0,255.0,255.0,255.0
25,1.25,7.5058063569686375,1.5068918760528376,-0.025893998337829495,0.009603871152243926,0.011381843614097775,-0.04252026961844308,0.01027550043790626,0.0071945845679044496,-0.03300265101765336,0.0,70.0,255.0,255.0,255.0
26,1.3,7.506299671635684,1.5074695728217244,-0.028060979432847313,0.010116913420334939,0.011745009586969779,-0.04418343684869191,0.009878044481759218,0.007826545614864067,-0.03388008058184157,0.0,70.0,255.0,255.0,255.0
27,1.35,7.506818048310671,1.5080663770115346,-0.030312342022698686,0.010591675600419848,0.012164498175584182,-0.04590827767662724,0.00890536062945202,0.009177348865851975,-0.035246279722039864,0.0,70.0,255.0,255.0,255.0
28,1.4000000000000001,7.507358839195726,1.5086860226392829,-0.03265180720051004,0.01100744948328014,0.012662744473554977,-0.047708064820895894,0.007686952783014789,0.010707804378173869,-0.03664773791419926,0.0,70.0,255.0,255.0,255.0
29,1.4500000000000002,7.507918793258999,1.50933265145889,-0.035083148504788275,0.011360370878721326,0.013235278613401569,-0.04957305146804716,0.006562891031425266,0.011882450349554041,-0.037628603417952725,0.0,70.0,255.0,255.0,255.0
30,1.5,7.508494876283598,1.510009550500623,-0.03760911234731475,0.011663738586422667,0.01385098950851038,-0.05147092516269117,0.005867200933895589,0.012162329048504006,-0.03773011434840684,0.0,70.0,255.0,255.0,255.0
31,1.55,7.509085167117641,1.510717750409741,-0.04023024102105739,0.011947090972110885,0.01445151151825197,-0.05334606290288785,0.00577739176383929,0.011283937558004276,-0.03673770103181928,0.0,70.0,255.0,255.0,255.0
32,1.6,7.509689585380809,1.5114547016524482,-0.04294371863760354,0.012241477762806596,0.014979383264310808,-0.055144695265873095,0.006194167193296352,0.009557574369778443,-0.034961855864277386,0.0,70.0,255.0,255.0,255.0
33,1.6500000000000001,7.510309314893922,1.5122156887361722,-0.0457447105476447,0.01256650769144052,0.015407268955229814,-0.056842248489315586,0.00689269751337207,0.007587530167096901,-0.03299526182612214,0.0,70.0,255.0,255.0,255.0
34,1.7000000000000002,7.5109462361499535,1.5129954285479712,-0.0486279434865351,0.012930747514143803,0.0157381362810205,-0.05844422144848531,0.007646528246318951,0.005975867392948864,-0.03143767255464128,0.0,70.0,255.0,255.0,255.0
35,1.75,7.511602389645336,1.5137895023642742,-0.05158913269249323,0.013331160516072416,0.0160048556945247,-0.059986015744779714,0.008227723799070219,0.005316005997979545,-0.030888826320649848,0.0,70.0,255.0,255.0,255.0
36,1.8,7.512279352201561,1.5145959141174237,-0.05462654506101307,0.013753519894050825,0.016269736880818453,-0.061533104080550294,0.008506840677124927,0.005904650539911849,-0.03164277496454093,0.0,70.0,255.0,255.0,255.0
37,1.85,7.512977741634741,1.515416476052356,-0.05774244310054826,0.014181844583784908,0.016595320748515885,-0.06315029324123381,0.008522539361344172,0.007457062279647708,-0.033371005445562846,0.0,70.0,255.0,255.0,255.0
38,1.9000000000000001,7.513697536659939,1.5162554461922753,-0.06094157438513645,0.014605773830185242,0.017015443108783224,-0.06487020462510658,0.008376010077171259,0.009396527168070712,-0.03542566699576144,0.0,70.0,255.0,255.0,255.0
39,1.9500000000000002,7.51443831901776,1.5171180203632344,-0.06422946356305892,0.015019445591502034,0.017534973465322956,-0.06669285994080995,0.008158595051455109,0.011141446046059045,-0.03715478561756372,0.0,70.0,255.0,255.0,255.0
40,2.0,7.515199481219089,1.5180089435388076,-0.06761086037921744,0.015421633335330753,0.018129587713389128,-0.06858568318686295,0.007961857249938475,0.012117702903502447,-0.037910664285079054,0.0,70.0,255.0,255.0,255.0
41,2.0500000000000003,7.515980482351293,1.5189309791345733,-0.07108803188174521,0.01581563131649588,0.0187467437556732,-0.07048392636931786,0.007841306133204995,0.012024826249712461,-0.037364765543576595,0.0,70.0,255.0,255.0,255.0
42,2.1,7.516781044350739,1.5198836179143749,-0.07465925301614923,0.016205763948651253,0.019332070338360374,-0.07232215974122061,0.00779474295997673,0.01106862872617409,-0.0358103461297013,0.0,70.0,255.0,255.0,255.0
43,2.15,7.517601058746158,1.5208641861684093,-0.07832024785586728,0.016595105612493555,0.01985360662829061,-0.07406496098228799,0.007805033739760603,0.009691069785500162,-0.03384584641462213,0.0,70.0,255.0,255.0,255.0
44,2.2,7.518440554911988,1.521868978577204,-0.08206574911437803,0.016986267322627313,0.02030117731691039,-0.07570674438268282,0.007865292014574976,0.008332008096378907,-0.03206961854153728,0.0,70.0,255.0,255.0,255.0
45,2.25,7.519299685478421,1.5228943039001004,-0.08589092229413556,0.017381634813951052,0.0206868074379285,-0.07727192283644171,0.007976875173554276,0.007425117119597147,-0.03107243262293613,0.0,70.0,255.0,255.0,255.0
46,2.3000000000000003,7.5201787183933835,1.5239376593209968,-0.0897929413980222,0.01778395483998274,0.021043689028870105,-0.07881398764497644,0.008134648076651985,0.007208165673455724,-0.03116408360706452,0.0,70.0,255.0,255.0,255.0
47,2.35,7.521078080962419,1.5249986728029874,-0.0937723210586332,0.01819509962161625,0.021407624005274073,-0.08038833119714817,0.008298488798441639,0.007578446125999783,-0.03213315782118892,0.0,70.0,255.0,255.0,255.0
48,2.4000000000000004,7.521998228355545,1.5260784217215242,-0.09783177451773702,0.018613803719826905,0.021801533641470083,-0.08202730342709533,0.008403854964100788,0.008290848701464348,-0.03352623872105859,0.0,70.0,255.0,255.0,255.0
49,2.45,7.522939461334402,1.5271788261671344,-0.10197505140134273,0.01903548511802633,0.022236708875420508,-0.08374095506925402,0.008386950177374786,0.009109635787396542,-0.03489308054262508,0.0,70.0,255.0,255.0,255.0
50,2.5,7.523901776867348,1.5283020926090662,-0.10620587002466242,0.019452498737564383,0.022712497220209737,-0.08551661148135783,0.008182670026979366,0.009805884562186229,-0.03578767049122744,0.0,70.0,255.0,255.0,255.0
51,2.5500000000000003,7.524884711208158,1.5294500758891554,-0.11052671254947852,0.019853752120724266,0.02321729733163913,-0.08731972211837677,0.007766302026368521,0.010243676557708525,-0.03596677881605309,0.0,70.0,255.0,255.0,255.0
52,2.6,7.52588715207942,1.5306238223422302,-0.1149378422365001,0.020229128940201235,0.02373686487598059,-0.08911328936296314,0.007213073408518511,0.01042215553457293,-0.03554699927552918,0.0,70.0,255.0,255.0,255.0
53,2.6500000000000004,7.526907624102178,1.5318237623767534,-0.11943804148577483,0.020575059461576117,0.024259512885096424,-0.09087442204592969,0.006658614002663654,0.010379288322259761,-0.034797543689482624,0.0,70.0,255.0,255.0,255.0
54,2.7,7.527944658025578,1.5330497736307398,-0.12402528444109306,0.0208949903404676,0.024774793708206566,-0.0925930437319114,0.006239681168995759,0.010143761108105664,-0.03397894506883131,0.0,70.0,255.0,255.0,255.0
55,2.75,7.528997123136225,1.534301241747574,-0.12869734585896597,0.021199027578475693,0.02527388899590699,-0.09427231655281282,0.006084426070085414,0.00974332598380201,-0.03335282946809737,0.0,70.0,255.0,255.0,255.0
56,2.8000000000000003,7.530064560783425,1.5355771625303305,-0.13345251609637435,0.021503432947476142,0.025749126306586767,-0.09592832667872114,0.006253943351186564,0.009209389168174376,-0.03306763562758164,0.0,70.0,255.0,255.0,255.0
57,2.85,7.531147466430973,1.5368761543782328,-0.1382901785268381,0.02182442191359435,0.026194827912724428,-0.09757908011557098,0.006684742043194802,0.008613770896537254,-0.033074276312122786,0.0,70.0,255.0,255.0,255.0
58,2.9000000000000004,7.532247002974785,1.538196645321603,-0.14321042410793144,0.022171907151795622,0.026610503396240492,-0.09923575430993342,0.0072453253895155,0.008072837170258751,-0.03324983360724343,0.0,70.0,255.0,255.0,255.0
59,2.95,7.533364657146152,1.5395372047178568,-0.14821375395783143,0.0225489544525459,0.027002111629750303,-0.10090406347629532,0.007794837967889379,0.0077142941389718445,-0.033483540114445653,0.0,70.0,255.0,255.0,255.0
60,3.0,7.534501898420039,1.540896856484578,-0.15330083045556098,0.02295139094858456,0.027381932810137677,-0.10258410832137799,0.0081916070440613,0.007664820826502883,-0.03366105825644006,0.0,70.0,255.0,255.0,255.0
61,3.0500000000000003,7.535659796241011,1.5422753979988706,-0.15847216478996923,0.02336811515695203,0.02776859371240059,-0.10427016930193933,0.00835843738862252,0.007979279590286659,-0.0337166180675752,0.0,70.0,255.0,255.0,255.0
62,3.1,7.536838709935735,1.543673715855818,-0.1637278473857549,0.023787234687446812,0.028179860769166343,-0.1059557701281355,0.008331594782795548,0.008558285355020345,-0.03367682787689119,0.0,70.0,255.0,255.0,255.0
63,3.1500000000000004,7.5380385197097555,1.5450933840757872,-0.16906774180278278,0.024201274635231584,0.028624422247902626,-0.10763785208962845,0.008195608915162467,0.009212999360297403,-0.03360135031975631,0.0,70.0,255.0,255.0,255.0
64,3.2,7.539258837399258,1.5465361580806083,-0.17449163259471775,0.02460679557896306,0.029101160705196083,-0.10931590516011114,0.008034766493025813,0.009746288443102102,-0.03354069400719195,0.0,70.0,255.0,255.0,255.0
65,3.25,7.540499199267652,1.5480035001463068,-0.1799993323187939,0.025004751284534166,0.029599051092212836,-0.11099192149034764,0.007941127106025903,0.00996140003408641,-0.03355090953412743,0.0,70.0,255.0,255.0,255.0
66,3.3000000000000003,7.541759312527711,1.5494960631898296,-0.18559082474375252,0.02540090828956565,0.030097300708604724,-0.11267099611352388,0.007965080986682693,0.00976020575726988,-0.03365917881543168,0.0,70.0,255.0,255.0,255.0
67,3.35,7.543039290096608,1.5510132302171673,-0.19126643193014628,0.025801259383202435,0.030575071667939824,-0.11435783937189081,0.008067946424183958,0.009238495608832054,-0.03381841218031423,0.0,70.0,255.0,255.0,255.0
68,3.4000000000000004,7.544339438466031,1.5525535703566236,-0.1970266086809416,0.026207702931984045,0.03102115026948793,-0.1160528373315553,0.008174010511652341,0.0085897574634064,-0.03394476511371369,0.0,70.0,255.0,255.0,255.0
69,3.45,7.545660060389807,1.554115345244116,-0.2028717156633018,0.02661866043436767,0.031434047414280464,-0.11775231588326218,0.00821900981193835,0.008007125515341329,-0.033960397143500964,0.0,70.0,255.0,255.0,255.0
70,3.5,7.547001304509468,1.5556969750980516,-0.20880184026926782,0.02702960391317788,0.03182186282102206,-0.1194488770459054,0.00814794047654388,0.007673541740982337,-0.03378733157908265,0.0,70.0,255.0,255.0,255.0
71,3.5500000000000003,7.5483630207811245,1.5572975315262183,-0.21481660336789235,0.027433454482022057,0.0322014015883787,-0.12113104904117045,0.007934152418886953,0.007686470807022339,-0.03339286713689715,0.0,70.0,255.0,255.0,255.0
72,3.6,7.54974464995767,1.5589171152568895,-0.22091494517338486,0.027823019155066575,0.032590509901724296,-0.12278816375959511,0.0075983910822863265,0.008002324284261952,-0.03285129496361783,0.0,70.0,255.0,255.0,255.0
73,3.6500000000000004,7.551145322696631,1.5605565825163907,-0.22709541974385186,0.02819329359025069,0.03300163401680489,-0.12441617853753223,0.007187416636611488,0.0085133787115943,-0.03229865682445876,0.0,70.0,255.0,255.0,255.0
74,3.7,7.552563979316695,1.56221727865857,-0.2333565630271381,0.028541760818727724,0.033441847772883726,-0.126018029442041,0.006748681437862558,0.009111922782256698,-0.03187049131158082,0.0,70.0,255.0,255.0,255.0
75,3.75,7.553999498778504,1.563900767293679,-0.23969722268805596,0.028868161734036946,0.03391282629503056,-0.1276032276686903,0.006311120312751939,0.009708442326061828,-0.03169174550151366,0.0,70.0,255.0,255.0,255.0
76,3.8000000000000003,7.555450795490099,1.565608561288073,-0.24611688579400712,0.029172872850002918,0.03441269200548991,-0.12918720399219236,0.005898309338281393,0.010241137121802524,-0.03182315217079568,0.0,70.0,255.0,255.0,255.0
77,3.85,7.556916786063504,1.567342036494228,-0.2526159430872752,0.029457992667865085,0.034936940007210815,-0.13078554288576988,0.005575785283262746,0.0106358436176901,-0.03221193244073717,0.0,70.0,255.0,255.0,255.0
78,3.9000000000000004,7.558396594756886,1.569102255288794,-0.2591954400825841,0.029730451378329192,0.03547627636725892,-0.13240839723626607,0.005439026904419109,0.010792252165803262,-0.0327442439520681,0.0,70.0,255.0,255.0,255.0
79,3.95,7.559889831201337,1.570889664130954,-0.2658567828109018,0.030001895358306996,0.03601616522379114,-0.1340599672809767,0.005572837863798696,0.010612409462806838,-0.03329815043069395,0.0,70.0,255.0,255.0,255.0
80,4.0,7.561396784292716,1.5727038718111732,-0.2726014368106818,0.030287735164709062,0.0365375173135396,-0.13573821227933547,0.0060595130046081636,0.009988726250820257,-0.033757667766831645,0.0,70.0,255.0,255.0,255.0
81,4.05,7.562918604717808,1.574543415862308,-0.27943060403883535,0.030607846658767812,0.03701503784887317,-0.13743573405765985,0.006920722114855948,0.008894155530869696,-0.03405503700044665,0.0,70.0,255.0,255.0,255.0
82,4.1000000000000005,7.564457568958593,1.5764053755960605,-0.28634501021644776,0.030979807376194657,0.03742693286662657,-0.13914371597938013,0.008015857061849374,0.007536911967531701,-0.03418461163708919,0.0,70.0,255.0,255.0,255.0
83,4.15,7.5660165854554275,1.5782861091489706,-0.29334497563677336,0.03140943236495275,0.03776872904562634,-0.14085419522136877,0.00909656898686606,0.006277519385400332,-0.03415989184278878,0.0,70.0,255.0,255.0,255.0
84,4.2,7.567598512195088,1.5801822485006232,-0.30043042973858464,0.03188946427488126,0.038054684805166605,-0.142559705163659,0.009908218855425588,0.005483474331691163,-0.03399741978615811,0.0,70.0,255.0,255.0,255.0
85,4.25,7.569205531882916,1.5820915776294873,-0.30760094615313927,0.03240025425049531,0.03831707647879545,-0.14425393719998458,0.010214836992439302,0.005520615374265958,-0.033721592755131535,0.0,70.0,255.0,255.0,255.0
86,4.3,7.570838537620138,1.5840139561485027,-0.3148558234585831,0.03291094797412519,0.0386067463425932,-0.14593186443917217,0.009904489848278075,0.006550352642720192,-0.033355674186380524,0.0,70.0,255.0,255.0,255.0
87,4.3500000000000005,7.572496626680328,1.5859522522637466,-0.3221941325970565,0.033390703235323116,0.03897211174306747,-0.14758950461862264,0.009089737518586105,0.008285785901573917,-0.0329304601718039,0.0,70.0,255.0,255.0,255.0
88,4.4,7.57417760794367,1.5879111673228095,-0.32961477392044536,0.033819921725983804,0.03943532493275059,-0.14922491045635256,0.00800742442024216,0.010185875420720691,-0.03249702783763575,0.0,70.0,255.0,255.0,255.0
89,4.45,7.575878618852927,1.5898957847570216,-0.33711662364269174,0.03419144567734733,0.03999069928513954,-0.1508392074023862,0.006913261073382415,0.011695371532138843,-0.03211785807036294,0.0,70.0,255.0,255.0,255.0
90,4.5,7.577596752511405,1.5919102372513234,-0.344698694660684,0.034511247833322045,0.04060486208596448,-0.15243669626338885,0.0060571763218497665,0.012264849548193624,-0.031851998508652946,0.0,70.0,255.0,255.0,255.0
91,4.55,7.579329743636259,1.593956270965618,-0.3523602932690306,0.03479716330953231,0.041217184239958904,-0.1540244072532515,0.005580292851270485,0.01162406093799806,-0.03172897954066278,0.0,70.0,255.0,255.0,255.0
92,4.6000000000000005,7.581076468842358,1.5960319556753193,-0.36010113538600913,0.035069277118449094,0.04176726817976428,-0.15560959421745513,0.005457920136997529,0.010055235801442741,-0.0317308437130126,0.0,70.0,255.0,255.0,255.0
93,4.65,7.582836671348104,1.5981329977835945,-0.36792125269077613,0.03534295532323206,0.04222270782010318,-0.15719749162455277,0.0056026843799905635,0.008124526717057101,-0.03181470076943915,0.0,70.0,255.0,255.0,255.0
94,4.7,7.584610764374681,1.6002542264573296,-0.3758208845484644,0.03562954555644815,0.04257972085146999,-0.15879106429439904,0.005924424496139835,0.006407673572383921,-0.031931147932412474,0.0,70.0,255.0,255.0,255.0
95,4.75,7.5863996259037485,1.6023909698687415,-0.38380035912021604,0.035935397772846045,0.04286347517734157,-0.160390606417794,0.006320467045117795,0.005475930488985092,-0.032026403886253885,0.0,70.0,255.0,255.0,255.0
96,4.800000000000001,7.588204304151966,1.6045405739750638,-0.3918599451902438,0.03626159226095993,0.0431273139003685,-0.16199370468302443,0.006722590494412373,0.005626037638073456,-0.03206892047143417,0.0,70.0,255.0,255.0,255.0
97,4.8500000000000005,7.5900257851298445,1.6067037012587784,-0.3999997295885185,0.03660765682228728,0.043426078941148916,-0.16359749846493743,0.0071186751736895815,0.0066388186781507486,-0.032067097377058706,0.0,70.0,255.0,255.0,255.0
98,4.9,7.591865069834195,1.6088831818691787,-0.40821969503673755,0.03697345977832889,0.04379119576818358,-0.1652004144207303,0.007499227337781633,0.008051309086187786,-0.032042397522885624,0.0,70.0,255.0,255.0,255.0
99,4.95,7.593723131107677,1.6110828208355967,-0.4165197710305915,0.037357579556065446,0.044231209849767694,-0.166801738217226,0.00783715282972608,0.009400274504622885,-0.032011349733790384,0.0,70.0,255.0,255.0,255.0
100,5.0,7.595600827789801,1.6133063028541554,-0.42489986885846015,0.037757175061301496,0.044731223218645866,-0.16840154939410934,0.008112890229927672,0.010219493764118681,-0.03199035797427641,0.0,70.0,255.0,255.0,255.0
101,5.050000000000001,7.5974988486138075,1.6155559431574613,-0.43335992597000245,0.03816886857905821,0.04525315922617956,-0.17000077401465363,0.008315918597379124,0.010259667297796149,-0.031988625286882844,0.0,70.0,255.0,255.0,255.0
102,5.1000000000000005,7.599417714647707,1.6178316187767734,-0.4418999462599255,0.03858876692103941,0.04575718994842548,-0.17160041192279762,0.008430083130850363,0.009679466175693818,-0.0320007667787614,0.0,70.0,255.0,255.0,255.0
103,5.15,7.6013577253059115,1.6201316621523039,-0.4505199671622822,0.03901187689214325,0.046221105843748944,-0.17320085069252977,0.008437702306896,0.008818581926450797,-0.03201570913906604,0.0,70.0,255.0,255.0,255.0
104,5.2,7.603318902336921,1.6224537293611483,-0.4592200313291785,0.03943253715172901,0.04663904814107056,-0.17480198283670423,0.008333677471039636,0.00800540090337698,-0.03202345313238486,0.0,70.0,255.0,255.0,255.0
105,5.25,7.605300979021084,1.624795566966411,-0.46800016544595263,0.03984524463924721,0.04702164593408664,-0.17640319600576826,0.008124009330323645,0.007570010538393568,-0.03201216421658826,0.0,70.0,255.0,255.0,255.0
106,5.300000000000001,7.607303426800846,1.627155893954557,-0.4768603509297553,0.04024493808476137,0.04739604919490992,-0.17800319925836305,0.007819422762000983,0.007687927203470224,-0.03197657838112655,0.0,70.0,255.0,255.0,255.0
107,5.3500000000000005,7.6093254728295605,1.629535171885902,-0.48580048537178894,0.04062718691544731,0.047790438654433665,-0.17960085384388091,0.007441831464394255,0.00823697629279696,-0.03192983550792117,0.0,70.0,255.0,255.0,255.0
108,5.4,7.611366145492391,1.6319349378200003,-0.4948204363141434,0.0409891212312008,0.04821974682418961,-0.18119618280915517,0.0070308025960308385,0.008961542695118396,-0.03189476592078133,0.0,70.0,255.0,255.0,255.0
109,5.45,7.613424384952681,1.6343571465683209,-0.5039201036527045,0.041330267175050395,0.048686592923945504,-0.18279033043595905,0.006633824931689958,0.009617748921475489,-0.031894837736629045,0.0,70.0,255.0,255.0,255.0
110,5.5,7.615499172209896,1.6368035971123949,-0.5130994693577393,0.041652503724369794,0.04918152171633716,-0.18438566658281808,0.0062871097442851465,0.009968529350268263,-0.03196098515939605,0.0,70.0,255.0,255.0,255.0
111,5.550000000000001,7.617589635325118,1.6392752987399546,-0.5223586703109863,0.04195897814947891,0.04968344585897233,-0.18598642895189865,0.006013103641056006,0.00988876374861114,-0.03210506118864753,0.0,70.0,255.0,255.0,255.0
112,5.6000000000000005,7.619695070024844,1.641771941698292,-0.5316981122529292,0.042253814088475394,0.050170398091198276,-0.18759617270168283,0.005839887049230441,0.00945803657876887,-0.03227989118955721,0.0,70.0,255.0,255.0,255.0
113,5.65,7.621815016733965,1.6442923385490744,-0.5411182875811545,0.04254296685440195,0.05062924951684922,-0.18921441807085437,0.005801791272563861,0.00884983936744188,-0.032405227177778606,0.0,70.0,255.0,255.0,255.0
114,5.7,7.623949366710284,1.646834866649977,-0.5506195540600146,0.04283399321573178,0.051055382027942464,-0.1908366954194607,0.005924309515137338,0.0082368901238139,-0.032403909207745496,0.0,70.0,255.0,255.0,255.0
115,5.75,7.626098416055538,1.6493978767518687,-0.5602019571231006,0.04313539780591569,0.05145293852923061,-0.19245480899162892,0.006231514395516058,0.007791862736494792,-0.032195923117939174,0.0,70.0,255.0,255.0,255.0
116,5.800000000000001,7.628262906490876,1.6519801605029,-0.5698650349591775,0.043457144655283386,0.05183456830159194,-0.1940562877312546,0.006722475028375641,0.0076097916951178846,-0.03174937733053662,0.0,70.0,255.0,255.0,255.0
117,5.8500000000000005,7.630444130521067,1.6545813335820279,-0.5796075858962261,0.04380764530875325,0.052213917698742396,-0.19562974672468258,0.007317781178084459,0.0076472410285521875,-0.031152371295528614,0.0,70.0,255.0,255.0,255.0
118,5.9,7.632643671021751,1.6572015522727743,-0.5894280096316458,0.04418892277309183,0.05259929240444716,-0.19717152486080747,0.00788119315293656,0.007803575359255355,-0.03056339296719779,0.0,70.0,255.0,255.0,255.0
119,5.95,7.634863022798376,1.6598412628224726,-0.5993247383823068,0.04459576462404691,0.05299427523466793,-0.19868608602140236,0.008269962649087859,0.007980891049519379,-0.03014229932515322,0.0,70.0,255.0,255.0,255.0
120,6.0,7.637103247484156,1.6625009797962411,-0.609296618233786,0.04501591903800062,0.0533973815093991,-0.2001857547933228,0.008342823349405393,0.008072038351913946,-0.03004730372082598,0.0,70.0,255.0,255.0,255.0
121,6.050000000000001,7.639364614702176,1.6651810009734125,-0.6193433138616391,0.04543004695898745,0.053801479069859326,-0.20169081639348496,0.008036483425044594,0.008019295578365337,-0.030351229023084514,0.0,70.0,255.0,255.0,255.0
122,6.1000000000000005,7.641646252180054,1.667881127703227,-0.6294656998731345,0.04581956738050508,0.054199311067235634,-0.20322087769563124,0.007453463763074097,0.007873931707913506,-0.030946148103794258,0.0,70.0,255.0,255.0,255.0
123,6.15,7.643946571440226,1.670600932080136,-0.6396654016312022,0.046175393335294856,0.05458887224065068,-0.2047854312038644,0.006789799751150127,0.007734087633415321,-0.03162483731703469,0.0,70.0,255.0,255.0,255.0
124,6.2,7.646263791513584,1.6733400149272921,-0.6499442429935209,0.04649854735562009,0.054972719830577166,-0.2063833614273347,0.0062486137813344556,0.007686631925141185,-0.03217411959888228,0.0,70.0,255.0,255.0,255.0
125,6.25,7.648596426175788,1.6760982040631938,-0.6603037377739357,0.0468002547134283,0.055357535433164795,-0.20800284316375262,0.006033182883768973,0.007815927911947185,-0.03237887132274686,0.0,70.0,255.0,255.0,255.0
126,6.300000000000001,7.650943816984927,1.6788757684706086,-0.6707445273098962,0.04710186564399699,0.055754312621771884,-0.2096212485596094,0.00624487798424056,0.008160112238742023,-0.03213241986388393,0.0,70.0,255.0,255.0,255.0
127,6.3500000000000005,7.653306612740188,1.681673635325371,-0.6812658626298966,0.04742474251185236,0.056173546657039,-0.211216085150141,0.00678295584410904,0.00865526057798327,-0.031548444214768434,0.0,70.0,255.0,255.0,255.0
128,6.4,7.655686291236112,1.6844931231363125,-0.6918661358249103,0.04778016122840789,0.05661983867957021,-0.21277609298108624,0.0074450157681482665,0.00918100650788567,-0.03085184983929734,0.0,70.0,255.0,255.0,255.0
129,6.45,7.658084628863029,1.687335619193328,-0.7025434719280053,0.048169244088667185,0.057091647307827564,-0.21430127013407074,0.008029008798882131,0.00961980735703083,-0.030267795705785083,0.0,70.0,255.0,255.0,255.0
130,6.5,7.660503215644979,1.6902022878670953,-0.7132962628383174,0.048583062108296104,0.057581819415273294,-0.21580287255166475,0.008340482411295369,0.009872268648214444,-0.03002117369200752,0.0,70.0,255.0,255.0,255.0
131,6.550000000000001,7.6629429350738585,1.6930938011348553,-0.7241237591831717,0.04900329232979672,0.05807887417264901,-0.2173033875032715,0.008277431210768071,0.009886455932983651,-0.030225664948058117,0.0,70.0,255.0,255.0,255.0
132,6.6000000000000005,7.665403544877958,1.6960101752843602,-0.7350266015886445,0.04941080522937291,0.05857046500857166,-0.21882543904647056,0.00790012078661917,0.009669501504716571,-0.030774667111854725,0.0,70.0,255.0,255.0,255.0
133,6.65,7.667884015596796,1.6989508476357125,-0.7460063030878188,0.04979330440845864,0.059045824323120666,-0.22038085421445697,0.00734472925181251,0.009258249971555443,-0.031453171251205614,0.0,70.0,255.0,255.0,255.0
134,6.7,7.670382875318804,1.7019147577166722,-0.7570646870100902,0.05014527815455416,0.059496290005727204,-0.22197075617159112,0.0067486377357539595,0.008700339112999167,-0.03204812415131819,0.0,70.0,255.0,255.0,255.0
135,6.75,7.672898543412251,1.7049004766362852,-0.7682033787049779,0.050468168182034034,0.05991585823442058,-0.2235856666295888,0.006240878146090978,0.008035044115017875,-0.032352471205066013,0.0,70.0,255.0,255.0,255.0
136,6.800000000000001,7.6754296921370075,1.7079063435401143,-0.7794232536730491,0.05076936596916326,0.06029979441722899,-0.22520600329209772,0.0058981710660432896,0.007299751674838539,-0.032258346917346525,0.0,70.0,255.0,255.0,255.0
137,6.8500000000000005,7.6779754800091675,1.710930456078008,-0.7907239790341877,0.05105798528863836,0.060645833401904436,-0.22681150132132344,0.005732924646650872,0.006584868601389182,-0.03183829526337556,0.0,70.0,255.0,255.0,255.0
138,6.9,7.680535490665871,1.7139709268803047,-0.8021044038051814,0.05134265843382835,0.06095828127736791,-0.22838983281843528,0.005740542748977617,0.006029536729745821,-0.031250057230514106,0.0,70.0,255.0,255.0,255.0
139,6.95,7.68310974585255,1.7170262842057449,-0.8135629623160312,0.051632039563536125,0.06124878707487902,-0.22993650704437485,0.005915927437261104,0.005771097263207459,-0.030652994402191602,0.0,70.0,255.0,255.0,255.0
140,7.0,7.685698694622225,1.7200958055877926,-0.8250980545096189,0.05193425117755446,0.061535391003688655,-0.23145513225865444,0.006251995679473765,0.005935526919365053,-0.030204932163546694,0.0,70.0,255.0,255.0,255.0
141,7.050000000000001,7.688303170970306,1.7231798233061137,-0.8367084755418966,0.0522572391314835,0.061842339766815524,-0.23295700026072952,0.006730910166474757,0.006569362542419022,-0.029993721275278773,0.0,70.0,255.0,255.0,255.0
142,7.1000000000000005,7.690924418535373,1.7262800395644742,-0.8483937545356919,0.052607342194201934,0.06219232725793056,-0.23445450438618232,0.0072873414666219105,0.007545709404466194,-0.029988515471213173,0.0,70.0,255.0,255.0,255.0
143,7.15,7.693563905189726,1.7293990560319068,-0.8601539259805149,0.05298597327814569,0.06259691070726214,-0.23595585180785084,0.007812260590966957,0.008626400312428117,-0.030111075351346717,0.0,70.0,255.0,255.0,255.0
144,7.2,7.696223015863188,1.7325397306352004,-0.871989339716477,0.05338856825329863,0.06305496728917337,-0.237465611921317,0.008188678156351159,0.00955681029584099,-0.03028609870605603,0.0,70.0,255.0,255.0,255.0
145,7.25,7.698902762015056,1.7357045527608241,-0.8839004871726466,0.05380484109378081,0.06355259173684624,-0.23898446167845644,0.008307129811502278,0.010090820235375553,-0.03043581878864332,0.0,70.0,255.0,255.0,255.0
146,7.300000000000001,7.701603499972566,1.738894989808885,-0.8958877858843226,0.05421928123444886,0.06406404931271092,-0.24050919380018132,0.00811767544739439,0.010102798155431358,-0.030513994088732233,0.0,70.0,255.0,255.0,255.0
147,7.3500000000000005,7.704324690138501,1.7421109576920952,-0.9079514065526647,0.05461660863852025,0.06456287155238938,-0.24203586108732966,0.007682185012125586,0.00968040566888817,-0.03052857525281949,0.0,70.0,255.0,255.0,255.0
148,7.4,7.707065160836418,1.745351276964124,-0.9200913719930556,0.054987499735661416,0.06503208987959974,-0.24356205132546327,0.0071267785235029635,0.00901675013240677,-0.030503869802400718,0.0,70.0,255.0,255.0,255.0
149,7.45,7.709823440112067,1.7486141666800552,-0.932307611685211,0.055329286490870544,0.06546454656563006,-0.24508624806756973,0.0065888471173281005,0.008314948266718858,-0.030456410307344584,0.0,70.0,255.0,255.0,255.0
150,7.5,7.712598089485505,1.751897731620687,-0.9445999967998125,0.055646384447394226,0.06586358470627163,-0.24660769235619773,0.0062075037225106655,0.0077811921390891214,-0.030399764709776456,0.0,70.0,255.0,255.0,255.0
151,7.550000000000001,7.715388078556806,1.7552005251506824,-0.9569683809208308,0.05595003686312161,0.06624266577953897,-0.24812622453854738,0.0060578752221651655,0.0075317059080814985,-0.03034358908310386,0.0,70.0,255.0,255.0,255.0
152,7.6000000000000005,7.718193093171817,1.7585219981986409,-0.9694126192536673,0.05625217196961074,0.06661675529707978,-0.2496420512645081,0.00610028212140179,0.007528099155562629,-0.030297183517502546,0.0,70.0,255.0,255.0,255.0
153,7.65,7.721013295753767,1.7618622006803903,-0.9819325860472816,0.05656006507526179,0.06699547569509523,-0.25115594289029763,0.006245100840551743,0.007672846244233256,-0.030273445438988578,0.0,70.0,255.0,255.0,255.0
154,7.7,7.723849099679343,1.7652215457681504,-0.994528213542697,0.05687668205366592,0.0673840399215031,-0.25266939580840697,0.006402133840488489,0.007875797569645293,-0.03028826006464813,0.0,70.0,255.0,255.0,255.0
155,7.75,7.726700963959134,1.7686006046725407,-1.0071995256281223,0.05720027845931064,0.06778305545205976,-0.25418476889676245,0.006470873945740863,0.008044457828315643,-0.030365122372200126,0.0,70.0,255.0,255.0,255.0
156,7.800000000000001,7.7295691275252745,1.7719998513133564,-1.0199466904323733,0.05752376944824,0.06818848570433467,-0.255705908045627,0.006398049770783842,0.008124317606061915,-0.030511649578779387,0.0,70.0,255.0,255.0,255.0
157,7.8500000000000005,7.732453340903958,1.7754194532429741,-1.032770116432685,0.05784008343638902,0.06859548721266595,-0.2572359338546404,0.006237618903526254,0.00812813010975244,-0.030682690677230617,0.0,70.0,255.0,255.0,255.0
158,7.9,7.735353135868913,1.778859400034623,-1.0456702838178373,0.05814753133859263,0.06900129871530991,-0.25877417711335005,0.006091046553713397,0.008090093329027326,-0.030802348441660854,0.0,70.0,255.0,255.0,255.0
159,7.95,7.738268094037817,1.7823195831145051,-1.05864753414402,0.05844918809176036,0.06940449654556868,-0.26031616869880647,0.006049703767452286,0.008035660988570115,-0.030797262720883012,0.0,70.0,255.0,255.0,255.0
160,8.0,7.741198054678089,1.7857998496891798,-1.071701900687718,0.05875250171533786,0.06980486481416692,-0.26185390338543835,0.006204944548926505,0.007988948575521349,-0.03059177377349176,0.0,70.0,255.0,255.0,255.0
161,8.05,7.744143344209351,1.7893000695959218,-1.0848329244825639,0.05906968254665301,0.07020339140312082,-0.26337534607615565,0.0065970119421443485,0.007964310380836892,-0.03015601306777249,0.0,70.0,255.0,255.0,255.0
162,8.1,7.747105022932755,1.792820188829492,-1.0980394352953335,0.05941220290955229,0.07060129585225061,-0.2648695046922156,0.007147470702850711,0.007959380405431205,-0.029573825335282855,0.0,70.0,255.0,255.0,255.0
163,8.15,7.750084564500306,1.7963601991811469,-1.1113198749517854,0.059784429616938084,0.07099932944366394,-0.26633272860968393,0.007711645345409579,0.007966780439772059,-0.028996228393585177,0.0,70.0,255.0,255.0,255.0
164,8.200000000000001,7.7530834658944485,1.7999201217738583,-1.124672708156302,0.06018336744409325,0.07139797389622782,-0.2677691275315741,0.008146277197784713,0.007981558476033435,-0.028575462944635532,0.0,70.0,255.0,255.0,255.0
165,8.25,7.756102901244716,1.8034999965707696,-1.1380967877049428,0.060599057336716555,0.07179748529126728,-0.2691902749041475,0.00831736650663828,0.007999747869580354,-0.028459763885790856,0.0,70.0,255.0,255.0,255.0
166,8.3,7.75914337162812,1.807099870302985,-1.1515917356467167,0.06101510409475708,0.07219794868318585,-0.2706151039201532,0.008160102925902635,0.008018440870771748,-0.028718097683788635,0.0,70.0,255.0,255.0,255.0
167,8.35,7.762204411654191,1.8107197914390882,-1.1651582980969581,0.06141506762930682,0.07259932937834446,-0.27206208467252635,0.007736973809535641,0.008034348268437519,-0.029257532457105384,0.0,70.0,255.0,255.0,255.0
168,8.4,7.765284878391051,1.8143598032408195,-1.1787979441139693,0.06178880147571064,0.0730013835100296,-0.27354085716586374,0.007178735701796057,0.008042784911754808,-0.029896374347759824,0.0,70.0,255.0,255.0,255.0
169,8.450000000000001,7.768383291801762,1.8180199297900912,-1.1925123838135445,0.062132941199486424,0.07340360786951994,-0.27505172210730233,0.006624674620692161,0.008038105107344151,-0.030448111607794814,0.0,70.0,255.0,255.0,255.0
170,8.5,7.7714981725109995,1.8217001640277715,-1.2063031163246996,0.06245126893777986,0.07380519402076402,-0.2765856683266432,0.00621360807295801,0.00801205994624965,-0.030733180007413985,0.0,70.0,255.0,255.0,255.0
171,8.55,7.77462841869554,1.8254004491921676,-1.2201709506462088,0.06275430200678223,0.0742048138641449,-0.27812504010804373,0.0060220635332619565,0.007961926136079711,-0.030658309483722057,0.0,70.0,255.0,255.0,255.0
172,8.6,7.777773602711678,1.829120645414186,-1.234115620335504,0.06305347529110605,0.07460138663437199,-0.2796514992750154,0.006020997694822228,0.007903226520555862,-0.030281452761604655,0.0,70.0,255.0,255.0,255.0
173,8.65,7.780933766224651,1.8328605878556048,-1.2481361005737104,0.06335640177626445,0.07499513651620049,-0.2811531853842042,0.006137887373203199,0.007862079913256714,-0.02973286629011085,0.0,70.0,255.0,255.0,255.0
174,8.700000000000001,7.784109242889304,1.836620159065806,-1.2622309388739243,0.06366726402842637,0.07538759462569766,-0.2826247859040265,0.0063012247855098735,0.00786602109486001,-0.029145377337491674,0.0,70.0,255.0,255.0,255.0
175,8.75,7.787300492627494,1.8403993473181746,-1.276398579164113,0.06398652425481544,0.07578173862568649,-0.28406772311795336,0.0064362198486378475,0.007952012345380233,-0.02864350676061722,0.0,70.0,255.0,255.0,255.0
176,8.8,7.790507895314786,1.8441983329283747,-1.2906377111857197,0.06431088601329016,0.07618279586023569,-0.28548913658008823,0.006498869048154887,0.008133854584779776,-0.028301438274236368,0.0,70.0,255.0,255.0,255.0
177,8.85,7.793731581228823,1.8480176269041981,-1.3049474928221219,0.06463641115963092,0.07659512408416447,-0.286897866945377,0.006499967812523266,0.008352745649298221,-0.02813302013267016,0.0,70.0,255.0,255.0,255.0
178,8.9,7.796971536430749,1.851857845336791,-1.3193274978802574,0.06496088279454248,0.07701807042516551,-0.28830243859335525,0.006467943243659846,0.008508895435310748,-0.02813663601608507,0.0,70.0,255.0,255.0,255.0
179,8.950000000000001,7.800227669508277,1.8557194339467147,-1.3337777366814574,0.06528320548399691,0.07744601362769554,-0.2897115305469855,0.006424225770995662,0.008504523799990338,-0.028309866221709612,0.0,70.0,255.0,255.0,255.0
180,9.0,7.8034998569791485,1.8596024466995607,-1.348298650934956,0.06560330537164205,0.07786852280516454,-0.2911334252155262,0.006389484560376246,0.008231918644119318,-0.028648783626272767,0.0,70.0,255.0,255.0,255.0
181,9.05,7.806788000045441,1.8635062862272311,-1.36289107920301,0.06592215394003453,0.07826920549210747,-0.2925764089096128,0.006375746987075104,0.007648855990893821,-0.029136963060616416,0.0,70.0,255.0,255.0,255.0
182,9.1,7.810092072373152,1.8674293672487714,-1.3775562918259172,0.06624088007034956,0.07863340840425392,-0.29404712152158785,0.006379131055300746,0.00688756244415778,-0.029705627546672275,0.0,70.0,255.0,255.0,255.0
183,9.15,7.813412088052476,1.8713696270676565,-1.3922957913551688,0.06656006704556461,0.07895796173652325,-0.29554697166428,0.006390339652639909,0.006181405944727381,-0.030239750484550854,0.0,70.0,255.0,255.0,255.0
184,9.200000000000001,7.816748079077708,1.8753251634224237,-1.4071109889923452,0.06687991403561355,0.07925154899872666,-0.29707109657004294,0.006401872130368247,0.005761944311211131,-0.03061618341688721,0.0,70.0,255.0,255.0,255.0
185,9.25,7.820100079456037,1.8792947819675292,-1.422002901012173,0.06720025425860143,0.07953415616764437,-0.29860859000596873,0.00640584190909621,0.005860266458057595,-0.030717349410180894,0.0,70.0,255.0,255.0,255.0
186,9.3,7.8234681045035686,1.8832785790391882,-1.436971847992942,0.06752049822652317,0.07983757564453242,-0.300142831511061,0.00639814300402719,0.006578320519157188,-0.03049019666268027,0.0,70.0,255.0,255.0,255.0
187,9.35,7.82685212927869,1.8872785395319824,-1.4520171841632792,0.06784006855900415,0.08019198821956008,-0.30165760967223676,0.006383507966756241,0.0077307574877671925,-0.03000894520519548,0.0,70.0,255.0,255.0,255.0
188,9.4,7.830252111359469,1.8912977778611442,-1.4671376089601658,0.0681588490231988,0.08061065139330914,-0.3031437260315806,0.006370698145641285,0.008970049550449666,-0.029420725682083315,0.0,70.0,255.0,255.0,255.0
189,9.450000000000001,7.8336680141810096,1.8953396046713133,-1.4823315567664372,0.06847713837356828,0.08108899317460505,-0.3045996822404451,0.0063682857084579325,0.009942151169473057,-0.028884887290292482,0.0,70.0,255.0,255.0,255.0
190,9.5,7.837099825196826,1.8994066771786047,-1.4975975771842103,0.06879567759404459,0.08160486651025645,-0.3060322147606098,0.006387147803454951,0.010299043495609617,-0.028569837380998386,0.0,70.0,255.0,255.0,255.0
191,9.55,7.840547581940414,1.903500091322339,-1.5129347782424982,0.06911585315391378,0.08211889752416601,-0.30745666597854493,0.006431680995788724,0.009870775685749678,-0.028561737468080217,0.0,70.0,255.0,255.0,255.0
192,9.600000000000001,7.844011410512217,1.9076185669310213,-1.5283432437820648,0.06943884569362346,0.08259194407883141,-0.30888838850741784,0.006486837076913332,0.008839291054751897,-0.028774955269028624,0.0,70.0,255.0,255.0,255.0
193,9.65,7.847491466509776,1.9117592857302221,-1.54382361709324,0.06976453686160511,0.0830028266296412,-0.3103341615054478,0.006526867764122812,0.007569351564185034,-0.02904182231162622,0.0,70.0,255.0,255.0,255.0
194,9.700000000000001,7.850987864198378,1.9159188495939854,-1.5593766599326095,0.07009153247003574,0.08334887923524992,-0.31179257073858047,0.006524985036282516,0.0064355116167647,-0.029197181174822617,0.0,70.0,255.0,255.0,255.0
195,9.75,7.85450061975678,1.9200941736537471,-1.575002874167098,0.07041703536523336,0.08364637779131767,-0.31325387962293005,0.006445566878010567,0.005815540911413564,-0.029063347685842622,0.0,70.0,255.0,255.0,255.0
196,9.8,7.858029567734901,1.9242834873731172,-1.5907020478949025,0.0707360891578368,0.08393043332639127,-0.31469890550716473,0.006275133012501044,0.005904637344178454,-0.0285562800385053,0.0,70.0,255.0,255.0,255.0
197,9.850000000000001,7.861574228672564,1.9284872169863863,-1.6064727647178145,0.07104454866648346,0.08423684152573552,-0.3161095076267806,0.006069143725095927,0.006543034004580228,-0.027813937681364642,0.0,70.0,255.0,255.0,255.0
198,9.9,7.865134022601549,1.9327071715256907,-1.6223129986575806,0.0713430035303464,0.0845847367268493,-0.3174802992753012,0.005921830797728234,0.007402427642544396,-0.02708928110859432,0.0,70.0,255.0,255.0,255.0
199,9.950000000000001,7.868708529025598,1.9369456906590712,-1.6382207946453446,0.07163673174625629,0.08497708428998996,-0.31881843573764,0.005925060860967335,0.008155429402734171,-0.02662624815032988,0.0,70.0,255.0,255.0,255.0
200,10.0,7.872297695776175,1.9412048799546897,-1.6541948422313446,0.07193550961644313,0.08540027966712271,-0.3201429240903342,0.006178556712743699,0.008462848802825995,-0.026664697283340644,0.0,70.0,255.0,255.0,255.0
201,10.05,7.875902079987243,1.9454857186257835,-1.670235087054378,0.07225458741753066,0.08582336917027256,-0.3214849054659741,0.0067215864863356956,0.00815132761824433,-0.027314028158764714,0.0,70.0,255.0,255.0,255.0
202,10.100000000000001,7.879523154517928,1.949787216871717,-1.686343332777942,0.0726076682650767,0.08621541242894715,-0.32287432690621065,0.007434816460882843,0.0073949132533224216,-0.028403046919489583,0.0,70.0,255.0,255.0,255.0
203,10.15,7.88316284681375,1.9541072598686782,-1.7025225197449991,0.07299806906361894,0.0865628604956048,-0.32432521015792304,0.008106741447022614,0.006533758378446386,-0.029605622018680222,0.0,70.0,255.0,255.0,255.0
204,10.200000000000001,7.88682296142429,1.9584435029212774,-1.7187758537937343,0.07341834240977896,0.08686878826679179,-0.3258348891080787,0.008528710914834647,0.00589643044592858,-0.030592278438379417,0.0,70.0,255.0,255.0,255.0
205,10.25,7.890504681054728,1.9627941386953573,-1.735106008655807,0.07385094015510241,0.08715250354019766,-0.327384438001761,0.008500252890630833,0.005812970637331105,-0.031049891152701292,0.0,70.0,255.0,255.0,255.0
206,10.3,7.8942080554398,1.9671587532752972,-1.7515142975939104,0.07426836769884204,0.0874500853305249,-0.3289398782233488,0.007930921973287042,0.006443711856340961,-0.03082052107918898,0.0,70.0,255.0,255.0,255.0
207,10.350000000000001,7.897931517824612,1.9715391472284098,-1.7679999964781419,0.07464403235243111,0.08779687472583175,-0.3304664901096799,0.006957837517784782,0.007590133494850271,-0.030023758090425012,0.0,70.0,255.0,255.0,255.0
208,10.4,7.901672458675043,1.9759384407478804,-1.7845609466048784,0.07496415145062052,0.08820909868000992,-0.3319422540323913,0.00584663465028612,0.008868879170176314,-0.02891918652792036,0.0,70.0,255.0,255.0,255.0
209,10.450000000000001,7.905427932969674,1.9803600570964108,-1.801194221881381,0.07522869581745972,0.08868376264284938,-0.3333584087624719,0.004872356552354518,0.009899501494281537,-0.027777411989204914,0.0,70.0,255.0,255.0,255.0
210,10.5,7.909195328256789,1.9848068170121653,-1.8178967874811256,0.07545138710585597,0.08919904882943808,-0.3347199952313118,0.004300431724235665,0.010309324591695201,-0.02685974742968611,0.0,70.0,255.0,255.0,255.0
211,10.55,7.91297307168026,1.9892799619793546,-1.8346662214045122,0.07565873898988329,0.0897146951020189,-0.3360443835054405,0.004268012333152882,0.009913451995835487,-0.026316148596605693,0.0,70.0,255.0,255.0,255.0
212,10.600000000000001,7.916761202155778,1.9937782865223672,-1.8515012258316697,0.07587818833917126,0.09019039402902163,-0.33735161009097236,0.004685721579900104,0.008894436217410373,-0.026134647991393756,0.0,70.0,255.0,255.0,255.0
213,10.65,7.920560890514177,1.9982990013822568,-1.8684013824136094,0.0761273111478733,0.09060413872375994,-0.3386578483045799,0.005354831840076457,0.007621680651892504,-0.02624658291867643,0.0,70.0,255.0,255.0,255.0
214,10.700000000000001,7.924373933270565,2.002838700394743,-1.8853670106621276,0.0764136715231789,0.09095256209421088,-0.33997626838284,0.006068576162654438,0.006471624183013169,-0.026583761250642546,0.0,70.0,255.0,255.0,255.0
215,10.75,7.928202257666495,2.007394257591678,-1.9023990092518934,0.07673416876413874,0.09125130114206126,-0.34131622442964415,0.006618020212023623,0.005821712347753305,-0.027075128452458408,0.0,70.0,255.0,255.0,255.0
216,10.8,7.932047350146979,2.0119638305089493,-1.919498633105092,0.07707547354438127,0.0915347333289862,-0.34268378122808585,0.006884767621961885,0.00586854076614074,-0.027663136282551903,0.0,70.0,255.0,255.0,255.0
217,10.850000000000001,7.935909805020933,2.0165477309245765,-1.936667387374702,0.07742264552633493,0.09183815521867533,-0.34408253805789935,0.006903844927652614,0.006463077346774426,-0.02827774318403531,0.0,70.0,255.0,255.0,255.0
218,10.9,7.939789614699612,2.021147646030817,-1.953906886910882,0.07776585803714653,0.09218104106366365,-0.3455115555464894,0.006767790902539872,0.007294281672365344,-0.028811871074885254,0.0,70.0,255.0,255.0,255.0
219,10.950000000000001,7.943686390824648,2.025765835030943,-1.971218542929351,0.07809942461658892,0.09256758338591187,-0.34696372516538787,0.006560937864641403,0.00805362881322047,-0.029142368183165956,0.0,70.0,255.0,255.0,255.0
220,11.0,7.947599557161271,2.030404404369408,-1.9886032594274208,0.07842195182361067,0.0929864039449857,-0.348425792364806,0.006367440808130453,0.0084278819611594,-0.029143701464429128,0.0,70.0,255.0,255.0,255.0
221,11.05,7.951528586007009,2.0350644754254414,-2.0060611221658315,0.07873616869740196,0.0934103715820278,-0.3498780953118308,0.006238977785066879,0.008253037620153947,-0.02876408016601051,0.0,70.0,255.0,255.0,255.0
222,11.100000000000001,7.955473174031011,2.039745441527611,-2.023591068958604,0.07904584960211736,0.09381170770700109,-0.351302200381407,0.006177966308662519,0.007659594721998175,-0.02811885479681031,0.0,70.0,255.0,255.0,255.0
223,11.15,7.959433170967221,2.0444456461961416,-2.0411913422039722,0.07935396532826822,0.09417633105422762,-0.3526899807915118,0.006175776111128073,0.006914013171321898,-0.027422296418055936,0.0,70.0,255.0,255.0,255.0
224,11.200000000000001,7.963408570563838,2.0491630746330336,-2.058860067037755,0.07966342721323016,0.09450310902413328,-0.3540444300232126,0.006233872844951804,0.006274233524417028,-0.026899539909575054,0.0,70.0,255.0,255.0,255.0
225,11.25,7.967399513688544,2.053895957098555,-2.0765957852062935,0.0799773526127634,0.09480375440666933,-0.3553799347824693,0.006364244527645724,0.005998694539721683,-0.02678605636585729,0.0,70.0,255.0,255.0,255.0
226,11.3,7.971406305825115,2.0586434500737005,-2.094398060516002,0.08029985166599474,0.09510297847810545,-0.35672303565979835,0.006566034524180253,0.006219168893295546,-0.02719382976676954,0.0,70.0,255.0,255.0,255.0
227,11.350000000000001,7.975429498855143,2.0634062549463654,-2.1122680887722733,0.08063395606518142,0.09542567129599888,-0.3580993177591463,0.006784289837824531,0.006813135839855988,-0.027961429703271534,0.0,70.0,255.0,255.0,255.0
228,11.4,7.979469701431633,2.0681860172033004,-2.1302079922919166,0.08097828064977719,0.09578429206209105,-0.3595191786301255,0.0069291046526309685,0.007535073567455086,-0.02878435117810163,0.0,70.0,255.0,255.0,255.0
229,11.450000000000001,7.983527326920121,2.0729846841525745,-2.148220006635286,0.08132686653044452,0.09617917865274439,-0.36097775287695644,0.006910284042849213,0.00814286366241923,-0.029359612038515337,0.0,70.0,255.0,255.0,255.0
230,11.5,7.987602388084677,2.077803935068575,-2.1663057675796122,0.08166930905406211,0.09659857842833297,-0.36245513983397704,0.006627609053300176,0.008393377175996974,-0.02938013834041797,0.0,70.0,255.0,255.0,255.0
231,11.55,7.991694257825527,2.082644541995408,-2.1844655206186836,0.08198962743577454,0.09701851637034409,-0.36391576671099823,0.00604308458322933,0.008163713380282545,-0.028700227806854883,0.0,70.0,255.0,255.0,255.0
232,11.600000000000001,7.995801350828255,2.0875057867056093,-2.202697344250712,0.08227361751238504,0.09741494976636123,-0.3653251626146625,0.005286645902469189,0.007573269844129982,-0.02752260587701727,0.0,70.0,255.0,255.0,255.0
233,11.65,7.9999216195767655,2.092386036972044,-2.22099803688015,0.08251829202602146,0.09777584335475709,-0.36666802729869996,0.0045868728783204915,0.00686028463321442,-0.026233958543064873,0.0,70.0,255.0,255.0,255.0
234,11.700000000000001,8.004053180030857,2.097283371041085,-2.239364146980582,0.0827323048002171,0.09810097822968267,-0.367948558468969,0.004171051590073915,0.006260885252196147,-0.025221359255711562,0.0,70.0,255.0,255.0,255.0
235,11.75,8.008194850056787,2.102196134795012,-2.2577928927270468,0.08293539718502885,0.0984019318799767,-0.3691901632242711,0.0042652726385483675,0.006011759460156085,-0.024869334328503356,0.0,70.0,255.0,255.0,255.0
236,11.8,8.01234671974936,2.1071235642290826,-2.276283163303009,0.08315883206407193,0.09870215417569828,-0.37043549190181935,0.0049692262095391015,0.006232551012486098,-0.02536563196646746,0.0,70.0,255.0,255.0,255.0
237,11.850000000000001,8.016510733263194,2.112066350212582,-2.2948364419172287,0.08343231980598276,0.09902518698122531,-0.37172672642091786,0.006102879466496347,0.006808376858336018,-0.026498263338492478,0.0,70.0,255.0,255.0,255.0
238,11.9,8.020689951729958,2.117026082927205,-2.313455835945101,0.08376912001072156,0.09938299186153188,-0.3730853182356686,0.00732797259939133,0.00750919582506171,-0.027848858938561705,0.0,70.0,255.0,255.0,255.0
239,11.950000000000001,8.024887645264267,2.1220046493987352,-2.3321449737407955,0.08416511706592189,0.09977610656373148,-0.37451161231477403,0.008299961811708556,0.008107021902414857,-0.02899560361941944,0.0,70.0,255.0,255.0,255.0
240,12.0,8.02910646343655,2.1270036935835783,-2.3509069971765784,0.08459911619189242,0.10019369405177336,-0.37598487859761054,0.008683328364433862,0.008375622279110928,-0.029522570965623274,0.0,70.0,255.0,255.0,255.0
241,12.05,8.033347556883456,2.1320240188039126,-2.3697434616005566,0.08503344990236528,0.10061366879164257,-0.37746386941133636,0.008312924330589055,0.008199509143080874,-0.02921738418768527,0.0,70.0,255.0,255.0,255.0
242,12.100000000000001,8.037609808426787,2.1370650604627426,-2.388653384117712,0.08543040862495133,0.10101364496608145,-0.37890661701637907,0.0073517196813810415,0.0076786306483001,-0.028255156619749755,0.0,70.0,255.0,255.0,255.0
243,12.15,8.041890597745951,2.1421253833005207,-2.4076341233021945,0.08576862187050338,0.10138153185647258,-0.38028938507331134,0.006132192435437389,0.007017524141206266,-0.02699978985147844,0.0,70.0,255.0,255.0,255.0
244,12.200000000000001,8.046186670613837,2.14720321364839,-2.426682322625043,0.08604362786849507,0.10171539738020208,-0.3816065960015269,0.004995161769016931,0.006417600564700976,-0.025816086406882377,0.0,70.0,255.0,255.0,255.0
245,12.25,8.0504949605328,2.152296923038541,-2.445794782902347,0.08626813804740507,0.10202329191294268,-0.3828709937139996,0.004273395255793844,0.006069714127310277,-0.025060335189275307,0.0,70.0,255.0,255.0,255.0
246,12.3,8.054813484418577,2.157405542839684,-2.464969421996443,0.08647096739407445,0.1023223687929331,-0.38411262952045444,0.0041451370735856585,0.00607598584156932,-0.024924178601537506,0.0,70.0,255.0,255.0,255.0
247,12.350000000000001,8.059142057272208,2.1625291599178342,-2.4842060458543926,0.08668265175476364,0.10263089049709961,-0.3853634115741533,0.004521197518947417,0.006391692623086698,-0.025312065893201563,0.0,70.0,255.0,255.0,255.0
248,12.4,8.063481749594054,2.167668631889394,-2.5035057631538584,0.08692308714596919,0.10296153805524177,-0.3866438361097746,0.005193141109671728,0.006906115535620927,-0.026001865105529376,0.0,70.0,255.0,255.0,255.0
249,12.450000000000001,8.067834365986805,2.1728253137233584,-2.52287042946537,0.08720196586573081,0.1033215020506617,-0.38796359808470626,0.005952304865353142,0.007509289125362528,-0.026772964506260877,0.0,70.0,255.0,255.0,255.0
250,12.5,8.072201946180627,2.1780007820944602,-2.542302122962329,0.0875183176325045,0.10371246696777803,-0.3893211325604007,0.006595118584051818,0.008109530535760356,-0.027408116249416636,0.0,70.0,255.0,255.0,255.0
251,12.55,8.076586197750055,2.183196560420136,-2.56180254272141,0.087861477724136,0.10413245510423774,-0.3907044097096479,0.007000979588767109,0.008643773597993842,-0.027780353620388,0.0,70.0,255.0,255.0,255.0
252,12.600000000000001,8.08098809395304,2.188414027604884,-2.581372563933294,0.08821841559138122,0.10457684432757741,-0.3920991679224395,0.007168059007334193,0.009038235222780244,-0.027901148572118117,0.0,70.0,255.0,255.0,255.0
253,12.65,8.085408039309193,2.193654244852894,-2.601012459513654,0.08857828362486941,0.10503627862651577,-0.39349452456685974,0.007128996040606239,0.009193538191754058,-0.02782650263997155,0.0,70.0,255.0,255.0,255.0
254,12.700000000000001,8.089845922315527,2.1989176554675356,-2.62072201638998,0.08893131519544184,0.10549619814675282,-0.39488181818643664,0.0069099311238218775,0.009012469041147497,-0.027606367922361486,0.0,70.0,255.0,255.0,255.0
255,12.75,8.094301170828738,2.2042038646675692,-2.640500641332298,0.0892692767372516,0.10593752553063052,-0.3962551613590959,0.0065381117597240745,0.008388201025866238,-0.027299181165130193,0.0,70.0,255.0,255.0,255.0
256,12.8,8.098772849989253,2.2095114080205986,-2.6603475325258894,0.08958512637141425,0.10633501824933944,-0.39761173630294966,0.006043205644346017,0.007294094591880906,-0.026946667989014017,0.0,70.0,255.0,255.0,255.0
257,12.850000000000001,8.103259683465879,2.214837366492503,-2.6802618149625927,0.0898735973016862,0.10666693498981861,-0.3989498281579973,0.005487405612036866,0.005937977208114731,-0.026564178979615605,0.0,70.0,255.0,255.0,255.0
258,12.9,8.107760209719421,2.2201781015195805,-2.700242515341689,0.09013386693261793,0.10692881597015091,-0.4002681542009112,0.004971713887691465,0.00467963845691699,-0.02617296349538556,0.0,70.0,255.0,255.0,255.0
259,12.950000000000001,8.11227307015914,2.2255302480895183,-2.720288630382684,0.09037076869045535,0.1071348988355103,-0.40156712450753584,0.004606944997753715,0.0038858696751908894,-0.02580725144967211,0.0,70.0,255.0,255.0,255.0
260,13.0,8.116797286588467,2.2308915914031315,-2.7403992277924427,0.0905945614323933,0.10731740293767,-0.40284887934587843,0.004496443701995645,0.0039216280649068125,-0.02549119638604047,0.0,70.0,255.0,255.0,255.0
261,13.05,8.12133252630238,2.2362619883832853,-2.7605735183172717,0.09082041306065491,0.10752706164200099,-0.4041162441461399,0.004686710656010007,0.004947959922674272,-0.02523968771024343,0.0,70.0,255.0,255.0,255.0
262,13.100000000000001,8.125879327894532,2.2416442975673316,-2.7808108522070567,0.0910632324979943,0.10781219892993743,-0.4053728481169028,0.005117843019597501,0.006679133334008824,-0.0250794315471925,0.0,70.0,255.0,255.0,255.0
263,13.15,8.13043884955218,2.247043208276279,-2.801110803128962,0.09133219736261466,0.10819497497540187,-0.40662418730085914,0.005667784770757578,0.00857611310878248,-0.025044347341118822,0.0,70.0,255.0,255.0,255.0
264,13.200000000000001,8.135012547630794,2.252463795064872,-2.8214732709371426,0.09163001097507006,0.10866981024081568,-0.40787728285101466,0.006202801704979777,0.010085730579634244,-0.02515791299186887,0.0,70.0,255.0,255.0,255.0
265,13.25,8.139601850649687,2.2579101893003606,-2.8418985314140635,0.09195247753311264,0.1092035480333653,-0.40913997860004603,0.006588094785620058,0.010661324010463602,-0.0254399959946916,0.0,70.0,255.0,255.0,255.0
266,13.3,8.144207795384105,2.2633841498682084,-2.862387268797147,0.09228882045363207,0.10973594264186204,-0.4104212824504838,0.006750464552851554,0.010033692756961088,-0.0258888935246393,0.0,70.0,255.0,255.0,255.0
267,13.350000000000001,8.14883073269505,2.268883783564547,-2.882940659659112,0.0926275239883978,0.1102069173090614,-0.41172886795250996,0.006724858672590983,0.008480780831199297,-0.026437255670996862,0.0,70.0,255.0,255.0,255.0
268,13.4,8.153470547782945,2.2744048415991145,-2.903560155592398,0.09296130632089117,0.11058402072498197,-0.4130650080175835,0.006592671504712655,0.006561456893994233,-0.02696880797881107,0.0,70.0,255.0,255.0,255.0
269,13.450000000000001,8.158126863327139,2.279942185637045,-2.92424716046087,0.09328679113886906,0.11086306299846083,-0.41442574875039107,0.0064356477160743,0.004843842038715351,-0.02736212222358425,0.0,70.0,255.0,255.0,255.0
270,13.5,8.162799226896832,2.2854911478989606,-2.9450027304674373,0.0936048710924986,0.1110684049288535,-0.4158012202399419,0.006343158508137492,0.0038890199486996124,-0.027504810311240746,0.0,70.0,255.0,255.0,255.0
271,13.55,8.167487350436389,2.2910490261299303,-2.9658272824848644,0.09392110698968281,0.11125196499333079,-0.41717622978151514,0.006364205026088143,0.0039899030822354575,-0.027344225371228603,0.0,70.0,255.0,255.0,255.0
272,13.600000000000001,8.1721913375958,2.2966163443982937,-2.986720353445589,0.09424129159510741,0.11146739523707705,-0.4185356427770648,0.006461789888412284,0.004943291126968674,-0.026936021293799683,0.0,70.0,255.0,255.0,255.0
273,13.65,8.1769114795959,2.302195765653638,-3.007680846762571,0.09456728597852404,0.11174629410602765,-0.4198698319108951,0.0065633007714893665,0.00631335069076755,-0.02639678437934556,0.0,70.0,255.0,255.0,255.0
274,13.700000000000001,8.181648066193652,2.3077909738088964,-3.0287073366366783,0.09489762167225635,0.1120987303061538,-0.42117532121499934,0.006607521183710219,0.007665241591725547,-0.025853085292881772,0.0,70.0,255.0,255.0,255.0
275,13.75,8.186401241763125,2.3134056386842534,-3.049798378884071,0.09522803809689506,0.11251281826520021,-0.4224551404401833,0.006543327125640985,0.00857066146262575,-0.025428781408720624,0.0,70.0,255.0,255.0,255.0
276,13.8,8.191170870003342,2.3190422556354164,-3.0709528506806967,0.09555195438482045,0.11295579645241638,-0.4237181993558714,0.006345629095605432,0.008794573702086694,-0.025193692170288884,0.0,70.0,255.0,255.0,255.0
277,13.850000000000001,8.195956437201607,2.324701218329495,-3.092170198819658,0.0958626010064556,0.11339227563540888,-0.4249745096572122,0.0060297533352127175,0.008436031350944617,-0.02513502279009039,0.0,70.0,255.0,255.0,255.0
278,13.9,8.200757130103987,2.3303814831989573,-3.113450301646418,0.09615492971834172,0.11379939958751084,-0.42623170163488044,0.00563319300876941,0.007733485331362644,-0.025208530027587273,0.0,70.0,255.0,255.0,255.0
279,13.950000000000001,8.205571930173441,2.336081158288246,-3.134793368983146,0.09642592030733255,0.11416562416854514,-0.4274953626599709,0.005193754729759803,0.006916077375329621,-0.025371737071067102,0.0,70.0,255.0,255.0,255.0
280,14.0,8.21039972213472,2.341798045615812,-3.156199837912415,0.0966743051913177,0.1144910073250438,-0.42876887534198715,0.004727542312465971,0.006204278256616291,-0.025588082702610038,0.0,70.0,255.0,255.0,255.0
281,14.05,8.215239360692573,2.3475302590207505,-3.1776702565173447,0.09689867453857914,0.11478605199420677,-0.4300541709302319,0.004253278590482523,0.005730636608092254,-0.025828232055147282,0.0,70.0,255.0,255.0,255.0
282,14.100000000000001,8.220089589588579,2.3532766508152325,-3.199205255005438,0.09709963305036595,0.11506407098585303,-0.4313516985475019,0.0038564928086515238,0.00550801470482476,-0.026044819946324793,0.0,70.0,255.0,255.0,255.0
283,14.15,8.22494932399761,2.359036666119336,-3.220805426372095,0.0972843238194443,0.11533685346468925,-0.4326586529248644,0.0036666311565625165,0.005518955070149545,-0.026167323948067533,0.0,70.0,255.0,255.0,255.0
284,14.200000000000001,8.229818021970523,2.3648103361617014,-3.2424711202979246,0.0974662961660222,0.11561596649286798,-0.43396843094230864,0.0038040333244282465,0.005756136552470537,-0.02612047924390737,0.0,70.0,255.0,255.0,255.0
285,14.25,8.234695953614212,2.3705982627686226,-3.2642022694663257,0.09766472715188712,0.1159124671199363,-0.4352707008492551,0.0043984383562900575,0.006220244158594568,-0.025818887781037247,0.0,70.0,255.0,255.0,255.0
286,14.3,8.239584494685712,2.376401582873695,-3.28599819038285,0.09790614000165121,0.11623799090872744,-0.43655031972041236,0.0054893684296786205,0.0068906187933759355,-0.02523286678823844,0.0,70.0,255.0,255.0,255.0
287,14.350000000000001,8.244486567614377,2.3822220618594954,-3.307857301438367,0.09821366399485498,0.1166015289992739,-0.43779398752807896,0.00686166470664773,0.007651070669334459,-0.024487468986578165,0.0,70.0,255.0,255.0,255.0
288,14.4,8.249405861085197,2.3880617357736225,-3.329777589135658,0.09859230647231598,0.11700309797566089,-0.4389990666190702,0.008140375604881456,0.008309855227084384,-0.023801241779253246,0.0,70.0,255.0,255.0,255.0
289,14.450000000000001,8.254345798261609,2.3939223716570615,-3.351757208100274,0.09902770155534313,0.11743251452198233,-0.4401741117060043,0.008945077008704061,0.008667115342531062,-0.023392406559130663,0.0,70.0,255.0,255.0,255.0
290,14.5,8.259308631240732,2.3998049872258207,-3.3737950003062585,0.09948681417318639,0.11786980950991399,-0.44133830727498324,0.008894741558407304,0.008522763756957374,-0.023476319552928615,0.0,70.0,255.0,255.0,255.0
291,14.55,8.264294479678927,2.405709352608053,-3.3958910388277723,0.09991717571118386,0.11828479089767807,-0.44252174366129715,0.00782113580193311,0.0077925758639629805,-0.024147899859539024,0.0,70.0,255.0,255.0,255.0
292,14.600000000000001,8.26930034881185,2.4116334663155885,-3.418047174672388,0.1002689277533797,0.11864906709631029,-0.44375309726093715,0.006027570975497554,0.006653949704515938,-0.025239057021586575,0.0,70.0,255.0,255.0,255.0
293,14.65,8.274321372454265,2.417574259317684,-3.440266348553866,0.10051993280873361,0.11895018586812967,-0.4450456493634558,0.004083661296050423,0.005437055256773959,-0.026432277699273143,0.0,70.0,255.0,255.0,255.0
294,14.700000000000001,8.279352342092723,2.4235284849024015,-3.4625517396087337,0.10067729388298474,0.11919277262198769,-0.44639632503086446,0.002573980319375835,0.004480949862406547,-0.027404346733517215,0.0,70.0,255.0,255.0,255.0
295,14.75,8.284389101842564,2.4294935365798827,-3.4849059810569525,0.1007773308406712,0.11939828085437032,-0.44778608403680753,0.0020865581145557144,0.004116672841814051,-0.027847861979557464,0.0,70.0,255.0,255.0,255.0
296,14.8,8.28943007517679,2.4354683129878385,-3.5073303480124145,0.10088594969444031,0.11960443990616909,-0.4491811112288202,0.002906461323348708,0.0045061639982968416,-0.027608447527027735,0.0,70.0,255.0,255.0,255.0
297,14.850000000000001,8.294477696812008,2.4414539805704996,-3.5298240921798345,0.10106797697300607,0.1198488972542,-0.4505469287895103,0.004692760016844488,0.005483247062620933,-0.026806186376981955,0.0,70.0,255.0,255.0,255.0
298,14.9,8.299536872874091,2.4474532027132585,-3.5523850408913655,0.10135522569612476,0.12015276461243118,-0.4518617298665184,0.006779431425485427,0.0067109680345733835,-0.025700603134115596,0.0,70.0,255.0,255.0,255.0
299,14.950000000000001,8.30461321938162,2.4534692570317427,-3.5750102651664863,0.10174592011555461,0.12051999405765734,-0.45311698910292186,0.008493080965443767,0.007843024601594806,-0.02456298039921201,0.0,70.0,255.0,255.0,255.0
300,15.0,8.309711464885646,2.4595052021190242,-3.5976967398016577,0.10220453379266914,0.12093706707259066,-0.4543180279064396,0.009155109898983937,0.008538563523829978,-0.023656241853142745,0.0,70.0,255.0,255.0,255.0
301,15.05,8.314833672760887,2.4655629637390017,-3.6204420679571303,0.102661431105453,0.12137385041004034,-0.45548261328823614,0.008426585340082227,0.00861670753695698,-0.023130571104701403,0.0,70.0,255.0,255.0,255.0
302,15.100000000000001,8.319977607996192,2.4716425871600283,-3.6432450011304813,0.10304719232667736,0.12179873782628636,-0.45663108501690974,0.006657612733818041,0.008182106334153616,-0.02296892474329404,0.0,70.0,255.0,255.0,255.0
303,15.15,8.325138391993555,2.4777428375216304,-3.6661051764588213,0.10332719237883481,0.1221920610434557,-0.45777950576256554,0.004542389225470345,0.007469189155084877,-0.02309426081366084,0.0,70.0,255.0,255.0,255.0
304,15.200000000000001,8.330310327234075,2.483861793264374,-3.689022951706738,0.1035014312492244,0.12254565674179485,-0.4589405110982758,0.0027734160971348842,0.00671403797829484,-0.023429419315190714,0.0,70.0,255.0,255.0,255.0
305,15.25,8.335488535118477,2.48999740319581,-3.711999227568649,0.1036045339885483,0.12286346484128519,-0.4601224476940846,0.002044890401009525,0.006157045090660063,-0.02389117993151224,0.0,70.0,255.0,255.0,255.0
306,15.3,8.34067078063293,2.4961481397485024,-3.7350351964761463,0.10370592028932535,0.12316136125086086,-0.46132962909142705,0.0027069175983385207,0.005932553639498295,-0.02441751980204465,0.0,70.0,255.0,255.0,255.0
307,15.350000000000001,8.34585912714741,2.502313539320896,-3.7581321904777916,0.10387522574838215,0.12345672020523502,-0.4625641996742891,0.004420565272056365,0.005983758836292097,-0.02495820789030212,0.0,70.0,255.0,255.0,255.0
308,15.4,8.351058303207768,2.508493811769026,-3.7812916164435753,0.10414797681653098,0.12375973713449007,-0.46382544988045726,0.00650723544737275,0.0061785224314103715,-0.025439742889332706,0.0,70.0,255.0,255.0,255.0
309,15.450000000000001,8.356273924829063,2.514689513034345,-3.8045147354658373,0.10452594929311942,0.12407457244837605,-0.46510817396322235,0.008293534365755306,0.00639322441768897,-0.025774167514569513,0.0,70.0,255.0,255.0,255.0
310,15.5,8.36151089813708,2.5209012690138635,-3.8278024338398975,0.10497733025310652,0.12439905957625896,-0.4664028666319142,0.009113440384922455,0.006493302733145967,-0.02588300112429387,0.0,70.0,255.0,255.0,255.0
311,15.55,8.366771657854374,2.527129418991971,-3.8511550221290287,0.10543729333161167,0.12472390272169065,-0.46769647407565174,0.008626023987368114,0.0064070172991925745,-0.02573212357974697,0.0,70.0,255.0,255.0,255.0
312,15.600000000000001,8.372054627470241,2.5333736592860325,-3.8745720812474627,0.10583993265184333,0.12503976130617822,-0.4689760789898889,0.00711634995536059,0.006203790721848179,-0.025362719220201058,0.0,70.0,255.0,255.0,255.0
313,15.65,8.377355651119558,2.5396333951225887,-3.8980526300280176,0.10614892832714773,0.12534428179387547,-0.47023274599767184,0.005172445209389309,0.006014949557098248,-0.024863131265417948,0.0,70.0,255.0,255.0,255.0
314,15.700000000000001,8.382669520302956,2.54590808746542,-3.92159535584723,0.10635717717278226,0.12564125626188805,-0.4714623921164307,0.003378880004589746,0.005960150598216529,-0.02433339780609778,0.0,70.0,255.0,255.0,255.0
315,15.75,8.387991368836836,2.5521975207487775,-3.9451988692396607,0.1064868163276067,0.12594029685369712,-0.4726660857782816,0.002305264142066221,0.006165688032888639,-0.023864834219322617,0.0,70.0,255.0,255.0,255.0
316,15.8,8.393318201935717,2.55850211715079,-3.968861964425058,0.10658770358698888,0.1262578250651769,-0.47384887553836297,0.0022549071998057,0.006686463410643384,-0.02351347305804552,0.0,70.0,255.0,255.0,255.0
317,15.850000000000001,8.398650139195535,2.564823303255295,-3.992583756793497,0.10671230704758727,0.12660894319476146,-0.47501743308408617,0.0030595826927992675,0.007399306714273024,-0.023307278865436487,0.0,70.0,255.0,255.0,255.0
318,15.9,8.403989432640476,2.571163011470266,-4.016363707733467,0.1068936618562688,0.1269977557366042,-0.4761796034249066,0.004338275089210697,0.008082611741011547,-0.023272207573699077,0.0,70.0,255.0,255.0,255.0
319,15.950000000000001,8.409339505381162,2.5775230788289556,-4.040201717135988,0.10714613455650834,0.1274172043688626,-0.4773446538414561,0.005710572654216151,0.008520112583809691,-0.023431728440215238,0.0,70.0,255.0,255.0,255.0
320,16.0,8.414704046096126,2.583904731907152,-4.064098173117612,0.10746471912169042,0.12784976699498518,-0.47852277626892814,0.006801540343204238,0.008503991755670626,-0.02381365267432045,0.0,70.0,255.0,255.0,255.0
321,16.05,8.420085977293331,2.590308055528454,-4.0880539947628804,0.10782628859082877,0.12826760354442968,-0.4797260191088881,0.007396025536365869,0.007939529990608207,-0.024415009829237277,0.0,70.0,255.0,255.0,255.0
322,16.1,8.42548667495521,2.596731492261595,-4.112070775028501,0.10820432167532701,0.128643719994046,-0.48096427725185187,0.0075335244025254156,0.006965229506850079,-0.02512732615729263,0.0,70.0,255.0,255.0,255.0
323,16.150000000000002,8.430906409460864,2.6031724275278587,-4.136150422488066,0.10857964103108131,0.12896412649511468,-0.4822387517246174,0.007343731822651023,0.005850034714161012,-0.025767199279602693,0.0,70.0,255.0,255.0,255.0
324,16.2,8.436344639058317,2.6096279049111066,-4.160294650200963,0.10893869485759211,0.1292287234654621,-0.48354099717981214,0.006946941265262296,0.004871660139205147,-0.026147427360712072,0.0,70.0,255.0,255.0,255.0
325,16.25,8.441800278946623,2.616095299874405,-4.184504522206047,0.10927433515760754,0.1294512925090352,-0.4848534944606886,0.0064725371894169825,0.004298344944375643,-0.0260885737308314,0.0,70.0,255.0,255.0,255.0
326,16.3,8.447272072574078,2.62257303416201,-4.208779999647032,0.10958594857653381,0.12965855795989967,-0.4861498545528953,0.006006025620308719,0.004268703340049029,-0.025512175270669957,0.0,70.0,255.0,255.0,255.0
327,16.35,8.452758873804276,2.629061155670395,-4.233119507661336,0.10987493771963841,0.1298781628430401,-0.4874047119877556,0.005566226456821255,0.004691663370248733,-0.024549663591511006,0.0,70.0,255.0,255.0,255.0
328,16.400000000000002,8.458259566346042,2.635560850446314,-4.257520470845807,0.11014257122221593,0.13012772429692454,-0.4886048209120464,0.0051694083419207,0.005365361290454729,-0.023454426544411433,0.0,70.0,255.0,255.0,255.0
329,16.45,8.463773130926498,2.6420739281000873,-4.281979989752541,0.11039187855383048,0.13041469897208557,-0.48975015464219673,0.004853550396433093,0.006079960146010421,-0.022490823189169618,0.0,70.0,255.0,255.0,255.0
330,16.5,8.469298754201425,2.6486023203435227,-4.306495486310027,0.11062792626185924,0.13073572031152558,-0.49085390323096334,0.00465637616908765,0.0066226284666015545,-0.021912052400896442,0.0,70.0,255.0,255.0,255.0
331,16.55,8.474835923552684,2.65514750013124,-4.331065380075637,0.11085751617073925,0.13107696181874573,-0.4919413598822864,0.004593298555377601,0.0068733955770561295,-0.021849575801535792,0.0,70.0,255.0,255.0,255.0
332,16.6,8.480384505818499,2.6617100165253973,-4.3556896222982555,0.111087256117397,0.1314230598692312,-0.4930388608111169,0.00463886580615025,0.0068726857771928,-0.022225907588868665,0.0,70.0,255.0,255.0,255.0
333,16.650000000000002,8.485944649164423,2.668289806118163,-4.380369266156749,0.11132140275135427,0.131764230396465,-0.49416395064117324,0.0047413387731509715,0.006722273037862436,-0.022863206431544825,0.0,70.0,255.0,255.0,255.0
334,16.7,8.491516646093634,2.674886439565044,-4.405106017362373,0.1115613899947121,0.13209528717301744,-0.4953251814542714,0.0048388571501689626,0.006516098344189203,-0.023575993169622222,0.0,70.0,255.0,255.0,255.0
335,16.75,8.497100788163895,2.6814993348354648,-4.429901784302176,0.11180528846637117,0.13241584023088393,-0.49652154995813547,0.004857948810510493,0.00635109456887939,-0.024183216664575014,0.0,70.0,255.0,255.0,255.0
336,16.8,8.502697174940272,2.688128023588132,-4.454758172358186,0.11204718487576315,0.13273039662990538,-0.4977435031207289,0.004761292976418474,0.006283774957793753,-0.024577260450442395,0.0,70.0,255.0,255.0,255.0
337,16.85,8.508305506651471,2.6947723744984553,-4.479676134614249,0.11228141776401301,0.1330442177266633,-0.4989792760031797,0.004599242718050789,0.0062966611201087375,-0.0247512748178913,0.0,70.0,255.0,255.0,255.0
338,16.900000000000002,8.513925316716673,2.7014324453607985,-4.504656099958504,0.11250710914756823,0.13336006274191625,-0.500218630602518,0.004463465005599687,0.006347318119814815,-0.02472650064380133,0.0,70.0,255.0,255.0,255.0
339,16.95,8.519556217566228,2.708108380772647,-4.529697997674501,0.11272776426457298,0.1336789495386448,-0.5014519260675598,0.004438107251480972,0.006401846943804301,-0.02451951648669848,0.0,70.0,255.0,255.0,255.0
340,17.0,8.52519809314313,2.714800340314663,-4.55480129256526,0.11295091987271633,0.13400024743629668,-0.5026705822511879,0.004607772645037755,0.006425021229938821,-0.024147062292900756,0.0,70.0,255.0,255.0,255.0
341,17.05,8.5308513095535,2.7215084055162766,-4.57996505589962,0.11318854152907676,0.13432145166163867,-0.5038666322968499,0.0050086157852291535,0.006398217878178514,-0.023633643469178622,0.0,70.0,255.0,255.0,255.0
342,17.1,8.536516947296038,2.728232485480827,-4.605187955794945,0.11345178145123924,0.13464006922411453,-0.5050339465981057,0.0055623917583957905,0.0063406697421442,-0.023049832299726347,0.0,70.0,255.0,255.0,255.0
343,17.150000000000002,8.542196487698623,2.734972412438688,-4.63046845055943,0.11374478070491634,0.1349555186358531,-0.5061716155268225,0.006125733605699679,0.006288454482783479,-0.022511630153854156,0.0,70.0,255.0,255.0,255.0
344,17.2,8.54789142536653,2.741728037344412,-4.655805117347628,0.11406435481180921,0.13526891467239288,-0.5072851096134912,0.006555939951269352,0.006276513880720813,-0.02214491524297202,0.0,70.0,255.0,255.0,255.0
345,17.25,8.553602923179804,2.7484993039059273,-4.681196961520779,0.11440037470004327,0.13558317002392517,-0.5083861070511198,0.006718979257414048,0.006348820511448139,-0.022072543487539065,0.0,70.0,255.0,255.0,255.0
346,17.3,8.559331462836534,2.7552863543468047,-4.70664372805274,0.11473625273755061,0.1359037967235377,-0.5094923639622451,0.006550444350672535,0.006523353529841458,-0.022348678493067098,0.0,70.0,255.0,255.0,255.0
347,17.35,8.56507654845356,2.762089683578281,-4.732146197917004,0.11505541913511053,0.13623550537690932,-0.5106209749004265,0.006115665772554735,0.006740659911486091,-0.022884920459098623,0.0,70.0,255.0,255.0,255.0
348,17.400000000000002,8.570837004750045,2.7689099048844956,-4.757705825542782,0.11534781931480609,0.1365778627146863,-0.5117808560081549,0.0055499642067857735,0.006898863948645584,-0.023510615104793686,0.0,70.0,255.0,255.0,255.0
349,17.45,8.57661133038504,2.7757474698497497,-4.783324283517819,0.1156104155557891,0.13692539177177387,-0.5129720364109058,0.004997620122537683,0.006898810819944146,-0.024048048648772635,0.0,70.0,255.0,255.0,255.0
350,17.5,8.582398046305624,2.782602444061673,-4.809003029183873,0.11584758132705986,0.13726774379668072,-0.5141856608730322,0.0046043289730235415,0.0066317246962821486,-0.02432677308066289,0.0,70.0,255.0,255.0,255.0
351,17.55,8.588196088517746,2.789474244229418,-4.834742849605123,0.11607084845309146,0.1375885642414021,-0.5154047137189721,0.004449093992242581,0.00605456846853869,-0.024258355844430923,0.0,70.0,255.0,255.0,255.0
352,17.6,8.594005131150933,2.796361300485813,-4.86054350055577,0.11629249072628411,0.1378732006435346,-0.5166114964574753,0.004491308787812898,0.0052984621737195425,-0.02389589378948287,0.0,70.0,255.0,255.0,255.0
353,17.650000000000002,8.599825337590374,2.8032615642937713,-4.88640399925087,0.11651997933187275,0.13811841045877404,-0.5177943030979204,0.004638885091701184,0.004595157321807264,-0.023360501503155717,0.0,70.0,255.0,255.0,255.0
354,17.7,8.60565712908412,2.8101731415316906,-4.912322930865562,0.11675637923545423,0.13833271637571531,-0.5189475466077909,0.004799780025166456,0.004174303445969585,-0.022776176874828025,0.0,70.0,255.0,255.0,255.0
355,17.75,8.61150097551392,2.817094835931343,-4.938298753911649,0.11699995733438939,0.138535840803371,-0.5200719207854032,0.004871723498389713,0.004264234083084517,-0.022256354864502725,0.0,70.0,255.0,255.0,255.0
356,17.8,8.617357124817559,2.8240267256120277,-4.964330122944102,0.1172435515852932,0.13875913978402377,-0.5211731820942411,0.00480040578736407,0.004965971663173363,-0.021870672022128446,0.0,70.0,255.0,255.0,255.0
357,17.85,8.62322533067245,2.830970749909745,-4.990416072121073,0.1174799979131258,0.13903243796968834,-0.522258987987616,0.00464003147637726,0.006099244307700147,-0.021647868019414318,0.0,70.0,255.0,255.0,255.0
358,17.900000000000002,8.629105124608872,2.8379299694089966,-5.016556021742864,0.11770755473293093,0.13936906421479378,-0.5233379688961826,0.0044927238642245015,0.007325075528807901,-0.02161185440723301,0.0,70.0,255.0,255.0,255.0
359,17.95,8.634996086145742,2.8449076563312246,-5.0427498690106916,0.11792927029954825,0.13976494552256913,-0.5244201734283394,0.004450346025031138,0.008298427610897718,-0.02178673103196971,0.0,70.0,255.0,255.0,255.0
360,18.0,8.640898051638827,2.8519064639612535,-5.068998039085698,0.11815258933543404,0.14019890697588355,-0.5255166419993795,0.0046047210906507985,0.00868336694339611,-0.022203798137354624,0.0,70.0,255.0,255.0,255.0
361,18.05,8.646811345079286,2.858927547028813,-5.0953015332106295,0.11838974240861333,0.14063328221690874,-0.5266405532420748,0.004996369105469967,0.008314458631453192,-0.02285998170767911,0.0,70.0,255.0,255.0,255.0
362,18.1,8.652737025879688,2.8659697921829443,-5.121662094409905,0.11865222624598104,0.14103035283902887,-0.5278026401701474,0.005546793744670708,0.0073544440456707605,-0.023631794971645803,0.0,70.0,255.0,255.0,255.0
363,18.150000000000002,8.658676567703884,2.873030582312716,-5.148081797227644,0.1189444217830804,0.14136872662147582,-0.5290037327392394,0.006111151851051488,0.006135496273795837,-0.024311241707053455,0.0,70.0,255.0,255.0,255.0
364,18.2,8.664631468057996,2.880106664845092,-5.174562467683829,0.11926334143108619,0.14164390246640846,-0.5302337643408528,0.006546061980827744,0.004998046716009341,-0.02468463792562048,0.0,70.0,255.0,255.0,255.0
365,18.25,8.670602901846992,2.8871949725593566,-5.2011051736617295,0.11959902798116318,0.14186853129307675,-0.5314721965318014,0.006717410787437927,0.0042742794951422525,-0.024536471234348767,0.0,70.0,255.0,255.0,255.0
366,18.3,8.676591370856112,2.8942935179743996,-5.2277096873370095,0.11993508250982998,0.14207133041592268,-0.5326874114642877,0.0065603182576978725,0.004142254417471847,-0.02377508879254364,0.0,70.0,255.0,255.0,255.0
367,18.35,8.682596410097975,2.901402105600949,-5.254373914808158,0.12025505980693296,0.14228275673482393,-0.5338497054110558,0.006137269071082585,0.004513935220851195,-0.02259119917997765,0.0,70.0,255.0,255.0,255.0
368,18.400000000000002,8.688616876836806,2.908521793647882,-5.281094657878115,0.12054880941693824,0.1425227239380078,-0.5349465313822854,0.005579032368174808,0.005182822825444688,-0.02133861000022108,0.0,70.0,255.0,255.0,255.0
369,18.45,8.69465129103967,2.9156543779947497,-5.307868567946387,0.12081296304375044,0.1428010390173684,-0.5359835664110779,0.005024893228799954,0.005942299278016705,-0.020380265051134216,0.0,70.0,255.0,255.0,255.0
370,18.5,8.70069817314118,2.922801897549619,-5.334693014519223,0.12105129873981824,0.14311695386580947,-0.5369845578873989,0.004613654406249168,0.006591543048184434,-0.020078288952696255,0.0,70.0,255.0,255.0,255.0
371,18.55,8.706756420913651,2.9299660733813306,-5.361567023735127,0.12127432848437536,0.14346019332218685,-0.5379913953063475,0.004421845044788597,0.0070109759128467175,-0.02060674936936735,0.0,70.0,255.0,255.0,255.0
372,18.6,8.712825605989618,2.9371479168818375,-5.388492154049858,0.1214934832442971,0.14381805145709414,-0.5390452328243356,0.004420493609380571,0.007194383835917861,-0.021753524859136064,0.0,70.0,255.0,255.0,255.0
373,18.650000000000002,8.71890576923808,2.94434787852704,-5.41547154701756,0.12171637784531342,0.14417963170577863,-0.5401667477922611,0.0045371942002603305,0.0071669653381345455,-0.023103362581267106,0.0,70.0,255.0,255.0,255.0
374,18.7,8.72499724377415,2.9515658800524154,-5.442508828829084,0.12194720266432313,0.1445347479909076,-0.5413555690824623,0.004700565568782622,0.0069470685260419884,-0.024234954550372834,0.0,70.0,255.0,255.0,255.0
375,18.75,8.731100489504513,2.958801353326131,-5.4696071039258065,0.12218643440219168,0.14487433855838283,-0.5425902432472984,0.004835990235108056,0.006551529664244882,-0.024730419574670037,0.0,70.0,255.0,255.0,255.0
376,18.8,8.737215887214369,2.9660533139082537,-5.4967678531538136,0.12243080168783393,0.14518990095733209,-0.5438286110399293,0.004899527670154669,0.006006103003253216,-0.024378053589924065,0.0,70.0,255.0,255.0,255.0
377,18.85,8.743343569673296,2.973320343421864,-5.523989965029799,0.12267638716920715,0.14547494885870815,-0.5450280486062908,0.004901688892822165,0.0053893685967310034,-0.023365517234363864,0.0,70.0,255.0,255.0,255.0
378,18.900000000000002,8.74948352593129,2.9806008087941245,-5.551270658014443,0.12292097057711615,0.14572883781700519,-0.5461651627633657,0.004870419269309423,0.004830154982560231,-0.022077123824093547,0.0,70.0,255.0,255.0,255.0
379,18.95,8.755635666731008,2.9878932272035645,-5.578606481306136,0.12316342909613809,0.14595796435696418,-0.5472357609887002,0.004826644029343186,0.0044684009762985255,-0.02089977688752853,0.0,70.0,255.0,255.0,255.0
380,19.0,8.761799868840903,2.995196605229821,-5.605994234113313,0.12340363498005047,0.14617567791463504,-0.5482551404521185,0.004790356681994012,0.004446347619424529,-0.020219986128289236,0.0,70.0,255.0,255.0,255.0
381,19.05,8.767976030229013,3.002510794995028,-5.633431995351348,0.12364246476433749,0.14640259911890663,-0.5492577596015291,0.004773330988072644,0.004825124894924926,-0.02024038358969804,0.0,70.0,255.0,255.0,255.0
382,19.1,8.774164115317337,3.0098368651417116,-5.660920010073466,0.12388096807885773,0.14665819040412753,-0.5502791788110883,0.0047727508176720335,0.005483666252459329,-0.02081536191402833,0.0,70.0,255.0,255.0,255.0
383,19.150000000000002,8.780364127036899,3.017176614035441,-5.688459913232457,0.12411973984610469,0.14695096574415256,-0.551339295792932,0.004781128722441963,0.00619605109486443,-0.02163802557273442,0.0,70.0,255.0,255.0,255.0
384,19.200000000000003,8.786576089301947,3.024531961716127,-5.716053939652759,0.12435908095110193,0.14727779551361397,-0.5524429813683618,0.0047928583159162486,0.006726553675973079,-0.022405564939731448,0.0,70.0,255.0,255.0,255.0
385,19.25,8.792800035132009,3.031904393586802,-5.743704211369293,0.12459902567769632,0.14762362111174987,-0.5535798522869051,0.004802583037566421,0.006827089182603885,-0.022813691856349294,0.0,70.0,255.0,255.0,255.0
386,19.3,8.799035991869717,3.039294323827302,-5.771411924881449,0.12483933925485857,0.14796050443187436,-0.5547243505539967,0.0048071483760736555,0.006380110703618769,-0.022701064731744935,0.0,70.0,255.0,255.0,255.0
387,19.35,8.805283969057495,3.0467004440299896,-5.7991766464246925,0.12507974051530368,0.14826163218211175,-0.5558499587600796,0.004807307834830965,0.005561374318308054,-0.022179375434916437,0.0,70.0,255.0,255.0,255.0
388,19.400000000000002,8.811543965921247,3.054120487045513,-5.826996920757457,0.12532007003834167,0.14851664186370517,-0.5569422880974884,0.004805065841573253,0.004700232712817609,-0.021483594398485906,0.0,70.0,255.0,255.0,255.0
389,19.450000000000003,8.817815976061329,3.06155210821636,-5.854870875234441,0.125560247099461,0.1487316554533935,-0.5579983181999282,0.004801922709773976,0.004125244459851629,-0.020838336314543682,0.0,70.0,255.0,255.0,255.0
390,19.5,8.824099990631193,3.0689936525908523,-5.88279675257745,0.12580026230931907,0.14892916630969033,-0.5590261217289427,0.004799311168568465,0.004177230382174102,-0.020457181177668815,0.0,70.0,255.0,255.0,255.0
391,19.55,8.830396002292261,3.076445024847329,-5.910773487407336,0.12604017821631786,0.14914937849161092,-0.5600440363176951,0.004798075506151633,0.005014805251102317,-0.020455217623105426,0.0,70.0,255.0,255.0,255.0
392,19.6,8.836704008452825,3.0839085904400134,-5.93880115620922,0.12628006985993423,0.14943064683480056,-0.5610716434912533,0.004798017840812463,0.006383656986841402,-0.02078172841999404,0.0,70.0,255.0,255.0,255.0
393,19.650000000000002,8.843024009278254,3.0913880895308092,-5.966880651756461,0.1265199800003991,0.14978774419029506,-0.5621222091596945,0.004798607910316832,0.0078093583801397415,-0.021313004759271337,0.0,70.0,255.0,255.0,255.0
394,19.700000000000003,8.849356006452865,3.098887364859043,-5.995013377125189,0.1267599306509659,0.15021158267281454,-0.5632029439671804,0.004799450847592368,0.008819834452067354,-0.02192780309053788,0.0,70.0,255.0,255.0,255.0
395,19.75,8.855700002343351,3.1064092477980907,-6.023200946153179,0.12699992508515834,0.1506697276355018,-0.5643149894687483,0.004800172290053695,0.00894007320493273,-0.02252159275668575,0.0,70.0,255.0,255.0,255.0
396,19.8,8.862055998961381,3.113954337622593,-6.051444876072064,0.12723994787997128,0.1511055899933078,-0.565455103242849,0.004800549598726889,0.007946495797872544,-0.023025290882117133,0.0,70.0,255.0,255.0,255.0
397,19.85,8.868423997131348,3.1215198067974215,-6.079746456477464,0.12747998004503103,0.15146437721528905,-0.56661751855696,0.004800620800793354,0.006155652745487572,-0.023377347247954816,0.0,70.0,255.0,255.0,255.0
398,19.900000000000002,8.874803996965884,3.129100775344122,-6.10810662792776,0.12772000996005062,0.15172115526785657,-0.5677928379676445,0.00480050251638886,0.004172357076548394,-0.023499911040492094,0.0,70.0,255.0,255.0,255.0
399,19.950000000000003,8.881195998127353,3.136691922324207,-6.136525740274228,0.1279600302966699,0.1518816129229439,-0.5689675096610092,0.004800273900329444,0.0026075389447655084,-0.02331767743184443,0.0,70.0,255.0,255.0,255.0
400,20.0,8.887599999995551,3.1442889366364164,-6.165003378893861,0.12820003735008356,0.15198190916233312,-0.5701246057108289,0.004799999671334376,0.0020744115303283905,-0.022752485090826724,0.0,70.0,255.0,255.0,255.0
401,20.05,8.894016001862362,3.1518901132404404,-6.193538200845311,0.12844003026380335,0.15208905407597673,-0.5712427581700918,0.004799726099058432,0.002872871230508167,-0.02178879367287223,0.0,70.0,255.0,255.0,255.0
402,20.1,8.900444003021931,3.159497842044014,-6.22212765471087,0.1286800099599894,0.15226919628538393,-0.5723034850781161,0.0047994989555988354,0.004658440655314067,-0.020591493310728737,0.0,70.0,255.0,255.0,255.0
403,20.150000000000002,8.90688400285836,3.167117032868979,-6.250768549353123,0.12891998015936323,0.15255489814150813,-0.5733019075011647,0.004799382023001897,0.006755665528190846,-0.019447257839289023,0.0,70.0,255.0,255.0,255.0
404,20.200000000000003,8.913336001037868,3.174753331858165,-6.279457845460986,0.1291599481622896,0.15294476283820302,-0.574248210862045,0.004799453551562749,0.008484089023452768,-0.0186532354348401,0.0,70.0,255.0,255.0,255.0
405,20.25,8.91979999767459,3.182411509152799,-6.308193370439327,0.1293999255145195,0.1534033070438534,-0.5751672310446487,0.004799829025259328,0.009158364589767487,-0.01850445755424701,0.0,70.0,255.0,255.0,255.0
406,20.3,8.92627599358932,3.1900936625625502,-6.336974568565451,0.12963993106481553,0.15386059929717977,-0.5760986566174697,0.004800546005334638,0.008435585713550964,-0.019133846779872954,0.0,70.0,255.0,255.0,255.0
407,20.35,8.932763990781071,3.197797569082517,-6.365803236101074,0.12987998011505297,0.1542468656152085,-0.577080615722636,0.004801383376928925,0.006666808409594438,-0.020327728461388972,0.0,70.0,255.0,255.0,255.0
408,20.400000000000002,8.939263991600825,3.205518349124071,-6.394682630137715,0.13012006940250842,0.1545272801381392,-0.5781314294636086,0.004801969390477723,0.00454875703441715,-0.021678330330221485,0.0,70.0,255.0,255.0,255.0
409,20.450000000000003,8.945775997721322,3.213250297096331,-6.423616379047435,0.13036017705410075,0.15470174131865022,-0.5792484487556582,0.004801911893004274,0.0027758252413523365,-0.022763833043981663,0.0,70.0,255.0,255.0,255.0
410,20.5,8.952300009306235,3.220988523255936,-6.452607475013281,0.13060026059180885,0.15480486266227445,-0.5804078127680068,0.004800684227923568,0.0020440182225467396,-0.023157703339471425,0.0,70.0,255.0,255.0,255.0
411,20.55,8.958836023780503,3.2287307833625585,-6.481657160324236,0.1308402454768931,0.1549061431409049,-0.5815642190896053,0.004798089879720635,0.0027045061946839866,-0.022649245779682303,0.0,70.0,255.0,255.0,255.0
412,20.6,8.965384033853924,3.2364791375700266,-6.510763896922241,0.1310800695797809,0.15507531328174284,-0.582672737345975,0.004794967536803085,0.004418101930081519,-0.021468408694591545,0.0,70.0,255.0,255.0,255.0
413,20.650000000000002,8.97194403073848,3.2442383146907328,-6.539924434058833,0.1313197422305734,0.15534795333391305,-0.5837110599590645,0.004792740415560104,0.006505530110789692,-0.02006860498964258,0.0,70.0,255.0,255.0,255.0
414,20.700000000000003,8.978516008076982,3.252013932903418,-6.569135002918148,0.13155934362133692,0.1557258662928218,-0.5846795978449393,0.004792898876893048,0.008292889731276176,-0.0189045792430953,0.0,70.0,255.0,255.0,255.0
415,20.75,8.985099965100614,3.259810901320015,-6.598392393843327,0.13179903211826272,0.15617724230704066,-0.585601517883374,0.0047974340622758405,0.009113674407812411,-0.01843265449616993,0.0,70.0,255.0,255.0,255.0
416,20.8,8.991695911288808,3.267631657134122,-6.627695154706485,0.1320390870275645,0.15663723373360305,-0.5865228632945563,0.004807094475722806,0.008626669228117834,-0.018882316953572342,0.0,70.0,255.0,255.0,255.0
417,20.85,8.998303873803371,3.2754746246933752,-6.657044680172783,0.132279741565835,0.15703990922985245,-0.5874897495787312,0.004818746475976354,0.007117007646506579,-0.020027820908463667,0.0,70.0,255.0,255.0,255.0
418,20.900000000000002,9.004923885445391,3.283335648057107,-6.686444129664358,0.13252096167516214,0.1573489344982537,-0.5885256453854026,0.0048270689477547535,0.005172898746330645,-0.021418065562883726,0.0,70.0,255.0,255.0,255.0
419,20.950000000000003,9.011555969970887,3.2912095181432006,-6.715897244711323,0.13276244846061047,0.1575571991044855,-0.5896315561350196,0.0048264926000740616,0.0033790493995766724,-0.022604703130912895,0.0,70.0,255.0,255.0,255.0
420,21.0,9.018200130291453,3.2990913679675558,-6.74540728527786,0.13300361093516955,0.15768683943821138,-0.5907861156984939,0.004809579522024876,0.0023052002298129537,-0.02314375326779583,0.0,70.0,255.0,255.0,255.0
421,21.05,9.024856331064404,3.3069782020870218,-6.774975856281173,0.13324340641281296,0.1577877191274668,-0.5919459314617992,0.004773532217328125,0.0022547376391734986,-0.022808339552771173,0.0,70.0,255.0,255.0,255.0
422,21.1,9.031524470932734,3.3148701398803024,-6.80460187842404,0.13348096415690236,0.15791231320212873,-0.593066949653771,0.004730046559409118,0.0030594152697460686,-0.021791123521719413,0.0,70.0,255.0,255.0,255.0
423,21.150000000000002,9.038204427480094,3.3227694334072346,-6.83428255124655,0.13371641106875387,0.15809366065444141,-0.5941250438139711,0.004698983793716138,0.004338166279183042,-0.020488316909084148,0.0,70.0,255.0,255.0,255.0
424,21.200000000000003,9.04489611203961,3.3306795059457466,-6.864014382805437,0.13395086253627397,0.15834612983004703,-0.5951157813446795,0.00470113072399414,0.005710539709946616,-0.019296468374108144,0.0,70.0,255.0,255.0,255.0
425,21.25,9.051599513733722,3.3386040463902393,-6.893794129381018,0.13418652414115328,0.15866471462543608,-0.596054690651382,0.004764247848676462,0.006801561968616809,-0.018612285810792883,0.0,70.0,255.0,255.0,255.0
426,21.3,9.058314764453725,3.34654597740829,-6.923619851870575,0.13442728732114162,0.15902628602690871,-0.5969770099257588,0.0048987766538388655,0.007396058536945915,-0.01864367215382856,0.0,70.0,255.0,255.0,255.0
427,21.35,9.065042242465836,3.35450667499293,-6.9534918303735935,0.13467640180653717,0.15940432047913067,-0.5979190578667648,0.005061067287037702,0.007533536402837271,-0.019238640716956468,0.0,70.0,255.0,255.0,255.0
428,21.400000000000002,9.071782404634378,3.3624864094562033,-6.983411757657252,0.1349333940498454,0.15977963966719244,-0.5989008739974544,0.0051769958776759495,0.0073437135259091235,-0.0200785502511458,0.0,70.0,255.0,255.0,255.0
429,21.450000000000003,9.07853558187082,3.3704846389596494,-7.013381917773339,0.13519410139430477,0.16013869183172158,-0.5999269128918794,0.005175697791059974,0.006946903648774594,-0.02084905041259688,0.0,70.0,255.0,255.0,255.0
430,21.5,9.085301814773809,3.3785002786393754,-7.04340444894644,0.1354509638289514,0.1604743300320699,-0.6009857790387141,0.004985457054473841,0.0064725145997091005,-0.021231159433021674,0.0,70.0,255.0,255.0,255.0
431,21.55,9.092080678253716,3.3865320719628564,-7.07348049567721,0.13569264709975215,0.1607859432916925,-0.6020500288351815,0.004577561633034577,0.006006063178354282,-0.021057624511477968,0.0,70.0,255.0,255.0,255.0
432,21.6,9.098871079483784,3.3945788729685447,-7.103609451829958,0.13590871999225485,0.16107493634990533,-0.6030915414898619,0.0040274558550379425,0.005566345878760259,-0.02046065393690455,0.0,70.0,255.0,255.0,255.0
433,21.650000000000002,9.105671550252941,3.402639565597847,-7.133789649826197,0.13609539268525594,0.16134257787956852,-0.604096094228872,0.0034721002938553625,0.00516959033944886,-0.01971030259984019,0.0,70.0,255.0,255.0,255.0
434,21.700000000000003,9.11248061875231,3.4107131307565015,-7.164019061252845,0.13625593002164038,0.16159189538385021,-0.6050625717498459,0.0030488520049942736,0.0048537338071863445,-0.019067702936048647,0.0,70.0,255.0,255.0,255.0
435,21.75,9.119297143255105,3.418798755136232,-7.194295907001181,0.13640027788575537,0.16182795126028715,-0.6060028645224769,0.0028859052864760315,0.004656444900508205,-0.018795011188554867,0.0,70.0,255.0,255.0,255.0
436,21.8,9.126120646540885,3.4268959258825302,-7.224619347705093,0.13654452055028798,0.16205753987390104,-0.6069420728687014,0.0030447763471386224,0.004593115323014985,-0.01902568993941145,0.0,70.0,255.0,255.0,255.0
437,21.85,9.132951595310134,3.435004509123622,-7.254990114288051,0.13670475552046923,0.16228726279258865,-0.607905433516418,0.003464633767613634,0.004638376119636689,-0.01963333560963676,0.0,70.0,255.0,255.0,255.0
438,21.900000000000002,9.139791122092932,3.443124652161789,-7.285409891056735,0.13689098392704935,0.1625213774858647,-0.6089054064296651,0.004018239311065486,0.004740629079291736,-0.020365647275610854,0.0,70.0,255.0,255.0,255.0
439,21.950000000000003,9.146640693702839,3.4512566468722086,-7.315880654931018,0.13710657945157578,0.16276132570051782,-0.6099419982439791,0.00456940700974684,0.004838161122622253,-0.020973564417925417,0.0,70.0,255.0,255.0,255.0
440,22.0,9.15350178003809,3.459400784731841,-7.3464040908811326,0.13734792462802403,0.16300519359812693,-0.6110027628714576,0.004982903151251605,0.004857696473603568,-0.021204833107635324,0.0,70.0,255.0,255.0,255.0
441,22.05,9.160375486165641,3.4675571662320213,-7.376980931218164,0.13760486976670094,0.16324709534787818,-0.6120624815547426,0.005183845798484299,0.004761988350088231,-0.020933042303372673,0.0,70.0,255.0,255.0,255.0
442,22.1,9.16726226701476,3.4757254942666287,-7.407610339036607,0.13786630920787246,0.16348139243313575,-0.6130960671017949,0.005197645437071685,0.004601082043809157,-0.020291411550665828,0.0,70.0,255.0,255.0,255.0
443,22.150000000000002,9.174162117086428,3.483905305475335,-7.438290537928343,0.1381246343104081,0.1637072035522591,-0.6140916227098092,0.005090466938639793,0.004466121781732113,-0.019541700372549542,0.0,70.0,255.0,255.0,255.0
444,22.200000000000003,9.1810747304458,3.4920962146218546,-7.469019501307588,0.13837535590173644,0.16392800461130896,-0.6150502371390498,0.004927319491265791,0.004440707949404654,-0.018944612819193907,0.0,70.0,255.0,255.0,255.0
445,22.25,9.187999652676602,3.5002981059364657,-7.499795561642248,0.1386173662595347,0.16415127434719956,-0.6159860839917286,0.004774463458900868,0.004608713260578767,-0.01876961908457986,0.0,70.0,255.0,255.0,255.0
446,22.3,9.194936467071754,3.5085113420565746,-7.530618109706761,0.13885280224762653,0.16438887593736684,-0.6169271990475078,0.0046726143514419505,0.005006017523756512,-0.01914871427359799,0.0,70.0,255.0,255.0,255.0
447,22.35,9.201884932901365,3.5167369935302024,-7.561488281546999,0.1390846276946789,0.1646518760995752,-0.6179009554190884,0.004623852084861824,0.005555524143208146,-0.01991561026208899,0.0,70.0,255.0,255.0,255.0
448,22.400000000000002,9.208844929841222,3.524976529666532,-7.592408205248669,0.1393151874561127,0.16494442835168766,-0.6189187600737167,0.00462166449572976,0.006115816195118029,-0.02075295915915376,0.0,70.0,255.0,255.0,255.0
449,22.450000000000003,9.215816451646976,3.533231436365371,-7.6233801575543705,0.13954679414425186,0.16526345771908701,-0.6199762513350038,0.004667515490730523,0.006546233187387784,-0.021348124166653548,0.0,70.0,255.0,255.0,255.0
450,22.5,9.222799609255647,3.541502875438441,-7.65440583038217,0.13978193900518576,0.16559905167042643,-0.6210535724903821,0.004771270984882392,0.006715469131490792,-0.021384755822584367,0.0,70.0,255.0,255.0,255.0
451,22.55,9.229794645547495,3.549791341532414,-7.685485514803409,0.1400239212427401,0.1659350046322361,-0.6221147269172622,0.004932410081259775,0.006560142021072579,-0.020711727641131716,0.0,70.0,255.0,255.0,255.0
452,22.6,9.236802001379921,3.5580963759016644,-7.716617303073896,0.14027518001331174,0.1662550658725337,-0.6231247452544952,0.005106946225019726,0.006141296907813398,-0.019533326887799518,0.0,70.0,255.0,255.0,255.0
453,22.650000000000002,9.243822163548826,3.566416848119667,-7.747797989328858,0.14053461586524207,0.16654913432301743,-0.6240680596060422,0.005222875079446965,0.005586977074223398,-0.01824012266435915,0.0,70.0,255.0,255.0,255.0
454,22.700000000000003,9.250855462966445,3.574751289333966,-7.7790241090345,0.14079746752125644,0.16681376357995603,-0.6249487575209312,0.005209331831323993,0.005033846481072857,-0.01722223783398036,0.0,70.0,255.0,255.0,255.0
455,22.75,9.257901910300951,3.583098224477663,-7.810292865080951,0.14105554904837447,0.16705251897112472,-0.6257902833894402,0.004992480573839941,0.004617428861219963,-0.016867301681422475,0.0,70.0,255.0,255.0,255.0
456,22.8,9.264961017871283,3.5914565412310786,-7.841603137373444,0.14129671557864043,0.16727550646607803,-0.6266354876890734,0.004543945788704207,0.004412901571226868,-0.017364748121995177,0.0,70.0,255.0,255.0,255.0
457,22.85,9.272031581858815,3.5998257751242706,-7.872956413849859,0.1415099436272449,0.1674938091282474,-0.6275267582016397,0.003950134576591324,0.004395651862010297,-0.018501198736498026,0.0,70.0,255.0,255.0,255.0
458,22.900000000000002,9.279112012234007,3.6082059221439033,-7.904355813193608,0.14169172903629956,0.16771507165227906,-0.6284856075627232,0.003365902786711672,0.004500751032265882,-0.019855594471973603,0.0,70.0,255.0,255.0,255.0
459,22.950000000000003,9.286200754762445,3.6165972822894985,-7.935804974606131,0.14184653390591606,0.167943884231474,-0.6295123176488371,0.0029479310764912725,0.004664581354729691,-0.021003577178468902,0.0,70.0,255.0,255.0,255.0
460,23.0,9.293296665624599,3.6250003105670507,-7.967307044958492,0.1419865221439487,0.16818152978775203,-0.6305859652805701,0.002850788072805699,0.004822834071838145,-0.02152608407248735,0.0,70.0,255.0,255.0,255.0
461,23.05,9.30039940697684,3.6334154352682737,-7.998863571134188,0.14213161271319663,0.1684261676386578,-0.6316649260560858,0.003145606298815551,0.0049354778009380595,-0.021209419730094936,0.0,70.0,255.0,255.0,255.0
462,23.1,9.307509826895918,3.6418429273309165,-8.0304735375641,0.14230108277383025,0.16867507756784583,-0.6327069072535796,0.003728039943062811,0.004997028044773089,-0.020232694016719677,0.0,70.0,255.0,255.0,255.0
463,23.150000000000002,9.314629515254223,3.6502829430250583,-8.062134261859546,0.1425044167075029,0.16892587044313512,-0.6336881954577578,0.0043971501355599685,0.005008247235194219,-0.018966683597998468,0.0,70.0,255.0,255.0,255.0
464,23.200000000000003,9.321760268566669,3.65873551437523,-8.093842357109876,0.14274079778738624,0.16917590229136525,-0.6346035756133794,0.00494616997013253,0.0049616276343478205,-0.017783313592367733,0.0,70.0,255.0,255.0,255.0
465,23.25,9.328903595032962,3.667200533254195,-8.125594619420884,0.14299903370451617,0.1694220332065699,-0.6354665268169946,0.005168376461028856,0.004839206879125868,-0.017048315408096926,0.0,70.0,255.0,255.0,255.0
466,23.3,9.33606017193712,3.675677717695887,-8.157389009791576,0.14325763543348913,0.16965982297927784,-0.6363084071541891,0.004960342303839127,0.004638473937879084,-0.01695692027663398,0.0,70.0,255.0,255.0,255.0
467,23.35,9.34322935857631,3.6841665155521226,-8.189225460136303,0.14349506793490008,0.1698858806003578,-0.637162218844658,0.004423113575136028,0.0044162359588373334,-0.017398980907756822,0.0,70.0,255.0,255.0,255.0
468,23.400000000000002,9.35040967873061,3.692666305755923,-8.221105231676042,0.14369994679100273,0.17010144657516157,-0.6380483052449648,0.003760088743831602,0.004266260027163682,-0.018127554586122585,0.0,70.0,255.0,255.0,255.0
469,23.450000000000003,9.357599353255411,3.7011766602096388,-8.2530302906608,0.14387107680928324,0.17031250660307418,-0.6389749743032702,0.003173962470803815,0.004282194821669805,-0.018896082204911124,0.0,70.0,255.0,255.0,255.0
470,23.5,9.364796786411539,3.7096975564162302,-8.285002729106369,0.1440173430380831,0.17052966605732855,-0.6399379134654559,0.0028596687883464256,0.004568310439534429,-0.019452682267129262,0.0,70.0,255.0,255.0,255.0
471,23.55,9.37200108755922,3.7182296268153716,-8.317024082007345,0.14415704368811788,0.17076933764702762,-0.6409202425299831,0.002919597911521521,0.0051644259809080495,-0.01965735137794411,0.0,70.0,255.0,255.0,255.0
472,23.6,9.37921249078035,3.726774490180933,-8.349094753359367,0.14430930282923526,0.17104610865541936,-0.6419036486032503,0.0032940978286433165,0.0059362565581810856,-0.019575951115946566,0.0,70.0,255.0,255.0,255.0
473,23.650000000000002,9.386432017842143,3.7353342376809135,-8.38121444686767,0.1444864534709822,0.17136296330284573,-0.6428778376415778,0.0038479028139803972,0.006647645057267226,-0.019356850970808637,0.0,70.0,255.0,255.0,255.0
474,23.700000000000003,9.393661136127449,3.7439107865112176,-8.413382537123525,0.1446940931106333,0.17171087316114608,-0.6438393337003312,0.004444693436234104,0.00706353247283964,-0.019139956656566426,0.0,70.0,255.0,255.0,255.0
475,23.75,9.400901427153206,3.752505324997028,-8.445598380237703,0.14493092281460562,0.1720693165501297,-0.6447918333072344,0.004956957709900678,0.006947597982742693,-0.019080908903745808,0.0,70.0,255.0,255.0,255.0
476,23.8,9.40815422840891,3.7611177181662305,-8.477861720454248,0.14518978888162337,0.17240563295942035,-0.6457474245907058,0.005308492155364775,0.006196223070986662,-0.019259734817111962,0.0,70.0,255.0,255.0,255.0
477,23.85,9.415420406041369,3.76974588829297,-8.510173122696774,0.1454617720301421,0.17268893885722836,-0.6467178067889456,0.005484131473743048,0.0050049848949296205,-0.01957628222726271,0.0,70.0,255.0,255.0,255.0
478,23.900000000000002,9.422700405611923,3.7783866120519534,-8.542533501133143,0.14573820202899768,0.1729061314489133,-0.647705052813432,0.005483824477536814,0.0037385909788856253,-0.019846813092883053,0.0,70.0,255.0,255.0,255.0
479,23.950000000000003,9.429994226244268,3.7870365014378615,-8.574943627978117,0.14601015447789578,0.17306279795511692,-0.6487024880982339,0.005307776605611991,0.0027692230722742295,-0.01990371820852488,0.0,70.0,255.0,255.0,255.0
480,24.0,9.437301421059713,3.795692891847465,-8.607403749942966,0.14626897968955888,0.17318305375614074,-0.6496954246342845,0.004956509693876399,0.002469269657945361,-0.019579766034283352,0.0,70.0,255.0,255.0,255.0
481,24.05,9.444621124213224,3.8043548068134756,-8.639913170441545,0.14650580544728342,0.17330972492091146,-0.6506604647016623,0.004445407824960057,0.003017767982216313,-0.018802823572272587,0.0,70.0,255.0,255.0,255.0
482,24.1,9.451952001604441,3.813023864339556,-8.672469796413132,0.14671352047205488,0.17348483055436237,-0.6515757069915118,0.0038502154383834863,0.004193920412109975,-0.0177224630975914,0.0,70.0,255.0,255.0,255.0
483,24.150000000000002,9.45929247626043,3.821703289868912,-8.705070741140696,0.14689082699112177,0.17372911696212245,-0.6524327110114214,0.0032976384376937062,0.005567035316378366,-0.016614031857109524,0.0,70.0,255.0,255.0,255.0
484,24.200000000000003,9.466641084303554,3.8303967760357684,-8.737713067514274,0.14704328431582425,0.1740415340860002,-0.6532371101772227,0.0029231745013902355,0.006700227918665647,-0.015750718295137744,0.0,70.0,255.0,255.0,255.0
485,24.25,9.473996804692012,3.839107443277512,-8.770394452158419,0.1471831444412608,0.17439913975398902,-0.6540077828409352,0.00286101283819562,0.007155370005307304,-0.01538398966243193,0.0,70.0,255.0,255.0,255.0
486,24.3,9.48135939874768,3.8478366900111673,-8.803113845798368,0.14732938559964381,0.17475707108653094,-0.6547755091434659,0.0031703893627721413,0.006712844860023992,-0.01563656996168561,0.0,70.0,255.0,255.0,255.0
487,24.35,9.488729743251977,3.856583150386165,-8.835872003072765,0.147500183377538,0.17507042423999142,-0.6555714398371038,0.003750531247703748,0.005590149307543868,-0.01640491433292368,0.0,70.0,255.0,255.0,255.0
488,24.400000000000002,9.496109417085433,3.8653437324351665,-8.868670989782078,0.1477044387244142,0.17531608601728532,-0.6564160005767583,0.004409258136739425,0.0042224519051003995,-0.017464332205818778,0.0,70.0,255.0,255.0,255.0
489,24.450000000000003,9.503500187124418,3.8741147589878935,-8.901513603130441,0.14794110919121195,0.17549266943050146,-0.6573178730576856,0.004946751496781587,0.0030430121064739524,-0.01857443425148375,0.0,70.0,255.0,255.0,255.0
490,24.5,9.510903528004555,3.8828929993782166,-8.934402777087847,0.14819911387409235,0.17562038722793272,-0.6582734440019067,0.00516344827712345,0.002477175728587966,-0.019508238020193858,0.0,70.0,255.0,255.0,255.0
491,24.55,9.518320098511827,3.8916767977106868,-8.967340947530632,0.1484574540189243,0.17574038700336025,-0.659268696859705,0.004959748010158194,0.002743999430077082,-0.020131922223676213,0.0,70.0,255.0,255.0,255.0
492,24.6,9.525749273406447,3.9004670380785527,-9.000329646773817,0.14869508867510817,0.17589478717094043,-0.6602866362242743,0.004433067495845933,0.003674666506903179,-0.020425152297498528,0.0,70.0,255.0,255.0,255.0
493,24.650000000000002,9.533189607379338,3.909266276427781,-9.03336961115306,0.1489007607685089,0.17610785365405057,-0.6613112120894549,0.0037799210902633718,0.004913972914488696,-0.020399688269634453,0.0,70.0,255.0,255.0,255.0
494,24.700000000000003,9.540639349483298,3.9180778234439577,-9.066460767982763,0.1490730807841345,0.1763861844623893,-0.6623266050512377,0.003196392938775716,0.00610786351566972,-0.020072570339912943,0.0,70.0,255.0,255.0,255.0
495,24.75,9.548096915457752,3.9269048948740197,-9.099602271658183,0.14922040006238646,0.17671864000561754,-0.6633184691234462,0.002869156757157043,0.006915973700438727,-0.019471076905475115,0.0,70.0,255.0,255.0,255.0
496,24.8,9.555561389489537,3.9357496874445195,-9.132792614895108,0.1493599964598502,0.17707778183243317,-0.6642737127417853,0.0028971920235321136,0.007151810099914613,-0.01863368986274594,0.0,70.0,255.0,255.0,255.0
497,24.85,9.563032915103737,3.944612673057263,-9.166029642932362,0.14951011926473967,0.177433821015609,-0.6651818381097208,0.0032317908431167552,0.006880228954031509,-0.017656154798117996,0.0,70.0,255.0,255.0,255.0
498,24.900000000000002,9.57051240141601,3.9534930695460804,-9.19931079870608,0.14968317554416188,0.17776580472783632,-0.6660393282215971,0.0037564654272514986,0.006271772987354041,-0.016698593036323928,0.0,70.0,255.0,255.0,255.0
499,24.950000000000003,9.578001232658153,3.9623892535300467,-9.232633575754521,0.14988576580746482,0.1780609983143444,-0.6668516974133532,0.004354390036098721,0.005499333364511472,-0.015939946393217497,0.0,70.0,255.0,255.0,255.0
500,25.0,9.585500977996757,3.971299169377515,-9.265995968447415,0.15011861454777176,0.17831573806428747,-0.6676333228609188,0.004923934017675435,0.004738929469816355,-0.01554750097803037,0.0,70.0,255.0,255.0,255.0
501,25.05,9.59301309411293,3.9802208273364754,-9.299396908040613,0.15037815920923236,0.17853489126132605,-0.6684064475111562,0.00539871000171388,0.004100508421611693,-0.015600544433169716,0.0,70.0,255.0,255.0,255.0
502,25.1,9.60053879391768,3.9891526585036474,-9.33283661319853,0.15065848554794314,0.17872578890644863,-0.6691933773042358,0.005723405495672296,0.0036016204742139735,-0.01602304902306173,0.0,70.0,255.0,255.0,255.0
503,25.150000000000002,9.608078942667724,3.9980934062271203,-9.366316245771037,0.1509504997587996,0.17889505330874744,-0.6700087524134624,0.0058297416765995536,0.003244249821987566,-0.01665227991072271,0.0,70.0,255.0,255.0,255.0
504,25.200000000000003,9.61563384389356,4.007042163834522,-9.399837488439877,0.1512414597156031,0.1790502138886474,-0.670858605295308,0.005653273025707506,0.0030399778514489384,-0.017308156907169803,0.0,70.0,255.0,255.0,255.0
505,25.25,9.623203088639285,4.015998427615985,-9.433402106300568,0.15151582706137035,0.17919905109389234,-0.6717395681041793,0.0051311444687840435,0.002980336392255367,-0.017806891211513687,0.0,70.0,255.0,255.0,255.0
506,25.3,9.630785426599697,4.024962068943911,-9.467011445250295,0.1517545741624815,0.17934824752787293,-0.6726392944164594,0.004253142792087772,0.00305389514094756,-0.01804515804586515,0.0,70.0,255.0,255.0,255.0
507,25.35,9.638378546055533,4.033933252368772,-9.500666035742213,0.15194114134057912,0.1795044406079871,-0.6735440839087659,0.003157197896364039,0.003269746025491571,-0.018056217873763103,0.0,70.0,255.0,255.0,255.0
508,25.400000000000002,9.645979540733755,4.04291251300471,-9.534365853641171,0.1520702939521179,0.17967522213042209,-0.6744449162038357,0.0020844746273951387,0.003633092527088877,-0.017926040234783613,0.0,70.0,255.0,255.0,255.0
509,25.450000000000003,9.653585575450744,4.0519007745818145,-9.568110527362597,0.15214958880331864,0.17986774986069598,-0.6753366879322442,0.0012842661133660727,0.004128354297261438,-0.017735025045517716,0.0,70.0,255.0,255.0,255.0
510,25.5,9.661194499614087,4.06089928799078,-9.601899522434396,0.15219872056345451,0.18008805756014823,-0.6762184187083875,0.000987478783720519,0.004747650368663869,-0.017564887555288067,0.0,70.0,255.0,255.0,255.0
511,25.55,9.66880544750709,4.069909580337829,-9.635732369233436,0.1522483366816907,0.18034251489756237,-0.677093176687773,0.0013030311823314378,0.005471510081989095,-0.017464883989148916,0.0,70.0,255.0,255.0,255.0
512,25.6,9.676419333282256,4.078933539480536,-9.669608840103173,0.15232902368168766,0.18063520856834714,-0.6779649071073024,0.0021188518688930458,0.006201260226124106,-0.01743114708201432,0.0,70.0,255.0,255.0,255.0
513,25.650000000000002,9.684038349875259,4.087973101194664,-9.703528859944166,0.15246022186858,0.18096264092017478,-0.6788362913959745,0.0031996325425609484,0.006779836946613216,-0.017445330712106966,0.0,70.0,255.0,255.0,255.0
514,25.700000000000003,9.691665355469114,4.097029803572553,-9.73749246924277,0.15264898693594375,0.18131319226300846,-0.6797094401785131,0.004290688162633671,0.007054343886636616,-0.017497943376376668,0.0,70.0,255.0,255.0,255.0
515,25.75,9.699303248568853,4.106104420420965,-9.771499803962017,0.15288929068484336,0.18166807530883844,-0.6805860857336121,0.00514290309965304,0.0068810901045601724,-0.017585586538970688,0.0,70.0,255.0,255.0,255.0
516,25.8,9.706954284537598,4.115196611103437,-9.805551077816132,0.15316327724590906,0.18200130127346448,-0.6814679988324102,0.005615758118260317,0.006205239357015557,-0.017702019283305503,0.0,70.0,255.0,255.0,255.0
517,25.85,9.714619576293444,4.124304550548311,-9.839646603845258,0.1534508664966694,0.18228859924454,-0.6823562876619427,0.005734667355561385,0.005170527755637977,-0.01781919379819641,0.0,70.0,255.0,255.0,255.0
518,25.900000000000002,9.722299371187265,4.133425471027891,-9.873786706582326,0.1537367439814652,0.18251835404902828,-0.6832499182122298,0.005588044155402372,0.004044762482813269,-0.017892636917338223,0.0,70.0,255.0,255.0,255.0
519,25.950000000000003,9.72999325069159,4.142556385953214,-9.907971595666481,0.15400967091220963,0.18269307549282132,-0.6841455513536765,0.005267293591515454,0.0031127316943546646,-0.017879914736340652,0.0,70.0,255.0,255.0,255.0
520,26.0,9.737700338278486,4.151694778577173,-9.942201261717694,0.15426347334061674,0.18282962721846374,-0.6850379096858639,0.004876899492778364,0.0026600171858071064,-0.01774479426188691,0.0,70.0,255.0,255.0,255.0
521,26.05,9.745419598025652,4.160839348675061,-9.976475386635068,0.15449736086148746,0.18295907721140203,-0.6859200307798652,0.004485684595678663,0.002827532490101703,-0.017473239343956948,0.0,70.0,255.0,255.0,255.0
522,26.1,9.753150074364635,4.169990686298314,-10.01079326479568,0.1547120418001846,0.1831123804674739,-0.6867852336202596,0.00410238546812991,0.003468516862881188,-0.017093849285920726,0.0,70.0,255.0,255.0,255.0
523,26.150000000000002,9.76089080220567,4.179150586721808,-10.045153909997094,0.15490759940830046,0.18330592889769015,-0.6876294157084573,0.0037308015588877197,0.004289225010278841,-0.016663189216714613,0.0,70.0,255.0,255.0,255.0
524,26.200000000000003,9.768640834305465,4.188321279188083,-10.079556206366526,0.15508512195607338,0.1835413029685018,-0.688451552541931,0.0033920255845032443,0.004988155909568803,-0.016241884858025912,0.0,70.0,255.0,255.0,255.0
525,26.25,9.776399314401278,4.197504717018658,-10.113999065251287,0.15524680196675078,0.18380474448864703,-0.6892536041942599,0.003097564196430369,0.005250869124662216,-0.015879245739114367,0.0,70.0,255.0,255.0,255.0
526,26.3,9.78416551450214,4.206701753636947,-10.148481566785952,0.15539487837571642,0.18406638988096802,-0.6900394771158425,0.002854930072260231,0.004918570076295481,-0.015605023341613844,0.0,70.0,255.0,255.0,255.0
527,26.35,9.79193880223885,4.215911356006755,-10.183003012962871,0.1555322949739768,0.18429660149627658,-0.6908141065284212,0.002693086809557599,0.004161745118569371,-0.015442705093526854,0.0,70.0,255.0,255.0,255.0
528,26.400000000000002,9.799718743999538,4.225131413786575,-10.217562977438794,0.15566418705667218,0.18448256439282495,-0.6915837476251951,0.00265145357065677,0.0033111579889499865,-0.015417310178023058,0.0,70.0,255.0,255.0,255.0
529,26.450000000000003,9.807505220944517,4.234359612446037,-10.25216138772539,0.15579744033104248,0.18462771729517158,-0.6923558375462235,0.002757890784010897,0.0026883043409142715,-0.01554583254694819,0.0,70.0,255.0,255.0,255.0
530,26.5,9.815298488032642,4.243594185516092,-10.286798561193416,0.15593997613507327,0.18475139482691638,-0.69313833087989,0.0030368064258823324,0.0026164130758843385,-0.015842185485048788,0.0,70.0,255.0,255.0,255.0
531,26.55,9.823099218558024,4.252834751928729,-10.32147522081338,0.1561011209736307,0.18488935860276,-0.6939400560947284,0.0034889074692401323,0.00325184687959279,-0.016300979641847846,0.0,70.0,255.0,255.0,255.0
532,26.6,9.830908600130005,4.262083121376368,-10.35619256680289,0.15628886688199728,0.18507657951487566,-0.6947684288440747,0.004044428132488065,0.004397323175364676,-0.01685449117907467,0.0,70.0,255.0,255.0,255.0
533,26.650000000000002,9.838728105246224,4.271342409880217,-10.390952063697787,0.15650556378687952,0.18532909092029648,-0.6956255052126359,0.0045825449975112065,0.005672483359031588,-0.017386730910473602,0.0,70.0,255.0,255.0,255.0
534,26.700000000000003,9.846559156508693,4.280616030468398,-10.425755117324153,0.1567471213817484,0.18564382785077882,-0.6965071019351221,0.0049774369220045855,0.006699279407129666,-0.017775810596454278,0.0,70.0,255.0,255.0,255.0
535,26.75,9.854402817384399,4.2899067926652945,-10.4606027738913,0.15700330747907998,0.18599901886100945,-0.6974030862722813,0.005111200775864688,0.007107534516404002,-0.017908002998012762,0.0,70.0,255.0,255.0,255.0
536,26.8,9.862259487256601,4.299215932354499,-10.49549542595138,0.15725824145933487,0.18635458130241922,-0.6982979022349234,0.004928927228853297,0.0067136694455349755,-0.017730545269500908,0.0,70.0,255.0,255.0,255.0
537,26.85,9.870128641530332,4.308542250795536,-10.530432564114792,0.1574962002019653,0.18667038580556294,-0.6991761407992314,0.004493676184402773,0.00569884562953149,-0.01730380571380863,0.0,70.0,255.0,255.0,255.0
538,26.900000000000002,9.878009107276798,4.317882970935055,-10.565413040031304,0.15770760907777515,0.18692446586537237,-0.7000282828063042,0.00393473007616052,0.004429864285615537,-0.01675212981595564,0.0,70.0,255.0,255.0,255.0
539,26.950000000000003,9.88589940243811,4.327234697382074,-10.600435392395422,0.15788967320958136,0.1871133722341245,-0.700851353780827,0.0033918487085671245,0.0032806386370154428,-0.01621041224790787,0.0,70.0,255.0,255.0,255.0
540,27.0,9.893798074597756,4.3365943081584675,-10.635498175409387,0.15804679394863186,0.1872525297290739,-0.701649324031095,0.0030064091181003505,0.0026254302103900784,-0.015813821172905307,0.0,70.0,255.0,255.0,255.0
541,27.05,9.901704081832973,4.345959950354981,-10.670600324798531,0.1581903141213914,0.1873759152551635,-0.7024327358981175,0.002854870795410136,0.0026595359439163246,-0.015636326458157157,0.0,70.0,255.0,255.0,255.0
542,27.1,9.909617106009895,4.355331899683984,-10.705741448999198,0.15833228102817287,0.18751848332346555,-0.7032129566769107,0.0028972307665853236,0.003238250017378874,-0.015646649600142837,0.0,70.0,255.0,255.0,255.0
