idx,t,px,py,pz,vx,vy,vz,ax,ay,az,yaw,mode,ledr,ledg,ledb
0,0.0,-1.5000000000000009,1.4999999999999998,1.3075970192809473e-18,0.0001637493712269844,0.0005417420542075391,0.0008106989535135029,-0.008824995808165426,0.0009217196386135385,-0.028071326356756663,0.0,70.0,255.0,255.0,255.0
1,0.05,-1.4999918125314395,1.5000270871027102,4.053494767567645e-05,-0.00027750041918128687,0.000587828036138216,-0.0005928673643243304,-0.013234369236236887,0.001567364503096691,-0.042098073740540407,0.0,70.0,255.0,255.0,255.0
2,0.1,-1.500027750041919,1.5000587828036136,-5.928673643243174e-05,-0.0011596875523967043,0.0006984785045172082,-0.0033991084205405382,-0.01763749371226364,0.00258257945793261,-0.056106989535135,0.0,70.0,255.0,255.0,255.0
3,0.15000000000000002,-1.5001077812866792,1.5000969349531619,-0.0002993758943783774,-0.002041249790407651,0.000846085981931477,-0.006203566317837831,-0.017624995808507293,0.003321719639015619,-0.056071326356759814,0.0,70.0,255.0,255.0,255.0
4,0.2,-1.5002318750209598,1.5001433914018067,-0.0006796433682162149,-0.0029221871332474336,0.00103065046841877,-0.00900624105621652,-0.01761223571059567,0.004062939683624478,-0.05603491499981483,0.0,70.0,255.0,255.0,255.0
5,0.25,-1.500400000000004,1.5002000000000038,-0.0012000000000000294,-0.003802473361467218,0.0012523799502939248,-0.011807057817819315,-0.01759796799778446,0.004816118945094594,-0.05599420161610129,0.0,70.0,255.0,255.0,255.0
6,0.30000000000000004,-1.5006121223571065,1.5002686293968361,-0.0018603491499981464,-0.0046819839330258795,0.0015122623629282295,-0.014605661217826648,-0.01758179209754296,0.005584434994809762,-0.05594804315504107,0.0,70.0,255.0,255.0,255.0
7,0.35000000000000003,-1.5008681983933065,1.5003512262362966,-0.0026605661217826942,-0.005560652571221514,0.001810823449774901,-0.017401862133323422,-0.017567123811756957,0.006340791827241787,-0.05590618672074627,0.0,70.0,255.0,255.0,255.0
8,0.4,-1.5011681876142287,1.5004497117418136,-0.0036005353633304887,-0.006438696314201575,0.002146341545652408,-0.020196279889901275,-0.017559418227452994,0.007041916717231977,-0.055884198583960494,0.0,70.0,255.0,255.0,255.0
9,0.45,-1.5015120680247267,1.5005658603908618,-0.004680194110772822,-0.007316594393966813,0.0025150151214980987,-0.02299028199171947,-0.017564094016808696,0.0076582523839130445,-0.05589754110174521,0.0,70.0,255.0,255.0,255.0
10,0.5,-1.5018998470536253,1.5007012132539634,-0.005899563562502436,-0.008195105715882445,0.0029121667840437127,-0.025786034000075796,-0.01758875479958011,0.008193258997013508,-0.05596791145255471,0.0,70.0,255.0,255.0,255.0
11,0.55,-1.502331578596315,1.5008570770692662,-0.0072587975107804015,-0.009075469873924824,0.0033343410211994495,-0.028587073136974943,-0.017635876850530252,0.008647806217898513,-0.0561023757673031,0.0,70.0,255.0,255.0,255.0
12,0.6000000000000001,-1.5028073940410178,1.5010346473560834,-0.00875827087619993,-0.00995869340093547,0.003776947405833564,-0.031396271576806106,-0.017690922980562185,0.008962292531733418,-0.056259451700976376,0.0,70.0,255.0,255.0,255.0
13,0.65,-1.5033274479364085,1.5012347718098495,-0.010398424668461012,-0.010844562171981043,0.004230570274372791,-0.03421301830707258,-0.017729450901660115,0.009051260156600627,-0.05636939238490478,0.0,70.0,255.0,255.0,255.0
14,0.7000000000000001,-1.503891850258216,1.5014577043835207,-0.012179572706907189,-0.011731638491101481,0.004682073421493627,-0.037033210815296584,-0.017725678224311814,0.00885517310151851,-0.0563653402133428,0.0,70.0,255.0,255.0,255.0
15,0.75,-1.5045006117855186,1.501702979151999,-0.01410174574999067,-0.012617129994412224,0.005116087584524642,-0.03984955232840686,-0.01764498080165655,0.008323094547790788,-0.05618038216180926,0.0,70.0,255.0,255.0,255.0
16,0.8,-1.5051535632576571,1.5019693131419731,-0.016164527939747875,-0.013496136571267137,0.005514382876272705,-0.04265124903147751,-0.01747443830626416,0.007451221861809465,-0.055787906063379036,0.0,70.0,255.0,255.0,255.0
17,0.8500000000000001,-1.5058502254426454,1.5022544174396262,-0.018366870653138422,-0.01436457382503864,0.005861209770705589,-0.045428342934744764,-0.01726918426607771,0.006371716367636893,-0.05525777803712127,0.0,70.0,255.0,255.0,255.0
18,0.9,-1.506590020640161,1.5025554341190437,-0.02070736223322235,-0.015223054997874907,0.006151554513036395,-0.04817702683518964,-0.017122778165923336,0.005314720978399912,-0.05471729947548881,0.0,70.0,255.0,255.0,255.0
19,0.9500000000000001,-1.5073725309424328,1.5028695728909298,-0.023184573336657386,-0.016076851641630974,0.00639268186854558,-0.050900072882293645,-0.017126479799234318,0.0045190039279718874,-0.05429387193765789,0.0,70.0,255.0,255.0,255.0
20,1.0,-1.508197705804324,1.5031947023058982,-0.025797369521451716,-0.01693570297779834,0.006603454905833583,-0.053606414028955426,-0.01737929402165772,0.004202381459439408,-0.054102541252190606,0.0,70.0,255.0,255.0,255.0
21,1.05,-1.5090661012402127,1.5035299183815132,-0.02854521473955293,-0.017814781043796746,0.006812920014489521,-0.056310327007512706,-0.017920169458163215,0.004468331975759909,-0.054199799512981775,0.0,70.0,255.0,255.0,255.0
22,1.1,-1.5099791839087038,1.5038759943073472,-0.031428402222202986,-0.01872771992361466,0.007050288103409574,-0.059026393980253604,-0.018630568393485092,0.005221890948936547,-0.05454496062606354,0.0,70.0,255.0,255.0,255.0
23,1.1500000000000001,-1.5109388732325741,1.5042349471918541,-0.03444785413757829,-0.019677837883145255,0.0073351091093831755,-0.06176482307011906,-0.01930036883583952,0.006257128657405353,-0.05504504607677617,0.0,70.0,255.0,255.0,255.0
24,1.2000000000000002,-1.5119469676970183,1.5046095052182855,-0.03760488452921489,-0.020657756807198613,0.00767600096915011,-0.06453089858793122,-0.019722341972649993,0.0073498368275304315,-0.05559968485654154,0.0,70.0,255.0,255.0,255.0
25,1.25,-1.513004648913294,1.5050025472887691,-0.04090094399637141,-0.021650072080410254,0.008070092792136219,-0.06732479155577321,-0.019697889731329354,0.00829134231803419,-0.05612143418141369,0.0,70.0,255.0,255.0,255.0
26,1.3,-1.5141119749050593,1.5054165144974991,-0.044337363684792214,-0.02262754578033155,0.008505135200953529,-0.07014304200607259,-0.019137284793346865,0.008956475876176206,-0.056553408705205255,0.0,70.0,255.0,255.0,255.0
27,1.35,-1.5152674034913272,1.5058530608088645,-0.04791524819697867,-0.02356380055974494,0.00896574037975384,-0.07298013242629374,-0.018174789246550027,0.0093079925640005,-0.05684601582225807,0.0,70.0,255.0,255.0,255.0
28,1.4000000000000001,-1.5164683549610338,1.5063130885354745,-0.05163537692742159,-0.02444502470498655,0.009435934457353579,-0.0758276435882984,-0.017071177726379894,0.009327813343129598,-0.0569380406929304,0.0,70.0,255.0,255.0,255.0
29,1.4500000000000002,-1.5177119059618258,1.5067966542545999,-0.05549801255580851,-0.02527091833238293,0.0098985217140668,-0.07867393649558678,-0.016096413382182817,0.009002674403024713,-0.0567746147434052,0.0,70.0,255.0,255.0,255.0
30,1.5,-1.5189954467942721,1.5073029407068812,-0.059502770576980266,-0.026054666043204833,0.01033620189765605,-0.08150510506263892,-0.015509147052905625,0.00832026791637297,-0.0563077593181964,0.0,70.0,255.0,255.0,255.0
31,1.55,-1.5203173725661463,1.5078302744443655,-0.0636485230620724,-0.026821833037673493,0.010730548505704096,-0.08430471242740642,-0.015443978081841614,0.007303713237405418,-0.055531740491374104,0.0,70.0,255.0,255.0,255.0
32,1.6,-1.5216776300980395,1.5083759955574516,-0.06793324181972091,-0.027599063851388994,0.011066573221396592,-0.08705827911177633,-0.015822162732148648,0.006107817116829395,-0.054553586807511156,0.0,70.0,255.0,255.0,255.0
33,1.6500000000000001,-1.5230772789512852,1.5089369317665051,-0.07235435097325003,-0.028404049310888357,0.011341330217387036,-0.08976007110815754,-0.016463032146929457,0.0049932962917775825,-0.053562697911409274,0.0,70.0,255.0,255.0,255.0
34,1.7000000000000002,-1.5245180350291283,1.5095101285791903,-0.07690924893053666,-0.02924536706608194,0.01156590285057435,-0.09241454890291725,-0.01717871778534885,0.004237414278196461,-0.05276031770830164,0.0,70.0,255.0,255.0,255.0
35,1.75,-1.5260018156578934,1.5100935220515626,-0.08159580586354176,-0.030121921089423243,0.011765071645206682,-0.0950361028789877,-0.017785522056890102,0.0041156046644452715,-0.05233554719381028,0.0,70.0,255.0,255.0,255.0
36,1.8,-1.5275302271380706,1.510686635743711,-0.08641285921843543,-0.03102391927177095,0.011977463317018877,-0.09764810362229828,-0.01817454180716993,0.0047496968152094254,-0.052380142149820175,0.0,70.0,255.0,255.0,255.0
37,1.85,-1.5291042075850705,1.5112912683832644,-0.09136061622577159,-0.031939375270140236,0.012240041326727624,-0.10027411709396972,-0.01834112858942749,0.005931787919810638,-0.05281245746053126,0.0,70.0,255.0,255.0,255.0
38,1.9000000000000001,-1.5307241646650847,1.5119106398763837,-0.0964402709278324,-0.0328580321307137,0.012570642108999941,-0.10292934936835141,-0.018310446599545394,0.0072662742173434935,-0.053457507987769715,0.0,70.0,255.0,255.0,255.0
39,1.9500000000000002,-1.5323900107981419,1.5125483325941644,-0.10165355116260673,-0.033770419930094775,0.012966668748461974,-0.10561986789274669,-0.018103027830718155,0.00834212069842355,-0.05412462724390249,0.0,70.0,255.0,255.0,255.0
40,2.0,-1.5341012066580941,1.51320730675123,-0.10700225771710707,-0.034668334913785515,0.013404854178842296,-0.10834181209274166,-0.017740746071570612,0.008745332073401002,-0.05461802393452175,0.0,70.0,255.0,255.0,255.0
41,2.0500000000000003,-1.5358568442895204,1.5138888180120487,-0.1124877323718809,-0.035544494537251836,0.013841201955802074,-0.11108167028619886,-0.017250115761857643,0.008270926075382157,-0.054828716550366086,0.0,70.0,255.0,255.0,255.0
42,2.1,-1.5376556561118193,1.5145914269468101,-0.11811042474572696,-0.03639334648997128,0.014231946786380512,-0.11382468374777827,-0.016694162070907126,0.007135847054939859,-0.05480115211494857,0.0,70.0,255.0,255.0,255.0
43,2.15,-1.5394961789385175,1.5153120126906867,-0.12387020074665872,-0.03721391074434255,0.01455478666129606,-0.11656178549769372,-0.016176020615543685,0.005770790988224306,-0.05464102305128005,0.0,70.0,255.0,255.0,255.0
44,2.2,-1.5413770471862536,1.5160469056129398,-0.12976660329549633,-0.03801094855152565,0.014809025885202942,-0.11928878605290627,-0.015808145250795214,0.004607249781263256,-0.054448772383684785,0.0,70.0,255.0,255.0,255.0
45,2.25,-1.54329727379367,1.516792915279207,-0.13579907935194935,-0.03879472526942207,0.015015511639422385,-0.1220066627360622,-0.01569550298086142,0.004070992449500821,-0.054332310448029775,0.0,70.0,255.0,255.0,255.0
46,2.3000000000000003,-1.5452565197131958,1.517548456776882,-0.14196726956910255,-0.03958049884961179,0.015216125130153024,-0.12472201709770925,-0.015885507966006962,0.004379745736460272,-0.05435105225478354,0.0,70.0,255.0,255.0,255.0
47,2.35,-1.5472553236786313,1.5183145277922223,-0.14827128106172027,-0.040383276066022766,0.015453486213068413,-0.12744176796154055,-0.01631774760257887,0.0053540080098057885,-0.05446200167876225,0.0,70.0,255.0,255.0,255.0
48,2.4000000000000004,-1.549294847319798,1.5190938053981888,-0.1547114463652566,-0.041212273609869676,0.015751525931133603,-0.13016821726558547,-0.016869107301609176,0.006621377680549045,-0.05458017136888704,0.0,70.0,255.0,255.0,255.0
49,2.45,-1.5513765510396182,1.5198896803853357,-0.16128810278827882,-0.042070186796183684,0.016115623981123317,-0.13289978509842926,-0.017404903986562026,0.007809020036542158,-0.054633196974263054,0.0,70.0,255.0,255.0,255.0
50,2.5,-1.5535018659994164,1.5207053677963012,-0.16800142487509953,-0.04295276400852588,0.01653242793478782,-0.13563153696301178,-0.01778922335735622,0.0085507447486588,-0.05455679021739157,0.0,70.0,255.0,255.0,255.0
51,2.5500000000000003,-1.5556718274404708,1.5215429231788145,-0.17485125648458,-0.043849109131919306,0.016970698455989197,-0.13835546412016841,-0.01794836519479759,0.0086507436595884,-0.05431998818342665,0.0,70.0,255.0,255.0,255.0
52,2.6,-1.5578867769126084,1.5224024376419,-0.18183697128711637,-0.04474760052800564,0.01739750230074666,-0.14106353578135444,-0.01791848388221773,0.008217165194790432,-0.053952612731789085,0.0,70.0,255.0,255.0,255.0
53,2.6500000000000004,-1.5601465874932714,1.5232826734088891,-0.18895761006271544,-0.04564095752014108,0.01779241497546824,-0.14375072539334732,-0.017783074653321407,0.007493814839509838,-0.053517359072227655,0.0,70.0,255.0,255.0,255.0
54,2.7,-1.5624508726646225,1.524181679139447,-0.1962120438264511,-0.04652590799333778,0.018146883784697643,-0.1464152716885772,-0.01762603833685983,0.006723756319892971,-0.05307792689875912,0.0,70.0,255.0,255.0,255.0
55,2.75,-1.5647991782926052,1.5250973617873589,-0.20359913723157316,-0.04740356135382706,0.018464790607457537,-0.14905851808322323,-0.017539584941728137,0.006154000584079888,-0.05268453800643391,0.0,70.0,255.0,255.0,255.0
56,2.8000000000000003,-1.5671912288000052,1.5260281582001927,-0.21111789563477343,-0.04827986648751059,0.01876228384310563,-0.1516837254892206,-0.017573805147419463,0.005922827410498321,-0.05236899501148695,0.0,70.0,255.0,255.0,255.0
57,2.85,-1.5696271649413562,1.5269735901716694,-0.21876750978049522,-0.04916094186856901,0.01905707334850737,-0.15429541758437193,-0.017687384467723888,0.005972762446315727,-0.05216484343134875,0.0,70.0,255.0,255.0,255.0
58,2.9000000000000004,-1.572107322986862,1.5279338655350434,-0.22654743739321062,-0.05004860493428298,0.019359560087737204,-0.15690020983235548,-0.017800365646913896,0.0061696100475350235,-0.05211309630491212,0.0,70.0,255.0,255.0,255.0
59,2.95,-1.5746320254347845,1.5289095461804432,-0.23445753076373077,-0.0509409784332604,0.019674034353260872,-0.15950672721486314,-0.017843856418875426,0.0063883556163712996,-0.05224838214400174,0.0,70.0,255.0,255.0,255.0
60,3.0,-1.577201420830188,1.5299012689703695,-0.24249811011469694,-0.05183299057617052,0.019998395649374334,-0.16212504804675565,-0.017756492819831493,0.0064932995354372025,-0.052609020460861466,0.0,70.0,255.0,255.0,255.0
61,3.0500000000000003,-1.5798153244924016,1.5309093857453806,-0.25067003556840634,-0.05271662771524355,0.020323364306804592,-0.1647676292609493,-0.017509327968356914,0.00641188609227239,-0.0531983441249384,0.0,70.0,255.0,255.0,255.0
62,3.1,-1.5824730836017125,1.53193360540105,-0.25897487304079186,-0.053583923373006215,0.020639584258601573,-0.1674448824592495,-0.01713374980865101,0.0062127174207393665,-0.05390717438195358,0.0,70.0,255.0,255.0,255.0
63,3.1500000000000004,-1.5851737168297022,1.5329733441712408,-0.2674145238143313,-0.05443000269610865,0.02094463604887853,-0.17015834669914465,-0.016694530358130066,0.006025973408596563,-0.054549416547283736,0.0,70.0,255.0,255.0,255.0
64,3.2,-1.5879160838713233,1.5340280690059378,-0.27599070771070633,-0.05525337640881922,0.02124218159946123,-0.17289982411397786,-0.016258023167137203,0.005969907461556012,-0.05493628345297208,0.0,70.0,255.0,255.0,255.0
65,3.25,-1.5906990544705841,1.5350975623311869,-0.28470450622572907,-0.05605580501282237,0.02154162679503413,-0.17565197504444185,-0.015878453102935453,0.006168745330215053,-0.05488739879817017,0.0,70.0,255.0,255.0,255.0
66,3.3000000000000003,-1.5935216643726056,1.5361822316854412,-0.2935559052151505,-0.05684122171911277,0.021859056132482735,-0.17838856399379488,-0.015588882979078456,0.006676714467679368,-0.05432331613448582,0.0,70.0,255.0,255.0,255.0
67,3.35,-1.5963831766424954,1.5372834679444352,-0.30254336262510856,-0.057614693310730214,0.022209298241802067,-0.18108430665789044,-0.015414912335054431,0.007374596308773462,-0.0533727061270195,0.0,70.0,255.0,255.0,255.0
68,3.4000000000000004,-1.5992831337036786,1.5384031615096214,-0.31166433588093956,-0.05838271295261821,0.02259651576336008,-0.18372583460649683,-0.015384216883385093,0.008047428718849226,-0.052284668741353624,0.0,70.0,255.0,255.0,255.0
69,3.45,-1.6022214479377572,1.5395431195207712,-0.32091594608575824,-0.05915311499906872,0.02301404111368699,-0.1863127735320258,-0.01551733762581442,0.00848595393152518,-0.051318745116424314,0.0,70.0,255.0,255.0,255.0
70,3.5,-1.6051984452035855,1.5407045656209901,-0.33029561323414214,-0.05993444671519965,0.0234451111565126,-0.18885770911813926,-0.015833657472219542,0.008491765763918302,-0.05072138434646378,0.0,70.0,255.0,255.0,255.0
71,3.5500000000000003,-1.6082148926092772,1.5418876306364224,-0.33980171699757217,-0.06073648074629068,0.02386321769007882,-0.19138491196667218,-0.01632945246956563,0.007973656969273435,-0.05062167805038875,0.0,70.0,255.0,255.0,255.0
72,3.6,-1.6112720932782145,1.543090887389998,-0.34943410443080936,-0.061567391962156215,0.024242476853439943,-0.19391987692317814,-0.016925761690433916,0.00705514443031241,-0.05095388922183308,0.0,70.0,255.0,255.0,255.0
73,3.6500000000000004,-1.6143716318054928,1.5443118783217664,-0.35919370468989,-0.06242905691533407,0.02456873213311006,-0.19648030088885549,-0.0174877629475656,0.005979742951311984,-0.051560020375418514,0.0,70.0,255.0,255.0,255.0
74,3.7,-1.617514998969748,1.545547760603309,-0.3690821345196949,-0.06331616825691277,0.02484045114857114,-0.19907587896072,-0.017873651970612414,0.004998537884803866,-0.05227544936807216,0.0,70.0,255.0,255.0,255.0
75,3.75,-1.620703248631184,1.5467959234366235,-0.379101292585962,-0.06421642211239531,0.025068585921590447,-0.2017078458256627,-0.017942907684065368,0.00434419161439159,-0.052947063815983464,0.0,70.0,255.0,255.0,255.0
76,3.8000000000000003,-1.6239366411809875,1.548054619195468,-0.3892529191022612,-0.06511045902531931,0.0252748703100103,-0.20437058534231833,-0.017632794322097745,0.004141944368174499,-0.05347771059169282,0.0,70.0,255.0,255.0,255.0
77,3.85,-1.627214294533716,1.5493234104676246,-0.3995383511201938,-0.06597970154460508,0.025482780358407897,-0.20705561688483198,-0.01704651642777666,0.004356714081832358,-0.05381630575020391,0.0,70.0,255.0,255.0,255.0
78,3.9000000000000004,-1.630534611335448,1.5506028972313088,-0.4099584807907444,-0.06681511066809698,0.025710541718193536,-0.20975221591733872,-0.016381094962847342,0.004881711364213004,-0.05390900267071563,0.0,70.0,255.0,255.0,255.0
79,3.95,-1.6338958056005257,1.551894464639444,-0.4205135727119277,-0.06761781104088982,0.025970951494829198,-0.21244651715190355,-0.015840828384749983,0.005599894529217941,-0.053700483052315784,0.0,70.0,255.0,255.0,255.0
80,4.0,-1.637296392439537,1.5531999923807918,-0.4312031325059347,-0.06839919350657198,0.02627053117111533,-0.2151222642225703,-0.015630702467261948,0.006399439806470397,-0.05313436971360885,0.0,70.0,255.0,255.0,255.0
81,4.05,-1.640735724951183,1.5545215177565554,-0.4420257991341847,-0.06918088128761601,0.026610895475476237,-0.21775995412326443,-0.0158526569550288,0.0072001040194891175,-0.052205941121302724,0.0,70.0,255.0,255.0,255.0
82,4.1000000000000005,-1.6442144805682986,1.5558610819283394,-0.45297912791826117,-0.06998445920207486,0.02699054157306424,-0.22034285833470058,-0.0164027646732956,0.007920796445115563,-0.05106349849999803,0.0,70.0,255.0,255.0,255.0
83,4.15,-1.6477341708713904,1.5572205719138619,-0.4640600849676548,-0.07082115775494557,0.027402975119987794,-0.22286630397326423,-0.01707326512652152,0.008448096906610303,-0.04996387570162519,0.0,70.0,255.0,255.0,255.0
84,4.2,-1.651296596343793,1.5586013794403382,-0.4752657583155876,-0.07169178571472701,0.027835351263725272,-0.2253392459048631,-0.017656461063864093,0.008663422459975756,-0.04917436667438713,0.0,70.0,255.0,255.0,255.0
85,4.25,-1.654903349442863,1.5600041070402344,-0.4865940095581411,-0.07258680386133198,0.02826931736598537,-0.22778374064070295,-0.017950319742787713,0.008458049159676406,-0.04895144800555751,0.0,70.0,255.0,255.0,255.0
86,4.3,-1.6585552767299263,1.5614283111769367,-0.4980441323796579,-0.07348681768900578,0.028681156179692913,-0.23023439070541885,-0.017850004431041455,0.007796101092116814,-0.049412837277407196,0.0,70.0,255.0,255.0,255.0
87,4.3500000000000005,-1.6622520312117637,1.5628722226582037,-0.509617448628683,-0.07437180430443613,0.02904892747519705,-0.23272502436844367,-0.017427832804761678,0.00680541482294128,-0.05040074920085735,0.0,70.0,255.0,255.0,255.0
88,4.4,-1.66599245716037,1.5643332039244564,-0.5213166348165023,-0.07522960096948195,0.02936169766198704,-0.23527446562550458,-0.016840436605680686,0.005723103806754004,-0.05160276725007518,0.0,70.0,255.0,255.0,255.0
89,4.45,-1.6697749913087119,1.5658083924244024,-0.5331448951912334,-0.0760558479650042,0.02962123785587245,-0.23788530109345118,-0.01624661407286787,0.004804877169539701,-0.05268978917792877,0.0,70.0,255.0,255.0,255.0
90,4.5,-1.6735980419568703,1.5672953277100437,-0.5451051649258474,-0.07685426237676873,0.02984218537894101,-0.24054344454329746,-0.015804009237552208,0.00430039152687911,-0.05333582894012645,0.0,70.0,255.0,255.0,255.0
91,4.55,-1.6774604175463887,1.5687926109622965,-0.5571992396455632,-0.07763624888875942,0.030051277008560362,-0.24321888398746383,-0.015600099213597396,0.004335491611739961,-0.05336993587622407,0.0,70.0,255.0,255.0,255.0
92,4.6000000000000005,-1.6813616668457463,1.5703004554108997,-0.5694270533245938,-0.07841427229812847,0.030275734540115007,-0.24588043813091987,-0.015602267744130316,0.00480943237479714,-0.05290254898560054,0.0,70.0,255.0,255.0,255.0
93,4.65,-1.6853018447762016,1.571820184416308,-0.5817872834586552,-0.07919647566317245,0.030532220246040076,-0.24850913888602388,-0.01572946397523367,0.0055075997547060496,-0.052175171848256596,0.0,70.0,255.0,255.0,255.0
94,4.7,-1.6892813144120635,1.5733536774355037,-0.5942779672131961,-0.07998721869565184,0.030826494515585612,-0.2510979553157455,-0.015903283110696442,0.00620378214863937,-0.051433562861080695,0.0,70.0,255.0,255.0,255.0
95,4.75,-1.6933005666457668,1.5749028338678666,-0.6068970789902297,-0.0807868039742421,0.031152598460904013,-0.25365249517213195,-0.016041661955057407,0.00666038473291497,-0.05093320826179415,0.0,70.0,255.0,255.0,255.0
96,4.800000000000001,-1.6973599948094877,1.576468937281594,-0.6196432167304093,-0.08159138489115758,0.03149253298887711,-0.25619127614192494,-0.016096824821820732,0.006749671388672773,-0.05081296700317761,0.0,70.0,255.0,255.0,255.0
97,4.8500000000000005,-1.7014597051348825,1.5780520871667543,-0.6325162066044222,-0.08239648645642417,0.03182756559977129,-0.2587337918724497,-0.016084028619678392,0.006561424442153019,-0.050984486092331416,0.0,70.0,255.0,255.0,255.0
98,4.9,-1.7055996434551302,1.5796516938415712,-0.6455165959176543,-0.08319978775312542,0.03214867543309241,-0.2612897247511581,-0.01603993593173314,0.00628025008830857,-0.05126279244324072,0.0,70.0,255.0,255.0,255.0
99,4.95,-1.709779683910195,1.5812669547100635,-0.658645179079538,-0.08400048004959748,0.03245559060860215,-0.2638600711167738,-0.015994053018042464,0.006080880016967605,-0.05147507359682946,0.0,70.0,255.0,255.0,255.0
100,5.0,-1.71399969146009,1.5828972529024314,-0.6719026030293317,-0.08479919305492967,0.03275676343478917,-0.266437232110841,-0.01597731497013921,0.006145994949235956,-0.0514434126045793,0.0,70.0,255.0,255.0,255.0
101,5.050000000000001,-1.718259603215688,1.5845426310535424,-0.6852889022906221,-0.0855982115466114,0.03307019010352574,-0.2690044123772317,-0.016005888212444752,0.006565682973436182,-0.0510783359711775,0.0,70.0,255.0,255.0,255.0
102,5.1000000000000005,-1.722559512614751,1.586204271912784,-0.6988030442670549,-0.08639978187617414,0.03341333173213279,-0.2715450657079588,-0.016061617777207715,0.007222165893927546,-0.05048221060794944,0.0,70.0,255.0,255.0,255.0
103,5.15,-1.7268995814033055,1.5878839642267557,-0.712443408861418,-0.08720437332433217,0.0337924066929185,-0.27405263343802666,-0.016110792297774346,0.00789410385486633,-0.04985095441610854,0.0,70.0,255.0,255.0,255.0
104,5.2,-1.7312799499471843,1.5895835125820759,-0.7262083076108575,-0.08801086110595158,0.03420274211761942,-0.27653016114956963,-0.01612050481709648,0.00837283764354435,-0.04937271617813099,0.0,70.0,255.0,255.0,255.0
105,5.25,-1.7357006675139006,1.5913042384385176,-0.740096424976375,-0.08881642380604182,0.03462969045727293,-0.27898990505583976,-0.016049078164570574,0.00846771006195457,-0.049233094699718816,0.0,70.0,255.0,255.0,255.0
106,5.300000000000001,-1.7401615923277884,1.5930464816278032,-0.7541072981164415,-0.08961576892240863,0.03504951312381488,-0.2814534706195415,-0.01587962232845186,0.008086710936860975,-0.049520775359168656,0.0,70.0,255.0,255.0,255.0
107,5.3500000000000005,-1.7446622444061415,1.5948091897508991,-0.7682417720383291,-0.09040438603888701,0.03543836155095903,-0.2839419825917566,-0.015669500271298098,0.007316159068415651,-0.05012219595149636,0.0,70.0,255.0,255.0,255.0
108,5.4,-1.7492020309316771,1.596590317782899,-0.7825014963756172,-0.09118271894953844,0.035781129030656444,-0.28646569021469115,-0.015516894876954623,0.006338765727775808,-0.05081702625592266,0.0,70.0,255.0,255.0,255.0
109,5.45,-1.7537805163010953,1.5983873026539648,-0.7968883410597982,-0.09195607552658247,0.03607223812373661,-0.2890236852173489,-0.015517214427052117,0.005346743767997708,-0.05138128779784701,0.0,70.0,255.0,255.0,255.0
110,5.5,-1.7583976384843354,1.6001975415952727,-0.8114038648973521,-0.09273444039224366,0.036315803407456215,-0.29160381899447585,-0.015774344399765994,0.004515192774667831,-0.05158821792059509,0.0,70.0,255.0,255.0,255.0
111,5.550000000000001,-1.7630539603403197,1.6020188829947104,-0.8260487229592458,-0.09353350996655907,0.036523757401203394,-0.2941825070094084,-0.016329422007532735,0.003946960458578452,-0.05132527587891067,0.0,70.0,255.0,255.0,255.0
112,5.6000000000000005,-1.7677509894809913,1.603849917335393,-0.8408221155982929,-0.09436738259299693,0.03671049945331406,-0.2967363465823669,-0.017058609575770767,0.0036668575061460373,-0.05071441351152117,0.0,70.0,255.0,255.0,255.0
113,5.65,-1.7724906985996194,1.6056899329400418,-0.8557223576174825,-0.09523937092413615,0.036890443151818,-0.2992539483605605,-0.017742560595079837,0.0036780127212754365,-0.049995532634694584,0.0,70.0,255.0,255.0,255.0
114,5.7,-1.777274926573405,1.6075389616505749,-0.870747510434349,-0.09614163865250491,0.037078300725441604,-0.3017358998458364,-0.01816457686856232,0.003972961177400869,-0.04940870605701919,0.0,70.0,255.0,255.0,255.0
115,5.75,-1.7821048624648699,1.609397763012586,-0.8858959476020661,-0.09705582861099238,0.037287739269558084,-0.30419481896626244,-0.018113590856705386,0.004531472219038157,-0.04919799632193689,0.0,70.0,255.0,255.0,255.0
116,5.800000000000001,-1.7869805094345041,1.6112677355775307,-0.9011669923309752,-0.09795299773817545,0.03753144794734542,-0.30665569947803006,-0.017495090574004557,0.005320785223927871,-0.049484694551837904,0.0,70.0,255.0,255.0,255.0
117,5.8500000000000005,-1.7919001622386874,1.6131509078073205,-0.9165615175498691,-0.09880533766839283,0.03781981779195087,-0.3091432884214462,-0.01646230851164443,0.006254732585553313,-0.05013474207696822,0.0,70.0,255.0,255.0,255.0
118,5.9,-1.7968610432013434,1.6150497173567258,-0.9320813211731198,-0.0995992285893399,0.03815692120590075,-0.3116691736857269,-0.015308293977867038,0.007187505065675559,-0.050886251130544125,0.0,70.0,255.0,255.0,255.0
119,5.95,-1.8018600850976214,1.6169665999279106,-0.9477284349184418,-0.10033616706617954,0.03853856829851843,-0.31423191353450064,-0.014336739171016966,0.007956749517679107,-0.05148402783425876,0.0,70.0,255.0,255.0,255.0
120,6.0,-1.8068946599079614,1.6189035741865776,-0.9635045125265699,-0.10103290250644159,0.03895259615766866,-0.31681757646915276,-0.01385129217370551,0.008418871728932409,-0.051687862059823786,0.0,70.0,255.0,255.0,255.0
121,6.050000000000001,-1.8119633753482656,1.6208618595436775,-0.9794101925653571,-0.10172129628355009,0.03938045547141167,-0.319400699740483,-0.014003502409876134,0.00850267253851289,-0.05137557295336048,0.0,70.0,255.0,255.0,255.0
122,6.1000000000000005,-1.8170667895363164,1.6228416197337188,-0.9954445825006182,-0.1024332527474292,0.03980286341151995,-0.3219551337644888,-0.014644044489386943,0.008241391638885709,-0.050633797667731795,0.0,70.0,255.0,255.0,255.0
123,6.15,-1.8222067006230085,1.6248421458848294,-1.011605705941806,-0.10318570073248878,0.04020459463530024,-0.3244640795072562,-0.015472375381353487,0.007725626689625287,-0.049653122516768455,0.0,70.0,255.0,255.0,255.0
124,6.2,-1.8273853596095653,1.6268620791972488,-1.0278909904513438,-0.10398049028556455,0.04057542608048248,-0.32692044601616566,-0.01618189302081685,0.007066241218156577,-0.048627956498781266,0.0,70.0,255.0,255.0,255.0
125,6.25,-1.832604749651565,1.6288996884928777,-1.0442977505434226,-0.10480389003457047,0.0409112187571159,-0.3293268751571343,-0.016453268420724143,0.006377096809351279,-0.047730555438763034,0.0,70.0,255.0,255.0,255.0
126,6.300000000000001,-1.8378657486130223,1.6309532010729604,-1.0608236779670572,-0.10562581712763697,0.04121313576141761,-0.33169350156004196,-0.016124839180520212,0.005733699447185714,-0.047065787527489356,0.0,70.0,255.0,255.0,255.0
127,6.3500000000000005,-1.8431673313643286,1.6330210020690195,-1.0774671006994267,-0.10641637395262249,0.04148458870183447,-0.33403345390988326,-0.015367853857184421,0.005176903656067822,-0.04668372692573364,0.0,70.0,255.0,255.0,255.0
128,6.4,-1.8485073860082846,1.6351016599431438,-1.0942270233580456,-0.10716260251335541,0.04173082612702439,-0.3363618742526153,-0.014515025009287363,0.004755302861059185,-0.0466284382895088,0.0,70.0,255.0,255.0,255.0
129,6.45,-1.8538835916156642,1.637194084681722,-1.1111032881246883,-0.10786787645355123,0.04196011898794039,-0.33869629773883414,-0.013889348419060532,0.004523460434802118,-0.046936920063544996,0.0,70.0,255.0,255.0,255.0
130,6.5,-1.8592941736536397,1.6392976718419379,-1.128096653131929,-0.10855153735526146,0.0421831721705046,-0.3410555662589698,-0.01381554090358339,0.004524769005764817,-0.04764986956513617,0.0,70.0,255.0,255.0,255.0
131,6.550000000000001,-1.8647387453511903,1.6414124018987724,-1.1452088447505853,-0.10924943054390956,0.04241259588851687,-0.34346128469534776,-0.014450800541943032,0.0047702686007067285,-0.04875661493197736,0.0,70.0,255.0,255.0,255.0
132,6.6000000000000005,-1.8702191167080306,1.6435389314307896,-1.1624427816014637,-0.10999661740945577,0.042660199030575274,-0.34593122775216756,-0.015597360594710175,0.00520745061318717,-0.050069616307557574,0.0,70.0,255.0,255.0,255.0
133,6.65,-1.875738407092136,1.6456784218018299,-1.179801967525802,-0.11080916660338058,0.042933340949835586,-0.3484682463261035,-0.016873864907607228,0.00573502666771919,-0.05127144600336475,0.0,70.0,255.0,255.0,255.0
134,6.7,-1.8813000333683687,1.647832265525773,-1.197289606234074,-0.11168400390021649,0.04323370169734719,-0.35105837235250403,-0.01790136598336378,0.006234229397050761,-0.0520331278159869,0.0,70.0,255.0,255.0,255.0
135,6.75,-1.8869068074821576,1.6500017919715646,-1.2149078047610524,-0.11259930320171696,0.04355676388954066,-0.3536715591077022,-0.01830862390919119,0.006583780547742002,-0.05203397562483225,0.0,70.0,255.0,255.0,255.0
136,6.800000000000001,-1.8925599636885404,1.6521879419147272,-1.2326567621448443,-0.11351486629113561,0.04389207975212139,-0.35626176991498726,-0.017911585691532395,0.0067190256837657,-0.05113292756973031,0.0,70.0,255.0,255.0,255.0
137,6.8500000000000005,-1.8982582941112711,1.6543909999467767,-1.2505339817525511,-0.1143904617708702,0.04422866645791723,-0.35878485186467524,-0.016892587213956922,0.006676930254712055,-0.049568530454724424,0.0,70.0,255.0,255.0,255.0
138,6.9,-1.9039990098656274,1.656610808560519,-1.2685352473313118,-0.1152041250125313,0.0445597727775926,-0.3612186229604597,-0.015620471071087216,0.006540114943454078,-0.04779757256871964,0.0,70.0,255.0,255.0,255.0
139,6.95,-1.9097787066125242,1.658846977224536,-1.2866558440485971,-0.11595250887797892,0.04488267795226264,-0.3635646091215472,-0.014471248253355995,0.006393421510808572,-0.04629560363746954,0.0,70.0,255.0,255.0,255.0
140,7.0,-1.9155942607534253,1.6610990763557452,-1.3048917082434666,-0.1166512498378669,0.045199114928673456,-0.36584818332420665,-0.013821944811609477,0.006332090155392045,-0.04553021861155582,0.0,70.0,255.0,255.0,255.0
141,7.050000000000001,-1.921443831596311,1.6633668887174033,-1.3232406623810178,-0.11733470335913987,0.045515886967801844,-0.3681176309827028,-0.013868917298043293,0.0064064025569354754,-0.04573824821576533,0.0,70.0,255.0,255.0,255.0
142,7.1000000000000005,-1.9273277310893393,1.6656506650525253,-1.3417034713417368,-0.11803814156767123,0.045839755184367004,-0.3704220081457832,-0.014463246260687512,0.006563895967071076,-0.04672274206001248,0.0,70.0,255.0,255.0,255.0
143,7.15,-1.933247645753078,1.66795086423584,-1.360282863195596,-0.11878102798520862,0.04617227656450895,-0.37278990518870403,-0.015294134257870518,0.006706285120428035,-0.04807178353531949,0.0,70.0,255.0,255.0,255.0
144,7.2,-1.9392058338878602,1.6702678927089762,-1.3789824618606072,-0.11956755499345828,0.04651038369640981,-0.37522918649931514,-0.01605326804252627,0.006744998312591122,-0.049364597494316875,0.0,70.0,255.0,255.0,255.0
145,7.25,-1.9452044012524239,1.672601902605481,-1.3978057818455276,-0.12038635478946125,0.046846776395768064,-0.3777263649381357,-0.016427652788530978,0.006591914774634056,-0.05018118722492915,0.0,70.0,255.0,255.0,255.0
146,7.300000000000001,-1.9512444693668063,1.674952570348553,-1.4167550983544208,-0.12121032027231138,0.04716957517387321,-0.38024730522180805,-0.01625339779709467,0.006208277841346366,-0.05029524506832139,0.0,70.0,255.0,255.0,255.0
147,7.3500000000000005,-1.957325433279655,1.6773188601228683,-1.4358305123677084,-0.12201169456917071,0.0474676041799027,-0.38275588944496786,-0.01566076806962524,0.005669257438878361,-0.04983047799516083,0.0,70.0,255.0,255.0,255.0
148,7.4,-1.9634456388237234,1.6796993307665433,-1.4550306872989176,-0.1227763970792739,0.04773650091776105,-0.38523035302132413,-0.014915812410243312,0.005113812174095678,-0.04906363827856808,0.0,70.0,255.0,255.0,255.0
149,7.45,-1.9696030729875824,1.6820925102146445,-1.4743535476698408,-0.12350327581019505,0.04797898539731227,-0.38766225327282466,-0.014276052536832395,0.004679359131509742,-0.048266892166126674,0.0,70.0,255.0,255.0,255.0
150,7.5,-1.9757959664047429,1.6844972293062745,-1.4937969126262,-0.12420400233295714,0.04820443683091202,-0.3900570422379368,-0.013999378766160753,0.004492232097819127,-0.04772097654437424,0.0,70.0,255.0,255.0,255.0
151,7.550000000000001,-1.9820234732208781,1.6869129538977357,-1.5133592518936345,-0.12490321368681112,0.04842820860709418,-0.3924343509272621,-0.014217351653500465,0.004614285611448388,-0.04757960600976219,0.0,70.0,255.0,255.0,255.0
152,7.6000000000000005,-1.988286287773424,1.689340050166984,-1.5330403477189263,-0.1256257374983072,0.04866586539205686,-0.394815002838913,-0.014808273535504846,0.00499459875304975,-0.047750777194943694,0.0,70.0,255.0,255.0,255.0
153,7.65,-1.9945860469707088,1.6917795404369413,-1.5528407521775258,-0.1263840410403616,0.048927668482399156,-0.39720942864675646,-0.015528024026489895,0.005522102547028673,-0.04803991043687006,0.0,70.0,255.0,255.0,255.0
154,7.7,-2.00092469187746,1.6942328170152239,-1.572761290583602,-0.12717853990095618,0.04921807564675973,-0.3996189938826,-0.01613594838352217,0.006078077981896968,-0.04826694806012721,0.0,70.0,255.0,255.0,255.0
155,7.75,-2.0073039009608045,1.6967013480016173,-1.5928026515657858,-0.12799763587871382,0.04953547628058885,-0.4020361234527692,-0.0163908694428061,0.00655113818577302,-0.048246981189348226,0.0,70.0,255.0,255.0,255.0
156,7.800000000000001,-2.0137244554653315,1.6991863646432828,-1.6129649029288788,-0.1288176268452368,0.04987318946533703,-0.40444369200153485,-0.016170622162414716,0.0068750925332539126,-0.04788647075293362,0.0,70.0,255.0,255.0,255.0
157,7.8500000000000005,-2.020185663645328,1.701688666948151,-1.6332470207659393,-0.1296146980949553,0.050222985533914244,-0.40682477052806254,-0.015591545714022104,0.007035983912651034,-0.04728911718807627,0.0,70.0,255.0,255.0,255.0
158,7.9,-2.026685925274827,1.7042086631966742,-1.653647379981685,-0.130376781416639,0.050576787856602134,-0.4091726037203425,-0.014886683558223979,0.007033302113512718,-0.046654016011316024,0.0,70.0,255.0,255.0,255.0
159,7.95,-2.033223341786992,1.7067463457338112,-1.6741642811379736,-0.1311033664507777,0.050926315745265516,-0.41149017212919414,-0.01428672735572789,0.00686884176146485,-0.04617188901971936,0.0,70.0,255.0,255.0,255.0
160,8.0,-2.039796261919905,1.7093012947712007,-1.6947963971946045,-0.1318054541522118,0.05126367203274862,-0.4137897926223144,-0.014021106166550723,0.006547224482855718,-0.046031052077921686,0.0,70.0,255.0,255.0,255.0
161,8.05,-2.0464038872022132,1.711872712937086,-1.715543260400205,-0.13250547706743276,0.05158103819355109,-0.4160932773369863,-0.014206733123200976,0.006084318614529849,-0.04632159722581797,0.0,70.0,255.0,255.0,255.0
162,8.1,-2.053046809626648,1.7144593985905558,-1.7364057249283031,-0.13322612746453188,0.051872103894201604,-0.4184219523448962,-0.014740135683011246,0.0055423047573555095,-0.046928278528479694,0.0,70.0,255.0,255.0,255.0
163,8.15,-2.0597264999486664,1.7170599233265063,-1.7573854556346946,-0.1339794906357339,0.05213526866928664,-0.4207861051898343,-0.015410649665970055,0.005025528159685599,-0.04762766188133316,0.0,70.0,255.0,255.0,255.0
164,8.200000000000001,-2.0664447586902215,1.7196729254574845,-1.7784843354472866,-0.1347671924311289,0.052374656710170164,-0.4231847185330295,-0.016010568767477196,0.004645529331059883,-0.048192721968165486,0.0,70.0,255.0,255.0,255.0
165,8.25,-2.0732032191917793,1.7222973889975233,-1.7997039274879976,-0.1355805475124816,0.05259982160239263,-0.42560537738665083,-0.01634074318688228,0.004503973206815282,-0.04839281982298438,0.0,70.0,255.0,255.0,255.0
166,8.3,-2.0800028134414696,1.7249329076177238,-1.8210448731859517,-0.13640126674981712,0.05282505403085169,-0.42802400051532796,-0.016295871917737514,0.004648145829322381,-0.048113853630638026,0.0,70.0,255.0,255.0,255.0
167,8.35,-2.086843345866761,1.7275798944006084,-1.8425063275395304,-0.13721013470425536,0.053064636185324865,-0.43041676274971463,-0.015933319479488617,0.005030321533538995,-0.04748317662333079,0.0,70.0,255.0,255.0,255.0
168,8.4,-2.093723826911895,1.7302393712362563,-1.8640865494609231,-0.13799459869776598,0.05332808618420559,-0.43277231817766104,-0.015385309852478102,0.005548221611295645,-0.04674992853792581,0.0,70.0,255.0,255.0,255.0
169,8.450000000000001,-2.1006428057365376,1.732912703019029,-1.8857835593572965,-0.13874866568950317,0.05361945834645443,-0.4350917556035072,-0.014784284287960858,0.006089553734689446,-0.04616379653428204,0.0,70.0,255.0,255.0,255.0
170,8.5,-2.1075986934808455,1.7356013170709017,-1.9075957250212738,-0.13947302712656207,0.05393704155767454,-0.43738869783108925,-0.014251911761986591,0.006548864041766578,-0.045981631333846806,0.0,70.0,255.0,255.0,255.0
171,8.55,-2.114590108449194,1.7383064071747965,-1.9295224291404054,-0.14017385686570183,0.05427434475063109,-0.4396899187368919,-0.013862553098364927,0.006863610888818705,-0.046329561678204456,0.0,70.0,255.0,255.0,255.0
172,8.6,-2.1216160791674157,1.7410287515459648,-1.951564716894963,-0.14085928243639856,0.05462340264655641,-0.4420216539989097,-0.013642950035297474,0.007020045472394543,-0.04705360705283823,0.0,70.0,255.0,255.0,255.0
173,8.65,-2.1286760366928337,1.743768747439452,-1.9737245945402964,-0.14153815186923158,0.05497634929787054,-0.4443952794421757,-0.013612586448585873,0.007017109870632865,-0.047858031892555886,0.0,70.0,255.0,255.0,255.0
174,8.700000000000001,-2.135769894354339,1.7465263864757519,-1.9960042448391806,-0.14222054108125715,0.055325113633619694,-0.4468074571881653,-0.013791781260463765,0.006856768550500547,-0.04845223175518054,0.0,70.0,255.0,255.0,255.0
175,8.75,-2.1428980908009594,1.749301258802814,-2.018405340259113,-0.14291732999527795,0.055662026152920596,-0.44924050261769377,-0.014207600441018542,0.006544579949929741,-0.04854872010935374,0.0,70.0,255.0,255.0,255.0
176,8.8,-2.1500616273538666,1.752092589091044,-2.04092829510095,-0.143641301125359,0.05597957162861267,-0.45166232919910065,-0.014854941329645044,0.00609638497437448,-0.04800752669567032,0.0,70.0,255.0,255.0,255.0
177,8.85,-2.1572622209134953,1.7548992159656753,-2.063571573179023,-0.14440282412824246,0.056271664650358044,-0.4540412552872608,-0.015614041218547925,0.005570335738069865,-0.0469895746527893,0.0,70.0,255.0,255.0,255.0
178,8.9,-2.164501909766691,1.7577197555560797,-2.086332420629676,-0.1452027052472138,0.056536605202419654,-0.4563612866643796,-0.016283505192049574,0.005064178067137881,-0.04581160356602609,0.0,70.0,255.0,255.0,255.0
179,8.950000000000001,-2.1717824914382167,1.7605528764859173,-2.109207701845461,-0.14603117464744741,0.05677808245707183,-0.4586224156438634,-0.01665632959819696,0.004682346422080208,-0.044793337050963444,0.0,70.0,255.0,255.0,255.0
180,9.0,-2.1791050272314356,1.763397563801787,-2.1321946621940624,-0.1468683382070335,0.057004839844627675,-0.46084062036947593,-0.016525705122250045,0.004516825482192566,-0.04425146025646143,0.0,70.0,255.0,255.0,255.0
181,9.05,-2.18646932525892,1.76625336047038,-2.1552917638824085,-0.14768374515967242,0.05722976500529109,-0.46304756166950956,-0.015803369228439834,0.004611362034290245,-0.04434690496535332,0.0,70.0,255.0,255.0,255.0
182,9.1,-2.193873401747403,1.769120540302316,-2.1784994183610134,-0.14844867512987747,0.0574659760480567,-0.46527531086601126,-0.014667132176793274,0.004934136051337745,-0.044939982447944615,0.0,70.0,255.0,255.0,255.0
183,9.15,-2.2013141927719078,1.7719999580751857,-2.2018192949690096,-0.14915045837735175,0.05772317861042486,-0.467541559914304,-0.013448824018524874,0.005409814224388576,-0.045743665731778904,0.0,70.0,255.0,255.0,255.0
184,9.200000000000001,-2.208788447585138,1.7748928581633585,-2.2252535743524438,-0.14979355753172996,0.05800695747049556,-0.46984967743918915,-0.012488448132330632,0.005954358581394814,-0.04646784661423986,0.0,70.0,255.0,255.0,255.0
185,9.25,-2.2162935485250808,1.7778006538222353,-2.2488042627129285,-0.1503993031905848,0.058318614468564345,-0.472188344575728,-0.012117551098311807,0.006500099473227827,-0.04681746683696808,0.0,70.0,255.0,255.0,255.0
186,9.3,-2.2238283779041965,1.780724719610215,-2.2724724088100166,-0.15100531264156114,0.05865696741781834,-0.47453142412288596,-0.012498668003679825,0.006998679709102618,-0.04663879283688388,0.0,70.0,255.0,255.0,255.0
187,9.35,-2.231394079789237,1.7836663505640171,-2.296257405125217,-0.1516491699909528,0.05901848243947461,-0.4768522238594164,-0.013467546624168492,0.007376756420263142,-0.04605683588154719,0.0,70.0,255.0,255.0,255.0
188,9.4,-2.238993294903292,1.7866265678541624,-2.320157631195958,-0.152352067303978,0.059394643059844654,-0.4791371077110407,-0.014690243022652538,0.007532089510609019,-0.045326554019808896,0.0,70.0,255.0,255.0,255.0
189,9.450000000000001,-2.2466292865196347,1.7896058148700016,-2.344171115896321,-0.15311819429321805,0.05977169139053551,-0.4813848792613973,-0.01582381726668025,0.0073674453595184985,-0.04469564945264182,0.0,70.0,255.0,255.0,255.0
190,9.5,-2.2543051143326136,1.792603736993216,-2.368296119122098,-0.15393444903064601,0.060131387595796504,-0.48360667265630486,-0.016532109132549877,0.0067788139211710785,-0.044410607127831625,0.0,70.0,255.0,255.0,255.0
191,9.55,-2.2620227314226993,1.7956189536295812,-2.3925317831619517,-0.15477140520647303,0.060449572782652616,-0.48582593997418044,-0.01663589815055211,0.005739093954537644,-0.04459778382677193,0.0,70.0,255.0,255.0,255.0
192,9.600000000000001,-2.269782254853261,1.7986486942714812,-2.416878713119516,-0.15559803884570123,0.06070529699125027,-0.48806645103898205,-0.016231725615867276,0.004441448990166741,-0.045147266099876404,0.0,70.0,255.0,255.0,255.0
193,9.65,-2.2775825353072694,1.8016894833287063,-2.44133842826585,-0.15639457776805976,0.06089371768166929,-0.4903406665841681,-0.015540320441109756,0.0032217344929641456,-0.04583552611436836,0.0,70.0,255.0,255.0,255.0
194,9.700000000000001,-2.285421712630067,1.8047380660396481,-2.4659127797779328,-0.1571520708898122,0.06102747044054668,-0.4926500036504189,-0.014783369048032569,0.002420894945487362,-0.046442982149130785,0.0,70.0,255.0,255.0,255.0
195,9.75,-2.2932977423962506,1.807792230372761,-2.490603428630892,-0.15787291467286302,0.06113580717621803,-0.49498496479908116,-0.014181984399375125,0.0023686075462769907,-0.04675614194811217,0.0,70.0,255.0,255.0,255.0
196,9.8,-2.301209004097353,1.81085164675727,-2.515411276257841,-0.1585702693297497,0.06126433119517438,-0.4973256178452301,-0.013863287179294304,0.0032130563609289453,-0.04666349842921136,0.0,70.0,255.0,255.0,255.0
197,9.850000000000001,-2.3091547693292256,1.8139186634922784,-2.540335990415415,-0.15925924339079245,0.06145711281231092,-0.4996513146420023,-0.013800982147804675,0.004726725008219468,-0.04623950764384155,0.0,70.0,255.0,255.0,255.0
198,9.9,-2.3171349284364324,1.816997358038501,-2.565376407722041,-0.15995036754453018,0.06173700369599633,-0.5019495686096143,-0.013914722299501747,0.006469177645684887,-0.04564593359730473,0.0,70.0,255.0,255.0,255.0
199,9.950000000000001,-2.3251498060836786,1.820092363861878,-2.5905309472763762,-0.16065071562074262,0.06210403057687941,-0.5042159080017328,-0.014135107473833841,0.007983939893585479,-0.04504570866461499,0.0,70.0,255.0,255.0,255.0
200,10.0,-2.3331999999985067,1.823207761096189,-2.6157979985222144,-0.16136387829191357,0.06253539768535488,-0.5064541394760758,-0.01439999988974705,0.008830765217782144,-0.04460081575579089,0.0,70.0,255.0,255.0,255.0
201,10.05,-2.34128619391287,1.8263459036304135,-2.641176361223984,-0.16209071560971733,0.06298710709865762,-0.5086759895773119,-0.014664892525795281,0.00878210717500938,-0.04440099634868133,0.0,70.0,255.0,255.0,255.0
202,10.100000000000001,-2.3494090715594784,1.8295064718060547,-2.6666655974799456,-0.1628303675444931,0.06341360840285581,-0.5108942391109439,-0.014885278194132212,0.007985170790414386,-0.04441106696071451,0.0,70.0,255.0,255.0,255.0
203,10.15,-2.3575692306673193,1.832687264470699,-2.692265785135078,-0.16357924342913055,0.06378562417769906,-0.5131170962733833,-0.014999018799244368,0.006768035110726878,-0.04454521502124109,0.0,70.0,255.0,255.0,255.0
204,10.200000000000001,-2.3657669959023915,1.8358850342238247,-2.717977307107284,-0.16433026942441753,0.0640904119139285,-0.515348760613068,-0.014936713876956276,0.005469918906864102,-0.04472038365959108,0.0,70.0,255.0,255.0,255.0
205,10.25,-2.374002257609761,1.839096305662092,-2.743800661196385,-0.16507291481682618,0.06433261606838547,-0.5175891346393424,-0.014618016041723081,0.004424322258844704,-0.044848613676373716,0.0,70.0,255.0,255.0,255.0
206,10.3,-2.382274287384074,1.8423182958306632,-2.769736220571218,-0.16579207102858984,0.06453284413981297,-0.5198336219807054,-0.01401662989692909,0.0038235499038474785,-0.044879742282510904,0.0,70.0,255.0,255.0,255.0
207,10.350000000000001,-2.39058146471262,1.8455495900760732,-2.7957840233944555,-0.1664745778065191,0.06471497105877022,-0.5220771088675935,-0.01325967663747818,0.0036443867018398635,-0.04483715691443457,0.0,70.0,255.0,255.0,255.0
208,10.4,-2.398921745164726,1.8487897929365402,-2.8219439314579775,-0.16711803869233766,0.06489728280999696,-0.5243173376721488,-0.012568270102564227,0.0037894045223918482,-0.044771434756096795,0.0,70.0,255.0,255.0,255.0
209,10.450000000000001,-2.4072932685818538,1.852039318357073,-2.8482157571616704,-0.1677314048167755,0.0650939115110094,-0.5265542523432032,-0.012164097624145498,0.004168272590754363,-0.044726556231244885,0.0,70.0,255.0,255.0,255.0
210,10.5,-2.4156948856464036,1.8552991840876412,-2.874599356692298,-0.1683344484547522,0.0653141100690724,-0.5287899932952733,-0.012267889323736014,0.004687983042717114,-0.04475270156634181,0.0,70.0,255.0,255.0,255.0
211,10.55,-2.424126713427329,1.8585707293639802,-2.9010947564911977,-0.1689581937491491,0.06556270981528112,-0.5310295224998374,-0.0129761869544609,0.0052786582444230845,-0.04487332123384036,0.0,70.0,255.0,255.0,255.0
212,10.600000000000001,-2.4325907050213185,1.8618554550691693,-2.9277023089422816,-0.1696320671501983,0.0658419758935147,-0.5332773254186574,-0.014109768169578984,0.005877375642526772,-0.04504030538208248,0.0,70.0,255.0,255.0,255.0
213,10.65,-2.441089920142349,1.8651549269533316,-2.9544224890330635,-0.170369170566107,0.0661504473795338,-0.5355335530380456,-0.015332469554873995,0.006391736077437926,-0.0451690459548626,0.0,70.0,255.0,255.0,255.0
214,10.700000000000001,-2.449627622077929,1.8684704998071227,-2.981255664246086,-0.1711653141056857,0.0664811495012585,-0.5377942300141436,-0.016301347840608216,0.006711815904636431,-0.04518010470242473,0.0,70.0,255.0,255.0,255.0
215,10.75,-2.4582064515529174,1.8718030419034575,-3.008201912034478,-0.17199930535016783,0.06682162896999744,-0.5400515635082881,-0.01668245463548601,0.006727708274056887,-0.0449926080301033,0.0,70.0,255.0,255.0,255.0
216,10.8,-2.466827552612946,1.8751526627041224,-3.035260820596915,-0.1728335595692343,0.06715392032866419,-0.542293490817154,-0.016311536038182695,0.006394591011349426,-0.044573173247552944,0.0,70.0,255.0,255.0,255.0
217,10.850000000000001,-2.475489807509841,1.878518433936324,-3.0624312611161932,-0.1736304589539861,0.06746108807113238,-0.5445088808330434,-0.015351134134178324,0.005810586252663619,-0.0440033931190964,0.0,70.0,255.0,255.0,255.0
218,10.9,-2.4841905985083446,1.8818987715112356,-3.0897117086802193,-0.17436867298265213,0.06773497895393055,-0.5466938301290636,-0.014132807389000135,0.005160014804306279,-0.043431449023900726,0.0,70.0,255.0,255.0,255.0
219,10.950000000000001,-2.492926674808106,1.885291931831717,-3.1171006441290996,-0.1750437396928861,0.06797708955156301,-0.5488520257354335,-0.01299657161917267,0.0046372376834025175,-0.04300579885176958,0.0,70.0,255.0,255.0,255.0
220,11.0,-2.501694972477633,1.888696480466392,-3.1445969112537626,-0.1756683301445694,0.0681987027222708,-0.5509944100142405,-0.0122742734864012,0.004437174536953137,-0.042868847665200605,0.0,70.0,255.0,255.0,255.0
221,11.05,-2.510493507822563,1.892111802103944,-3.1722000851305237,-0.17627116704152623,0.06842080700525832,-0.5531389105019535,-0.012143729498825806,0.004656264423408274,-0.043087785309703364,0.0,70.0,255.0,255.0,255.0
222,11.100000000000001,-2.519322089181786,1.8955385611669178,-3.199910802303958,-0.17688270309445198,0.06866432916461163,-0.5553031885452109,-0.012516651004457202,0.005194871421410063,-0.043581646617329994,0.0,70.0,255.0,255.0,255.0
223,11.15,-2.528181778132008,1.8989782350204052,-3.2277304039850447,-0.17752283214197195,0.06894029414739933,-0.5574970751636865,-0.013186184339275542,0.005853612630746241,-0.044188794313226865,0.0,70.0,255.0,255.0,255.0
224,11.200000000000001,-2.537074372395983,1.9024325905816577,-3.2556605098203266,-0.17820132152837953,0.06924969042768625,-0.5597220679765336,-0.013945279435612079,0.006432659935295959,-0.044743925997270395,0.0,70.0,255.0,255.0,255.0
225,11.25,-2.546001910284846,1.9059032040631738,-3.283702610782698,-0.17891736008553316,0.06958356014092892,-0.5619714677634136,-0.01459247939070707,0.006739630874186275,-0.04509601063320545,0.0,70.0,255.0,255.0,255.0
226,11.3,-2.5549661084045363,1.9093909465957506,-3.311857656596668,-0.17966056946745024,0.06992365351510488,-0.5642316690398541,-0.015007998181104654,0.006673777868315689,-0.04516239880052453,0.0,70.0,255.0,255.0,255.0
227,11.350000000000001,-2.563967967231591,1.9128955694146843,-3.3401257776866835,-0.18041815990364363,0.07025093792776049,-0.566487707643466,-0.015186830612545776,0.006295335986972184,-0.04495542833691246,0.0,70.0,255.0,255.0,255.0
228,11.4,-2.5730079243949007,1.9164160403885266,-3.3685064273610146,-0.18117925252870482,0.0705531871138021,-0.5687272118735454,-0.01515620816761043,0.005740126747322272,-0.04452796579768048,0.0,70.0,255.0,255.0,255.0
229,11.450000000000001,-2.5820858924844616,1.9199508881260645,-3.396998498874038,-0.18193378072040467,0.07082495060249272,-0.5709405042232341,-0.014936622992722803,0.00514540928888696,-0.043938497159246026,0.0,70.0,255.0,255.0,255.0
230,11.5,-2.591201302466941,1.923498535448776,-3.425600477783338,-0.1826729148279771,0.07106772804269079,-0.57312106158947,-0.01454779030281017,0.004640292642332788,-0.043235128450413995,0.0,70.0,255.0,255.0,255.0
231,11.55,-2.6003531839672593,1.9270576609303336,-3.454310605032985,-0.1833885597506857,0.071288979866726,-0.5752640170682755,-0.01401653884918197,0.00430139799605378,-0.04246159384715398,0.0,70.0,255.0,255.0,255.0
232,11.600000000000001,-2.6095401584420097,1.9306274334354485,-3.4831268794901655,-0.1840745687128953,0.07149786784229617,-0.5773672209741854,-0.013416865706172842,0.0041401482669511935,-0.041714775232826184,0.0,70.0,255.0,255.0,255.0
233,11.65,-2.618760640838549,1.9342074477145632,-3.5120473271304036,-0.18473024632130297,0.07170299469342112,-0.5794354945915581,-0.01286982215105148,0.004150355904486425,-0.041142885619205316,0.0,70.0,255.0,255.0,255.0
234,11.700000000000001,-2.62801318307414,1.9377977329047906,-3.5410704289493213,-0.18536155092800044,0.07191290343274481,-0.5814815095361059,-0.012507202952205532,0.0043251900888163775,-0.040894346437747586,0.0,70.0,255.0,255.0,255.0
235,11.75,-2.637296795931349,1.9413987380578377,-3.570195478084014,-0.18598096661652352,0.07213551370230276,-0.5835249292353328,-0.012460368722289061,0.004655189232427581,-0.041111447593555894,0.0,70.0,255.0,255.0,255.0
236,11.8,-2.6466112797357924,1.945011284275021,-3.5994229218728546,-0.18660758780022935,0.07237842235598757,-0.5855926542954615,-0.012786359243222023,0.005121655788364876,-0.04184605098616068,0.0,70.0,255.0,255.0,255.0
237,11.850000000000001,-2.655957554711372,1.9486365802934364,-3.6287547435135603,-0.18725960254084573,0.07264767928113924,-0.5877095343339489,-0.013381231037978836,0.005663231784325262,-0.04294015604631163,0.0,70.0,255.0,255.0,255.0
238,11.9,-2.665337239989877,1.9522760522031348,-3.6581938753062495,-0.18794571090402723,0.0729447455344201,-0.5898866699000926,-0.014048139591382736,0.006177610473989681,-0.04410328892778814,0.0,70.0,255.0,255.0,255.0
239,11.950000000000001,-2.6747521258017746,1.9559310548468785,-3.6877434105035696,-0.188664416499984,0.07326544032853821,-0.5921198632267277,-0.01458179130544579,0.006554855997009668,-0.04503236883790507,0.0,70.0,255.0,255.0,255.0
240,12.0,-2.6842036816398753,1.9596025962359886,-3.7174058616289223,-0.1894038900345718,0.07360023113412106,-0.5943899067838831,-0.014774744132450834,0.006694941103946306,-0.04543908117566886,0.0,70.0,255.0,255.0,255.0
241,12.05,-2.6936925148052318,1.9632910779602906,-3.747182401181958,-0.19014189091322908,0.07393493443893284,-0.5966637713442946,-0.014524737465171356,0.006551466029969255,-0.04518040267438295,0.0,70.0,255.0,255.0,255.0
242,12.100000000000001,-2.7032178707311982,1.966996089679882,-3.7770722387633517,-0.19085636378108894,0.07425537773711799,-0.5989079470513214,-0.01394361806701383,0.006171400120247306,-0.04437448403207256,0.0,70.0,255.0,255.0,255.0
243,12.15,-2.7127781511833406,1.9707166157340024,-3.80707319588709,-0.19153625271993047,0.07455207445095757,-0.6011012197475019,-0.013252211557723825,0.005655565835804843,-0.043274914380786456,0.0,70.0,255.0,255.0,255.0
244,12.200000000000001,-2.7223714960031913,1.9744512971249777,-3.837182360738102,-0.19218158493686133,0.07482093432069847,-0.6032354384894001,-0.012672205252339808,0.0051148731023964444,-0.04214895210301606,0.0,70.0,255.0,255.0,255.0
245,12.25,-2.731996309677027,1.9781987091660722,-3.86739673973603,-0.19280347324516445,0.07506356176119722,-0.6053161149578035,-0.012424617452122533,0.004653064999771139,-0.04125623702782022,0.0,70.0,255.0,255.0,255.0
246,12.3,-2.7416518433277077,1.9819576533010974,-3.8977139722338823,-0.19342404668207358,0.07528624082067559,-0.6073610621921821,-0.012621264323220416,0.004331967271564707,-0.04074459938849806,0.0,70.0,255.0,255.0,255.0
247,12.350000000000001,-2.751338714345234,1.9857273332481398,-3.9281328459552483,-0.1940655996774865,0.07549675848835369,-0.6093905748966533,-0.013158888768227683,0.004167531371224165,-0.0405946350979125,0.0,70.0,255.0,255.0,255.0
248,12.4,-2.7610584032954564,1.9895073291499328,-3.9586530297235476,-0.19473993555889635,0.075702993957798,-0.6114205257019734,-0.013828422102646343,0.00416460170702404,-0.040726004598390375,0.0,70.0,255.0,255.0,255.0
249,12.450000000000001,-2.7708127079011238,1.9932976326439196,-3.9892748985254456,-0.19544844188775112,0.07591321865905609,-0.6134631753564923,-0.014422814258940875,0.004325138772576231,-0.0410575103958255,0.0,70.0,255.0,255.0,255.0
250,12.5,-2.7806032474842315,1.9970986510158384,-4.019999347259197,-0.19618221698479044,0.07613550783505563,-0.6155262767415559,-0.014742823355451407,0.004648789573025169,-0.04149998003675215,0.0,70.0,255.0,255.0,255.0
251,12.55,-2.790430929599603,2.000911183427425,-4.050827526199601,-0.19692272422329626,0.07637809761635861,-0.6176131733601675,-0.014683631815337606,0.005121690525156097,-0.041989451519564014,0.0,70.0,255.0,255.0,255.0
252,12.600000000000001,-2.800295519906561,2.0047364607774742,-4.081760664595214,-0.1976505801663242,0.07664767688757124,-0.6197252218935123,-0.01430623478522186,0.0056776352341803005,-0.042487068816488005,0.0,70.0,255.0,255.0,255.0
253,12.65,-2.8101959876162352,2.0085759511161823,-4.112800048388952,-0.19835334770181845,0.07694586113977664,-0.6218618802418163,-0.013748692106085869,0.006205188175156806,-0.04293845650336081,0.0,70.0,255.0,255.0,255.0
254,12.700000000000001,-2.820130854676743,2.012431046891452,-4.143946852619395,-0.19902544937693278,0.07726819570508692,-0.6240190675438484,-0.013149824425351397,0.0065855974481277,-0.043275831488820415,0.0,70.0,255.0,255.0,255.0
255,12.75,-2.8300985325539285,2.016302770686691,-4.175201955143337,-0.1996683301443536,0.07760442088458941,-0.6261894633906984,-0.012640079801906623,0.006707767384073193,-0.043447805529517325,0.0,70.0,255.0,255.0,255.0
256,12.8,-2.8400976876911783,2.020191488979911,-4.206565798958465,-0.20028945735712345,0.07793897244349424,-0.6283638480968001,-0.012296982308246385,0.006520757807493283,-0.04343036842522352,0.0,70.0,255.0,255.0,255.0
257,12.850000000000001,-2.850127478289641,2.0240966679310404,-4.238038339953017,-0.20089802837517823,0.07825649666533874,-0.6305325002332207,-0.012132535727493732,0.006086403216709613,-0.0432215651601453,0.0,70.0,255.0,255.0,255.0
258,12.9,-2.860187490528696,2.0280171386464447,-4.269619048981787,-0.20150271092987282,0.0785476127651652,-0.6326860046128147,-0.01214128499724687,0.005531009228620931,-0.042836533025258916,0.0,70.0,255.0,255.0,255.0
259,12.950000000000001,-2.870277749382628,2.031951429207557,-4.301306940414299,-0.20211215687490292,0.07880959758820083,-0.6348161535357466,-0.01231737521893983,0.00499195861416446,-0.04230536411533592,0.0,70.0,255.0,255.0,255.0
260,13.0,-2.8803987062161864,2.035898098405265,-4.333100664335362,-0.2027344484517668,0.07904680862658164,-0.6369165410243482,-0.012652848112804094,0.004608159538443957,-0.04164884446558048,0.0,70.0,255.0,255.0,255.0
261,13.05,-2.890551194227805,2.039856110070215,-4.3649985945167336,-0.20337744168618332,0.07927041354204523,-0.6389810379823047,-0.013129464593175655,0.004454765424322105,-0.04089476242477019,0.0,70.0,255.0,255.0,255.0
262,13.100000000000001,-2.9007364503848048,2.0438251397594693,-4.396998768133592,-0.20404739491108437,0.07949228516901385,-0.6410060172668253,-0.013682783144375321,0.004493115535764147,-0.04014480574010548,0.0,70.0,255.0,255.0,255.0
263,13.15,-2.9109559337189133,2.0478053385871164,-4.429099196243416,-0.20474572000062086,0.07971972509562164,-0.6429955185563152,-0.014205328743610579,0.004635250434992244,-0.039558954519591794,0.0,70.0,255.0,255.0,255.0
264,13.200000000000001,-2.921211022384867,2.0517971122690315,-4.461298319989224,-0.20546792778544543,0.07995581021251308,-0.6449619127187844,-0.014581700339499903,0.004792768561134864,-0.039294973122494525,0.0,70.0,255.0,255.0,255.0
265,13.25,-2.931502726497458,2.0558009196083677,-4.4935953875152945,-0.20620389003457085,0.08019900195173513,-0.6469250158685647,-0.014704518423114266,0.004867613110093316,-0.03950478863607998,0.0,70.0,255.0,255.0,255.0
266,13.3,-2.941831411388324,2.059817012464205,-4.52599082157608,-0.20693837962775685,0.08044257152352241,-0.6489123915823924,-0.01452464649913665,0.004807406602358455,-0.04024540705032109,0.0,70.0,255.0,255.0,255.0
267,13.350000000000001,-2.9521965644602335,2.06384517676072,-4.558486626673534,-0.2076563546844845,0.08067974261197097,-0.6509495565735968,-0.014100807219463718,0.004662067041172335,-0.0413538971939964,0.0,70.0,255.0,255.0,255.0
268,13.4,-2.9625970468567724,2.067884986725402,-4.59108577723344,-0.20834846034970322,0.08090877822763964,-0.6530477813017921,-0.013553763664431173,0.004526217469802418,-0.04253044609923151,0.0,70.0,255.0,255.0,255.0
269,13.450000000000001,-2.973031410495204,2.071936054583484,-4.623791404803713,-0.20901173105092763,0.08113236435895121,-0.6552026011835199,-0.01301531060229344,0.00448405338824287,-0.043462995142906635,0.0,70.0,255.0,255.0,255.0
270,13.5,-2.983498219961865,2.0759982231612972,-4.656606037351792,-0.20964999140993257,0.08135718356646393,-0.6573940808160827,-0.012617096842548747,0.004617332077261338,-0.04385200099044084,0.0,70.0,255.0,255.0,255.0
271,13.55,-2.993996409636197,2.0800717729401303,-4.689530812885321,-0.2102734407351825,0.08159409756667735,-0.659587801282564,-0.012431436589954714,0.004962694413412905,-0.04354980984047074,0.0,70.0,255.0,255.0,255.0
272,13.600000000000001,-3.0045255640353834,2.084157632917965,-4.722564817480048,-0.21089313506892804,0.08185345300780522,-0.6617490618001298,-0.01243035161420103,0.005456844737450339,-0.04268948893377811,0.0,70.0,255.0,255.0,255.0
273,13.65,-3.01508572314309,2.088257118240911,-4.755705719065334,-0.2115164758966026,0.08213978204042238,-0.6638567501759418,-0.012544092123389916,0.005980812086825438,-0.04155021679386195,0.0,70.0,255.0,255.0,255.0
274,13.700000000000001,-3.0256772116250437,2.092371611122007,-4.7889504924976425,-0.21214754428126703,0.08245153421648777,-0.665904083479516,-0.012703257717472383,0.006418243993211448,-0.04042582019829766,0.0,70.0,255.0,255.0,255.0
275,13.75,-3.0363004775712166,2.0965022716625596,-4.822296127413286,-0.21278680166834985,0.08278160643974353,-0.6678993321957716,-0.012835112854414632,0.006671077228936895,-0.03961121672677592,0.0,70.0,255.0,255.0,255.0
276,13.8,-3.0469558917918786,2.1006497717659816,-4.85574042571722,-0.2134310555667085,0.08311864193938145,-0.6698652051521936,-0.012896833248410289,0.0066880162103100105,-0.03926761466033213,0.0,70.0,255.0,255.0,255.0
277,13.850000000000001,-3.0576435831278874,2.104814135856498,-4.889282647928505,-0.21407648499319087,0.08345040806077453,-0.6718260936618048,-0.01289871872494075,0.006475029533303811,-0.03932087434339593,0.0,70.0,255.0,255.0,255.0
278,13.9,-3.0683635402911977,2.108994812572059,-4.9229230350834,-0.21472092743920257,0.08376614489271184,-0.6737972925865332,-0.012868096280493901,0.006066897819367867,-0.039597637774058114,0.0,70.0,255.0,255.0,255.0
279,13.950000000000001,-3.0791156758718077,2.113190750345769,-4.9566623771871585,-0.21536329462124026,0.08405709784271131,-0.6757858574392106,-0.01282545806118307,0.00550917110526683,-0.03992612499601478,0.0,70.0,255.0,255.0,255.0
280,14.0,-3.0898998697533218,2.11740052235633,-4.990501620827321,-0.21600347324532088,0.08431706200323852,-0.6777899050861347,-0.012790423767317094,0.004838405626861331,-0.04011916939816729,0.0,70.0,255.0,255.0,255.0
281,14.05,-3.1007160231963398,2.121622456546093,-5.024441367695772,-0.21664233699797197,0.08454093840539745,-0.6797977743790273,-0.012774517129843233,0.004090928391109472,-0.04007418373284111,0.0,70.0,255.0,255.0,255.0
282,14.100000000000001,-3.111564103453119,2.12585461619687,-5.058481398265224,-0.2172809249583052,0.08472615484234947,-0.6817973234594188,-0.012774773486334823,0.003361172327620565,-0.03986887849540821,0.0,70.0,255.0,255.0,255.0
283,14.15,-3.1224441156921703,2.1300950720303278,-5.092621100041714,-0.21791981434660546,0.0848770556381595,-0.6837846622285682,-0.01278352275493333,0.0027951397591596816,-0.039655688986250937,0.0,70.0,255.0,255.0,255.0
284,14.200000000000001,-3.1333560848877795,2.134342321760686,-5.126859864488081,-0.21855927723379853,0.08500566881826543,-0.6857628923580439,-0.012794910037383644,0.0025373326577149413,-0.03957056559764638,0.0,70.0,255.0,255.0,255.0
285,14.25,-3.14430004341555,2.1385956389121543,-5.161197389277518,-0.21919930535034382,0.085130788903931,-0.6877417187883328,-0.012803192076082937,0.00272327229140501,-0.03975602176433668,0.0,70.0,255.0,255.0,255.0
286,14.3,-3.155276015422814,2.142855400651079,-5.195634036366914,-0.21983959644140683,0.08527799604740594,-0.6897384945344776,-0.012805098232293588,0.003403095400145162,-0.040276023368779335,0.0,70.0,255.0,255.0,255.0
287,14.350000000000001,-3.166284003059691,2.147123438516895,-5.230171238730966,-0.22047981517357318,0.08547109844394551,-0.6917693211252107,-0.012802187329485903,0.00443496647117847,-0.041001840113885635,0.0,70.0,255.0,255.0,255.0
288,14.4,-3.177323996940171,2.1514025104954735,-5.264810968479435,-0.22111981517435542,0.08572149269452378,-0.6938386785458661,-0.012797812700071631,0.005555340347029869,-0.04170053868239876,0.0,70.0,255.0,255.0,255.0
289,14.450000000000001,-3.1883959845771264,2.1556955877863473,-5.299555106585553,-0.22175959644358034,0.0860266324786485,-0.6959393749934506,-0.012794901789625612,0.006483036725146718,-0.04214555200672265,0.0,70.0,255.0,255.0,255.0
290,14.5,-3.1994999565845292,2.1600051737433383,-5.33440490597878,-0.22239930535331798,0.08636979636703845,-0.6980532337465384,-0.012796807928516785,0.006936477235397476,-0.042116790164392626,0.0,70.0,255.0,255.0,255.0
291,14.55,-3.210635915112458,2.164332567423051,-5.3693604299602065,-0.22303927723643202,0.08672028020218825,-0.7001510540098899,-0.012805089940881587,0.006776690008525321,-0.04151412372435104,0.0,70.0,255.0,255.0,255.0
292,14.600000000000001,-3.2218038843081724,2.168677201763557,-5.404420011379769,-0.22367981434740614,0.08704746536789099,-0.7022046461189735,-0.012816477195043419,0.006147073675633052,-0.04049000813521886,0.0,70.0,255.0,255.0,255.0
293,14.65,-3.2330038965471988,2.1730373139598402,-5.439580894572104,-0.22432092495593636,0.08733498756975155,-0.7042000548234117,-0.012825226444768134,0.005335386964588906,-0.03933758752001637,0.0,70.0,255.0,255.0,255.0
294,14.700000000000001,-3.244235976803766,2.1774107005205323,-5.47484001686211,-0.22496233699188295,0.08758100406434988,-0.7061384048709751,-0.01282548280476803,0.004637093868442577,-0.038359487447259255,0.0,70.0,255.0,255.0,255.0
295,14.75,-3.255500130246387,2.181795414366275,-5.510194735059201,-0.22560347323641317,0.08779869695659581,-0.7080360035681377,-0.012809576209926732,0.004358790794967149,-0.0378568175781524,0.0,70.0,255.0,255.0,255.0
296,14.8,-3.2667963241274074,2.186190570216192,-5.545643617218924,-0.22624329461287562,0.08801688314384659,-0.7099240866287904,-0.012774542004034828,0.004656205171738037,-0.037980768447987145,0.0,70.0,255.0,255.0,255.0
297,14.850000000000001,-3.2781244597076746,2.19059710268066,-5.58118714372208,-0.22688092743681665,0.08826431747376962,-0.7118340804129364,-0.012731903890195184,0.005370398499815465,-0.03859001545727381,0.0,70.0,255.0,255.0,255.0
298,14.9,-3.289484416871089,2.195017001963569,-5.616827025260218,-0.22751648500189514,0.08855392299382814,-0.7137830881745177,-0.012701281520755003,0.006190291281837901,-0.039397223125359204,0.0,70.0,255.0,255.0,255.0
299,14.950000000000001,-3.300876108207864,2.1994524949800427,-5.652565452539532,-0.22815105558889215,0.0888833466019534,-0.7157738027254723,-0.012703166991423487,0.0068149281275076135,-0.04010992477692099,0.0,70.0,255.0,255.0,255.0
300,15.0,-3.3122995224299783,2.203905336623764,-5.688404405532765,-0.2287868017010375,0.0892354158065789,-0.7177940806522098,-0.012764887231897504,0.006948452824673268,-0.04042796749432753,0.0,70.0,255.0,255.0,255.0
301,15.05,-3.323754788377968,2.2083760365607006,-5.724344860604753,-0.2294275443120819,0.08957819188442073,-0.7198165994749051,-0.012896742042922682,0.006444829630947169,-0.040196741878162356,0.0,70.0,255.0,255.0,255.0
302,15.100000000000001,-3.3352422768611865,2.2128631558122063,-5.7603860654802554,-0.23007647590532976,0.08987989876967362,-0.7218137548400261,-0.01305590724389738,0.005458511812417299,-0.0395562703629615,0.0,70.0,255.0,255.0,255.0
303,15.15,-3.346762435968501,2.217364026437668,-5.796526236088756,-0.23073313503647164,0.09012404306566246,-0.7237722265112012,-0.013169647472333068,0.00429710758180768,-0.03878634049172547,0.0,70.0,255.0,255.0,255.0
304,15.200000000000001,-3.3583155903648336,2.2218755601187725,-5.832763288131376,-0.23139344065256306,0.09030960952785438,-0.7256923888891986,-0.013168562516296944,0.00326925422764468,-0.03816118640473931,0.0,70.0,255.0,255.0,255.0
305,15.25,-3.369901780033757,2.2263949873904534,-5.869095474977676,-0.23204999128810133,0.09045096848842693,-0.7275883451516751,-0.012982902834268728,0.002675369933902161,-0.037963247175198944,0.0,70.0,255.0,255.0,255.0
306,15.3,-3.3815205894936438,2.230920656967615,-5.905522122646543,-0.23269173093598994,0.0905771465212446,-0.7294887136067185,-0.012584690290751155,0.0026710497307291803,-0.03833212418031806,0.0,70.0,255.0,255.0,255.0
307,15.350000000000001,-3.393170953127356,2.235452702042578,-5.942044346338347,-0.23330846031717645,0.09071807346149985,-0.731421557569707,-0.012046238695795353,0.0031474423628718995,-0.039099495166805553,0.0,70.0,255.0,255.0,255.0
308,15.4,-3.4048514355253614,2.239992464313765,-5.978664278403514,-0.23389635480556947,0.09089189075753179,-0.7333986631233991,-0.011499196188724525,0.0038693902795206014,-0.03994282283219519,0.0,70.0,255.0,255.0,255.0
309,15.450000000000001,-3.416560588607913,2.244541891118331,-6.015384212650687,-0.2344583799360489,0.09110501248945191,-0.7354158398529265,-0.011075356836620642,0.0045947682483671315,-0.04054546946381521,0.0,70.0,255.0,255.0,255.0
310,15.5,-3.4282972735189663,2.2491029655627104,-6.052205862388806,-0.23500389048923154,0.0913513675823685,-0.7374532100697806,-0.010895482782968813,0.005070067439350012,-0.04058710907299812,0.0,70.0,255.0,255.0,255.0
311,15.55,-3.4400609776568363,2.253677027876568,-6.089129533657665,-0.23554792821434578,0.09161201923338691,-0.7394745507602263,-0.011018296327813815,0.005158710373631692,-0.03991438844055395,0.0,70.0,255.0,255.0,255.0
312,15.600000000000001,-3.451852066340401,2.258264167486049,-6.126153317464829,-0.23610572012201292,0.09186723861973167,-0.741444648913836,-0.011394662448394044,0.00495628750085686,-0.03873292845710807,0.0,70.0,255.0,255.0,255.0
313,15.65,-3.4636715496690376,2.262863751738541,-6.163273998549049,-0.23668739445918519,0.0921076479834726,-0.7433478436059371,-0.01191720413653563,0.004659084214386766,-0.037436027851889264,0.0,70.0,255.0,255.0,255.0
314,15.700000000000001,-3.4755208057863194,2.2674749322843963,-6.200488101825423,-0.23729744053566648,0.09233314704117035,-0.7451882516990249,-0.012470522958052399,0.00445255855980875,-0.03641628305901534,0.0,70.0,255.0,255.0,255.0
315,15.75,-3.487401293722604,2.272097066442658,-6.2377928237189515,-0.23793444675499043,0.09255290383945347,-0.7469894719118386,-0.012947147385578006,0.0045322857162855,-0.03606426058997414,0.0,70.0,255.0,255.0,255.0
316,15.8,-3.4993142504618184,2.2767302226683417,-6.275187049016607,-0.23859215527422428,0.0927863756127989,-0.7487946777580223,-0.013282637218248183,0.004993968914446256,-0.03657069501867838,0.0,70.0,255.0,255.0,255.0
317,15.850000000000001,-3.5112605092500266,2.281375704003938,-6.312672291494754,-0.23926271047681524,0.0930523007308981,-0.7506465414137065,-0.013458747874262045,0.0057047036709168,-0.03771890755421836,0.0,70.0,255.0,255.0,255.0
318,15.9,-3.5232405215095,2.2860354527414315,-6.350251703157977,-0.2399380300616505,0.09335684597989058,-0.7525665685134442,-0.013467511741049876,0.006416976825729392,-0.03908211004803874,0.0,70.0,255.0,255.0,255.0
319,15.950000000000001,-3.5352543122561917,2.290711388601927,-6.387928948346098,-0.24060946165092023,0.09369399841347104,-0.7545547524185103,-0.013303064151548583,0.006895137372886495,-0.04023005098110488,0.0,70.0,255.0,255.0,255.0
320,16.0,-3.547301467674592,2.2954048525827786,-6.425707178399828,-0.24126833647680535,0.09404635971717923,-0.7565895736115547,-0.012959936998413468,0.006912864287489384,-0.04073589518860388,0.0,70.0,255.0,255.0,255.0
321,16.05,-3.5593811459038722,2.300116024573645,-6.463587905707254,-0.24190545535076158,0.09438528484221997,-0.7586283419373707,-0.012450129158425582,0.0063645281873636605,-0.04038297134485447,0.0,70.0,255.0,255.0,255.0
322,16.1,-3.571492013209668,2.3048433810670006,-6.501570012593565,-0.2425133493926479,0.0946828125359156,-0.7606278707460401,-0.011851185215405735,0.005391144901478739,-0.03936225717566799,0.0,70.0,255.0,255.0,255.0
323,16.150000000000002,-3.583632480843137,2.3095843058272365,-6.539650692781858,-0.24309057387230215,0.09492439933236785,-0.7625645676549375,-0.011293588060246051,0.0042684397184800105,-0.03806471610490192,0.0,70.0,255.0,255.0,255.0
324,16.2,-3.5958010705968984,2.3143358210002374,-6.577826469359059,-0.2436427081986725,0.0951096565077636,-0.7644343423565303,-0.010916194794718947,0.003279153021695791,-0.03688337315708168,0.0,70.0,255.0,255.0,255.0
325,16.25,-3.6079967516630043,2.319095271478013,-6.616094127017511,-0.24418219335177405,0.09525231463453743,-0.7662529049706457,-0.010857113944551244,0.002696257133383284,-0.036212112036437816,0.0,70.0,255.0,255.0,255.0
326,16.3,-3.6202192899320758,2.323861052463691,-6.654451759856124,-0.24472841959312763,0.09537928222110192,-0.7680555535601741,-0.011177358968650353,0.0026612050486374272,-0.03625676692093904,0.0,70.0,255.0,255.0,255.0
327,16.35,-3.632469593622317,2.328633199700123,-6.692899682373528,-0.24529992924863908,0.09551843513940117,-0.7698785816627396,-0.011772035739454623,0.0030826048355692137,-0.03686301945293735,0.0,70.0,255.0,255.0,255.0
328,16.400000000000002,-3.6447492828569397,2.3334128959776312,-6.731439618022398,-0.2459056231670731,0.09568754270465885,-0.7717418555054678,-0.012441772381821536,0.003757376189028605,-0.037708908982914124,0.0,70.0,255.0,255.0,255.0
329,16.45,-3.6570601559390243,2.338201953970589,-6.770073867924075,-0.24654410648682124,0.09589417275830403,-0.773649472561031,-0.012979382777178472,0.004474963826606171,-0.03847608343052755,0.0,70.0,255.0,255.0,255.0
330,16.5,-3.669403693505622,2.3430023132534616,-6.808804565278501,-0.24720356144479094,0.09613503908731946,-0.7755894638485206,-0.013175616546901026,0.005022107178342949,-0.03883971260911778,0.0,70.0,255.0,255.0,255.0
331,16.55,-3.6817805120835034,2.347815457879321,-6.847632814308927,-0.24786166814151134,0.09639638347613833,-0.7775334438219428,-0.012927148253627507,0.005278390545937484,-0.038630613652301804,0.0,70.0,255.0,255.0,255.0
332,16.6,-3.694189860319773,2.3526419516010755,-6.886557909660695,-0.2484962762701537,0.09666287814191321,-0.7794525252137507,-0.012346079752312278,0.005283004521361434,-0.03799200533851632,0.0,70.0,255.0,255.0,255.0
333,16.650000000000002,-3.706630139710519,2.357481745693512,-6.925578066830302,-0.24909627611674257,0.09692468392827447,-0.7813326443557944,-0.011653914487075312,0.005135808439371559,-0.037212468476788274,0.0,70.0,255.0,255.0,255.0
334,16.7,-3.719099487931447,2.362334419993903,-6.9646911740962745,-0.24966166771886122,0.09717645898585037,-0.7831737720614296,-0.011072847523196927,0.004928590739128325,-0.03657266608110277,0.0,70.0,255.0,255.0,255.0
335,16.75,-3.731596306482405,2.3671993915920972,-7.003895444036445,-0.25020356086906226,0.0974175430021873,-0.7849899109639047,-0.010824382571072988,0.00475526753280775,-0.036360972257565294,0.0,70.0,255.0,255.0,255.0
336,16.8,-3.7441198440183534,2.3720761742941217,-7.043190165192665,-0.2507441059759685,0.09765198573913114,-0.7868098692871861,-0.011020621443691425,0.004671293373714747,-0.03672063861053232,0.0,70.0,255.0,255.0,255.0
337,16.85,-3.7566707170800018,2.3769645901660104,-7.0825764309651635,-0.2513056230134314,0.09788467233955878,-0.7886619748249579,-0.011558237326880771,0.004664444678148527,-0.03748355126829139,0.0,70.0,255.0,255.0,255.0
338,16.900000000000002,-3.7692504063196965,2.3818646415280775,-7.122056362675161,-0.2518999297086566,0.098118430206946,-0.7905582244140152,-0.012227977594880812,0.004701161615461302,-0.03832662503544526,0.0,70.0,255.0,255.0,255.0
339,16.95,-3.7818607100508674,2.386776433186705,-7.161632253406565,-0.2525284207729195,0.0983547885011049,-0.7924946373285024,-0.012822653703015163,0.004756873683131602,-0.03893339210492286,0.0,70.0,255.0,255.0,255.0
340,17.0,-3.7945032483969885,2.391700120378188,-7.201305826408011,-0.2531821950789581,0.09859411757525915,-0.7944515636245075,-0.013142890464745705,0.004808850662474384,-0.038984463627222965,0.0,70.0,255.0,255.0,255.0
341,17.05,-3.8071789295587632,2.396635844944231,-7.241077409769016,-0.25384270981939405,0.09883567356735234,-0.7963930836912247,-0.013083792545032225,0.004843149245958855,-0.03832645894563669,0.0,70.0,255.0,255.0,255.0
342,17.1,-3.819887519378928,2.4015836877349233,-7.2809451347771335,-0.25449057433346134,0.09907843249985504,-0.7982842095190712,-0.01270637886614523,0.004859216765940033,-0.03716096907728783,0.0,70.0,255.0,255.0,255.0
343,17.150000000000002,-3.8326279869921094,2.4065436881942164,-7.320905830720923,-0.2551133477060086,0.09932159524394635,-0.8001091805989535,-0.012148767208053357,0.004859545098767626,-0.03587469105523766,0.0,70.0,255.0,255.0,255.0
344,17.2,-3.8453988541495288,2.411515847259318,-7.360956052837029,-0.2557054510542667,0.0995643870097318,-0.801871678624595,-0.011549824377832252,0.0048439145283296625,-0.034853112817767595,0.0,70.0,255.0,255.0,255.0
345,17.25,-3.858198532097536,2.4165001268951896,-7.401092998583382,-0.2562683301437918,0.09980598669677931,-0.8035944918807303,-0.01104004624599142,0.004809329817456742,-0.03447711728856717,0.0,70.0,255.0,255.0,255.0
346,17.3,-3.871025687163908,2.421496445928996,-7.441315502025102,-0.2568094556788658,0.10004531999147748,-0.8053193903534517,-0.010696982268765254,0.004756109642167772,-0.03493389856750184,0.0,70.0,255.0,255.0,255.0
347,17.35,-3.8838794776654226,2.4265046588943373,-7.481624937618728,-0.2573380283706683,0.10028159766099609,-0.8070878817374805,-0.010532610844782297,0.004698688257853689,-0.03602268897422434,0.0,70.0,255.0,255.0,255.0
348,17.400000000000002,-3.8967594900009748,2.4315246056950954,-7.52202429019885,-0.25786271676334405,0.10051518881726285,-0.8089216592508741,-0.010541429097399302,0.004660657989630224,-0.03734365503227366,0.0,70.0,255.0,255.0,255.0
349,17.45,-3.909665749341757,2.4365561777760636,-7.562517103543815,-0.25839217128040826,0.10074766345995911,-0.8108222472407078,-0.01071753596546543,0.004667468203667369,-0.03849480930355753,0.0,70.0,255.0,255.0,255.0
350,17.5,-3.9225987071290156,2.4415993720410913,-7.603106514922921,-0.2589344703598906,0.10098193563762958,-0.8127711401812299,-0.011052915227161009,0.004753830068215947,-0.039087113838576215,0.0,70.0,255.0,255.0,255.0
351,17.55,-3.935559196377746,2.4466543713398266,-7.643794217561938,-0.25949746280312436,0.10122304646678071,-0.8147309586245655,-0.011529304020374553,0.0049324121851324065,-0.038918086645711725,0.0,70.0,255.0,255.0,255.0
352,17.6,-3.948548453409328,2.4517216766877694,-7.684579610785377,-0.26008740076192804,0.10147517685614282,-0.816662948845801,-0.012082338594199271,0.005146030202141105,-0.03811909087758636,0.0,70.0,255.0,255.0,255.0
353,17.650000000000002,-3.961567936453939,2.456801889025441,-7.725460512446518,-0.2607056966625443,0.10173764948699482,-0.8185428677123241,-0.012604677241823126,0.005297822943139963,-0.03697987296327199,0.0,70.0,255.0,255.0,255.0
354,17.7,-3.9746190230755825,2.461895441636469,-7.76643389755661,-0.26134786848611036,0.10200495915045682,-0.8203609361421282,-0.012981057401306728,0.005292925943711779,-0.03579422339354821,0.0,70.0,255.0,255.0,255.0
355,17.75,-3.98770272330255,2.4670023849404865,-7.807496606060731,-0.26200380240267496,0.102266942081366,-0.8221222900516789,-0.013104283521325755,0.005027377881505757,-0.034846408709743315,0.0,70.0,255.0,255.0,255.0
356,17.8,-4.00081940331585,2.4721221358446055,-7.8486461265617775,-0.26265829683824293,0.1025076969386074,-0.8238455770131026,-0.01292528882888,0.004460442083642491,-0.03429930263569858,0.0,70.0,255.0,255.0,255.0
357,17.85,-4.013968552986374,2.4772531546343473,-7.889881163762041,-0.26329633128556296,0.10271298628973025,-0.8255522203152488,-0.012502510303047387,0.00371896249520276,-0.034133674788972,0.0,70.0,255.0,255.0,255.0
358,17.900000000000002,-4.027149036444406,2.4823934344735785,-7.931201348593302,-0.26390854786854767,0.10287959318812767,-0.8272589444919998,-0.011956225571907453,0.0030271178368401763,-0.03426580416343583,0.0,70.0,255.0,255.0,255.0
359,17.95,-4.040359407773229,2.48754111395316,-7.972607058211241,-0.2644919538427537,0.10301569807341426,-0.8289788007315924,-0.011417721608353304,0.0026068886275432135,-0.03461398476662936,0.0,70.0,255.0,255.0,255.0
360,18.0,-4.053598231828682,2.49269500428092,-8.014099228666462,-0.265050320029383,0.10314028205088199,-0.8307203429686627,-0.011017969335824773,0.0026766117854126747,-0.035091260645803146,0.0,70.0,255.0,255.0,255.0
361,18.05,-4.066864439776167,2.497855142158248,-8.055679092508107,-0.2655937507763362,0.10328335925195553,-0.8324879267961727,-0.01082902784421691,0.0033334185481237455,-0.03563295455970561,0.0,70.0,255.0,255.0,255.0
362,18.1,-4.080157606906315,2.5030233402061155,-8.097348021346079,-0.2661332228138047,0.10347362390569437,-0.8342836384246333,-0.010823983829766348,0.004411872731457933,-0.03618630320758598,0.0,70.0,255.0,255.0,255.0
363,18.150000000000002,-4.093477762057548,2.5082025045488177,-8.13910745635057,-0.2666761491593128,0.10372454652510132,-0.8361065571169313,-0.010934895994818561,0.005598274473817,-0.03667429966149882,0.0,70.0,255.0,255.0,255.0
364,18.2,-4.1068252218222465,2.5133957948586256,-8.180958677057772,-0.26722671241328655,0.10403345135307607,-0.8379510683907831,-0.011094256631061228,0.006573971759937791,-0.0370046627143239,0.0,70.0,255.0,255.0,255.0
365,18.25,-4.120200433298876,2.5186058496841253,-8.222902563189649,-0.26778557482241894,0.1043819437010951,-0.8398070233883637,-0.011231857783311483,0.007038202949116723,-0.03709251140957548,0.0,70.0,255.0,255.0,255.0
366,18.3,-4.133603779304488,2.523833989228735,-8.264939379396608,-0.2683498981916177,0.10473727164798774,-0.8416603195317407,-0.011305825902052646,0.006838797477204395,-0.03690165301790671,0.0,70.0,255.0,255.0,255.0
367,18.35,-4.147035423118038,2.529079576848924,-8.307068595142823,-0.2689161574126242,0.10506582344881554,-0.8434971886901543,-0.01132248677846448,0.006083430028924752,-0.03648558790594336,0.0,70.0,255.0,255.0,255.0
368,18.400000000000002,-4.160495395045751,2.5343405715736167,-8.349289098265624,-0.26948214686946415,0.10534561465088021,-0.845308878322335,-0.011302418886671717,0.0050107399784948825,-0.035953360828067105,0.0,70.0,255.0,255.0,255.0
369,18.45,-4.173983637804985,2.539614138314012,-8.391599482975057,-0.2700463993012914,0.10556689744666503,-0.847092524772961,-0.01125905140177963,0.0038699982252143883,-0.03542685155615288,0.0,70.0,255.0,255.0,255.0
370,18.5,-4.18750003497588,2.544897261318283,-8.43399835074292,-0.2706080520096421,0.10573261447340165,-0.8488515634779503,-0.011202571559110197,0.0028945857426077026,-0.03502671236237376,0.0,70.0,255.0,255.0,255.0
371,18.55,-4.201044443005949,2.5501873997613522,-8.476484639322852,-0.2711666564572024,0.1058563560209258,-0.8505951960091984,-0.01114095526038028,0.002223652615285232,-0.034819920546347305,0.0,70.0,255.0,255.0,255.0
372,18.6,-4.2146167006216,2.555482896920376,-8.51905787034384,-0.27172214753568014,0.10595497973493018,-0.852333555532585,-0.011086069056087666,0.0018871344252158195,-0.03478770880622761,0.0,70.0,255.0,255.0,255.0
373,18.650000000000002,-4.228216657759517,2.5607828977348452,-8.56171799487611,-0.27227526336281116,0.10604506946344738,-0.8540739668898212,-0.011055428458739414,0.0018877166611641627,-0.03487673255317958,0.0,70.0,255.0,255.0,255.0
374,18.7,-4.241844226957881,2.5660874038667205,-8.604465267032822,-0.2728276903815541,0.1061437514010466,-0.855821228787903,-0.011069537762242732,0.0022250096982201484,-0.03503413152632362,0.0,70.0,255.0,255.0,255.0
375,18.75,-4.255499426797672,2.57139727287495,-8.6473001177549,-0.27338221713903543,0.1062675704332694,-0.8575773800424535,-0.01115785598049257,0.0028954354327925813,-0.03520865778749993,0.0,70.0,255.0,255.0,255.0
376,18.8,-4.269182448671785,2.5767141609100475,-8.690223005037067,-0.27394347597960333,0.10643329494432585,-0.859342094566653,-0.011330353056404618,0.0038686433435408674,-0.035365890903449326,0.0,70.0,255.0,255.0,255.0
377,18.85,-4.282893774395633,2.5820406023693825,-8.733234327211566,-0.2745152524446759,0.10665443476762348,-0.8611139691327985,-0.011533236996807972,0.005006353948155962,-0.03548450926942337,0.0,70.0,255.0,255.0,255.0
378,18.900000000000002,-4.2966339739162525,2.58737960438681,-8.776334401950347,-0.27509679967928413,0.10693393033914145,-0.8628905454935953,-0.011675867278082563,0.006076715055236548,-0.035537937398899544,0.0,70.0,255.0,255.0,255.0
379,18.95,-4.310403454363561,2.5927339954032966,-8.819523381760925,-0.27568283917248415,0.10726210627314714,-0.8646677628726884,-0.011669510835865538,0.00683201426414648,-0.03549713516086683,0.0,70.0,255.0,255.0,255.0
380,19.0,-4.324202257833501,2.5981058150141245,-8.862801178237616,-0.2762637507628707,0.1076171317655561,-0.866440259009682,-0.011418032491228303,0.007035653878517678,-0.035338656488370646,0.0,70.0,255.0,255.0,255.0
381,19.05,-4.338029829439848,2.6034957085798522,-8.906167407661894,-0.276824642421607,0.10796567166099891,-0.8682016285215255,-0.010883832980468355,0.006580748369300338,-0.035056003018318904,0.0,70.0,255.0,255.0,255.0
382,19.1,-4.351884722075662,2.6089023821802244,-8.949621341089768,-0.2773521340609175,0.10827520660248613,-0.8699458593115139,-0.010182754518428538,0.005616400830854573,-0.034676025675750566,0.0,70.0,255.0,255.0,255.0
383,19.150000000000002,-4.36576504284594,2.614323229240101,-8.993161993593045,-0.27784291787344984,0.10852731174408436,-0.8716692310891005,-0.009520170028309849,0.004438150390750906,-0.03425058545047932,0.0,70.0,255.0,255.0,255.0
384,19.200000000000003,-4.3796690138630066,2.619755113354633,-9.036788264198679,-0.2783041510637485,0.10871902164156122,-0.8733709178565618,-0.009098479500302403,0.003359194317686942,-0.03383681501230029,0.0,70.0,255.0,255.0,255.0
385,19.25,-4.393595457952315,2.625195131404257,-9.080499085378701,-0.2787527658234801,0.10886323117585306,-0.8750529125903306,-0.009109967434106636,0.0026859583773131135,-0.03348072558377879,0.0,70.0,255.0,255.0,255.0
386,19.3,-4.407544290445355,2.630641436472218,-9.124293555457712,-0.27921514780715917,0.10898761747929253,-0.8767189904149397,-0.00964191408909798,0.002581137071944184,-0.033210097021196816,0.0,70.0,255.0,255.0,255.0
387,19.35,-4.421516972733031,2.6360938931521862,-9.168170984420195,-0.2797169572323899,0.10912134488304748,-0.8783739222924503,-0.01056949784299377,0.002958998439428484,-0.033048684064240774,0.0,70.0,255.0,255.0,255.0
388,19.400000000000002,-4.4355159861685935,2.641553570960523,-9.212130947686957,-0.28027209759145855,0.10928351732323538,-0.8800238588213638,-0.011648021373567019,0.0036205668315414385,-0.03302242476230788,0.0,70.0,255.0,255.0,255.0
389,19.450000000000003,-4.449544182492176,2.6470222448845098,-9.256173370302331,-0.2808817593697466,0.10948340156620162,-0.881676164768681,-0.012624310091613467,0.004364122217648259,-0.033148891503209654,0.0,70.0,255.0,255.0,255.0
390,19.5,-4.463604162105568,2.652501911117143,-9.300298564163825,-0.2815345286006199,0.1097199295450002,-0.8833387479716848,-0.013262097772059889,0.0049925405841033665,-0.03344240388098996,0.0,70.0,255.0,255.0,255.0
391,19.55,-4.477697635352238,2.65799423783901,-9.3445072450995,-0.28220796914695256,0.10998265562461196,-0.88502040515678,-0.013435223949009867,0.00538915555758912,-0.033897921251480057,0.0,70.0,255.0,255.0,255.0
392,19.6,-4.4918249590202635,2.6635001766796043,-9.388800604679503,-0.2828780509955209,0.11025884510075912,-0.8867285400968328,-0.01318736599777992,0.0055521741761932475,-0.03444839890516249,0.0,70.0,255.0,255.0,255.0
393,19.650000000000002,-4.5059854404517905,2.6690201223490857,-9.433180099109183,-0.28352670574673056,0.11053787304223128,-0.8884652450472963,-0.012639632589461769,0.005513335197049329,-0.03497887633745478,0.0,70.0,255.0,255.0,255.0
394,19.700000000000003,-4.5201776295949365,2.6745539639838274,-9.477647129184232,-0.28414201425446706,0.11081017862046405,-0.8902264277305783,-0.011924280133523979,0.005298629166095026,-0.035368644617150835,0.0,70.0,255.0,255.0,255.0
395,19.75,-4.534399641877237,2.680101140211132,-9.522202741882241,-0.28471913376008295,0.11106773595884079,-0.8920021095090114,-0.011173669449338064,0.004935860637633738,-0.03550564957031099,0.0,70.0,255.0,255.0,255.0
396,19.8,-4.548649542970945,2.6856607375797115,-9.566847340135133,-0.28525938119940086,0.11130376468422742,-0.8937769926876094,-0.010475651652530615,0.0044545017698016665,-0.035337705151761156,0.0,70.0,255.0,255.0,255.0
397,19.85,-4.562925579997177,2.691231516679555,-9.611580441151002,-0.285766698925336,0.11151318613582095,-0.8955358800241875,-0.009878240964056317,0.003913144017309023,-0.03492219583911549,0.0,70.0,255.0,255.0,255.0
398,19.900000000000002,-4.577226212863478,2.6968120561932936,-9.656400928137552,-0.2862472052958065,0.11169507908595833,-0.8972692122715209,-0.00943876295460555,0.0034069315413276513,-0.03437843352323,0.0,70.0,255.0,255.0,255.0
399,19.950000000000003,-4.591550300526758,2.7024010245881507,-9.701307362378154,-0.28671057522079657,0.11185387928995372,-0.8989737233765105,-0.009223744198827433,0.003040335476844902,-0.033836017208166425,0.0,70.0,255.0,255.0,255.0
400,20.0,-4.605897270385558,2.707997444122289,-9.746298300475203,-0.28716957971568924,0.11199911263364282,-0.9006528139923375,-0.009295252402719001,0.0029080261892300285,-0.033423016488143276,0.0,70.0,255.0,255.0,255.0
401,20.05,-4.620267258498327,2.713600935851515,-9.791372643777388,-0.28764010046106847,0.11214468190887672,-0.9023160250253248,-0.009669908368703517,0.003053350183446213,-0.03321074532021129,0.0,70.0,255.0,255.0,255.0
402,20.1,-4.634661280431665,2.7192119123131766,-9.836529902977736,-0.2881365705525596,0.11230444765198744,-0.9039738885243587,-0.01025612702232337,0.003430774230306355,-0.0331791813724891,0.0,70.0,255.0,255.0,255.0
403,20.150000000000002,-4.649080915553583,2.7248313806167137,-9.881770032629824,-0.2886657131633008,0.11248775933190736,-0.9056339431625737,-0.010887180394014706,0.003942575001447679,-0.033271865094519626,0.0,70.0,255.0,255.0,255.0
404,20.200000000000003,-4.663527851747995,2.7304606882463673,-9.927093297293993,-0.28922528859196106,0.1126987051521322,-0.9073010750338106,-0.011381768712137585,0.0044805417468207764,-0.033433487018008634,0.0,70.0,255.0,255.0,255.0
405,20.25,-4.678003444412779,2.736101251131927,-9.972500140133205,-0.28980389003451457,0.11293581350658943,-0.9089772918643746,-0.011557302291897997,0.0049440159569869024,-0.033610303124831375,0.0,70.0,255.0,255.0,255.0
406,20.3,-4.6925082407514465,2.7417542695970263,-10.01799102648043,-0.29038101882115086,0.1131931067478309,-0.9106621053462938,-0.011324714872529285,0.005272610316842119,-0.033766539673862894,0.0,70.0,255.0,255.0,255.0
407,20.35,-4.707041546294894,2.74742056180671,-10.063566350667834,-0.2909363615217675,0.11346307453827364,-0.9123539458317609,-0.010782658871200113,0.005447395425672852,-0.03388201107181743,0.0,70.0,255.0,255.0,255.0
408,20.400000000000002,-4.721601876903623,2.7531005770508536,-10.109226421063607,-0.29145928470827087,0.11373784629039818,-0.9140503064534755,-0.010127107544288805,0.005458292928350872,-0.03393233453738986,0.0,70.0,255.0,255.0,255.0
409,20.450000000000003,-4.736187474765721,2.75879434643575,-10.154971381313182,-0.2919490722761964,0.11400890383110873,-0.9157471792854999,-0.009555754379864112,0.005298010356069582,-0.033890547540771365,0.0,70.0,255.0,255.0,255.0
410,20.5,-4.750796784131243,2.7645014674339645,-10.200801138992157,-0.2924148601462573,0.11426764732600514,-0.9174393612075527,-0.00925950113304097,0.004959919306735117,-0.03373577101246639,0.0,70.0,255.0,255.0,255.0
411,20.55,-4.765428960780347,2.7702211111683503,-10.246715317433937,-0.2928750223895005,0.11450489576178224,-0.9191207563867465,-0.009337805567977142,0.004455182908058575,-0.03346258316323514,0.0,70.0,255.0,255.0,255.0
412,20.6,-4.780084286370193,2.7759519570101427,-10.292713214630831,-0.293348640703055,0.114713165616811,-0.9207856195238762,-0.009727829567385271,0.003860483228201872,-0.03309454590105787,0.0,70.0,255.0,255.0,255.0
413,20.650000000000002,-4.794763824850652,2.7816924277300314,-10.338793879386325,-0.293847805346239,0.11489094408460243,-0.9224302109768523,-0.010289797354001706,0.0033050924463928766,-0.03267786435507958,0.0,70.0,255.0,255.0,255.0
414,20.700000000000003,-4.809469066904817,2.787441051418603,-10.384956235728517,-0.29437762043845517,0.11504367486145028,-0.9240534059593841,-0.010881927055805818,0.002926391187729749,-0.03226380999930001,0.0,70.0,255.0,255.0,255.0
415,20.75,-4.824201586894498,2.7931967952161765,-10.431199219982263,-0.2949359980518196,0.1151835832033754,-0.9256565919767823,-0.011368702499670036,0.002860316139985386,-0.0318906221501436,0.0,70.0,255.0,255.0,255.0
416,20.8,-4.838962666709999,2.7989594097389405,-10.477521894926195,-0.29551449068842217,0.11532970647544882,-0.9272424681743985,-0.011671288962578075,0.0031671708714764435,-0.03158312767315152,0.0,70.0,255.0,255.0,255.0
417,20.85,-4.85375303596334,2.8047297658637214,-10.523923466799703,-0.2961031269480774,0.11550030029052305,-0.9288149047440974,-0.01178965922354891,0.003746196136722446,-0.031377101359808535,0.0,70.0,255.0,255.0,255.0
418,20.900000000000002,-4.8685729794048065,2.810509439767993,-10.570403385400605,-0.29669345661077706,0.11570432608912107,-0.9303801783103793,-0.011749227515167604,0.004404973649752009,-0.031318912004785204,0.0,70.0,255.0,255.0,255.0
419,20.950000000000003,-4.883422381624418,2.8163001984726335,-10.61696148463074,-0.29727804969959415,0.11594079765549825,-0.931946795944576,-0.011577050216970974,0.004943651000477445,-0.03144749917627365,0.0,70.0,255.0,255.0,255.0
420,21.0,-4.898300784374766,2.8221035195335427,-10.663598064995062,-0.29785116163247416,0.11619869118916881,-0.9335249282280067,-0.011309698191830364,0.005162825457283304,-0.03180570309115893,0.0,70.0,255.0,255.0,255.0
421,21.05,-4.913207497787665,2.8279200675915503,-10.710313977453541,-0.2984090195187772,0.11645708020122658,-0.9351273662536919,-0.010976012940666635,0.0049628468926865565,-0.03239921849882421,0.0,70.0,255.0,255.0,255.0
422,21.1,-4.928141686326644,2.8337492275536653,-10.757110801620431,-0.2989487629265408,0.11669497587843747,-0.9367648500778891,-0.010594372699745946,0.004440140150308025,-0.03311620949766336,0.0,70.0,255.0,255.0,255.0
423,21.150000000000002,-4.943102374080319,2.839589565179394,-10.80399046246133,-0.2994684567887518,0.11690109421625738,-0.9384389872034582,-0.010194131746477098,0.0037896050293362293,-0.03376564846444552,0.0,70.0,255.0,255.0,255.0
424,21.200000000000003,-4.958088532005519,2.845439336975291,-10.850954700340777,-0.29996817610118853,0.11707393638137109,-0.9401414149243337,-0.009815559721904066,0.0032055782369422303,-0.03415393222425678,0.0,70.0,255.0,255.0,255.0
425,21.25,-4.973099191690438,2.851296958817531,-10.898004603953764,-0.3004500127609422,0.11722165203995161,-0.9418543804258839,-0.009488542028712743,0.002872344734594634,-0.03409458413301536,0.0,70.0,255.0,255.0,255.0
426,21.3,-4.988133533281613,2.857161502179286,-10.945140138383366,-0.3009170303040598,0.11736117085483055,-0.9435508733376352,-0.009231372561391282,0.0028880149843146796,-0.03350568597806358,0.0,70.0,255.0,255.0,255.0
427,21.35,-5.003190894720844,2.8630330759030143,-10.992359691287527,-0.3013731500170813,0.11751045353838308,-0.9452049490236902,-0.009070146014877878,0.003207835336915821,-0.03252430773574844,0.0,70.0,255.0,255.0,255.0
428,21.400000000000002,-5.018270848283321,2.8689125475331245,-11.039660633285735,-0.3018240449055476,0.11768195438852214,-0.94680330411121,-0.00903694946181588,0.003722014158613618,-0.03141392537244769,0.0,70.0,255.0,255.0,255.0
429,21.450000000000003,-5.033373299211399,2.8748012713418665,-11.087040021698648,-0.3022768449632629,0.11788265495424444,-0.948346341560935,-0.00915399760872404,0.00432074933836013,-0.03044903299915802,0.0,70.0,255.0,255.0,255.0
430,21.5,-5.048498532779647,2.880700813028549,-11.134495267441828,-0.30273944466642,0.11811402932235815,-0.9498482074111259,-0.00944009639729515,0.0049118049276764,-0.029895960375725394,0.0,70.0,255.0,255.0,255.0
431,21.55,-5.063647243678041,2.8866126742741023,-11.18202484243976,-0.3032208546029924,0.11837383544701208,-0.9513359375985075,-0.009892809167766359,0.005432319277165476,-0.02989132430251118,0.0,70.0,255.0,255.0,255.0
432,21.6,-5.078820618239947,2.89253819657325,-11.229628861201679,-0.30372872558319663,0.1186572612500747,-0.952837339841377,-0.010444204079806951,0.005812154866102759,-0.030338447671596214,0.0,70.0,255.0,255.0,255.0
433,21.650000000000002,-5.0940201162363605,2.8984784003991098,-11.277308576423899,-0.3042652750109731,0.11895505093362235,-0.9543697823656672,-0.010977231245767882,0.005957862811900583,-0.031026761933716784,0.0,70.0,255.0,255.0,255.0
434,21.700000000000003,-5.109247145741044,2.9044337016666124,-11.325065839438246,-0.3048264487077734,0.11925304753126476,-0.9559400160347487,-0.011369475484634961,0.005778650516807815,-0.031736649066615996,0.0,70.0,255.0,255.0,255.0
435,21.75,-5.124502761107138,2.9104037051522362,-11.372902578027373,-0.3054022225594366,0.11953291598530313,-0.9575434472723288,-0.0115070630582359,0.005176472850632052,-0.03224157436321207,0.0,70.0,255.0,255.0,255.0
436,21.8,-5.139787367996988,2.9163869932651427,-11.420820184165478,-0.305977155013597,0.11977069481632796,-0.9591641734710699,-0.011336877946099833,0.004127882732207766,-0.03241675573928404,0.0,70.0,255.0,255.0,255.0
437,21.85,-5.155100476608498,2.922380774633869,-11.46881899537448,-0.3065359103540466,0.11994570425852391,-0.9607851228462572,-0.010917513190467076,0.002826155921242801,-0.03232647034323577,0.0,70.0,255.0,255.0,255.0
438,21.900000000000002,-5.170440959032392,2.928381563690995,-11.516898696450104,-0.3070689063326437,0.12005331040845224,-0.9623968205053934,-0.010370489192190746,0.001606441353985133,-0.03211277980614824,0.0,70.0,255.0,255.0,255.0
439,21.950000000000003,-5.185807367241762,2.9343861056747143,-11.56505867742502,-0.30757295927326567,0.12010634839392242,-0.963996400826872,-0.009827587632038615,0.0008096835596660412,-0.031911969802678186,0.0,70.0,255.0,255.0,255.0
440,22.0,-5.201198254959719,2.9403921985303874,-11.613298336532791,-0.3080516650958476,0.12013427876441884,-0.9655880174856613,-0.009419670017685178,0.0007662663732865838,-0.031877695551152385,0.0,70.0,255.0,255.0,255.0
441,22.05,-5.216612533751347,2.946399533551156,-11.661617479173586,-0.3085149262750342,0.12018297503125108,-0.9671841703819872,-0.009219166226515085,0.0016242616814654554,-0.03208771334648475,0.0,70.0,255.0,255.0,255.0
442,22.1,-5.232049747587222,2.9524104960335125,-11.71001675357099,-0.3089735817184991,0.12029670493256539,-0.9687967888203097,-0.009202106794781173,0.0031524988384212804,-0.03243473855523149,0.0,70.0,255.0,255.0,255.0
443,22.150000000000002,-5.247509891923197,2.9584292040444127,-11.758497158055617,-0.3094351369545123,0.12049822491509321,-0.9704276442375104,-0.009305287510930071,0.004904576901454405,-0.03272389040223089,0.0,70.0,255.0,255.0,255.0
444,22.200000000000003,-5.2629932612826735,2.964460318525022,-11.807059517994741,-0.3099041104695921,0.12078716262271083,-0.9720691778605328,-0.009466374452848925,0.006417580279460822,-0.03277509876227214,0.0,70.0,255.0,255.0,255.0
445,22.25,-5.278500302970156,2.9705079203066838,-11.85570407584167,-0.3103817743997972,0.12113998294303929,-0.9737051541137376,-0.009622275519038936,0.007242470979429427,-0.03240372734776287,0.0,70.0,255.0,255.0,255.0
446,22.3,-5.294031438722653,2.9765743168193257,-11.904430033406115,-0.310866338021496,0.12151140972065377,-0.9753095505953091,-0.009733683255763736,0.007148497114917163,-0.03153150509422886,0.0,70.0,255.0,255.0,255.0
447,22.35,-5.309586936772305,2.982659061278749,-11.953235030901201,-0.31135514272537357,0.12185483265453101,-0.9768583046231605,-0.009794992030975891,0.006297368538898951,-0.030338118560635507,0.0,70.0,255.0,255.0,255.0
448,22.400000000000002,-5.325166952995191,2.988759800084779,-12.00211586386843,-0.3118458372245936,0.12214114657454367,-0.9783433624513727,-0.009806589201755145,0.005041731227484192,-0.029149793782679012,0.0,70.0,255.0,255.0,255.0
449,22.450000000000003,-5.340771520494765,2.9948731759362035,-12.051069367146338,-0.3123358016455491,0.12235900577727943,-0.9797732840014284,-0.009760714090489842,0.0037465687487969745,-0.028293182933403216,0.0,70.0,255.0,255.0,255.0
450,22.5,-5.3564005331597455,3.0009957006625068,-12.100093192268574,-0.31282190863364256,0.12251580344942337,-0.981172680744713,-0.009639199934508014,0.0027798403843259933,-0.028091357760651192,0.0,70.0,255.0,255.0,255.0
451,22.55,-5.372053711358129,3.007124756281146,-12.14918663522081,-0.3132997216389999,0.12263698981571203,-0.9825824197774935,-0.00943938746376105,0.0023467848239366873,-0.028693865344386893,0.0,70.0,255.0,255.0,255.0
452,22.6,-5.3877305053236455,3.013259399644078,-12.198351434246323,-0.31376584738001867,0.12275048193181703,-0.9840420672791517,-0.009217925081195233,0.002369821878200895,-0.02988383615409873,0.0,70.0,255.0,255.0,255.0
453,22.650000000000002,-5.403430296096131,3.0193998044743275,-12.247590841948725,-0.3142215141471194,0.12287397200353212,-0.9855708033929034,-0.009068355681751683,0.002659220799783313,-0.03124420719391452,0.0,70.0,255.0,255.0,255.0
454,22.700000000000003,-5.419152656738357,3.025546796844431,-12.296908514585613,-0.31467268294819384,0.12301640401179537,-0.9871664879985431,-0.009084055898345156,0.0030347461239088602,-0.03234662171820446,0.0,70.0,255.0,255.0,255.0
455,22.75,-5.43489756439095,3.031701444875507,-12.346307490748579,-0.3151299197369539,0.123177446615923,-0.9888054655647238,-0.00936889677110031,0.003306232750865945,-0.032758860257331435,0.0,70.0,255.0,255.0,255.0
456,22.8,-5.450665648712053,3.0378645415060235,-12.395789061142086,-0.31560957262530387,0.12334702728688196,-0.9904423740242763,-0.009962566423116215,0.0033655290903933377,-0.03226646010237033,0.0,70.0,255.0,255.0,255.0
457,22.85,-5.466458521653481,3.0440361476041953,-12.445351728151007,-0.31612617637926554,0.12351399952496234,-0.9920321115749609,-0.01073153608288635,0.0032652087505358196,-0.031097352674791523,0.0,70.0,255.0,255.0,255.0
458,22.900000000000002,-5.482278266349979,3.0502159414585197,-12.494992272299582,-0.3166827262335925,0.12367354816193554,-0.9935521092917554,-0.011440920471983418,0.003117842450039987,-0.029702561590383425,0.0,70.0,255.0,255.0,255.0
459,22.950000000000003,-5.49812679427684,3.056403502420389,-12.544706939080182,-0.3172702684264639,0.12382578376996634,-0.9950023677339992,-0.011857001709181247,0.003015332536238091,-0.0285334770467216,0.0,70.0,255.0,255.0,255.0
460,23.0,-5.514005293192626,3.0625985198355163,-12.594492509072982,-0.31786842640451063,0.12397508141555935,-0.9964054569964276,-0.011745259601347868,0.0030391446958599744,-0.028041126618738588,0.0,70.0,255.0,255.0,255.0
461,23.05,-5.529913636917291,3.0688010105619448,-12.644347484779825,-0.3184447943865987,0.12412969823955233,-0.997806480395873,-0.011002747776700517,0.0032314717747006227,-0.028453441098541532,0.0,70.0,255.0,255.0,255.0
462,23.1,-5.545849772631286,3.0750114896594716,-12.694273157112569,-0.3189687011821807,0.12429822859302941,-0.9992508011062817,-0.009822177674045918,0.0035675715580385514,-0.029555937294389878,0.0,70.0,255.0,255.0,255.0
463,23.150000000000002,-5.561810507035509,3.0812308334212477,-12.744272564890453,-0.31942701215400326,0.12448645539535619,-1.000762074125312,-0.008563393665816932,0.003990341801118902,-0.03091636229495265,0.0,70.0,255.0,255.0,255.0
464,23.200000000000003,-5.577792473846686,3.087460135199007,-12.7943493645251,-0.3198250405487624,0.1246972627731413,-1.002342437335777,-0.007593485049284254,0.004444436551587216,-0.032106323244285306,0.0,70.0,255.0,255.0,255.0
465,23.25,-5.593793011090385,3.093700559698562,-12.84450680862403,-0.3201863606589317,0.12493089905051491,-1.0039727064497406,-0.007278036851587899,0.004893179141873816,-0.0327087078622057,0.0,70.0,255.0,255.0,255.0
466,23.3,-5.609811109912579,3.0999532251040587,-12.894746635170074,-0.32055284423392116,0.12518658068732869,-1.0056133081219976,-0.007793528718202936,0.005308583810581524,-0.03250662864822118,0.0,70.0,255.0,255.0,255.0
467,23.35,-5.625848295513777,3.1062192177672947,-12.94506813943623,-0.320965713530752,0.12546175743157306,-1.0072233693145627,-0.00892986977074628,0.005627208979630538,-0.031649713997161655,0.0,70.0,255.0,255.0,255.0
468,23.400000000000002,-5.641907681265654,3.112499400847216,-12.99546897210153,-0.3214458312109958,0.12574930158529174,-1.0087782795217137,-0.010274549153077572,0.005758086382945393,-0.03046117337834886,0.0,70.0,255.0,255.0,255.0
469,23.450000000000003,-5.657992878634877,3.118794147925824,-13.045945967388402,-0.32199316844605974,0.1260375660698676,-1.0102694866523976,-0.011409710774579196,0.005620347831314376,-0.029267803402710513,0.0,70.0,255.0,255.0,255.0
470,23.5,-5.67410699811026,3.1251031574542028,-13.09649592076677,-0.3225868022884537,0.12631133636842318,-1.0117050598619848,-0.011922639613004549,0.005136204004907441,-0.028396023285637284,0.0,70.0,255.0,255.0,255.0
471,23.55,-5.690251558863722,3.131425281562666,-13.1471164733746,-0.3231854324073602,0.12655118647035835,-1.0131090889809613,-0.011603277210614493,0.004286081094395655,-0.028025592093960938,0.0,70.0,255.0,255.0,255.0
472,23.6,-5.706425541350996,3.1377582761012386,-13.197806829664867,-0.32374713000951516,0.12673994447786274,-1.0145076190713809,-0.010629159093156204,0.0032062032456980916,-0.028077933991710324,0.0,70.0,255.0,255.0,255.0
473,23.650000000000002,-5.722626271864674,3.1440992760104525,-13.248567235281739,-0.3242483483166758,0.12687180679492815,-1.0159168823801323,-0.009367593870379665,0.0021372194270785627,-0.028367895241210306,0.0,70.0,255.0,255.0,255.0
474,23.700000000000003,-5.738850376182664,3.1504454567807314,-13.29939851790288,-0.3246838893965531,0.1269536664205706,-1.017344408595502,-0.008187531992476238,0.0013259203752724602,-0.028714864075496394,0.0,70.0,255.0,255.0,255.0
475,23.75,-5.755094660804329,3.1567946426525095,-13.350301676141289,-0.32506710151592344,0.1270043988324554,-1.018788368787682,-0.007451358077315007,0.0009979955148509134,-0.028923236289735144,0.0,70.0,255.0,255.0,255.0
476,23.8,-5.771357086334256,3.163145896663977,-13.401277354781648,-0.3254290252042846,0.1270534659720557,-1.0202367322244754,-0.007352709759089748,0.0012614041660086173,-0.028885455189175957,0.0,70.0,255.0,255.0,255.0
477,23.85,-5.787637563324758,3.169499989249715,-13.452325349363736,-0.3258023724918324,0.12713053924905626,-1.0216769143065996,-0.007784449567349583,0.002019026988353545,-0.028680414839499235,0.0,70.0,255.0,255.0,255.0
478,23.900000000000002,-5.8039373235834395,3.1758589505888826,-13.503445046212308,-0.3262074701610196,0.12725536867089104,-1.0231047737084253,-0.00850495881445923,0.0030603086357494647,-0.02846370253450914,0.0,70.0,255.0,255.0,255.0
479,23.950000000000003,-5.82025831034086,3.182225526116804,-13.554635826734579,-0.32665286837327834,0.1274365701126312,-1.0245232845600505,-0.009273075007509846,0.004156996308557481,-0.028373626076394487,0.0,70.0,255.0,255.0,255.0
480,24.0,-5.836602610420767,3.1886026076001457,-13.605897374668313,-0.32713477766177057,0.1276710683017468,-1.0259421363160648,-0.00984395605030386,0.005095776639896243,-0.02855494763807087,0.0,70.0,255.0,255.0,255.0
481,24.05,-5.852971788107037,3.194992632946979,-13.657230040366185,-0.3276372639783087,0.12794614777662083,-1.0273787793238576,-0.010080335968254417,0.005749327882975663,-0.029072960107434653,0.0,70.0,255.0,255.0,255.0
482,24.1,-5.869366336818598,3.2013972223778078,-13.708635252600699,-0.328142811258596,0.12824600109004436,-1.0288494323268083,-0.01003761140241366,0.0060849615282521086,-0.02979863508940639,0.0,70.0,255.0,255.0,255.0
483,24.150000000000002,-5.885786069232896,3.2078172330559833,-13.760114983598866,-0.3286410251185501,0.12855464392944604,-1.0303586428327982,-0.009846323785467348,0.0060925949803891655,-0.03049822702347882,0.0,70.0,255.0,255.0,255.0
484,24.200000000000003,-5.902230439330453,3.2142526867707524,-13.811671116883979,-0.32912744363714275,0.12885526058808328,-1.0318992550291561,-0.009627767044850799,0.005767120031485717,-0.03094457101298076,0.0,70.0,255.0,255.0,255.0
485,24.25,-5.9186988135966105,3.2207027591147916,-13.863304909101782,-0.32960380182303517,0.12913135593259462,-1.0334530999340963,-0.009512771101949369,0.005106916573849318,-0.030917019777021437,0.0,70.0,255.0,255.0,255.0
486,24.3,-5.935190819512757,3.227165822364012,-13.915016426877388,-0.3300787207473377,0.1293659522454682,-1.0349909570068583,-0.009572006973623814,0.004139233020028499,-0.03031510531315007,0.0,70.0,255.0,255.0,255.0
487,24.35,-5.951706685671344,3.2336393543393385,-13.966804004802468,-0.33056100252039755,0.12954527923459747,-1.0364846104654113,-0.009744172421477515,0.003002805220253535,-0.029291291889244064,0.0,70.0,255.0,255.0,255.0
488,24.400000000000002,-5.9682469197647965,3.2401203502874716,-14.01866488792393,-0.33105313798948544,0.12966623276749356,-1.0379200861957827,-0.009911517605498688,0.001930989764042934,-0.028138820608347714,0.0,70.0,255.0,255.0,255.0
489,24.450000000000003,-5.984811999470293,3.246605977616088,-14.070596013422046,-0.3315521542809474,0.12973837821100176,-1.039298492526246,-0.009968770566626262,0.001172472283750281,-0.027160350945010237,0.0,70.0,255.0,255.0,255.0
490,24.5,-6.001402135192891,3.2530941881085718,-14.122594737176554,-0.33205001504614806,0.1297834799958686,-1.0406361212902837,-0.00980901548643942,0.0009645757129472798,-0.02665697325259231,0.0,70.0,255.0,255.0,255.0
491,24.55,-6.018017000974908,3.2595843256156747,-14.174659625551074,-0.33253305582959136,0.1298348357822965,-1.0419641898515053,-0.009384549889634997,0.0014147656776763995,-0.026779905353713218,0.0,70.0,255.0,255.0,255.0
492,24.6,-6.03465544077585,3.2660776716868014,-14.226791156161704,-0.33298847003511156,0.12992495656363623,-1.043314111825655,-0.008787470472793046,0.0023748665417322457,-0.02738808546478566,0.0,70.0,255.0,255.0,255.0
493,24.650000000000002,-6.051315847978419,3.2725768212720383,-14.27899103673364,-0.33341180287687067,0.1300723224364697,-1.0447029983979839,-0.008186673391197274,0.0035507186907146604,-0.028194602429465476,0.0,70.0,255.0,255.0,255.0
494,24.700000000000003,-6.067996621063537,3.2790849039304484,-14.331261456001503,-0.3338071373742313,0.1302800284327077,-1.0461335720686016,-0.007749924581723633,0.004630729761512242,-0.028907451782345106,0.0,70.0,255.0,255.0,255.0
495,24.75,-6.084696561715842,3.285604824115309,-14.3836043939405,-0.33418679533504303,0.13053539541262094,-1.0475937435762184,-0.0076431483051031535,0.005310771250499613,-0.029227115185292973,0.0,70.0,255.0,255.0,255.0
496,24.8,-6.101415300597042,3.2921384434717105,-14.436020830359125,-0.3345714522047416,0.13081110555775766,-1.0490562835871309,-0.007943593001069615,0.00542893037644987,-0.02899921266461547,0.0,70.0,255.0,255.0,255.0
497,24.85,-6.118153706936316,3.298685934671085,-14.488510022299213,-0.33498115463515,0.13107828845026592,-1.05049366484268,-0.008541470162537479,0.005066772901596295,-0.028362706577844676,0.0,70.0,255.0,255.0,255.0
498,24.900000000000002,-6.134913416060557,3.305246272316737,-14.541070196843393,-0.33542559922099535,0.13131778284791729,-1.0518925542449153,-0.009225425193903902,0.004416252023098366,-0.027595590186813013,0.0,70.0,255.0,255.0,255.0
499,24.950000000000003,-6.151696266858416,3.3118177129558766,-14.593699277723704,-0.3359036971545404,0.13151991365257576,-1.0532532238613612,-0.009778757213396716,0.0036716949175286118,-0.026970214885935206,0.0,70.0,255.0,255.0,255.0
500,25.0,-6.168503785776011,3.3183982636819946,-14.646395519229529,-0.336403474942335,0.13168495233967015,-1.0545895757335089,-0.009982400617136733,0.0030203113130511383,-0.026766500737807064,0.0,70.0,255.0,255.0,255.0
501,25.05,-6.185336614352649,3.3249862081898436,-14.699158235297055,-0.33690193721625405,0.13182194478388087,-1.055929873935142,-0.009727791392588614,0.002575060602305612,-0.02712310412817942,0.0,70.0,255.0,255.0,255.0
502,25.1,-6.202193979497636,3.3315804581603827,-14.751988506623043,-0.3373762540815939,0.1319424583999007,-1.0573018861463268,-0.009132056802663158,0.0023534730871244136,-0.027875680299338512,0.0,70.0,255.0,255.0,255.0
503,25.150000000000002,-6.2190742397608085,3.3381804540298337,-14.804888423911688,-0.33781514289652037,0.13205729209259331,-1.0587174419650758,-0.008426217908308331,0.0023505203026630284,-0.028708444749270257,0.0,70.0,255.0,255.0,255.0
504,25.200000000000003,-6.235975493787288,3.344786187369642,-14.85786025081955,-0.3382188758724247,0.132177510430167,-1.0601727306212538,-0.007841619991122428,0.0025681782143127663,-0.029311828533096218,0.0,70.0,255.0,255.0,255.0
505,25.25,-6.252896127348051,3.3513982050728504,-14.910905696973813,-0.3385993048956326,0.1323141099140246,-1.0616486248183854,-0.0076112119306692705,0.0030160021454506136,-0.029374947130200724,0.0,70.0,255.0,255.0,255.0
506,25.3,-6.2698354242768515,3.3580175983610445,-14.964025113301389,-0.33897999706549165,0.13247911064471207,-1.063110225334274,-0.007851814855097672,0.0036785661419624915,-0.02874799786347637,0.0,70.0,255.0,255.0,255.0
507,25.35,-6.2867941270546,3.3646461161373216,-15.01721671950724,-0.3393844863811424,0.13268196652822084,-1.064523424604733,-0.008444894700598837,0.0044384955889764655,-0.027621751712381126,0.0,70.0,255.0,255.0,255.0
508,25.400000000000002,-6.303773872914966,3.3712857950138666,-15.070477455761862,-0.33982448653555153,0.13292296020360972,-1.065872400505512,-0.00915511109775835,0.005100827605364344,-0.026364290489055975,0.0,70.0,255.0,255.0,255.0
509,25.450000000000003,-6.320776575708155,3.3779384121576825,-15.123803959557792,-0.3402999974909182,0.13319204928875727,-1.0671598536536386,-0.009748189395963891,0.005463331153121587,-0.025341818300717023,0.0,70.0,255.0,255.0,255.0
510,25.5,-6.3378038726640575,3.3846049999427423,-15.177193441127226,-0.3407993054751479,0.13346929331892188,-1.0684065823355837,-0.009988788957215888,0.005323698753123551,-0.024909654796623215,0.0,70.0,255.0,255.0,255.0
511,25.55,-6.35485650625567,3.3912853414895747,-15.23064461779135,-0.3412988763866398,0.13372441916406963,-1.069650819133301,-0.00975837576042693,0.0045963624756506505,-0.025245277378438402,0.0,70.0,255.0,255.0,255.0
512,25.6,-6.3719337603027215,3.3979774418591493,-15.284158523040556,-0.3417751430511906,0.13392892956648694,-1.0709311100734276,-0.00917377231903771,0.003458791643318193,-0.026187429401502982,0.0,70.0,255.0,255.0,255.0
513,25.650000000000002,-6.389034020560789,3.4046782344462234,-15.337737728798693,-0.3422162536185436,0.13407029832840145,-1.0722695620734513,-0.008467929775068939,0.002241600511343478,-0.027403437583473078,0.0,70.0,255.0,255.0,255.0
514,25.700000000000003,-6.406155385664576,3.4113844716919894,-15.391385479247901,-0.3426219360286975,0.1341530896176213,-1.0736714538317749,-0.007872195852520747,0.0012840449586715152,-0.028554837659378052,0.0,70.0,255.0,255.0,255.0
515,25.75,-6.423296214163659,3.4180935434079855,-15.44510487418187,-0.34300347320379565,0.1341987028242686,-1.075125045839389,-0.007617594944520079,0.0009171748696079618,-0.029314452331874463,0.0,70.0,255.0,255.0,255.0
516,25.8,-6.440455732984955,3.4248043419744163,-15.49889798383184,-0.3433836955231495,0.1342448071045821,-1.0766028990649623,-0.007821255529982807,0.0013030702027183594,-0.029504832015092575,0.0,70.0,255.0,255.0,255.0
517,25.85,-6.457634583715974,3.4315180241184438,-15.552765164088367,-0.34378559875679393,0.13432900984454044,-1.0780755290408983,-0.00837460809748336,0.0022764543879727483,-0.029197574970041273,0.0,70.0,255.0,255.0,255.0
518,25.900000000000002,-6.474834292860635,3.4382372429588703,-15.60670553673593,-0.34422115633289785,0.13447245254337936,-1.0795226565619664,-0.009058577727127926,0.003501814638484646,-0.02857207572866116,0.0,70.0,255.0,255.0,255.0
519,25.950000000000003,-6.492056699349264,3.4449652693727817,-15.660717429744563,-0.3446914565295067,0.1346791913083889,-1.0809327366137644,-0.00965645376824753,0.004634428406369295,-0.02781263059592476,0.0,70.0,255.0,255.0,255.0
520,26.0,-6.5093034385135855,3.4517051620897092,-15.714798810397307,-0.3451868017097226,0.1349358953840163,-1.082303919621559,-0.009956868560490051,0.005335620415847231,-0.027112535874529442,0.0,70.0,255.0,255.0,255.0
521,26.05,-6.526575379520236,3.4584588589111833,-15.76894782170672,-0.34568714338555573,0.13521275334997362,-1.0836439902012174,-0.009850028692337531,0.00542529610743081,-0.02658714281338348,0.0,70.0,255.0,255.0,255.0
522,26.1,-6.543872152852141,3.4652264374247066,-15.823163209417428,-0.34617180457895635,0.13547842499475937,-1.0849626339028973,-0.009413203216812605,0.0050044350942801685,-0.026219473516064795,0.0,70.0,255.0,255.0,255.0
523,26.150000000000002,-6.5611925599781316,3.4720067014106593,-15.877444085097009,-0.346628463707237,0.13571319685940164,-1.0862659375528239,-0.008812351391540574,0.0043012574848066976,-0.02595357418755384,0.0,70.0,255.0,255.0,255.0
524,26.200000000000003,-6.578534999222865,3.4787977571106468,-15.93178980317271,-0.3470530397181104,0.13590855074324004,-1.0875579913216527,-0.008215275787382126,0.003545327662868303,-0.025746528068104624,0.0,70.0,255.0,255.0,255.0
525,26.25,-6.595897863949943,3.4855975564849833,-15.986199884229174,-0.3474499912859752,0.13606772962568847,-1.0888405903596343,-0.007790921488926017,0.0029683154946003043,-0.025539460112433687,0.0,70.0,255.0,255.0,255.0
526,26.3,-6.613279998351462,3.4924045300732156,-16.040673862208674,-0.347832131867003,0.13620538229270007,-1.090111937332896,-0.007631403593055808,0.002701293152762574,-0.02530053612712635,0.0,70.0,255.0,255.0,255.0
527,26.35,-6.630681077136643,3.4992180947142533,-16.095211077962464,-0.3482131316452808,0.13633785894096473,-1.091370643972347,-0.007688942671979504,0.002701236470681323,-0.025082759405670174,0.0,70.0,255.0,255.0,255.0
528,26.400000000000002,-6.64810131151599,3.506038315967312,-16.14981092660591,-0.34860102613420096,0.1364755059397682,-1.092620213273463,-0.007856492232072299,0.0028594025089478947,-0.02497455992092057,0.0,70.0,255.0,255.0,255.0
529,26.450000000000003,-6.665541179750063,3.51286564530823,-16.20447309928981,-0.348998780868488,0.13662379919185952,-1.093868099964439,-0.008028643548474435,0.0030766618745126095,-0.02504834337742068,0.0,70.0,255.0,255.0,255.0
530,26.5,-6.683001189602839,3.519700695886498,-16.259197736602353,-0.3494038904890484,0.13678317212721947,-1.095125047611205,-0.00808746413127892,0.0032511642256594087,-0.02538155840667855,0.0,70.0,255.0,255.0,255.0
531,26.55,-6.700481568798968,3.526543962520952,-16.31398560405093,-0.3498075272816159,0.13694891561442546,-1.0964062558051069,-0.007971583042554187,0.0033234706752871546,-0.02599831174592282,0.0,70.0,255.0,255.0,255.0
532,26.6,-6.717981942331001,3.5333955874479406,-16.368838362182863,-0.3502010487933038,0.13711551919474818,-1.0977248787857974,-0.007751958496449163,0.0033115514238790666,-0.02676864970183601,0.0,70.0,255.0,255.0,255.0
533,26.650000000000002,-6.735501673678298,3.540255514440427,-16.42375809192951,-0.3505827231312608,0.13728007075681337,-1.0990831207752905,-0.0075599081180932615,0.003259360917962084,-0.027467346968990114,0.0,70.0,255.0,255.0,255.0
534,26.700000000000003,-6.753040214644127,3.547123594523622,-16.478746674260393,-0.35095703960511315,0.1374414552865444,-1.1004716134826964,-0.007517236265464078,0.0032018243729670104,-0.027867837350825653,0.0,70.0,255.0,255.0,255.0
535,26.75,-6.7705973776388095,3.5539996599690813,-16.53380525327778,-0.35133444675780723,0.13760025319411007,-1.101869904510373,-0.007755166042056061,0.0031749996307173234,-0.027742324907364946,0.0,70.0,255.0,255.0,255.0
