idx,t,px,py,pz,vx,vy,vz,ax,ay,az,yaw,mode,ledr,ledg,ledb
0,0.0,-13.500000000000007,-10.500000000000009,1.8306358269933262e-18,0.0008522670708188684,0.0001503402152636113,0.0004696830253480942,-0.03234844713873031,-0.0010022681014021373,-0.026331220168987323,0.0,70.0,255.0,255.0,255.0
1,0.05,-13.499957386646466,-10.499992482989246,2.348415126740654e-05,-0.0007651552861176469,0.00010022681019350443,-0.0008468779831012718,-0.04847911481569156,-0.0013781186396499834,-0.039505427732357566,0.0,70.0,255.0,255.0,255.0
2,0.1,-13.500076515528619,-10.49998997731899,-8.468779831012536e-05,-0.0039956444107502875,1.252835129861296e-05,-0.0034808597478876626,-0.06452267070802264,-0.001503402152636113,-0.052696830253481014,0.0,70.0,255.0,255.0,255.0
3,0.15000000000000002,-13.500356951087541,-10.499991230154116,-0.00032460182352135977,-0.007217422356919911,-5.0113405070106865e-05,-0.0061165610084493735,-0.06434844714195975,-0.0010022681040666725,-0.05273122016899022,0.0,70.0,255.0,255.0,255.0
4,0.2,-13.50079825776431,-10.499994988659497,-0.0006963438991550627,-0.010430489124946263,-8.76984591080543e-05,-0.008753981764786685,-0.06417056853251779,-0.000497334038129793,-0.05276633155125612,0.0,70.0,255.0,255.0,255.0
5,0.25,-13.501400000000036,-10.500000000000027,-0.0012000000000000283,-0.01363447921017169,-9.984680888308617e-05,-0.011393194163574986,-0.06397167343710208,2.9450118788076907e-05,-0.052805591367379875,0.0,70.0,255.0,255.0,255.0
6,0.30000000000000004,-13.502161705685328,-10.500004973340385,-0.0018356633155125614,-0.01682765646865647,-8.47534472292466e-05,-0.014034540901524672,-0.06374617778064362,0.00058388993657843,-0.0528501018582531,0.0,70.0,255.0,255.0,255.0
7,0.35000000000000003,-13.503082765646901,-10.50000847534475,-0.0026034540901524955,-0.020009096988236053,-4.1457815225243166e-05,-0.016678204349400295,-0.06354169860660619,0.0011164796651641495,-0.0528904639152657,0.0,70.0,255.0,255.0,255.0
8,0.4,-13.504162615384152,-10.500009119121907,-0.003503483750452591,-0.02318182632931709,2.689451928716835e-05,-0.019323587293051243,-0.0634342810442945,0.0015481578850895517,-0.052911667021679175,0.0,70.0,255.0,255.0,255.0
9,0.45,-13.505400948279833,-10.50000578589282,-0.00453581281945762,-0.026352525092665502,0.000113357973283712,-0.021969371051568213,-0.06349274930315119,0.0018138175233772813,-0.052898800864479185,0.0,70.0,255.0,255.0,255.0
10,0.5,-13.506797867893418,-10.499997783324579,-0.005700420855609413,-0.02953110125963221,0.00020827627162489648,-0.02461346737949916,-0.0637912114276773,0.0018670343671089995,-0.05283094290765868,0.0,70.0,255.0,255.0,255.0
11,0.55,-13.508354058405796,-10.499984958265658,-0.006997159557407536,-0.03273164623543323,0.00030006140999461195,-0.02725246534233408,-0.06435393082853125,0.001692432206112926,-0.05270127929849419,0.0,70.0,255.0,255.0,255.0
12,0.6000000000000001,-13.510071032516962,-10.49996777718358,-0.00842566738984282,-0.03596649434248533,0.0003775194922361891,-0.02988359530934858,-0.06506571505671133,0.0013257823486156894,-0.052549811360617024,0.0,70.0,255.0,255.0,255.0
13,0.65,-13.511950707840045,-10.499947206316435,-0.009985519088342394,-0.039238217741104364,0.0004326396448561809,-0.032507446478395784,-0.06572550682868439,0.0008419833230632889,-0.052443795828549314,0.0,70.0,255.0,255.0,255.0
14,0.7000000000000001,-13.513994854291072,-10.499924513219094,-0.0116764120376824,-0.04253904502535377,0.000461717824542518,-0.03512797489220351,-0.06613277500502335,0.00033050747099139244,-0.052447463646866505,0.0,70.0,255.0,255.0,255.0
15,0.75,-13.51620461234258,-10.49990103453398,-0.013498316577562746,-0.0458514952416067,0.00046569039195532014,-0.037752192843082434,-0.06609520091078736,-0.00012809084939391369,-0.05262420039733838,0.0,70.0,255.0,255.0,255.0
16,0.8,-13.518580003815233,-10.499877944179898,-0.015451631321990643,-0.04914856511643251,0.0004489087396031266,-0.04039039493193735,-0.06552684479501636,-0.00048361827769127785,-0.05299930194832721,0.0,70.0,255.0,255.0,255.0
17,0.8500000000000001,-13.521119468854224,-10.49985614366002,-0.01753735607075648,-0.052404179721108335,0.00041732856418619235,-0.043052123037915155,-0.06456168825330622,-0.0007032454234945362,-0.05350851908049514,0.0,70.0,255.0,255.0,255.0
18,0.9,-13.523820421787343,-10.49983621132348,-0.01975684362578216,-0.05560473394176313,0.000378584197253673,-0.045741246839986864,-0.06345912287635258,-0.0007516156516729211,-0.05403408206505686,0.0,70.0,255.0,255.0,255.0
19,0.9500000000000001,-13.5266799422484,-10.499818285240295,-0.022111480754755167,-0.05875009200874359,0.00034216699901890024,-0.04845553124442084,-0.06248841174762987,-0.0005963602275116386,-0.05445857065528234,0.0,70.0,255.0,255.0,255.0
20,1.0,-13.529695430988218,-10.499801994623578,-0.024602396750224242,-0.061853575116526116,0.0003189481745025091,-0.0511871039055151,-0.061907984929199245,-0.00019868029355052386,-0.05468027415100746,0.0,70.0,255.0,255.0,255.0
21,1.05,-13.532865299760052,-10.499786390422845,-0.027230191145306677,-0.06494089050166352,0.00032229896966384786,-0.05392355865952159,-0.06185197670536269,0.0004430665464738581,-0.05464771337439743,0.0,70.0,255.0,255.0,255.0
22,1.1,-13.536189520038384,-10.499769764726611,-0.0299947526161764,-0.06803877278706238,0.00036325482914989493,-0.05665187524295484,-0.06223942004250915,0.0012063601831258097,-0.05438058784187905,0.0,70.0,255.0,255.0,255.0
23,1.1500000000000001,-13.539669177038759,-10.49975006493993,-0.03289537866960216,-0.07116483250591443,0.00044293498797642883,-0.05936161744370949,-0.06288611355493856,0.0018836401219246568,-0.05393623954758828,0.0,70.0,255.0,255.0,255.0
24,1.2000000000000002,-13.543306003288976,-10.499725471227814,-0.03593091436054735,-0.07432738414255624,0.0005516188413423606,-0.06204549919771367,-0.06360029129020006,0.002262672366803997,-0.05338445419820689,0.0,70.0,255.0,255.0,255.0
25,1.25,-13.547101915453014,-10.499694903055795,-0.03909992858937353,-0.07752486163493444,0.0006692022246568285,-0.06470006286353018,-0.0641928593722696,0.002130830672975037,-0.05279474961868216,0.0,70.0,255.0,255.0,255.0
26,1.3,-13.551058489452469,-10.499658551005348,-0.04240092064690037,-0.0807466700797832,0.0007647019086398643,-0.06732497415958189,-0.06455298731093961,0.0013970397386486866,-0.05221553219976888,0.0,70.0,255.0,255.0,255.0
27,1.35,-13.555176582460993,-10.499618432864931,-0.04583242600533172,-0.0839801603660284,0.0008089061985216972,-0.06992161608350707,-0.06468520034026426,0.0002440517759438876,-0.05168726475012278,0.0,70.0,255.0,255.0,255.0
28,1.4000000000000001,-13.559456505489072,-10.499577660385496,-0.049393082255251075,-0.08721519011380963,0.0007891070862342531,-0.07249370063459416,-0.06463017581737063,-0.000987513601558021,-0.05126450286813758,0.0,70.0,255.0,255.0,255.0
29,1.4500000000000002,-13.563898101472374,-10.499539522156308,-0.05308179606879113,-0.09044317794776546,0.0007101548383658951,-0.07504806637032083,-0.06442473544598926,-0.0019487814538976522,-0.05100258691086296,0.0,70.0,255.0,255.0,255.0
30,1.5,-13.568500823283848,-10.49950664490166,-0.05689788889228316,-0.09365766365840855,0.0005942289408444879,-0.07759395932568046,-0.06411255893450374,-0.00229667036979464,-0.05094072737426153,0.0,70.0,255.0,255.0,255.0
31,1.55,-13.573263867838214,-10.499480099262223,-0.06084119200135918,-0.09685443384121584,0.0004804878013864311,-0.08014213910774698,-0.06372833512280351,-0.0018641392532714463,-0.051091183467554674,0.0,70.0,255.0,255.0,255.0
32,1.6,-13.57818626666797,-10.49945859612152,-0.06491210280305786,-0.1000304971706889,0.0004078150155173432,-0.08270307767243593,-0.0633006177576334,-0.0008324507373203005,-0.05142681003408589,0.0,70.0,255.0,255.0,255.0
33,1.6500000000000001,-13.583266917555283,-10.499439317760672,-0.06911149976860277,-0.10318449561697918,0.00039724272765440105,-0.08528482011115557,-0.06287402233606798,0.0004354585721344506,-0.05188761378173007,0.0,70.0,255.0,255.0,255.0
34,1.7000000000000002,-13.588504716229668,-10.499418871848755,-0.07344058481417341,-0.1063178994042957,0.0004513608727307883,-0.08789183905060893,-0.06250645457104298,0.0015663928438769403,-0.052399510512657343,0.0,70.0,255.0,255.0,255.0
35,1.75,-13.593898707495713,-10.499394181673399,-0.07790068367366366,-0.10943514107408348,0.0005538820120420951,-0.0905247711624213,-0.062252942186624693,0.002183869455052445,-0.05290229426422183,0.0,70.0,255.0,255.0,255.0
36,1.8,-13.599448230337076,-10.499363483647551,-0.08249306193041554,-0.11254319362295817,0.0006697478182360328,-0.09318206847703112,-0.0621403854845326,0.002093456667395799,-0.05335353346381383,0.0,70.0,255.0,255.0,255.0
37,1.85,-13.605153026858009,-10.499327206891575,-0.08721889052136678,-0.11564917962253674,0.000763227678781675,-0.09586012450880269,-0.06214962466710716,0.0014547954625854231,-0.0536891314771637,0.0,70.0,255.0,255.0,255.0
38,1.9000000000000001,-13.61101314829933,-10.499287160879673,-0.09207907438129581,-0.11875815608966889,0.0008152273644945751,-0.09855098162474749,-0.062236438800589156,0.0005957958629565496,-0.05382056648046557,0.0,70.0,255.0,255.0,255.0
39,1.9500000000000002,-13.617028842466976,-10.499245684155126,-0.09707398868384153,-0.12187282350259565,0.0008228072650773299,-0.10124218115684924,-0.06234944626957173,-0.00015641696187174148,-0.05366659714575034,0.0,70.0,255.0,255.0,255.0
40,2.0,-13.62320043064959,-10.499204880153165,-0.10220329249698074,-0.12499310071662606,0.000799585668307401,-0.10391764133932252,-0.06243166299597647,-0.00046286339383527775,-0.053146132864888285,0.0,70.0,255.0,255.0,255.0
41,2.0500000000000003,-13.629528152538638,-10.499165725588295,-0.10746575281777378,-0.1281159898021933,0.0007765209256938022,-0.10655679444333807,-0.06245063575889276,-0.00015034009717140862,-0.05223985750235777,0.0,70.0,255.0,255.0,255.0
42,2.1,-13.636012029629809,-10.499127228060596,-0.11285897194131454,-0.13123816429251534,0.0007845516585902601,-0.1091416270895583,-0.0624218159746448,0.0006069285607424035,-0.05109927477987136,0.0,70.0,255.0,255.0,255.0
43,2.15,-13.64265196896789,-10.499087270422436,-0.1183799155267296,-0.13435817139965778,0.0008372137817680425,-0.11166672192132521,-0.0623784508995584,0.0014685374637224413,-0.04999002705631944,0.0,70.0,255.0,255.0,255.0
44,2.2,-13.649447846769775,-10.499043506682419,-0.12402564413344706,-0.13747600938247118,0.0009314054049625042,-0.11414062979519024,-0.06234955988428936,0.002105615329028865,-0.04918584915609564,0.0,70.0,255.0,255.0,255.0
45,2.25,-13.656399569906137,-10.49899412988194,-0.12979397850624863,-0.1405931273880867,0.001047775314670929,-0.11658530683693477,-0.06236837785795757,0.002187677360687701,-0.04894916495221113,0.0,70.0,255.0,255.0,255.0
46,2.3000000000000003,-13.663507159508583,-10.498938729150952,-0.13568417481714054,-0.14371284716826693,0.0011501731410312743,-0.11903554629041135,-0.06245035819283373,0.0015542440475968533,-0.04940134888106046,0.0,70.0,255.0,255.0,255.0
47,2.35,-13.670770854622964,-10.498879112567836,-0.14169753313528977,-0.1468381632073701,0.0012031997194306143,-0.12152544172504082,-0.06256311143530979,0.0004046697814175104,-0.050384818354407,0.0,70.0,255.0,255.0,255.0
48,2.4000000000000004,-13.67819097582932,-10.498818409179009,-0.14783671898964462,-0.1499691583117979,0.0011906401191730254,-0.12407402812585205,-0.06264975760181812,-0.0008762860433719766,-0.05158659802154686,0.0,70.0,255.0,255.0,255.0
49,2.45,-13.685767770454143,-10.49876004855592,-0.15410493594787497,-0.1531031389675519,0.0011155711150934167,-0.1266841015271955,-0.06265902747806251,-0.0019066970361691915,-0.052677745157600486,0.0,70.0,255.0,255.0,255.0
50,2.5,-13.693501289726075,-10.4987068520675,-0.16050512914236417,-0.15623506105960416,0.0009999704155561062,-0.1293418026416121,-0.06254685354356582,-0.002311901992513299,-0.053333198002233906,0.0,70.0,255.0,255.0,255.0
51,2.5500000000000003,-13.701391276560104,-10.498660051514364,-0.16703911621203618,-0.15935782432190848,0.0008843809158420868,-0.1320174213274189,-0.06229413193690192,-0.0019062631309907374,-0.053381973080632306,0.0,70.0,255.0,255.0,255.0
52,2.6,-13.709437072158266,-10.498618413975915,-0.17370687127510606,-0.16246447425329436,0.0008093441024570325,-0.13467999994967533,-0.06192750984634898,-0.0008754911371866569,-0.05293049609157163,0.0,70.0,255.0,255.0,255.0
53,2.6500000000000004,-13.717637723985433,-10.498579117104118,-0.18050711620700371,-0.16555057530654338,0.0007968318021234211,-0.13731047093657606,-0.06150158629267821,0.0004056509991912094,-0.05221369740761317,0.0,70.0,255.0,255.0,255.0
54,2.7,-13.72599212968892,-10.498538730795703,-0.18743791836876367,-0.16861463288256218,0.0008499092023761534,-0.13990136969043665,-0.0610738173834946,0.00155511220949478,-0.05147025646057013,0.0,70.0,255.0,255.0,255.0
55,2.75,-13.73449918727369,-10.49849412618388,-0.19449725317604738,-0.17165795704489284,0.0009523430230728991,-0.14245749658263307,-0.060688217291016144,0.00218794925519461,-0.050946015066821726,0.0,70.0,255.0,255.0,255.0
56,2.8000000000000003,-13.74315792539341,-10.498443496493396,-0.20168366802702697,-0.1746834546116638,0.0010687041278956144,-0.14499597119711882,-0.060373114058798194,0.0021047478712787893,-0.05077630658195664,0.0,70.0,255.0,255.0,255.0
57,2.85,-13.751967532734856,-10.49838725577109,-0.20899685029575926,-0.17769526845077266,0.001162817810200778,-0.14753512724082873,-0.060164145217100895,0.0014663390576430402,-0.050888628514728085,0.0,70.0,255.0,255.0,255.0
58,2.9000000000000004,-13.760927452238487,-10.498327214712376,-0.21643718075110985,-0.18069986913337388,0.0012153380336599184,-0.15008483404859163,-0.06010660118995759,0.0006037985963658343,-0.051124859434259484,0.0,70.0,255.0,255.0,255.0
59,2.95,-13.770037519648193,-10.498265721967725,-0.22400533370061843,-0.18370592856976842,0.0012231976698373614,-0.15264761318425468,-0.06023898970131114,-0.0001533788424268323,-0.051340343219241635,0.0,70.0,255.0,255.0,255.0
60,3.0,-13.779298045095464,-10.498204894945392,-0.23170194206953532,-0.186723768103505,0.0012000001494172352,-0.1552188683705158,-0.06060423999691977,-0.0004639509745274495,-0.051394816322561376,0.0,70.0,255.0,255.0,255.0
61,3.0500000000000003,-13.788709896458544,-10.498145721952783,-0.23952722053767,-0.1897663525694604,0.0011768025723846165,-0.15778709481651082,-0.06120772418309883,-0.00015338103409590076,-0.051212940451683675,0.0,70.0,255.0,255.0,255.0
62,3.1,-13.79827468035241,-10.498087214688153,-0.2474806515511864,-0.19284454052181488,0.0011846620460076451,-0.16034016241568416,-0.06193507012390853,0.00060379458250992,-0.050837693812194606,0.0,70.0,255.0,255.0,255.0
63,3.1500000000000004,-13.807994350510725,-10.498027255748182,-0.2555612367792384,-0.19595985958185125,0.0012371820306356085,-0.16287086419773028,-0.06259116978455381,0.0014663341026732724,-0.05036416089262974,0.0,70.0,255.0,255.0,255.0
64,3.2,-13.817870666310595,-10.49796349648509,-0.2637677379709594,-0.19910365750027026,0.0013312954562749724,-0.16537657850494714,-0.0629779627388416,0.002104743487052474,-0.049881657375752675,0.0,70.0,255.0,255.0,255.0
65,3.25,-13.827904716260752,-10.497894126202555,-0.27209889462973313,-0.2022576558557354,0.001447656379340856,-0.16785902993530555,-0.06290284137033808,0.0021879478824260445,-0.04946670099494899,0.0,70.0,255.0,255.0,255.0
66,3.3000000000000003,-13.838096431896169,-10.497818730847156,-0.28055364096449,-0.20539394163730407,0.0015500902445175768,-0.17032324860444203,-0.062281676855313606,0.001555116589990746,-0.04916521832461496,0.0,70.0,255.0,255.0,255.0
67,3.35,-13.848444110424483,-10.497739117178103,-0.28913121949017734,-0.20848582354126677,0.0016031680383399305,-0.17277555176776704,-0.061261821374536396,0.0004056621005332772,-0.04899789227377216,0.0,70.0,255.0,255.0,255.0
68,3.4000000000000004,-13.858945014250295,-10.497658414043322,-0.2978311961412667,-0.2115201237747577,0.0015906564545709045,-0.17522303783181925,-0.06012415090754786,-0.0008754753318740427,-0.048981200957909365,0.0,70.0,255.0,255.0,255.0
69,3.45,-13.869596122801958,-10.497580051532646,-0.30665352327335926,-0.21449823863202155,0.0015156205051525262,-0.17767367186355798,-0.059161420413289534,-0.0019062477862874516,-0.04912631399102696,0.0,70.0,255.0,255.0,255.0
70,3.5,-13.880394838113498,-10.497506851992807,-0.3155985633276225,-0.21743626581608666,0.0014000316759421594,-0.18013566923092195,-0.05866439452120176,-0.002311896500195587,-0.04944234240164547,0.0,70.0,255.0,255.0,255.0
71,3.5500000000000003,-13.891339749383567,-10.497440048365052,-0.32466709019645146,-0.22036467808414173,0.0012844308551329675,-0.18261790610372253,-0.058778855111540906,-0.0019067123668392583,-0.04992049860417236,0.0,70.0,255.0,255.0,255.0
72,3.6,-13.902431305921912,-10.497378408907293,-0.33386035393799474,-0.22331415132724075,0.0012093604392582336,-0.18512771909133918,-0.059369532491082566,-0.0008763264343514265,-0.050489897931849104,0.0,70.0,255.0,255.0,255.0
73,3.6500000000000004,-13.913671164516291,-10.497319112321126,-0.3431798621055854,-0.22630163133325,0.0011967982116978249,-0.18766689589690744,-0.06016033847195956,0.00040461151513682125,-0.051030196114904,0.0,70.0,255.0,255.0,255.0
74,3.7,-13.925061469055237,-10.497258729086123,-0.3526270435276855,-0.2293301851744367,0.0012498215907719157,-0.19023073870282958,-0.06086978217734185,0.0015541870519442114,-0.05141411230117354,0.0,70.0,255.0,255.0,255.0
75,3.75,-13.936604183033735,-10.497194130162049,-0.36220293597586833,-0.23238860955098417,0.001352216916892246,-0.1928083071270248,-0.061211608517197647,0.0021876567657841406,-0.05151992007445538,0.0,70.0,255.0,255.0,255.0
76,3.8000000000000003,-13.948300330010335,-10.497123507394434,-0.37190787424038796,-0.23545134602615647,0.0014685872673503297,-0.19538273071027512,-0.061036842096839905,0.0021056722710355302,-0.05129227443814721,0.0,70.0,255.0,255.0,255.0
77,3.85,-13.96014931763635,-10.497047271435314,-0.38174120904689585,-0.23849229376066816,0.001562784143995799,-0.1979375345708395,-0.06046638898791201,0.0014686879262981734,-0.05080699152331114,0.0,70.0,255.0,255.0,255.0
78,3.9000000000000004,-13.972149559386402,-10.496967228980035,-0.3917016276974719,-0.24149798492494767,0.001615456059980147,-0.20046342986260623,-0.05974731571498637,0.0006071458216183601,-0.05021437821889907,0.0,70.0,255.0,255.0,255.0
79,3.95,-13.984299116128845,-10.496885725829316,-0.40178755203315647,-0.2444670253321668,0.001623498726157635,-0.20295897239272942,-0.05911982383519643,-0.0001501274617510262,-0.049676723983782534,0.0,70.0,255.0,255.0,255.0
80,4.0,-13.996596261919619,-10.496804879107419,-0.41199752493674485,-0.24740996730846732,0.0016004433138050445,-0.2054311022609845,-0.05882110614372493,-0.0004627865067163839,-0.049365995948524866,0.0,70.0,255.0,255.0,255.0
81,4.05,-14.009040112859692,-10.496725681497935,-0.4223306622592549,-0.2503491359465393,0.0015772200754859966,-0.2078955719875819,-0.058973636643955274,-0.0001566293979848865,-0.049369890822675844,0.0,70.0,255.0,255.0,255.0
82,4.1000000000000005,-14.021631175514273,-10.49664715709987,-0.43278708213550304,-0.25330733097286284,0.0015847803740065558,-0.21036809134325207,-0.0594795036295892,0.0005952344023896217,-0.049598499611247515,0.0,70.0,255.0,255.0,255.0
83,4.15,-14.034370845956978,-10.496567203460534,-0.4433674713935801,-0.2562970863094982,0.0016367435157249588,-0.21285542194870666,-0.06013580659125495,0.0014539846864281003,-0.04987676653402384,0.0,70.0,255.0,255.0,255.0
84,4.2,-14.047260884145222,-10.496483482748298,-0.4540726243303737,-0.25932091163198834,0.0017301788426493658,-0.21535576799665446,-0.060744349056562896,0.002092663122610361,-0.05003190551662873,0.0,70.0,255.0,255.0,255.0
85,4.25,-14.060302937120177,-10.49639418557627,-0.46490304819324557,-0.2623715212151545,0.0018460098279859949,-0.21785861250036953,-0.06112000420568364,0.0021835825007698872,-0.049876142751476005,0.0,70.0,255.0,255.0,255.0
86,4.3,-14.073498036266738,-10.4962988817655,-0.47585848558041066,-0.2654329120525567,0.0019485370927263546,-0.22034338227180206,-0.061162037900786004,0.0015671856454346766,-0.049321588844541964,0.0,70.0,255.0,255.0,255.0
87,4.3500000000000005,-14.086846228325433,-10.496199331866997,-0.4869373864204258,-0.2684877250052331,0.0020027283925294626,-0.22279077138482373,-0.06090100441777935,0.000437553950938252,-0.0485217139943539,0.0,70.0,255.0,255.0,255.0
88,4.4,-14.100346808767261,-10.496098608926246,-0.49813756271889303,-0.27152301249433464,0.0019922924878201798,-0.22519555367123745,-0.060424049994445284,-0.0008294248925011516,-0.04775585168238505,0.0,70.0,255.0,255.0,255.0
89,4.45,-14.113998529574866,-10.496000102618215,-0.5094569417875495,-0.27453013000467763,0.0019197859032793474,-0.22756635655306223,-0.05982277993989982,-0.001861177708484263,-0.04729551408964583,0.0,70.0,255.0,255.0,255.0
90,4.5,-14.127799821767729,-10.495906630335918,-0.5208941983741993,-0.2775052904883246,0.0018061747169717535,-0.22992510508020203,-0.05918689568140678,-0.002295599440671481,-0.0474173584534443,0.0,70.0,255.0,255.0,255.0
91,4.55,-14.141749058623699,-10.495819485146518,-0.5324494522955697,-0.2804488195728183,0.0016902259592121993,-0.23230809239840666,-0.05857718611128604,-0.0019517402245483595,-0.048244639580008464,0.0,70.0,255.0,255.0,255.0
92,4.6000000000000005,-14.15584470372501,-10.495737607739997,-0.5441250076140399,-0.2833630090994532,0.0016110006945169175,-0.23474956903820288,-0.05803461389728426,-0.00099533365656157,-0.04954839732511651,0.0,70.0,255.0,255.0,255.0
93,4.65,-14.170085359533644,-10.495658385077066,-0.55592440919939,-0.28625228096254673,0.0015906925935560423,-0.2372629321309183,-0.057611536554702525,0.0002327591726469791,-0.0509043955010724,0.0,70.0,255.0,255.0,255.0
94,4.7,-14.184469931821265,-10.495578538480641,-0.5678513008271318,-0.2891241627549235,0.0016342766117816154,-0.23984000858831012,-0.05736350554350622,0.0013859871067722906,-0.051887203625988754,0.0,70.0,255.0,255.0,255.0
95,4.75,-14.198997775809136,-10.495494957415888,-0.579908410058221,-0.29198863151689736,0.0017292913042332714,-0.2424516524935172,-0.05733241306806747,0.0021268339116531365,-0.052078479378703246,0.0,70.0,255.0,255.0,255.0
96,4.800000000000001,-14.213668794972955,-10.495405609350218,-0.5920964660764835,-0.2948574040617302,0.001846960002946929,-0.24504785652618044,-0.05753024329564482,0.0022737146442963763,-0.051278967054424474,0.0,70.0,255.0,255.0,255.0
97,4.8500000000000005,-14.22848351621531,-10.495310261415593,-0.6044131957108391,-0.29774165584646184,0.001956662768662909,-0.24757954919895964,-0.057916996868989656,0.001912824962246873,-0.04973635171690027,0.0,70.0,255.0,255.0,255.0
98,4.9,-14.243442960557601,-10.495209943073352,-0.6168544209963794,-0.3006491037486292,0.0020382424991716164,-0.25002149169787047,-0.05841166858697733,0.0012485047541588301,-0.04793658962345404,0.0,70.0,255.0,255.0,255.0
99,4.95,-14.258548426590172,-10.495106437165676,-0.6294153448806261,-0.30358282270515957,0.002081513244078792,-0.25237320816130504,-0.058917510242118,0.00048431552972516556,-0.04637450590520009,0.0,70.0,255.0,255.0,255.0
100,5.0,-14.273801242828117,-10.495001791748944,-0.6420917418125099,-0.306540854772841,0.002086674052144133,-0.2546589422883905,-0.05934340542719241,-0.00018376417862953076,-0.04553268673566091,0.0,70.0,255.0,255.0,255.0
101,5.050000000000001,-14.289202512067456,-10.494897769760462,-0.6548812391094652,-0.3095171632478788,0.002063136826215839,-0.25692647683487113,-0.059635640240074395,-0.0006375705682515331,-0.04565935234215335,0.0,70.0,255.0,255.0,255.0
102,5.1000000000000005,-14.304752959152905,-10.494795478066322,-0.667784389495997,-0.3125044187968484,0.0020229169953189796,-0.2592248775226058,-0.05978103498947007,-0.0008605349572476939,-0.046572675993750146,0.0,70.0,255.0,255.0,255.0
103,5.15,-14.320452953947141,-10.49469547806093,-0.6808037268617257,-0.3154952667468258,0.0019770833304910695,-0.26158374443424615,-0.05977731357091898,-0.0008605311011322669,-0.04788276581865203,0.0,70.0,255.0,255.0,255.0
104,5.2,-14.336302485827588,-10.494597769733273,-0.6939427639394217,-0.3184821501539403,0.001936863885205753,-0.264013154104471,-0.05962696631041098,-0.0006375615802411971,-0.04919491261335951,0.0,70.0,255.0,255.0,255.0
105,5.25,-14.352301168962535,-10.494501791672409,-0.7072050422721728,-0.3214579633778669,0.0019133271724669498,-0.2665032356955821,-0.0593379745479794,-0.0001837585505981565,-0.05012681097468219,0.0,70.0,255.0,255.0,255.0
106,5.300000000000001,-14.368448282165375,-10.494406437016027,-0.7205930875089799,-0.32441594760873826,0.0019184880301459373,-0.26902583520193923,-0.0589261701017918,0.000484306556636227,-0.05046478907817509,0.0,70.0,255.0,255.0,255.0
107,5.3500000000000005,-14.384742763723409,-10.494309942869394,-0.7341076257923668,-0.3273505803880461,0.0019617578281305725,-0.2715497146033996,-0.058439702334744936,0.0012484757053954354,-0.05026292099807872,0.0,70.0,255.0,255.0,255.0
108,5.4,-14.40118334020418,-10.494210261233214,-0.7477480589693198,-0.33025991784221276,0.002043335600685481,-0.2740521273017471,-0.057959916290073465,0.0019127804895546774,-0.049680692090281475,0.0,70.0,255.0,255.0,255.0
109,5.45,-14.41776875550763,-10.494105609309326,-0.7615128385225415,-0.33314657201705344,0.0021530358770860403,-0.27651778381242775,-0.05758031216149817,0.0022736697196990008,-0.0488734427088966,0.0,70.0,255.0,255.0,255.0
110,5.5,-14.434497997405884,-10.493994957645505,-0.7753998373505626,-0.3360179490583626,0.002270702572655381,-0.27893947157263677,-0.057400733676793436,0.0021268170295130062,-0.04798804139350965,0.0,70.0,255.0,255.0,255.0
111,5.550000000000001,-14.451370550413467,-10.49387853905206,-0.7894067856798052,-0.3388866453847328,0.002365717580037341,-0.2813165879517787,-0.057466392639504704,0.0013860319876712879,-0.047126526310259376,0.0,70.0,255.0,255.0,255.0
112,5.6000000000000005,-14.468386661944358,-10.493758385887501,-0.8035314961457405,-0.34176458832231305,0.0024093057714225097,-0.2836521242036627,-0.057697451709870506,0.00023287922150672102,-0.04637284281121534,0.0,70.0,255.0,255.0,255.0
113,5.65,-14.485547009245698,-10.493637608474918,-0.8177719981001714,-0.34465639055571984,0.002389005502188013,-0.28595387223290025,-0.05794572523125652,-0.0009951596213753078,-0.04583978050558546,0.0,70.0,255.0,255.0,255.0
114,5.7,-14.50285230099993,-10.493519485337282,-0.8321268833690305,-0.3475591608454387,0.002309789809284979,-0.28823610225422125,-0.058058498329138786,-0.001951569512748108,-0.04564977808940718,0.0,70.0,255.0,255.0,255.0
115,5.75,-14.520302925330242,-10.49340662949399,-0.8465956083255936,-0.3504622403886337,0.002193848550913202,-0.29051885004184097,-0.057867109392439886,-0.002295537538898884,-0.04592102345114535,0.0,70.0,255.0,255.0,255.0
116,5.800000000000001,-14.537898525038793,-10.493300100482191,-0.8611787683732146,-0.3533458717846827,0.0020802360553950905,-0.2928282045993358,-0.057294972629584606,-0.001861348259701856,-0.04669064414244417,0.0,70.0,255.0,255.0,255.0
117,5.8500000000000005,-14.55563751250871,-10.49319860588845,-0.8758784287855271,-0.3561917376515922,0.0020077137249430166,-0.2951879144560854,-0.05649319478955306,-0.0008298760425518026,-0.047800393071839586,0.0,70.0,255.0,255.0,255.0
118,5.9,-14.573517698803952,-10.493099329109697,-0.8906975598188231,-0.358995191263638,0.0019972484511399102,-0.29760824390651974,-0.055734478819324806,0.0004369022834183056,-0.04896298309011726,0.0,70.0,255.0,255.0,255.0
119,5.95,-14.591537031635074,-10.492998881043336,-0.9056392531761791,-0.36176518553352466,0.002051403953284847,-0.3000842127650971,-0.05528555466103313,0.0015665477256732174,-0.04987569668166714,0.0,70.0,255.0,255.0,255.0
120,6.0,-14.609694217357305,-10.492894188714368,-0.9207059810953329,-0.3645237467297413,0.002153903223707232,-0.30259581357468646,-0.05541875416117392,0.0021833517759972665,-0.050247864801866715,0.0,70.0,255.0,255.0,255.0
121,6.050000000000001,-14.627989406308048,-10.492783490720965,-0.9358988345336477,-0.36730706094964205,0.002269739130884574,-0.3051089992452838,-0.05625460262432824,0.0020933004446277437,-0.04993709758625009,0.0,70.0,255.0,255.0,255.0
122,6.1000000000000005,-14.646424923452269,-10.49266721480128,-0.9512168810198612,-0.37014920699217413,0.0023632332681700063,-0.30758952333331147,-0.057563522046244486,0.0014556692365275126,-0.04907546835131171,0.0,70.0,255.0,255.0,255.0
123,6.15,-14.665004327007265,-10.492547167394148,-0.9666577868669789,-0.3730634131542665,0.002415306054537325,-0.31001654608041496,-0.05892092825412476,0.0005976670376384163,-0.04793924284482998,0.0,70.0,255.0,255.0,255.0
124,6.2,-14.683731264767696,-10.492425684195826,-0.9822185356279027,-0.3760412998175866,0.002422999971933848,-0.31238344761779446,-0.05990044852932641,-0.00015424843002875832,-0.046820209076792185,0.0,70.0,255.0,255.0,255.0
125,6.25,-14.702608456989024,-10.492304867396955,-0.9978961316287583,-0.37905345800719914,0.0023998812115344492,-0.3146985669880942,-0.060081929907873644,-0.0004619255085103191,-0.04601152666537933,0.0,70.0,255.0,255.0,255.0
126,6.300000000000001,-14.721636610568416,-10.492185696074673,-1.0136883923267122,-0.38204949280837397,0.002376807421082816,-0.3169846002843324,-0.059265731090185625,-0.00015250619895823547,-0.045673226584774795,0.0,70.0,255.0,255.0,255.0
127,6.3500000000000005,-14.740813406269861,-10.492067186654847,-1.0295945916571916,-0.3849800311162177,0.0023846305916386257,-0.31926588964657165,-0.05770437203675982,0.0006008587700279122,-0.04573046079566767,0.0,70.0,255.0,255.0,255.0
128,6.4,-14.760134613680037,-10.491947233015509,-1.0456149812913693,-0.38781993001204995,0.0024368932980856073,-0.32155764636389916,-0.055891831475030074,0.0014596090533558481,-0.0460089965795385,0.0,70.0,255.0,255.0,255.0
129,6.45,-14.779595399271066,-10.491823497325038,-1.0617503562935815,-0.3905692142637207,0.0025305914969742105,-0.3238667893045255,-0.054331485722158845,0.002096786320393562,-0.046335867943603226,0.0,70.0,255.0,255.0,255.0
130,6.5,-14.79919153510641,-10.491694173865811,-1.0780016602218219,-0.39325307858426584,0.0026465719301249635,-0.3261912331582595,-0.05351748891335717,0.002184443498443045,-0.04652206583266594,0.0,70.0,255.0,255.0,255.0
131,6.550000000000001,-14.818920707129493,-10.491558840132026,-1.0943694796094074,-0.3959209631550564,0.002749035846818515,-0.3285189958877921,-0.053702333152827464,0.0015630646784003943,-0.046464448289129656,0.0,70.0,255.0,255.0,255.0
132,6.6000000000000005,-14.838783631421915,-10.49141927028113,-1.110853559810601,-0.3986233118995486,0.002802878397965003,-0.33083767798717245,-0.054685469990545243,0.0004280751701557506,-0.04624455326784904,0.0,70.0,255.0,255.0,255.0
133,6.65,-14.858783038319448,-10.49127855229223,-1.1274532474081247,-0.40138951015411095,0.00279184336383409,-0.333143451214577,-0.056045265658788423,-0.000842443578541463,-0.046021227713466395,0.0,70.0,255.0,255.0,255.0
134,6.7,-14.878922582437326,-10.491140085944746,-1.1441679049320588,-0.4042278384654274,0.0027186340401108566,-0.3354398007585191,-0.05735374844277885,-0.0018735495315169715,-0.04593720492971354,0.0,70.0,255.0,255.0,255.0
135,6.75,-14.89920582216599,-10.491006688888218,-1.1609972274839766,-0.40712488499838884,0.002604488410682393,-0.33773717170754836,-0.05818415173663993,-0.0022999044290372694,-0.04614412608772156,0.0,70.0,255.0,255.0,255.0
136,6.800000000000001,-14.919635070937165,-10.490879637103678,-1.1779416221028136,-0.4100462536390914,0.0024886435972071297,-0.34005421336729125,-0.058306101799665555,-0.0019393795545497028,-0.04670935321904324,0.0,70.0,255.0,255.0,255.0
137,6.8500000000000005,-14.9402104475299,-10.490757824528497,-1.1950026488207057,-0.4129554951783554,0.0024105504552274226,-0.3424081070294527,-0.057843724690442855,-0.0009630428989382267,-0.04748955457138937,0.0,70.0,255.0,255.0,255.0
138,6.9,-14.960930620455,-10.490638582058155,-1.2121824328057589,-0.4158306261081357,0.002392339307313307,-0.3448031688244302,-0.057075450877697165,0.00027920954881466287,-0.04822702496742881,0.0,70.0,255.0,255.0,255.0
139,6.95,-14.981793510140713,-10.490518590597766,-1.2294829657031487,-0.4186630402661251,0.002438471410108889,-0.34723080952619556,-0.056274406287570855,0.001431351198633024,-0.04866925173134806,0.0,70.0,255.0,255.0,255.0
140,7.0,-15.002796924481613,-10.490394734917144,-1.2469055137583784,-0.4214580667368928,0.0025354744271766094,-0.349670093997565,-0.05572184819673254,0.0021431928667325906,-0.0485614764365927,0.0,70.0,255.0,255.0,255.0
141,7.050000000000001,-15.023939316814403,-10.490265043155048,-1.2644499751029052,-0.42423522508579836,0.002652790696782148,-0.35208695716985483,-0.0555720941463278,0.0022283929332900243,-0.04779053976708969,0.0,70.0,255.0,255.0,255.0
142,7.1000000000000005,-15.045220446990193,-10.490129455847466,-1.282114209475364,-0.42701527615152557,0.002758313720505612,-0.35444914797427396,-0.05573506248328641,0.0017931407143123579,-0.04656347553291251,0.0,70.0,255.0,255.0,255.0
143,7.15,-15.066640844429555,-10.489989211782998,-1.2998948899003326,-0.429808731334127,0.0028321047682133837,-0.3567433047231461,-0.05601917791739908,0.0010757219333967782,-0.045266103652186196,0.0,70.0,255.0,255.0,255.0
144,7.2,-15.088201320123606,-10.489846245370645,-1.3177885399476785,-0.4326171939432655,0.0028658859138452897,-0.3589757583394926,-0.05624774062624738,0.000315230984426762,-0.044291335930379816,0.0,70.0,255.0,255.0,255.0
145,7.25,-15.109902563823882,-10.489702623191613,-1.335792465734282,-0.43543350539675174,0.00286362786665606,-0.36117243831618406,-0.056240530067341865,-0.0002448950105815584,-0.0440379401939861,0.0,70.0,255.0,255.0,255.0
146,7.300000000000001,-15.13174467066328,-10.489559882583979,-1.353905783779297,-0.43824124694999966,0.002841396412787134,-0.3633795523588912,-0.05590566147386511,-0.0004686443929813322,-0.04469557395971879,0.0,70.0,255.0,255.0,255.0
147,7.3500000000000005,-15.153726688518882,-10.489418483550335,-1.372130420970171,-0.44102407154413825,0.0028167634273579267,-0.36564199571215594,-0.055338729340981274,-0.0004140887217118916,-0.046006659847130926,0.0,70.0,255.0,255.0,255.0
148,7.4,-15.175847077817695,-10.489278206241243,-1.3904699833505125,-0.4437751198840978,0.0027999875406159447,-0.3679802183436043,-0.05472513349129571,-0.00021585019727154986,-0.04747760471282003,0.0,70.0,255.0,255.0,255.0
149,7.45,-15.198104200507291,-10.489138484796273,-1.4089284428045314,-0.4464965848932678,0.0027951784076307717,-0.37038975618343795,-0.054241204633953544,1.2579572938875572e-07,-0.04861277051440016,0.0,70.0,255.0,255.0,255.0
150,7.5,-15.220496736307021,-10.48899868840048,-1.4275089589688563,-0.44919924034749315,0.0028000001201888836,-0.3728414953950443,-0.05405598491172725,9.643379570434263e-05,-0.04891883737949687,0.0,70.0,255.0,255.0,255.0
151,7.550000000000001,-15.24302412454204,-10.488858484784254,-1.4462125923440359,-0.45190218338444055,0.002804821787201206,-0.37528163992138763,-0.0542523462041089,1.2403251758996703e-07,-0.04815350472047175,0.0,70.0,255.0,255.0,255.0
152,7.6000000000000005,-15.265686954645465,-10.48871820622176,-1.465037122960995,-0.45462447496790404,0.0028000125234406426,-0.3776568458670915,-0.054745544631096266,-0.00021585342580010547,-0.04658247249120784,0.0,70.0,255.0,255.0,255.0
153,7.65,-15.288486572038831,-10.48857848353191,-1.483978276930745,-0.4573767378475502,0.0027832364446211955,-0.3799398871705084,-0.05536392448259875,-0.0004140927069684608,-0.04473172924477353,0.0,70.0,255.0,255.0,255.0
154,7.7,-15.31142462843022,-10.488439882577298,-1.503031111678046,-0.4601608674161639,0.0027586032527437965,-0.3821300187915688,-0.05593466694442384,-0.00046864791958256546,-0.04313021604454015,0.0,70.0,255.0,255.0,255.0
155,7.75,-15.334502658780448,-10.488302623206636,-1.522191278809902,-0.46297020454199256,0.002736371652662939,-0.38425290877496243,-0.0562995396078847,-0.0002448961151202411,-0.04229864501981151,0.0,70.0,255.0,255.0,255.0
156,7.800000000000001,-15.35772164888442,-10.488166245412032,-1.5414564025555422,-0.4657908213769524,0.0027341136412317724,-0.38635988329355,-0.05637166699550278,0.0003152345081858243,-0.042503554011763534,0.0,70.0,255.0,255.0,255.0
157,7.8500000000000005,-15.381081740918143,-10.488029211842512,-1.560827267139257,-0.46860737124154284,0.0027678951034815213,-0.3885032641761388,-0.05616450006211693,0.0010757308634978813,-0.043529930374708314,0.0,70.0,255.0,255.0,255.0
158,7.9,-15.404582386008574,-10.487889455901684,-1.580306728973156,-0.4714072713831641,0.0028416867275815605,-0.3907128763310208,-0.05573376065406421,0.0017931534275206218,-0.044928998121629427,0.0,70.0,255.0,255.0,255.0
159,7.95,-15.42822246805646,-10.487745043169754,-1.599898554772359,-0.47418074730694926,0.0029472104462335835,-0.3929961639883017,-0.055140127586916776,0.002228405276305523,-0.04624650516735773,0.0,70.0,255.0,255.0,255.0
160,8.0,-15.452000460739269,-10.48759473485706,-1.6196063453719862,-0.47692128414185575,0.0030645272552121128,-0.3953375268477566,-0.054433875303772083,0.0021431972848873215,-0.04702261983700051,0.0,70.0,255.0,255.0,255.0
161,8.05,-15.475914596470645,-10.487438590444233,-1.6394323074571346,-0.47962413483732647,0.0031615301747223157,-0.3976984259720018,-0.053659960172858234,0.0014313388668085736,-0.047013444733723375,0.0,70.0,255.0,255.0,255.0
162,8.1,-15.499962874223002,-10.487278581839588,-1.6593761879691864,-0.4822872801591416,0.00320766114189297,-0.4000388713211289,-0.05291459031919743,0.00027917705800462045,-0.04638778270016353,0.0,70.0,255.0,255.0,255.0
163,8.15,-15.524143324486559,-10.487117824330044,-1.6794361945892475,-0.4849155938692462,0.0031894478805227777,-0.40233720424201813,-0.052344576024054845,-0.0009630897684687056,-0.04550062325718862,0.0,70.0,255.0,255.0,255.0
164,8.200000000000001,-15.548454433609926,-10.486959637051536,-1.6996099083933882,-0.48752173776154706,0.0031113521650460996,-0.4045889336468478,-0.052097083779756304,-0.001939425401076278,-0.04469793577999148,0.0,70.0,255.0,255.0,255.0
165,8.25,-15.572895498262714,-10.48680668911354,-1.7198950879539323,-0.49012530224722184,0.00299550534041515,-0.4068069978200173,-0.05231293120644409,-0.002299920995696425,-0.044334791716105215,0.0,70.0,255.0,255.0,255.0
166,8.3,-15.597466963834648,-10.486660086517494,-1.74029060817539,-0.49275303088219147,0.002881360065476457,-0.4090224128184583,-0.053043317487677655,-0.0018735037270900534,-0.044595301086358674,0.0,70.0,255.0,255.0,255.0
167,8.35,-15.622170801350933,-10.486518553106992,-1.7607973292357781,-0.4954296339959896,0.0028081549677061446,-0.41126652792865315,-0.05413182397635552,-0.0008423225459353034,-0.04531259849809288,0.0,70.0,255.0,255.0,255.0
168,8.4,-15.647009927234247,-10.486379271020724,-1.7814172609682553,-0.498166213279827,0.0027971278108829267,-0.4135536726682676,-0.05529073245238436,0.00042824993382595267,-0.04615568833647998,0.0,70.0,255.0,255.0,255.0
169,8.450000000000001,-15.671987422678916,-10.486238840325903,-1.802152696502605,-0.500958707241228,0.00285097996108874,-0.41588209676230115,-0.05621978904031266,0.0015632357220241033,-0.046808092039274385,0.0,70.0,255.0,255.0,255.0
170,8.5,-15.69710579795837,-10.486094173024615,-1.8230054706444854,-0.5037881921838583,0.002953451383085337,-0.41823448187219503,-0.05663439987078078,0.0021845053469249365,-0.04695830653878019,0.0,70.0,255.0,255.0,255.0
171,8.55,-15.722366241897301,-10.485943495187595,-1.8439761446898244,-0.5066221472283061,0.0030694304957812335,-0.42057792741617916,-0.05639297034409907,0.00209661543699724,-0.046451691247040294,0.0,70.0,255.0,255.0,255.0
172,8.6,-15.7477680126812,-10.485787229975037,-1.8650632633861033,-0.5094274892182682,0.003163112926785061,-0.42287965099689906,-0.055607997227191674,0.0014591574146294306,-0.04544900279441766,0.0,70.0,255.0,255.0,255.0
173,8.65,-15.773308990819128,-10.485627183894916,-1.8862641097895143,-0.5121829469510253,0.0032153462372441766,-0.42512282769562093,-0.05452344987801894,0.0006002065811472335,-0.04427028307050218,0.0,70.0,255.0,255.0,255.0
174,8.700000000000001,-15.798986307376303,-10.485465695351312,-1.9075755461556654,-0.5148798342060701,0.0032231335848997844,-0.4273066793039493,-0.05339653394944577,-0.00015314452728176775,-0.04323575666933532,0.0,70.0,255.0,255.0,255.0
175,8.75,-15.824796974239735,-10.485304870536426,-1.9289947777199092,-0.5175226003459699,0.003200031784516,-0.42944640336255446,-0.05247347863139851,-0.0004621563347129154,-0.04265995415679846,0.0,70.0,255.0,255.0,255.0
176,8.8,-15.8507385674109,-10.48514569217286,-1.9505201864919208,-0.5201271820692099,0.003176917951428493,-0.4315726747196291,-0.05189706220924961,-0.00015361070033748092,-0.04270450735195386,0.0,70.0,255.0,255.0,255.0
177,8.85,-15.876809692446656,-10.484987178741283,-1.9721520451918721,-0.5227123065668948,0.0031846707144822517,-0.43371685409774985,-0.05166891439127852,0.000599352561536648,-0.043243278436078114,0.0,70.0,255.0,255.0,255.0
178,8.9,-15.90300979806759,-10.484827225101412,-1.9938918719016958,-0.5252940735083378,0.0032368532075821577,-0.43589700256323693,-0.051744419083732396,0.0014581032285576612,-0.04401129126956338,0.0,70.0,255.0,255.0,255.0
179,8.950000000000001,-15.92933909979749,-10.484663493420525,-2.015741745448196,-0.5278867484752681,0.003330481037338018,-0.4381179832247062,-0.05207976280416915,0.002095682712521807,-0.04474230785669331,0.0,70.0,255.0,255.0,255.0
180,9.0,-15.955798472915117,-10.484494176997678,-2.0377036702241664,-0.5305020497887547,0.0034464214788343384,-0.44037123334890627,-0.052635694926905785,0.0021842132316152174,-0.04517390480609507,0.0,70.0,255.0,255.0,255.0
181,9.05,-15.982389304776365,-10.484318851272642,-2.0597788687830865,-0.5331503179679586,0.0035489023604995396,-0.4426353737053157,-0.053367032569617834,0.0015641676894162515,-0.04516421873952403,0.0,70.0,255.0,255.0,255.0
182,9.1,-16.009113504711912,-10.484139286761629,-2.081967207594698,-0.5358387530457165,0.0036028382477759635,-0.44488765522285867,-0.054156438449837196,0.00043061182655179664,-0.044784223787530664,0.0,70.0,255.0,255.0,255.0
183,9.15,-16.035973180080937,-10.483958567447864,-2.1042676343053723,-0.5385659618129424,0.0035919635431547192,-0.44711379608406876,-0.05481626306291787,-0.000838959819127183,-0.04419737236380783,0.0,70.0,255.0,255.0,255.0
184,9.200000000000001,-16.062970100893207,-10.483780090407313,-2.126678587203105,-0.5413203793520083,0.003518942265863245,-0.44930739245923945,-0.05514595329287886,-0.0018702390025993054,-0.04356209815084,0.0,70.0,255.0,255.0,255.0
185,9.25,-16.090105218016138,-10.483606673221278,-2.1491983735512963,-0.5440805571422302,0.0034049396428947887,-0.45147000589915276,-0.054939732337544456,-0.0022987525364115413,-0.04302838932281894,0.0,70.0,255.0,255.0,255.0
186,9.3,-16.11737815660743,-10.483439596443024,-2.17182558779302,-0.5468143525857627,0.003289067012222091,-0.45361023139152135,-0.05411378187361038,-0.0019426870988326073,-0.0426846782965562,0.0,70.0,255.0,255.0,255.0
187,9.35,-16.144786653274714,-10.483277766520056,-2.1945593966904484,-0.5494919353295913,0.003210670933011528,-0.4557384737288084,-0.05287157889561911,-0.0009716833186956819,-0.04253619004987996,0.0,70.0,255.0,255.0,255.0
188,9.4,-16.17232735014039,-10.483118529349722,-2.217399435165901,-0.5521015104753246,0.003191898680352523,-0.45786385039650934,-0.051585959898758915,0.00026678033844262927,-0.04256369479920252,0.0,70.0,255.0,255.0,255.0
189,9.450000000000001,-16.199996804322247,-10.48295857665202,-2.2403457817300994,-0.5546505313194672,0.003237348966855791,-0.45999484320872863,-0.050641971809639585,0.0014192126934986504,-0.04274878671988169,0.0,70.0,255.0,255.0,255.0
190,9.5,-16.227792403272336,-10.482794794453037,-2.263398919486774,-0.5571657076562886,0.003333819949702388,-0.4621387290684975,-0.05043334775116648,0.002138815561814056,-0.043068528578826815,0.0,70.0,255.0,255.0,255.0
191,9.55,-16.255713375087876,-10.48262519465705,-2.286559654636949,-0.5596938660945838,0.0034512305230371965,-0.4643016960666113,-0.05114492618361055,0.002240520097807064,-0.04349809371517743,0.0,70.0,255.0,255.0,255.0
192,9.600000000000001,-16.283761789881794,-10.482449671400733,-2.309829089093435,-0.5622802002746496,0.0035578719594830943,-0.46648853844001525,-0.05250736251625199,0.0018251657371237684,-0.04399017685177142,0.0,70.0,255.0,255.0,255.0
193,9.65,-16.31194139511534,-10.482269407461102,-2.3332085084809506,-0.564944602346209,0.0036337470967495733,-0.46870071375178846,-0.054008941630812046,0.0011219550165364467,-0.044467009278337244,0.0,70.0,255.0,255.0,255.0
194,9.700000000000001,-16.340256250116415,-10.482086296691058,-2.356699160468614,-0.5676810944377308,0.003670067461136739,-0.470935239367849,-0.05513352543999872,0.00036047447622422624,-0.0448437806110924,0.0,70.0,255.0,255.0,255.0
195,9.75,-16.368709504559114,-10.481902400714988,-2.3803020324177355,-0.5704579548902089,0.003669794544371996,-0.4731850918128977,-0.055358951250283894,-0.0002285376817567908,-0.04505348703784939,0.0,70.0,255.0,255.0,255.0
196,9.8,-16.397302045605436,-10.481719317236621,-2.4040176696499036,-0.5732169895627592,0.00364721369296106,-0.4754405880716339,-0.05443285371633522,-0.0005138455080100357,-0.045062434021980735,0.0,70.0,255.0,255.0,255.0
197,9.850000000000001,-16.42603120351539,-10.481537679345692,-2.427846091224899,-0.5759012402618424,0.0036184099935709924,-0.47769133521509577,-0.05267155845096738,-0.000533548396219885,-0.04486757806754227,0.0,70.0,255.0,255.0,255.0
198,9.9,-16.45489216963162,-10.481357476237264,-2.451786803171413,-0.578484145407856,0.0035938588533390714,-0.47992734587838815,-0.05068652532642659,-0.0003883533178594689,-0.04448463172401773,0.0,70.0,255.0,255.0,255.0
199,9.950000000000001,-16.483879618056175,-10.481178293460358,-2.4758388258127377,-0.5809698927944851,0.0035795746617850455,-0.48213979838749754,-0.0490898471795731,-0.00016870966597082315,-0.04394229130215699,0.0,70.0,255.0,255.0,255.0
200,10.0,-16.51298915891107,-10.480999518771085,-2.500000783010163,-0.5833931301258133,0.003576987886741989,-0.48432157500860384,-0.04849075400699121,3.5381785146171296e-05,-0.04325756988952101,0.0,70.0,255.0,255.0,255.0
201,10.05,-16.542218931068756,-10.480820594671684,-2.524270983313598,-0.5858189681951842,0.0035831128402996626,-0.48646555537644964,-0.04919060533339348,0.00016880132864827146,-0.04245785784262601,0.0,70.0,255.0,255.0,255.0
202,10.100000000000001,-16.571571055730587,-10.480641207487055,-2.548647338547808,-0.5883121906591526,0.0035938680196068162,-0.48856736079286645,-0.05087111230359653,0.00022996024888755073,-0.04165764607626521,0.0,70.0,255.0,255.0,255.0
203,10.15,-16.60105015013467,-10.480461207869723,-2.5731277193928848,-0.5909060794255439,0.0036061088651884177,-0.49063131998407616,-0.0528994092803714,0.00022968669295408972,-0.04103800694883475,0.0,70.0,255.0,255.0,255.0
204,10.200000000000001,-16.63066166367314,-10.480280596600537,-2.5977104705462155,-0.5936021315871898,0.003616836688902225,-0.4926711614877499,-0.054641165098701094,0.00016816372081507325,-0.040779315252592596,0.0,70.0,255.0,255.0,255.0
205,10.25,-16.66041036329339,-10.480099524200833,-2.6223948355416598,-0.596370195935414,0.003622925237269925,-0.4947092515093354,-0.05547411663791024,3.498256919698406e-05,-0.04106420543212863,0.0,70.0,255.0,255.0,255.0
206,10.3,-16.690298683266683,-10.47991830407681,-2.647181395697149,-0.5991495432509808,0.0036203349458219236,-0.4967775820309628,-0.0550782913794734,-0.00016807309251021252,-0.041960959782327834,0.0,70.0,255.0,255.0,255.0
207,10.350000000000001,-16.72032531761849,-10.47973749070625,-2.672072593744756,-0.6018780250733613,0.0036061179280189037,-0.4989053474875682,-0.05370021610993092,-0.00038629259897504653,-0.043256522941925724,0.0,70.0,255.0,255.0,255.0
208,10.4,-16.75048648577402,-10.479557692284008,-2.697071930445906,-0.6045195648619739,0.003581705685924419,-0.5011032343251554,-0.05185961377840442,-0.0005303934537792543,-0.04456613768346607,0.0,70.0,255.0,255.0,255.0
209,10.450000000000001,-16.780777274104686,-10.479379320137658,-2.7221829171772716,-0.6070639864512017,0.0035530785826409783,-0.5033619612559148,-0.05007863927843914,-0.000510658504460082,-0.04549541272274027,0.0,70.0,255.0,255.0,255.0
210,10.5,-16.81119288441914,-10.479202384425744,-2.7474081265714974,-0.6095274287898178,0.0035306398354784108,-0.5056527755974294,-0.048868723495942845,-0.00022734003444213613,-0.045657636354112796,0.0,70.0,255.0,255.0,255.0
211,10.55,-16.841730016983668,-10.47902625615411,-2.7727481947370145,-0.611950858800796,0.0035303445791967647,-0.5079277248913261,-0.04850835036087631,0.0003572905752591282,-0.04487070396028692,0.0,70.0,255.0,255.0,255.0
212,10.600000000000001,-16.87238797029922,-10.478849349967824,-2.79820089906063,-0.6143782638259054,0.0035663688930043236,-0.5101398459934581,-0.048875342605469996,0.0011134385852429318,-0.043367917167236314,0.0,70.0,255.0,255.0,255.0
213,10.65,-16.90316784336626,-10.47866961926481,-2.8237621793363603,-0.616838393061343,0.003641688437721058,-0.5122645166080497,-0.049676494582229225,0.0018128195240052491,-0.04160746562780204,0.0,70.0,255.0,255.0,255.0
214,10.700000000000001,-16.934071809605353,-10.478485181124052,-2.849427350721435,-0.6193459132841284,0.0037476508454048485,-0.5143005925562383,-0.05062339200740951,0.00222840969090754,-0.04005786835605818,0.0,70.0,255.0,255.0,255.0
215,10.75,-16.96510243469467,-10.47829485418027,-2.875192238591984,-0.621900732262084,0.003864529406811812,-0.5162703034436555,-0.0514310359957193,0.0021344241879717174,-0.03916921185456168,0.0,70.0,255.0,255.0,255.0
216,10.8,-16.99626188283156,-10.47809872818337,-2.9010543810658005,-0.6244890168837003,0.00396109326420202,-0.5182175137416944,-0.05192998549716776,0.001431311724431339,-0.03917608451589061,0.0,70.0,255.0,255.0,255.0
217,10.850000000000001,-17.02755133638304,-10.47789874485385,-2.9270139899661536,-0.6270937308118008,0.004007660579254946,-0.5201879118952446,-0.052123914634805146,0.00029878534366645226,-0.03993828857615789,0.0,70.0,255.0,255.0,255.0
218,10.9,-17.05897125591274,-10.477697962125445,-2.953073172255325,-0.6297014083471808,0.0039909717985686655,-0.5222113425993102,-0.05206638924590834,-0.0009254534074187859,-0.0411375196191166,0.0,70.0,255.0,255.0,255.0
219,10.950000000000001,-17.09052147721776,-10.477499647673993,-2.9792351242260846,-0.6323003697363916,0.003915115238513067,-0.5243016638571563,-0.05179590458048722,-0.0018974324730081094,-0.04244654042637741,0.0,70.0,255.0,255.0,255.0
220,11.0,-17.12220129288638,-10.477306450601594,-3.0055033386410406,-0.6348809988052295,0.0038012285512678545,-0.526455996641948,-0.051347085899422495,-0.002282384689067385,-0.04354952555130076,0.0,70.0,255.0,255.0,255.0
221,11.05,-17.154009577098282,-10.477119524818866,-3.0318807238902794,-0.6374350783263338,0.0036868767696063287,-0.5286566164122863,-0.05075725543655096,-0.0019154512248320543,-0.04425992301104742,0.0,70.0,255.0,255.0,255.0
222,11.100000000000001,-17.185944800719014,-10.476937762924633,-3.058369000282269,-0.6399567243488846,0.003609683428784649,-0.5308819889430527,-0.05010983801554403,-0.0009584634097947742,-0.04456713365637022,0.0,70.0,255.0,255.0,255.0
223,11.15,-17.21800524953317,-10.476758556475987,-3.0849689227845847,-0.6424460621278882,0.0035910304286268513,-0.5331133297779234,-0.04953878759579311,0.00025803839314164634,-0.04451173328523517,0.0,70.0,255.0,255.0,255.0
224,11.200000000000001,-17.250189406931803,-10.47657865988177,-3.1116803332600615,-0.6449106031084639,0.0036354872680988137,-0.5353331622715762,-0.04919196403143644,0.001395259594971776,-0.04413079511360607,0.0,70.0,255.0,255.0,255.0
225,11.25,-17.282496309844017,-10.476395007749177,-3.1385022390117423,-0.6473652585310319,0.003730556388124029,-0.537526409289284,-0.04922462972700714,0.0021231332169691086,-0.04346867661606524,0.0,70.0,255.0,255.0,255.0
226,11.3,-17.314925932784906,-10.476205604242958,-3.16543297418899,-0.6498330660811646,0.0038478005897957246,-0.5396800299331828,-0.04970150557674913,0.002264432568921393,-0.04257545887060843,0.0,70.0,255.0,255.0,255.0
227,11.350000000000001,-17.347479616452134,-10.476010227690198,-3.1924702420050606,-0.6523354090887068,0.003956999645016168,-0.5417839551763448,-0.05047225777907727,0.0019041125833396677,-0.0415548551198075,0.0,70.0,255.0,255.0,255.0
228,11.4,-17.380159473693777,-10.475809904278456,-3.2196113697066244,-0.6548802918590724,0.004038211848129691,-0.5438355154451635,-0.05126209673527171,0.0012434163844332602,-0.04057722556232157,0.0,70.0,255.0,255.0,255.0
229,11.450000000000001,-17.41296764563804,-10.475606406505385,-3.246853793549577,-0.657461618762234,0.004081341283459494,-0.545841677732577,-0.05179017868925939,0.00048348034109579885,-0.03983494112436148,0.0,70.0,255.0,255.0,255.0
230,11.5,-17.44590563557,-10.47540177015011,-3.274195537479882,-0.6600593097279983,0.004086559882239271,-0.5478190095575997,-0.051770432487430185,-0.00018217614989879394,-0.03951581460386322,0.0,70.0,255.0,255.0,255.0
231,11.55,-17.47897357661084,-10.475197750517161,-3.301635694505337,-0.662638662010977,0.004063123668469615,-0.5497932591929633,-0.051069636011646935,-0.0006367312650468193,-0.03970546761293825,0.0,70.0,255.0,255.0,255.0
232,11.600000000000001,-17.512169501771098,-10.474995457783264,-3.3291748633991785,-0.665166273329163,0.004022886755734589,-0.5517895563188935,-0.049888310354617715,-0.0008625556896291187,-0.04028626637766486,0.0,70.0,255.0,255.0,255.0
233,11.65,-17.545490203943757,-10.474795461841587,-3.3568146501372262,-0.6676274930464388,0.003976868099506703,-0.5538218858307298,-0.048606485135138655,-0.0008654568443233757,-0.041025704792785334,0.0,70.0,255.0,255.0,255.0
234,11.700000000000001,-17.57893225107574,-10.474597770973313,-3.3845570519822514,-0.6700269218426769,0.003936341071302252,-0.555892126798172,-0.0476066685326515,-0.000643493312679766,-0.04167666649599333,0.0,70.0,255.0,255.0,255.0
235,11.75,-17.612492896128025,-10.474401827734457,-3.4124038628170434,-0.6723881598997039,0.003912518768238726,-0.5579895524803291,-0.04726958437757389,-0.00018640996977126179,-0.041988064967535266,0.0,70.0,255.0,255.0,255.0
236,11.8,-17.646171067065712,-10.474206519096489,-3.4403560072302843,-0.6747538802804343,0.003917700074325126,-0.5600909332949255,-0.04778032333732085,0.0004902314199028979,-0.041829896784584264,0.0,70.0,255.0,255.0,255.0
237,11.850000000000001,-17.679968284156068,-10.474010057727025,-3.468412956146536,-0.677166192233436,0.003961541910229016,-0.5621725421587875,-0.048924617353662825,0.001265271014183611,-0.04130641969650739,0.0,70.0,255.0,255.0,255.0
238,11.9,-17.713887686289056,-10.473810364905466,-3.496573261446163,-0.6796463420158005,0.004044227175743487,-0.5642215752645763,-0.05028100701345295,0.0019375718302683254,-0.04063277578003621,0.0,70.0,255.0,255.0,255.0
239,11.950000000000001,-17.747932918357648,-10.47360563500945,-3.5248351136729936,-0.6821942929347813,0.004155299093255849,-0.5662358197367912,-0.05142379986047274,0.0022982318377273714,-0.040018765851934646,0.0,70.0,255.0,255.0,255.0
240,12.0,-17.782107115582534,-10.47339483499614,-3.553196843419842,-0.6847887220018478,0.004274050359516224,-0.5682234518497697,-0.051931276620109657,0.002135834678362869,-0.03966386025680002,0.0,70.0,255.0,255.0,255.0
241,12.05,-17.816411790557833,-10.473178229973499,-3.5816574588579706,-0.6873874205967923,0.004368882561092136,-0.5702022057624712,-0.05158921049996934,0.001361493231222255,-0.03967480538875634,0.0,70.0,255.0,255.0,255.0
242,12.100000000000001,-17.850845857642213,-10.472957946740031,-3.6102170639960893,-0.6899476430518448,0.004410199682638449,-0.5721909323886454,-0.05058403608302342,0.00016771871820253637,-0.04000264691201849,0.0,70.0,255.0,255.0,255.0
243,12.15,-17.885406554863017,-10.472737210005235,-3.638876552096835,-0.6924458242050946,0.004385654432912389,-0.574202470453673,-0.04929867095881946,-0.001089399242637512,-0.04052860001224623,0.0,70.0,255.0,255.0,255.0
244,12.200000000000001,-17.920090440062722,-10.47251938129674,-3.6676373110414566,-0.6948775101477267,0.004301259758374698,-0.57624379238987,-0.048117992164620205,-0.0020438862520677503,-0.04113498338251809,0.0,70.0,255.0,255.0,255.0
245,12.25,-17.95489430587779,-10.472307084029397,-3.696500931335822,-0.6972576234215566,0.004181265807705614,-0.5783159687919248,-0.047425262523859146,-0.0023289567137041445,-0.041720503328690484,0.0,70.0,255.0,255.0,255.0
246,12.3,-17.989816202404878,-10.47210125471597,-3.725468907920649,-0.6996200364001126,0.004068364087004284,-0.580415842722739,-0.04742218198181547,-0.001769118098415845,-0.04221810776763313,0.0,70.0,255.0,255.0,255.0
247,12.350000000000001,-18.0248563095178,-10.471900247620697,-3.754542515608096,-0.7019998416197382,0.00400435399786403,-0.5825377795686881,-0.047970194024316015,-0.0005860293381232395,-0.042566629019979985,0.0,70.0,255.0,255.0,255.0
248,12.4,-18.060016186566852,-10.471700819316183,-3.783722685877518,-0.7044170558025442,0.00400976115319196,-0.584672505624737,-0.0487741926015417,0.000789069429352196,-0.04268834864662452,0.0,70.0,255.0,255.0,255.0
249,12.450000000000001,-18.095298015098056,-10.471499271505378,-3.8130097661705697,-0.7068772608798923,0.004083260940799249,-0.5868066144333506,-0.04954385852045107,0.0019179658512058495,-0.04250852672513794,0.0,70.0,255.0,255.0,255.0
250,12.5,-18.13070391265484,-10.471292493222103,-3.842403347320853,-0.7093714416545893,0.004201557738312545,-0.5889233582972508,-0.04999172922985906,0.0023600387983435667,-0.04195016372405824,0.0,70.0,255.0,255.0,255.0
251,12.55,-18.166235159263515,-10.471079115731547,-3.871902102000295,-0.7118764338028782,0.004319264820633606,-0.5910016308057564,-0.049962714252771434,0.0018951190227767256,-0.04099793836549459,0.0,70.0,255.0,255.0,255.0
252,12.600000000000001,-18.20189155603513,-10.47086056674004,-3.9015035104014286,-0.7143677130798665,0.004391069640590217,-0.5930231521338003,-0.04954152814455881,0.0007472144840647843,-0.039813447731384954,0.0,70.0,255.0,255.0,255.0
253,12.65,-18.2376719305715,-10.470640008767488,-3.931204417213675,-0.7168305866173341,0.004393986269040084,-0.5949829755788949,-0.048917379148250006,-0.00063769432596672,-0.0386779121611891,0.0,70.0,255.0,255.0,255.0
254,12.700000000000001,-18.273574614696862,-10.470421168113136,-3.961001807959318,-0.7192594509946915,0.004327300207993545,-0.5968909433499192,-0.04827366000235145,-0.0018148303009724032,-0.0378826579685132,0.0,70.0,255.0,255.0,255.0
255,12.75,-18.30959787567097,-10.470207278746688,-3.990893511548667,-0.7216579526175693,0.004212503238942844,-0.5987712413757462,-0.04779178326188571,-0.002343273071048202,-0.03771483245125218,0.0,70.0,255.0,255.0,255.0
256,12.8,-18.34574040995862,-10.469999917789242,-4.020878932096893,-0.72403862932088,0.004092972900888725,-0.6006624265950444,-0.04757302161060295,-0.0019982111389538204,-0.038304451124249184,0.0,70.0,255.0,255.0,255.0
257,12.850000000000001,-18.38200173860306,-10.4697979814566,-4.050959754208171,-0.7264152547786296,0.004012682125047462,-0.6026016864881711,-0.04758005703173751,-0.00097364444915371,-0.0394506290056551,0.0,70.0,255.0,255.0,255.0
258,12.9,-18.418381935436482,-10.469598649576737,-4.08113910074571,-0.7287966350240538,0.003995608455973354,-0.6046074894956099,-0.047720766329817366,0.0003325237258877678,-0.040767275435804606,0.0,70.0,255.0,255.0,255.0
259,12.950000000000001,-18.454881402105464,-10.469398420611002,-4.111420503157732,-0.7311873314116113,0.004045934497636239,-0.6066784140317516,-0.0479077019384988,0.0015214952124864567,-0.04185529361500073,0.0,70.0,255.0,255.0,255.0
260,13.0,-18.491500668577643,-10.469194056126973,-4.141806942148885,-0.7335874052179037,0.004147757977222,-0.60879301885711,-0.04804915637279805,0.0021931001063180133,-0.04231852511953349,0.0,70.0,255.0,255.0,255.0
261,13.05,-18.528240142627254,-10.46898364481328,-4.172299805043443,-0.7359922470488911,0.00426524450826804,-0.610910266543705,-0.0480924254095072,0.0021383782126349615,-0.04195768371078046,0.0,70.0,255.0,255.0,255.0
262,13.100000000000001,-18.565099893282532,-10.468767531676146,-4.2028979688032555,-0.7383966477588544,0.004361595798485496,-0.6129887872281881,-0.04805917612884514,0.0015164076000218074,-0.040954852096675154,0.0,70.0,255.0,255.0,255.0
263,13.15,-18.60207980740314,-10.468547485233431,-4.233598683766262,-0.7407981646617756,0.004416885268270221,-0.6150057517533725,-0.04799778397099885,0.0006577159746612438,-0.039682170244859094,0.0,70.0,255.0,255.0,255.0
264,13.200000000000001,-18.63917970974871,-10.46832584314932,-4.264398543978593,-0.7431964261559543,0.00442736739595162,-0.616957004252674,-0.047949331776919735,-0.00011077758674815641,-0.038516027711121836,0.0,70.0,255.0,255.0,255.0
265,13.25,-18.676399450018735,-10.468104748493836,-4.295294384191529,-0.7455930978394676,0.004405807509595405,-0.6188573545244846,-0.04795956327861006,-0.00045318329888743847,-0.037831020450695974,0.0,70.0,255.0,255.0,255.0
266,13.3,-18.713739019532657,-10.46788526239836,-4.326284279431041,-0.7479923824838153,0.004382049066062876,-0.6207401062977436,-0.048050563464840934,-0.0001959543940444064,-0.037824161352251195,0.0,70.0,255.0,255.0,255.0
267,13.350000000000001,-18.751198688267117,-10.46766654358723,-4.357368394821304,-0.7503981541859517,0.004386212070190965,-0.6226397706597098,-0.048183238450150156,0.0005016737221197332,-0.03836091831912469,0.0,70.0,255.0,255.0,255.0
268,13.4,-18.788778834951252,-10.46744664119134,-4.388548256497012,-0.7528107063288303,0.00443221643827485,-0.624576198129656,-0.048288097786652884,0.0013237918649267044,-0.03915392703417453,0.0,70.0,255.0,255.0,255.0
269,13.450000000000001,-18.8264797589,-10.467223321943402,-4.419826014634269,-0.755226963964617,0.004518591256683635,-0.6265551633631272,-0.04830168424057035,0.001967955461168458,-0.039920222579414855,0.0,70.0,255.0,255.0,255.0
270,13.5,-18.864301531347714,-10.466994782065672,-4.451203772833325,-0.7576408747528873,0.0046290119843916955,-0.6285682203875975,-0.048164618485913024,0.0021397263274991474,-0.0403814490219645,0.0,70.0,255.0,255.0,255.0
271,13.55,-18.90224384637529,-10.466760420744963,-4.482682836673029,-0.7600434258132083,0.00473256388943355,-0.6305933082653237,-0.047851521197728175,0.0016917796900273174,-0.04038632356131444,0.0,70.0,255.0,255.0,255.0
272,13.600000000000001,-18.940305873929034,-10.466521525676729,-4.514263103659857,-0.7624260268726601,0.004798189953394427,-0.632606852743729,-0.04740964162941452,0.000764076998827079,-0.04000781495347994,0.0,70.0,255.0,255.0,255.0
273,13.65,-18.978486449062554,-10.466280601749624,-4.545943521947402,-0.7647843899761497,0.004808971589316258,-0.6345940897606717,-0.046928892480480044,-0.0003592237600713588,-0.03941494213064445,0.0,70.0,255.0,255.0,255.0
274,13.700000000000001,-19.01678431292665,-10.466040628517797,-4.5777225126359244,-0.7671189161207081,0.004762267577387291,-0.6365483469567934,-0.046503418443322175,-0.001394983651614723,-0.03877016821833834,0.0,70.0,255.0,255.0,255.0
275,13.75,-19.055198340674625,-10.465804374991885,-4.609598356643081,-0.7694347318204819,0.004669473224154785,-0.6384711065825055,-0.04622597210222068,-0.0020777499845081593,-0.038227146166125436,0.0,70.0,255.0,255.0,255.0
276,13.8,-19.093727786108698,-10.465573681195382,-4.641569623294175,-0.7717415133309302,0.004554492578936475,-0.640371061573406,-0.04614335174224493,-0.0022645909389495955,-0.037876605008246855,0.0,70.0,255.0,255.0,255.0
277,13.850000000000001,-19.13237249200772,-10.465348925733991,-4.673635462800422,-0.7740490669947064,0.004443014130259826,-0.6422587670833302,-0.04621549106786915,-0.002006093604478565,-0.037724185503229535,0.0,70.0,255.0,255.0,255.0
278,13.9,-19.17113269280817,-10.465129379782356,-4.705795500002508,-0.7763630624377171,0.004353883218488619,-0.6441434801237289,-0.04635903625249682,-0.0014387849365249394,-0.03775077996719389,0.0,70.0,255.0,255.0,255.0
279,13.950000000000001,-19.21000879825149,-10.464913537412142,-4.738049810812795,-0.7786849706199561,0.004299135636607332,-0.6460338450800496,-0.04648464199163982,-0.0007080208554555156,-0.03793859172667169,0.0,70.0,255.0,255.0,255.0
280,14.0,-19.249001189870164,-10.464699466218695,-4.770398884510513,-0.7810115266368811,0.004283081132943067,-0.6479373392963961,-0.04648748378350831,3.924563767299105e-05,-0.03826595699045754,0.0,70.0,255.0,255.0,255.0
281,14.05,-19.288109950915178,-10.464485229298848,-4.8028435447424345,-0.783333718998307,0.004303060200374631,-0.6498604407790953,-0.04631558465000296,0.000708122527903754,-0.03870828204615151,0.0,70.0,255.0,255.0,255.0
282,14.100000000000001,-19.327334561769995,-10.464269160198658,-4.8353849285884225,-0.7856430851018814,0.004353893385733443,-0.6518081675010112,-0.04604932649883153,0.0012630946224945205,-0.03921460387248388,0.0,70.0,255.0,255.0,255.0
283,14.15,-19.366674259425366,-10.464049839960275,-4.868024361492536,-0.7879386516481901,0.004429369662624083,-0.6537819011663437,-0.045833190947419666,0.00166904881968577,-0.03970109883972839,0.0,70.0,255.0,255.0,255.0
284,14.200000000000001,-19.406128426934814,-10.463826223232395,-4.900763118705057,-0.7902264041966234,0.00452079826770202,-0.6557782773849841,-0.045805099841089714,0.0018818922479013622,-0.04007649051605,0.0,70.0,255.0,255.0,255.0
285,14.25,-19.44569689984503,-10.463597760133505,-4.933602189231034,-0.7925191616322991,0.004617558887414219,-0.6577895502179487,-0.0461200368192749,0.0018687394639727017,-0.0402650165485241,0.0,70.0,255.0,255.0,255.0
286,14.3,-19.485380343098043,-10.463364467343654,-4.966542073726852,-0.7948384078785509,0.00470767221409929,-0.6598047790398365,-0.04684139590018788,0.0016243618995659403,-0.04022975398623174,0.0,70.0,255.0,255.0,255.0
287,14.350000000000001,-19.525180740632884,-10.463126992912095,-4.999582667135018,-0.7972033012223179,0.004779995077370813,-0.6618125256165719,-0.047785431375757526,0.0011972582363739548,-0.03998187453122526,0.0,70.0,255.0,255.0,255.0
288,14.4,-19.565100673220275,-10.462886467835917,-5.032723326288509,-0.7996169510161266,0.004827398037736685,-0.663802966492959,-0.04862913236252098,0.0006807248555062984,-0.0395611883105218,0.0,70.0,255.0,255.0,255.0
289,14.450000000000001,-19.605142435734496,-10.462644253108321,-5.0659629637843135,-0.80206621445857,0.004848067562921443,-0.6657686444476241,-0.049055611326309645,0.00018613950896195774,-0.039021646675418964,0.0,70.0,255.0,255.0,255.0
290,14.5,-19.645307294666132,-10.462401661079625,-5.099300190733271,-0.8045225121487576,0.004846011988632881,-0.6677051311605009,-0.04874444352687135,-0.00017415687167954275,-0.038414023435695555,0.0,70.0,255.0,255.0,255.0
291,14.55,-19.685594686949372,-10.462159651909458,-5.132733476900364,-0.8069406588112571,0.004830651875753489,-0.6696100467911936,-0.04755743314532879,-0.00033936965806447006,-0.03777838965479674,0.0,70.0,255.0,255.0,255.0
292,14.600000000000001,-19.726001360547258,-10.46191859589205,-5.166261195412391,-0.8092782554632905,0.004812075022826434,-0.6714829701259806,-0.045776966650379336,-0.00033576393327905407,-0.03717603320039231,0.0,70.0,255.0,255.0,255.0
293,14.65,-19.7665225124957,-10.461678444407175,-5.199881773912962,-0.811518355476295,0.0047970754824255835,-0.6733276501112329,-0.043924778439929923,-0.00022747271888334808,-0.03669769104135412,0.0,70.0,255.0,255.0,255.0
294,14.700000000000001,-19.807153196094887,-10.461438888343807,-5.233593960423514,-0.8136707333072835,0.004789327750938099,-0.675152739230116,-0.04253077652904835,-8.024981710264001e-05,-0.03643589714146245,0.0,70.0,255.0,255.0,255.0
295,14.75,-19.84788958582643,-10.461199511632081,-5.267397047835973,-0.8157714331291999,0.0047890505007153195,-0.6769712398253791,-0.042122142449585454,3.590667194686148e-05,-0.03647888970901292,0.0,70.0,255.0,255.0,255.0
296,14.8,-19.888730339407807,-10.460959983293735,-5.301291084406052,-0.817882947552242,0.0047929184181327855,-0.6788006282010173,-0.042949757301613545,8.034283958124888e-05,-0.036857713035765016,0.0,70.0,255.0,255.0,255.0
297,14.850000000000001,-19.929677880581654,-10.460720219790268,-5.335277110656075,-0.8200664088593612,0.004797084784673444,-0.6806570111289556,-0.0446923430512669,6.672989751876912e-05,-0.037470449543164364,0.0,70.0,255.0,255.0,255.0
298,14.9,-19.970736980293744,-10.460480274815268,-5.3693567855189475,-0.8223521818573687,0.004799591407884662,-0.6825476731553337,-0.046724434529821224,2.739445843502608e-05,-0.03812991232567953,0.0,70.0,255.0,255.0,255.0
299,14.950000000000001,-20.01191309876739,-10.46024026064948,-5.403531877971608,-0.8247388523123433,0.004799824230516947,-0.6844700023615236,-0.04840916134298823,-1.1340707750662204e-05,-0.038635790400309844,0.0,70.0,255.0,255.0,255.0
300,15.0,-20.053210865524978,-10.460000292392216,-5.4378037857551,-0.8271930979916675,0.004798457337109596,-0.6864112521953647,-0.0491110426175112,-2.1497787727753348e-05,-0.03878239908008396,0.0,70.0,255.0,255.0,255.0
301,15.05,-20.094632408566557,-10.459760414915769,-5.472173003191145,-0.8296499565740945,0.004797674451744172,-0.688348242269532,-0.04851039079838415,1.128501416758354e-05,-0.03847075820164747,0.0,70.0,255.0,255.0,255.0
302,15.100000000000001,-20.136175861182387,-10.459520524947042,-5.506638609982053,-0.8320441370715059,0.0047995858385263546,-0.6902583280155294,-0.04690988492157544,6.88443419605278e-05,-0.037827576552551534,0.0,70.0,255.0,255.0,255.0
303,15.15,-20.177836822273708,-10.459280456331916,-5.541198835992698,-0.834340945066252,0.004804558885940224,-0.6921309999247871,-0.044921259661734325,0.00011789488478797239,-0.03709725173024481,0.0,70.0,255.0,255.0,255.0
304,15.200000000000001,-20.219609955689013,-10.459040069058448,-5.575851709974532,-0.8365362630376794,0.004811375327005152,-0.6939680531885539,-0.043159011667270875,0.00012561264988164567,-0.03652751468408155,0.0,70.0,255.0,255.0,255.0
305,15.25,-20.261490448577476,-10.458799318799215,-5.610595641311553,-0.8386568462329791,0.004817120150928389,-0.6957837513931953,-0.04223760316577341,5.0084478608880545e-05,-0.03637547667567631,0.0,70.0,255.0,255.0,255.0
306,15.3,-20.30347564031231,-10.458558357043355,-5.645430085113851,-0.8407600233542567,0.00481638377486604,-0.6976056008561216,-0.04247460024977556,-0.00012548289713976146,-0.03676582758389557,0.0,70.0,255.0,255.0,255.0
307,15.350000000000001,-20.3455664509129,-10.458317680421729,-5.680356201397165,-0.8429043062579566,0.004804571861214413,-0.6994603341515848,-0.043613665046748906,-0.00034210726607142306,-0.03753383632032481,0.0,70.0,255.0,255.0,255.0
308,15.4,-20.387766070938106,-10.458077899857233,-5.71537611852901,-0.8451213898589316,0.0047821730482588976,-0.701358984488154,-0.04512581819611228,-0.0004989739968763729,-0.03836648867840964,0.0,70.0,255.0,255.0,255.0
309,15.450000000000001,-20.430078589898795,-10.457839463116903,-5.750492099845981,-0.8474168880775679,0.0047546744615267755,-0.7032969830194258,-0.046487845603593314,-0.0004978231768149044,-0.03895429072384715,0.0,70.0,255.0,255.0,255.0
310,15.5,-20.472507759745863,-10.45760243241108,-5.785705816830952,-0.8497701744192909,0.004732390730577407,-0.7052544135605388,-0.04717863796166455,-0.00023086809903816174,-0.03898375948576671,0.0,70.0,255.0,255.0,255.0
311,15.55,-20.515055607340724,-10.457366224043845,-5.821017541202035,-0.8521347518737343,0.004731587651622959,-0.7071953589680025,-0.04692528745451341,0.00034444610790274055,-0.03830555850257156,0.0,70.0,255.0,255.0,255.0
312,15.600000000000001,-20.557721234933236,-10.457129273645918,-5.8564253527277526,-0.8544627031647423,0.004766835341367681,-0.7090849694107959,-0.04592720314349208,0.0010978131591343754,-0.037124257653431414,0.0,70.0,255.0,255.0,255.0
313,15.65,-20.600501877657198,-10.456889540509708,-5.891926038143114,-0.8567274721880835,0.004841368967536397,-0.7109077847333456,-0.044602880139166245,0.0017989335031387554,-0.03583045322939071,0.0,70.0,255.0,255.0,255.0
314,15.700000000000001,-20.643393982152045,-10.456645136749165,-5.927516131201087,-0.8589229911786589,0.004946728691681557,-0.712668014733735,-0.04336326559091219,0.002219619452503707,-0.034814669739891,0.0,70.0,255.0,255.0,255.0
315,15.75,-20.686394176775064,-10.45639486764054,-5.963192839616488,-0.8610637987471748,0.005063330912786768,-0.7143892517073347,-0.04261577039841313,0.002133434538187373,-0.034465429437258166,0.0,70.0,255.0,255.0,255.0
316,15.8,-20.729500362026762,-10.456138803657886,-5.998955056371821,-0.8631845682185002,0.005160072145500294,-0.7161145576774608,-0.04257688396478443,0.0014400993984864385,-0.034972311365866204,0.0,70.0,255.0,255.0,255.0
317,15.850000000000001,-20.772712633596914,-10.45587886042599,-6.034804295384234,-0.8653214871436532,0.0052073408526354115,-0.7178864828439213,-0.043108478088171864,0.00031710171537469023,-0.036119249616550775,0.0,70.0,255.0,255.0,255.0
318,15.9,-20.816032510741127,-10.455618069572623,-6.070743704656213,-0.8674954160273174,0.005191782317037763,-0.7197264826391159,-0.04391254469773287,-0.0009013287824544136,-0.03748074269314117,0.0,70.0,255.0,255.0,255.0
319,15.950000000000001,-20.859462175199646,-10.455359682194286,-6.106776943648145,-0.8697127416134265,0.00511720797438997,-0.7216345571132354,-0.04469871907417655,-0.0018751068484590405,-0.03862768299649488,0.0,70.0,255.0,255.0,255.0
320,16.0,-20.90300378490247,-10.455106348775184,-6.142907160367536,-0.871965287934735,0.005004271632191859,-0.7235892509387654,-0.04518233638783897,-0.002274898022669447,-0.039134569385179674,0.0,70.0,255.0,255.0,255.0
321,16.05,-20.94665870399312,-10.454859255031067,-6.179135868742022,-0.8742309752522104,0.004889718172123025,-0.7255480140517534,-0.045207829364812824,-0.0019377574536960651,-0.03878533589469768,0.0,70.0,255.0,255.0,255.0
322,16.1,-20.99042688242769,-10.454617376957971,-6.215461961772712,-0.8764860708712163,0.0048104958868222525,-0.7274677845282351,-0.04484522483210185,-0.0010161034717626194,-0.0377695597315153,0.0,70.0,255.0,255.0,255.0
323,16.150000000000002,-21.03430731108024,-10.454378205442385,-6.251882647194845,-0.8787154977354206,0.0047881078249467635,-0.7293249700249049,-0.04425976158586309,0.00017542591361774384,-0.0364757601476029,0.0,70.0,255.0,255.0,255.0
324,16.2,-21.078298432201233,-10.454138566175477,-6.288394458775202,-0.8809120470298026,0.004828038478184027,-0.7311153605429954,-0.043608944358553,0.0013147473337582483,-0.03529445841392587,0.0,70.0,255.0,255.0,255.0
325,16.25,-21.12239851578322,-10.453895401594567,-6.324994183249145,-0.8830763921712759,0.004919582558322588,-0.7328544158662975,-0.04303884675280756,0.002094176203826237,-0.03461624640044292,0.0,70.0,255.0,255.0,255.0
326,16.3,-21.16660607141836,-10.453646607919644,-6.361679900361832,-0.8852159317050834,0.0050374560985666506,-0.7345769851830397,-0.042637859180416626,0.0023448698120986933,-0.03464569237481285,0.0,70.0,255.0,255.0,255.0
327,16.35,-21.21092010895373,-10.45339165598471,-6.398451881767449,-0.8873401780893175,0.005154069539532458,-0.7363189851037788,-0.0424269862211446,0.0021163564589699035,-0.03523346716924891,0.0,70.0,255.0,255.0,255.0
328,16.400000000000002,-21.255340089227293,-10.453131200965691,-6.43531179887221,-0.8894586303271979,0.005249091744463641,-0.7381003318999646,-0.04241288448376679,0.001549741676321048,-0.036066100166465276,0.0,70.0,255.0,255.0,255.0
329,16.45,-21.29986597198645,-10.452866746810264,-6.472261914957445,-0.8915814665376942,0.005309043707164562,-0.7399255951204253,-0.04260499066930379,0.0007899170462621896,-0.0368341103882841,0.0,70.0,255.0,255.0,255.0
330,16.5,-21.344498235881062,-10.452600296594975,-6.509304358384252,-0.8937191293941282,0.00532808344908986,-0.741783742938793,-0.043018267279038014,-2.180679032903754e-05,-0.0372245009561567,0.0,70.0,255.0,255.0,255.0
331,16.55,-21.389237884925862,-10.452333938465355,-6.546440289251325,-0.895883293265598,0.005306863028131659,-0.743648045216041,-0.04364175955515748,-0.0007899735406269315,-0.03707254728579912,0.0,70.0,255.0,255.0,255.0
332,16.6,-21.434086565207622,-10.452069610292162,-6.583669162905856,-0.898083305349644,0.005249086095027167,-0.7454909976673729,-0.04436599112089823,-0.001452119568590149,-0.03650291191830135,0.0,70.0,255.0,255.0,255.0
333,16.650000000000002,-21.479046215460826,-10.451809029855852,-6.620989389018062,-0.9003198923776878,0.005161651071272644,-0.7472983364078711,-0.045007861316648246,-0.001929077935081125,-0.03577265969978427,0.0,70.0,255.0,255.0,255.0
334,16.7,-21.52411855444539,-10.451553445185034,-6.6583989965466435,-0.9025840914813088,0.005056178301519054,-0.7490682636373514,-0.04537883189179581,-0.0021359539795540172,-0.0351294729938445,0.0,70.0,255.0,255.0,255.0
335,16.75,-21.569304624608957,-10.4513034120257,-6.695896215381797,-0.9048577755668674,0.004948055673317242,-0.7508112837072556,-0.04529610278005691,-0.0020069490421548153,-0.034817684506371904,0.0,70.0,255.0,255.0,255.0
336,16.8,-21.614604332002077,-10.451058639617703,-6.733480124917369,-0.9071137017593145,0.004855483397303573,-0.7525500320879885,-0.044680790245266166,-0.0015234371886663212,-0.03496397862061684,0.0,70.0,255.0,255.0,255.0
337,16.85,-21.66001599478489,-10.45081786368597,-6.771151218590596,-0.909325854591394,0.00479571195445061,-0.7543076815693173,-0.04367529638216183,-0.0007531928707393831,-0.03546947723211957,0.0,70.0,255.0,255.0,255.0
338,16.900000000000002,-21.705536917461217,-10.450579068422257,-6.808910893074301,-0.9114812313975307,0.004780164110229634,-0.7560969798112005,-0.04255110148463359,0.0001693672679436986,-0.036128668961410426,0.0,70.0,255.0,255.0,255.0
339,16.95,-21.75116411792464,-10.450339847274947,-6.846760916571716,-0.9135809647398574,0.00481264868124498,-0.7579205484654583,-0.04159194283417378,0.0010887240490475847,-0.03674142421017379,0.0,70.0,255.0,255.0,255.0
340,17.0,-21.796895013935202,-10.450097803554133,-6.884702947920847,-0.9156404256809481,0.004889036515134393,-0.7597711222322179,-0.041077321601079575,0.0018655470132245,-0.037120798313150516,0.0,70.0,255.0,255.0,255.0
341,17.05,-21.842728160492737,-10.449850943623433,-6.922738028794938,-0.9176886968999654,0.00499920338256743,-0.7616326282967734,-0.0411483661800105,0.002417521826991731,-0.03716496480432596,0.0,70.0,255.0,255.0,255.0
342,17.1,-21.8886638836252,-10.449597883215876,-6.960866210750524,-0.9197552622989491,0.005130788697833566,-0.7634876187126505,-0.041684711462153246,0.0027112313791377574,-0.03690458707916733,0.0,70.0,255.0,255.0,255.0
343,17.150000000000002,-21.93470368672263,-10.44933786475365,-6.999086790666203,-0.9218571680461807,0.0052703265204812055,-0.7653230870046901,-0.04243584463203831,0.002724429377209958,-0.03642725653039136,0.0,70.0,255.0,255.0,255.0
344,17.2,-21.980849600429817,-10.449070850563828,-7.037398519450993,-0.9239988467621529,0.005403231635554562,-0.7671303443656896,-0.04314682334509712,0.002448283890821301,-0.03582483016559834,0.0,70.0,255.0,255.0,255.0
345,17.25,-22.027103571398847,-10.448797541590094,-7.075799825102772,-0.9261718503806904,0.005515154909563336,-0.7689055700212499,-0.04356663878688494,0.0018848076079436282,-0.03518714088794894,0.0,70.0,255.0,255.0,255.0
346,17.3,-22.073466785467886,-10.448519335072872,-7.114289076453118,-0.9283555106408414,0.005591712396348925,-0.7706490584544845,-0.043559684428018386,0.0010580118834369046,-0.0345751365206759,0.0,70.0,255.0,255.0,255.0
347,17.35,-22.11993912246293,-10.44823837035046,-7.15286473094822,-0.9305278188234922,0.005620956097907026,-0.7723630836733175,-0.0431921980936778,6.994567662843565e-05,-0.034030309649857315,0.0,70.0,255.0,255.0,255.0
348,17.400000000000002,-22.166519567350235,-10.447957239463081,-7.19152538482045,-0.9326747304502092,0.005598706964011768,-0.7740520894194702,-0.042618340503253194,-0.0009054064534552708,-0.033605848040973996,0.0,70.0,255.0,255.0,255.0
349,17.45,-22.213206595507952,-10.447678499654058,-7.230269939890167,-0.9347896528738175,0.005530415452561499,-0.7757236684774149,-0.04198785003488581,-0.00167719760639784,-0.03335822948660194,0.0,70.0,255.0,255.0,255.0
350,17.5,-22.259998532637617,-10.447404197917825,-7.269097751668191,-0.9368735154536978,0.005430987203371984,-0.7773879123681304,-0.04144008595154958,-0.002064730824713479,-0.03333063813473203,0.0,70.0,255.0,255.0,255.0
351,17.55,-22.30689394705332,-10.447135400933721,-7.30800873112698,-0.9389336614689725,0.005323942370090151,-0.7790567322908881,-0.04105895671422388,-0.0019823432554133547,-0.03353551475395733,0.0,70.0,255.0,255.0,255.0
352,17.6,-22.353891898784514,-10.446871803680816,-7.34700342489728,-0.9409794111251202,0.005232752877830649,-0.7807414638435262,-0.04086285980058335,-0.0015181935733465934,-0.03393063119769835,0.0,70.0,255.0,255.0,255.0
353,17.650000000000002,-22.400991888165834,-10.446612125645938,-7.386082877511333,-0.9430199474490308,0.005172123012755492,-0.782449795410658,-0.04085526887855906,-0.0008564632359764346,-0.03443121610713362,0.0,70.0,255.0,255.0,255.0
354,17.7,-22.448193893529417,-10.44635459137954,-7.425248404438346,-0.9450649380129761,0.005147106554233005,-0.7841845854542395,-0.04104126369526284,-0.00019898064511636449,-0.03493656424282676,0.0,70.0,255.0,255.0,255.0
355,17.75,-22.49549838196713,-10.446097414990515,-7.464501336056757,-0.9471240738185571,0.005152224948243855,-0.7859434518349406,-0.04142900808226102,0.00024208771893796666,-0.035350259953048635,0.0,70.0,255.0,255.0,255.0
356,17.8,-22.542906300911273,-10.445839368884716,-7.50384274962184,-0.9492078388212022,0.005171315326126802,-0.7877196114495444,-0.04200551435431521,0.0003523867807331271,-0.03561660399711286,0.0,70.0,255.0,255.0,255.0
357,17.85,-22.59041916584925,-10.445580283457902,-7.543273297201711,-0.9513246252539886,0.005187463626317168,-0.7895051122346519,-0.04267552354271231,0.00020739738122443896,-0.03573080192333933,0.0,70.0,255.0,255.0,255.0
358,17.900000000000002,-22.638038763436672,-10.445320622522084,-7.582793260845305,-0.9534753911754734,0.005192055064249246,-0.7912926916418783,-0.04327974482443153,-3.4987690611387734e-05,-0.035704812005654674,0.0,70.0,255.0,255.0,255.0
359,17.95,-22.6857667049668,-10.445061077951477,-7.622402566365899,-0.9556525997364318,0.005183964857256029,-0.7930755934352174,-0.04365483411774562,-0.0002259940332649535,-0.03555602636309274,0.0,70.0,255.0,255.0,255.0
360,18.0,-22.733604023410315,-10.444802226036359,-7.662100820188827,-0.957840874587248,0.0051694556609227504,-0.7948482942781876,-0.0436519003645941,-0.00021569464312420905,-0.03531233137747947,0.0,70.0,255.0,255.0,255.0
361,18.05,-22.781550792425524,-10.444544132385385,-7.701887395793718,-0.9600177897728912,0.005162395392943608,-0.7966068265729653,-0.04320467350460433,7.265627317565304e-05,-0.034997043616247225,0.0,70.0,255.0,255.0,255.0
362,18.1,-22.829605802387604,-10.444285986497064,-7.741761502846123,-0.9621613419377084,0.005176721288240316,-0.7983479986398123,-0.04240129311661178,0.0005659000869684405,-0.03462700026952703,0.0,70.0,255.0,255.0,255.0
363,18.150000000000002,-22.877766926619294,-10.444026460256561,-7.781722195657699,-0.9642579190845524,0.0052189854016404524,-0.800069526599918,-0.04142118306589282,0.0011191179606129253,-0.0342303750304751,0.0,70.0,255.0,255.0,255.0
364,18.2,-22.92603159429606,-10.4437640879569,-7.821768455506115,-0.9663034602442977,0.005288633084301608,-0.8017710361428598,-0.04045837419397458,0.0015963833506660308,-0.03384501795089534,0.0,70.0,255.0,255.0,255.0
365,18.25,-22.974397272643724,-10.44349759694813,-7.861899299271985,-0.9683037565039498,0.0053786237367070555,-0.8034540283950076,-0.03969541842891999,0.0018807374736695692,-0.033496451833325835,0.0,70.0,255.0,255.0,255.0
366,18.3,-23.022861969946455,-10.44322622558323,-7.902113858345616,-0.9702730020871897,0.005476706831668565,-0.8051206813261924,-0.0392352788033179,0.0019099018791379763,-0.033201934824322876,0.0,70.0,255.0,255.0,255.0
367,18.35,-23.071424572852443,-10.442949926264964,-7.942411367404604,-0.9722272843842816,0.005569613924620853,-0.8067742218774399,-0.03907296366669755,0.0016934777965715853,-0.0329984930359295,0.0,70.0,255.0,255.0,255.0
368,18.400000000000002,-23.120084698384883,-10.442669264190767,-7.98279128053336,-0.9741802984538595,0.005646054611325724,-0.8084205306297854,-0.039162702401185356,0.001274879485713143,-0.03293639183477026,0.0,70.0,255.0,255.0,255.0
369,18.45,-23.16884260269783,-10.442385320803831,-8.023253420467583,-0.9761435546244002,0.005697101873192167,-0.8100678610609169,-0.03945115628347651,0.0007066610956840691,-0.03305718854669237,0.0,70.0,255.0,255.0,255.0
370,18.5,-23.217699053847323,-10.442099554003448,-8.063798066639452,-0.9781254140822071,0.005716720720894131,-0.8117262494844546,-0.0398784072739744,3.279136802092353e-05,-0.0334058239938706,0.0,70.0,255.0,255.0,255.0
371,18.55,-23.26665514410605,-10.441813648731742,-8.104426045416028,-0.9801313953517976,0.00570038100999426,-0.8134084434603039,-0.040395749744348564,-0.00070657614408276,-0.03398952944131395,0.0,70.0,255.0,255.0,255.0
372,18.6,-23.315712193382502,-10.441529515902449,-8.145138910985482,-0.982164989056642,0.005646063106485855,-0.815125202428586,-0.04094694545386801,-0.0014216760748197999,-0.03469818842525285,0.0,70.0,255.0,255.0,255.0
373,18.650000000000002,-23.364871643011714,-10.441249042421093,-8.185938565658887,-0.9842260898971844,0.00555821340251228,-0.8168782623028292,-0.041445396607286966,-0.001975092779815668,-0.03534321846832,0.0,70.0,255.0,255.0,255.0
374,18.7,-23.41413480237222,-10.440973694562198,-8.226826737215765,-0.9863095287173707,0.005448553828504288,-0.818659524275418,-0.0417918258463601,-0.0022307666617038535,-0.03573396679037444,0.0,70.0,255.0,255.0,255.0
375,18.75,-23.46350259588345,-10.440704187038243,-8.267804518086429,-0.9884052724818204,0.0053351367363418944,-0.8204516589818667,-0.041894915178630754,-0.0020639309166625708,-0.03568827084059478,0.0,70.0,255.0,255.0,255.0
376,18.8,-23.512975329620403,-10.440440180888563,-8.308871903113952,-0.9904990202352337,0.005242160736838031,-0.8222283513594775,-0.04171449611298783,-0.0014287721281647237,-0.035125635056409976,0.0,70.0,255.0,255.0,255.0
377,18.85,-23.562552497906974,-10.440179970964559,-8.350027353222377,-0.9925767220931192,0.005192259523525422,-0.8239642224875077,-0.0413037300436514,-0.0004520881836000967,-0.0341750003482133,0.0,70.0,255.0,255.0,255.0
378,18.900000000000002,-23.612233001829715,-10.43992095493621,-8.391268325362702,-0.9946293932395989,0.005196951918478021,-0.8256458513942988,-0.0407720748071938,0.0006282888371345052,-0.0330861655269743,0.0,70.0,255.0,255.0,255.0
379,18.95,-23.662015437230934,-10.439660275772711,-8.432591938361806,-0.9966539295738386,0.005255088407238873,-0.8272728390402051,-0.04024102750932457,0.0015579440132640343,-0.03211920536489998,0.0,70.0,255.0,255.0,255.0
380,19.0,-23.7118983947871,-10.439395446095487,-8.473995609266723,-0.9986534959905313,0.0053527463198044245,-0.8288577719307888,-0.03982995065570094,0.0020909043259464966,-0.03152109264465963,0.0,70.0,255.0,255.0,255.0
381,19.05,-23.761880786829987,-10.43912500114073,-8.515477715554885,-1.0006369246394087,0.005464178839833522,-0.8304249483046711,-0.03960575298194158,0.0021016646558180696,-0.03142121704620138,0.0,70.0,255.0,255.0,255.0
382,19.1,-23.81196208725104,-10.438849028211504,-8.55703810409719,-1.0026140712887255,0.0055629127853862315,-0.8319998936354089,-0.0395544980129614,0.0016781406971588808,-0.03175369829229169,0.0,70.0,255.0,255.0,255.0
383,19.150000000000002,-23.86214219395886,-10.438568709862192,-8.598677704918426,-1.0045923744407048,0.00563199290954941,-0.8336003181339002,-0.03963077969011408,0.0010138255436942245,-0.03236023131201193,0.0,70.0,255.0,255.0,255.0
384,19.200000000000003,-23.91242132469511,-10.438285828920549,-8.64039813591058,-1.006577149257737,0.005664295339755654,-0.8352359167666101,-0.039790264580474854,0.0003122773229335962,-0.033075925038517084,0.0,70.0,255.0,255.0,255.0
385,19.25,-23.962799908884634,-10.438002280328217,-8.682201296595087,-1.0085714008987523,0.00566322064184277,-0.8369079106377519,-0.03999330084631936,-0.0002196863880143951,-0.03374735858017175,0.0,70.0,255.0,255.0,255.0
386,19.3,-24.013278464784985,-10.437719506856364,-8.724088926974355,-1.0105764793423688,0.005642326700954214,-0.8386106526246273,-0.04020971806468765,-0.0004656254242618729,-0.034277235685031826,0.0,70.0,255.0,255.0,255.0
387,19.35,-24.06385755681887,-10.437438047658121,-8.76606236185755,-1.012592372705221,0.005616658099416583,-0.8403356342062551,-0.04039921030347671,-0.0004650433689690203,-0.03461477524702161,0.0,70.0,255.0,255.0,255.0
388,19.400000000000002,-24.114537702055507,-10.437157841046423,-8.80812249039498,-1.0146164003727165,0.005595822364057312,-0.8420721301493295,-0.040503034873395904,-0.000317343923583735,-0.03470666213978291,0.0,70.0,255.0,255.0,255.0
389,19.450000000000003,-24.165319196856142,-10.436878465421715,-8.850269574872483,-1.0166426761925607,0.005584923707058209,-0.8438063004202334,-0.04045842699333946,-0.0001146523723960513,-0.034498120122528064,0.0,70.0,255.0,255.0,255.0
390,19.5,-24.216201969674763,-10.436599348675717,-8.892503120437004,-1.0186622430720504,0.005584357126817707,-0.8455219421615823,-0.040196845959528105,4.7887843912519656e-05,-0.03393348235789517,0.0,70.0,255.0,255.0,255.0
391,19.55,-24.267185421163347,-10.436320029709034,-8.934821769088641,-1.0206623607885135,0.005589712491449461,-0.8471996486560229,-0.03969486193575733,0.0001147764344011648,-0.033008301752524005,0.0,70.0,255.0,255.0,255.0
392,19.6,-24.318268205753615,-10.436040377426572,-8.977223085302606,-1.0226317292656262,0.005595834770257824,-0.8488227723368347,-0.039050432330611784,0.00010296518038188651,-0.03186981144143175,0.0,70.0,255.0,255.0,255.0
393,19.650000000000002,-24.36944859408991,-10.435760446232008,-9.019704046322325,-1.0245674040215746,0.00560000900948765,-0.8503866298001661,-0.0384361484162099,5.3778591180275725e-05,-0.030773026888120114,0.0,70.0,255.0,255.0,255.0
394,19.700000000000003,-24.420724946155772,-10.435480376525623,-9.062261748282623,-1.0264753441072472,0.005601212629375851,-0.8519000750256467,-0.03802880134351483,1.3170087242997397e-07,-0.029983342724548834,0.0,70.0,255.0,255.0,255.0
395,19.75,-24.472096128500635,-10.43520032496907,-9.10489405382489,-1.0283702841559261,0.005600022179574893,-0.853384964072621,-0.03801129666989311,-2.3892961742433272e-05,-0.029754702664064325,0.0,70.0,255.0,255.0,255.0
396,19.8,-24.523561974571365,-10.434920374307666,-9.147600244689885,-1.0302764737742365,0.005598823333201608,-0.8548755452920531,-0.03846463372276787,-1.935998028557151e-07,-0.030203869659040095,0.0,70.0,255.0,255.0,255.0
397,19.85,-24.57512377587806,-10.43464044263575,-9.190381608354095,-1.032216747528203,0.005600002819594607,-0.856405351038525,-0.039234584843583775,5.318264779674564e-05,-0.031177027937978607,0.0,70.0,255.0,255.0,255.0
398,19.900000000000002,-24.626783649324185,-10.434360374025706,-9.233240779793737,-1.0341999322585949,0.0056041415979812825,-0.857993248085851,-0.040036007826671494,0.00010222955832972502,-0.032368503033985974,0.0,70.0,255.0,255.0,255.0
399,19.950000000000003,-24.678543769103918,-10.434080028475952,-9.27618093316268,-1.03622034831087,0.00561022577542758,-0.8596422013419236,-0.04058030703006921,0.0001141255690839671,-0.0334562479089584,0.0,70.0,255.0,255.0,255.0
400,20.0,-24.730405684155272,-10.433799351448164,-9.31920499992793,-1.0382579629616018,0.005615554154889679,-0.8613388728767468,-0.04057400465988792,4.7684003234849115e-05,-0.034123697663268615,0.0,70.0,255.0,255.0,255.0
401,20.05,-24.782369565400078,-10.433518473060463,-9.362314820450354,-1.0402777487768589,0.005614994175751065,-0.8630545711082505,-0.03987951692572267,-0.00011400203554501331,-0.03420344571694045,0.0,70.0,255.0,255.0,255.0
402,20.1,-24.834433459032958,-10.433237852030588,-9.405510457038755,-1.042245914654174,0.005604153951335178,-0.8647592174484409,-0.03869840777532829,-0.00031569577068069066,-0.03379112109520577,0.0,70.0,255.0,255.0,255.0
403,20.150000000000002,-24.886594156865495,-10.43295805766533,-9.448790742195198,-1.0441475895543917,0.0055834245986829956,-0.866433683217771,-0.037413479952519424,-0.0004626968236109974,-0.03310307752570907,0.0,70.0,255.0,255.0,255.0
404,20.200000000000003,-24.938848217988397,-10.43267950957072,-9.492153825360532,-1.045987262649426,0.005557884268974078,-0.8680695252010118,-0.03640931786037527,-0.00046334726597763165,-0.03235875188671855,0.0,70.0,255.0,255.0,255.0
405,20.25,-24.991192883130438,-10.432402269238432,-9.5355976947153,-1.0477885213404292,0.005537089872085232,-0.8696695584064429,-0.03606862874505623,-0.0002188710245931702,-0.031778478712496394,0.0,70.0,255.0,255.0,255.0
406,20.3,-25.04362707012244,-10.432125800583512,-9.579120781201176,-1.0495941255239316,0.005535997166514761,-0.8712473730722614,-0.03657767153342206,0.00031000127709290837,-0.031487895258486276,0.0,70.0,255.0,255.0,255.0
407,20.35,-25.09615229568283,-10.43184866952178,-9.622722432022526,-1.0514462884937714,0.005568089999794523,-0.8728183479322915,-0.03772190060402636,0.0010078288747550346,-0.03145391891496985,0.0,70.0,255.0,255.0,255.0
408,20.400000000000002,-25.148771698971817,-10.431568991583532,-9.666402615994405,-1.0533663155843342,0.005636780053990265,-0.8743927649637584,-0.03907911665237407,0.0016694901377789506,-0.03158543394956581,0.0,70.0,255.0,255.0,255.0
409,20.450000000000003,-25.201488927241265,-10.431284991516382,-9.710161708518902,-1.0553542001590088,0.005735039013572418,-0.8759768913272481,-0.04022307421109872,0.002093202887465395,-0.03180114547767232,0.0,70.0,255.0,255.0,255.0
410,20.5,-25.254307118987718,-10.430995487682175,-9.75400030512713,-1.0573886230054441,0.005846100342736804,-0.8775728795115256,-0.040731526979698174,0.0020878467141827173,-0.03202243410616035,0.0,70.0,255.0,255.0,255.0
411,20.55,-25.30722778954181,-10.430700381482108,-9.797918996470054,-1.0594273528569786,0.00594382368499069,-0.8791791347378641,-0.040389936797780024,0.0015663978603086548,-0.03219891264176766,0.0,70.0,255.0,255.0,255.0
412,20.6,-25.360249854273416,-10.430401105313676,-9.841918218600917,-1.0614276166852221,0.00600274012876767,-0.8807927707757024,-0.03938480566034741,0.0006506273576789567,-0.03231413564588337,0.0,70.0,255.0,255.0,255.0
413,20.650000000000002,-25.41337055121033,-10.430100107469231,-9.885998273547624,-1.0633658334230134,0.006008886420758586,-0.8824105483024525,-0.03809923759092726,-0.0004198324921489416,-0.032353415116403994,0.0,70.0,255.0,255.0,255.0
414,20.700000000000003,-25.466586437615717,-10.4298002166716,-9.930159273431162,-1.0652375404443148,0.0059607568795527754,-0.8840281122873428,-0.036918245436368125,-0.001397203211439546,-0.03229717902364371,0.0,70.0,255.0,255.0,255.0
415,20.75,-25.519894305254763,-10.429504031781276,-9.974401084776359,-1.0670576579666502,0.005869166099614631,-0.8856402662048168,-0.036225216715024544,-0.002052515832851043,-0.03213178486003443,0.0,70.0,255.0,255.0,255.0
416,20.8,-25.573292203412382,-10.429213300061638,-10.018723300051644,-1.0688600621158173,0.005755505296267671,-0.8872412907733462,-0.0362219285918286,-0.0022623060058180045,-0.031855941353242656,0.0,70.0,255.0,255.0,255.0
417,20.85,-25.626780311466344,-10.42892848125165,-10.063125213853693,-1.070679850825833,0.005642935499032831,-0.8888258603401411,-0.036769832464145225,-0.0020584501930542842,-0.03149131006541239,0.0,70.0,255.0,255.0,255.0
418,20.900000000000002,-25.680360188494966,-10.428649006511735,-10.107605886085658,-1.0725370453622318,0.005549660276962243,-0.8903904217798875,-0.03757381643509916,-0.0015420482798234048,-0.031079973185654808,0.0,70.0,255.0,255.0,255.0
419,20.950000000000003,-25.734034016002568,-10.428373515223953,-10.152164256031682,-1.074437232469343,0.00548873067105049,-0.8919338576587066,-0.0383435710862301,-0.0008243900422755246,-0.03066962560662745,0.0,70.0,255.0,255.0,255.0
420,21.0,-25.7878039117419,-10.42810013344463,-10.196799271851528,-1.0763714024708548,0.00546722127273469,-0.8934573843405502,-0.03879166210403184,-9.81135563904445e-06,-0.03029443577631241,0.0,70.0,255.0,255.0,255.0
421,21.05,-25.841671156249653,-10.42782679309668,-10.241509994465737,-1.0783163986797462,0.005487749535486586,-0.8949633012363378,-0.03876300151333112,0.0008243646243855096,-0.029977321945473534,0.0,70.0,255.0,255.0,255.0
422,21.1,-25.895635551609875,-10.427551358491082,-10.286295601975162,-1.080247702622188,0.005549657735173241,-0.8964551165350976,-0.03834220480882777,0.0015859706177678845,-0.029757920130535354,0.0,70.0,255.0,255.0,255.0
423,21.150000000000002,-25.949695926511872,-10.427271827323162,-10.331155506119247,-1.082150619160629,0.005646346597263374,-0.8979390932493914,-0.037718317182111605,0.0021427109274441136,-0.0296893961031941,0.0,70.0,255.0,255.0,255.0
424,21.200000000000003,-26.003850613525938,-10.426986723831355,-10.376089511300101,-1.084019534340399,0.005763928827917653,-0.899424056145417,-0.03707455646804192,0.0023563018414662906,-0.029817605262039137,0.0,70.0,255.0,255.0,255.0
425,21.25,-26.05809787994591,-10.42669543444037,-10.421097911733789,-1.0858580748074331,0.005881976781410003,-0.9009208537755953,-0.036592097569609905,0.0020917612545190423,-0.030194434738817222,0.0,70.0,255.0,255.0,255.0
426,21.3,-26.11243642100668,-10.426398526153214,-10.46618159667766,-1.08767874409736,0.005973104953369557,-0.9024434996192987,-0.03637212595926087,0.0013033090473513198,-0.030829083219963138,0.0,70.0,255.0,255.0,255.0
427,21.35,-26.166865754355648,-10.426098123945033,-10.511342261695718,-1.0894952874033592,0.006012307686145135,-0.9040037620975916,-0.0363777119400055,0.0001598824081128214,-0.031596170251546596,0.0,70.0,255.0,255.0,255.0
428,21.400000000000002,-26.221385949747017,-10.4257972953846,-10.55658197288742,-1.0913165152913606,0.005989093194180839,-0.9056031166444534,-0.03651739036136803,-0.0010315926317616686,-0.03228160324031393,0.0,70.0,255.0,255.0,255.0
429,21.450000000000003,-26.275997405884784,-10.425499214625615,-10.601902573360164,-1.093147026439496,0.005909148422968968,-0.907231922421623,-0.036704403507314964,-0.0019490690718271253,-0.03266769227359134,0.0,70.0,255.0,255.0,255.0
430,21.5,-26.330700652390966,-10.425206380542303,-10.647305165129582,-1.0949869556420921,0.0057941862869981264,-0.9088698858718125,-0.03684796626401976,-0.002277233662972833,-0.03253584391700315,0.0,70.0,255.0,255.0,255.0
431,21.55,-26.385496101448993,-10.424919795996916,-10.692789561947345,-1.096831823065898,0.005681425056671685,-0.9104855068133233,-0.03689572075700198,-0.0018638012811322824,-0.03179203281966636,0.0,70.0,255.0,255.0,255.0
432,21.6,-26.440383834697556,-10.424638238036636,-10.738353715810915,-1.0986765277177923,0.005607806158884898,-0.9120490891537791,-0.03686787983490092,-0.0008753837006381104,-0.030623645947791545,0.0,70.0,255.0,255.0,255.0
433,21.650000000000002,-26.495363754220772,-10.424359015381027,-10.783994470862723,-1.100518611049388,0.005593886686607874,-0.9135478714081025,-0.036810349810423304,0.00035270388938357655,-0.02937962217188783,0.0,70.0,255.0,255.0,255.0
434,21.700000000000003,-26.550435695802495,-10.424078849367975,-10.829708502951725,-1.1023575626988347,0.005643076547823256,-0.9149870513709679,-0.036761629035453325,0.001473913839866725,-0.02841717343233796,0.0,70.0,255.0,255.0,255.0
435,21.75,-26.605599510490656,-10.423794707726245,-10.87549317599982,-1.1041947739529334,0.0057412780705945465,-0.9163895887513362,-0.03676400940264557,0.002145192045333033,-0.028090161619864773,0.0,70.0,255.0,255.0,255.0
436,21.8,-26.66085517319779,-10.423504721560915,-10.921347461826858,-1.1060339636390992,0.005857595752356559,-0.9177960675329544,-0.03683827772498205,0.0021858354712023242,-0.0285698717458871,0.0,70.0,255.0,255.0,255.0
437,21.85,-26.716202906854566,-10.423208948151009,-10.967272782753115,-1.1078786017254316,0.005959861617714779,-0.919246575925925,-0.03695076871821357,0.0017106966827995507,-0.029659362508560605,0.0,70.0,255.0,255.0,255.0
438,21.900000000000002,-26.77164303337033,-10.422908735399144,-11.013272119419451,-1.1097290405109206,0.006028665420636514,-0.9207620037838105,-0.037041210398314206,0.0009708936245189648,-0.030968952362364632,0.0,70.0,255.0,255.0,255.0
439,21.950000000000003,-26.827175810905658,-10.422606081608945,-11.059348983131496,-1.111582722765263,0.0060569509801666754,-0.9223434711621614,-0.03705579364066125,0.00022049996015738316,-0.03210426667799027,0.0,70.0,255.0,255.0,255.0
440,22.0,-26.882801305646858,-10.422303040301127,-11.105506466535667,-1.1134346198749867,0.0060507154166522525,-0.9239724304516095,-0.036948024096616905,-0.00027556249122540066,-0.03268355622214614,0.0,70.0,255.0,255.0,255.0
441,22.05,-26.938519272893156,-10.42200101006728,-11.151746226176657,-1.1152775251749247,0.006029394731044135,-0.925611826784376,-0.03669736880702601,-0.0003739928178703167,-0.032508620054727544,0.0,70.0,255.0,255.0,255.0
442,22.1,-26.99432905816435,-10.421700100828023,-11.198067649214105,-1.1171043567556893,0.006013316134865221,-0.9272232924570822,-0.03633081685165962,-0.00017197179520422878,-0.0317097198708538,0.0,70.0,255.0,255.0,255.0
443,22.150000000000002,-27.050229708568725,-10.421399678453794,-11.244468555422365,-1.1189106068600907,0.0060121975515237125,-0.9287827987714614,-0.03590387619887281,0.00012996869838133307,-0.030573752529683418,0.0,70.0,255.0,255.0,255.0
444,22.200000000000003,-27.10622011885036,-10.42109888107287,-11.29094592909125,-1.1206947443755766,0.006026313004703354,-0.9302806677100506,-0.03547468358569006,0.0003432005405201721,-0.02939233328138613,0.0,70.0,255.0,255.0,255.0
445,22.25,-27.162299183006283,-10.420797047153323,-11.33749662219337,-1.1224580752186597,0.00604651760557573,-0.9317220320996,-0.03508790353272673,0.00026913251076621236,-0.028447594842440083,0.0,70.0,255.0,255.0,255.0
446,22.3,-27.218465926372225,-10.420494229312313,-11.38411813230121,-1.1242035347288493,0.006053226255779975,-0.9331254271942946,-0.03477224704404591,-0.00018972434077113576,-0.02790119582058992,0.0,70.0,255.0,255.0,255.0
447,22.35,-27.274719536479168,-10.420191724527745,-11.4308091649128,-1.1259352999230643,0.006027545171498616,-0.934512151681659,-0.0345632599085377,-0.0009001055374824318,-0.027734485282415733,0.0,70.0,255.0,255.0,255.0
448,22.400000000000002,-27.33105945636453,-10.419891474795163,-11.477569347469377,-1.127659860719703,0.005963215702031732,-0.9358988757225362,-0.03450598876888478,-0.001613472381301051,-0.027864988567571913,0.0,70.0,255.0,255.0,255.0
449,22.450000000000003,-27.387485522551138,-10.419595402957542,-11.524399052485053,-1.1293858987999528,0.005866197933368511,-0.9372986505384162,-0.0346387587359942,-0.0020934419834972573,-0.028212087841161804,0.0,70.0,255.0,255.0,255.0
450,22.5,-27.443998046244527,-10.419304855001826,-11.571299212523218,-1.1311237365933025,0.0057538715036820065,-0.9387200845066523,-0.03500432447758328,-0.0021130421432147273,-0.028690073732562382,0.0,70.0,255.0,255.0,255.0
451,22.55,-27.50059789621047,-10.419020015807174,-11.618271060935719,-1.132886331247711,0.005654893719047038,-0.9401676579116724,-0.035607955367567,-0.0015662240372193992,-0.02923484841037549,0.0,70.0,255.0,255.0,255.0
452,22.6,-27.557286679369298,-10.418739365629921,-11.665315978314386,-1.1346845321300592,0.005597249099960067,-0.9416435693476899,-0.03633530435180887,-0.000593853141062084,-0.029792432239794664,0.0,70.0,255.0,255.0,255.0
453,22.650000000000002,-27.614066349423474,-10.418460290897178,-11.712435417870488,-1.136519861682892,0.00559550840494083,-0.9431469011356519,-0.036991329565694286,0.0005284895896906505,-0.030283682478149387,0.0,70.0,255.0,255.0,255.0
454,22.700000000000003,-27.670938665537587,-10.418179814789427,-11.75963066842795,-1.1383836650866286,0.005650098058929132,-0.9446719375955048,-0.037378020402556444,0.001518306320491547,-0.030614140528051337,0.0,70.0,255.0,255.0,255.0
455,22.75,-27.727904715932137,-10.417895281091285,-11.806902611630038,-1.1402576637231476,0.005747339036989985,-0.946208315188457,-0.03730281720670803,0.002103036064227126,-0.030696072930957996,0.0,70.0,255.0,255.0,255.0
456,22.8,-27.784964431909902,-10.417605080885728,-11.854251499946796,-1.1421139468072994,0.005860401665351844,-0.9477415448886006,-0.0366816191295527,0.002141333777849752,-0.030492184430563896,0.0,70.0,255.0,255.0,255.0
457,22.85,-27.842116110612867,-10.41730924092475,-11.901676766118898,-1.143925825636103,0.00596147241477496,-0.9492575336315134,-0.03566176976690372,0.001723629988426012,-0.030060261284248213,0.0,70.0,255.0,255.0,255.0
458,22.900000000000002,-27.899357014473512,-10.41700893364425,-11.949177253309948,-1.1456801237839898,0.0060327646641944455,-0.9507475710170255,-0.034524124201240625,0.0010514021324681266,-0.029516645156490995,0.0,70.0,255.0,255.0,255.0
459,22.950000000000003,-27.956684122991266,-10.41670596445833,-11.9967515232206,-1.147378238056227,0.0060666126280217725,-0.9522091981471625,-0.033561420728034363,0.0003335034145734994,-0.028990837225073562,0.0,70.0,255.0,255.0,255.0
460,23.0,-28.014094838279135,-10.416402272381449,-12.044398173124664,-1.1490362658567932,0.006066115005651795,-0.9536466547395328,-0.03306440669597066,-0.00021910211138731484,-0.028613653191023047,0.0,70.0,255.0,255.0,255.0
461,23.05,-28.071587749576945,-10.416099352957765,-12.092116188694554,-1.150684678725824,0.006044702416883041,-0.9550705634662648,-0.03317885482765348,-0.0004868500017352062,-0.028455901045454368,0.0,70.0,255.0,255.0,255.0
462,23.1,-28.129163306151717,-10.41579780213976,-12.13990522947129,-1.1523541513395585,0.006017430005478275,-0.9564922448440782,-0.03376950469267115,-0.0005052355792400931,-0.02848288626111639,0.0,70.0,255.0,255.0,255.0
463,23.150000000000002,-28.1868231647109,-10.415497609957217,-12.187765413178962,-1.1540616291950911,0.005994178858959032,-0.9579188520923765,-0.034560285518026035,-0.0003678510323013029,-0.028614212422617413,0.0,70.0,255.0,255.0,255.0
464,23.200000000000003,-28.244569469071227,-10.415198384253864,-12.235697114680528,-1.1558101798913611,0.0059806449022481445,-0.95935366608634,-0.0352697232596455,-0.00015991904618317676,-0.028768711037052697,0.0,70.0,255.0,255.0,255.0
465,23.25,-28.302404182700037,-10.414899545466993,-12.283700779787596,-1.1575886015210557,0.005978186954340714,-0.9607957231960818,-0.03561158397928921,3.341900072229009e-05,-0.028857332952192394,0.0,70.0,255.0,255.0,255.0
466,23.3,-28.360328329223332,-10.41460056555843,-12.331776687000136,-1.15937133828929,0.0059839868023203735,-0.9622393993815592,-0.03543690095142438,0.00016000562368390092,-0.028831437493970213,0.0,70.0,255.0,255.0,255.0
467,23.35,-28.418341316528966,-10.41430114678676,-12.379924719725752,-1.1611322916161981,0.005994187516709104,-0.9636788669454788,-0.03486655178974729,0.00021824472984377508,-0.028729126071525002,0.0,70.0,255.0,255.0,255.0
468,23.400000000000002,-28.476441558384952,-10.41400114680676,-12.428144573694684,-1.1628579934682648,0.006005811275304751,-0.9651123119887117,-0.03414755424309135,0.00021823043425683863,-0.028624733593041185,0.0,70.0,255.0,255.0,255.0
469,23.450000000000003,-28.534627115875793,-10.41370056565923,-12.476435950924623,-1.1645470470405073,0.006016010560134788,-0.9665413403047829,-0.03352005919445844,0.00015997230278230745,-0.02858811816270901,0.0,70.0,255.0,255.0,255.0
470,23.5,-28.592896263089003,-10.413399545750746,-12.524798707725163,-1.1662099993877106,0.006021808505582982,-0.9679711238049826,-0.03322119211830454,3.339813794411839e-05,-0.028704987027872164,0.0,70.0,255.0,255.0,255.0
471,23.55,-28.651248115814564,-10.413098384808672,-12.573233063305121,-1.1678691662523377,0.0060193503739292,-0.9694118390075701,-0.03337340150793011,-0.00015988577910519552,-0.029011635689357718,0.0,70.0,255.0,255.0,255.0
472,23.6,-28.709683179714236,-10.412797610713353,-12.62173989162592,-1.1695473395385036,0.006005819927672462,-0.9708722873739184,-0.033878880220328256,-0.00036774334084554994,-0.029400609452068238,0.0,70.0,255.0,255.0,255.0
473,23.650000000000002,-28.768202849768414,-10.412497802815905,-12.670320292042513,-1.1712570542743705,0.005982576039844645,-0.9723518999527769,-0.0345349054313715,-0.000505070705081323,-0.02968685320716702,0.0,70.0,255.0,255.0,255.0
474,23.700000000000003,-28.826808885141673,-10.412199353109369,-12.718975081621197,-1.1730008300816408,0.00595531285716433,-0.9738409726946351,-0.035143466537945756,-0.0004866834522943009,-0.029692242886447673,0.0,70.0,255.0,255.0,255.0
475,23.75,-28.88550293277658,-10.411902271530188,-12.767704389311977,-1.1747714009281651,0.005933907694615215,-0.9753211242414217,-0.03551968484494239,-0.0002190395232304354,-0.029226774879020923,0.0,70.0,255.0,255.0,255.0
476,23.8,-28.94428602523449,-10.411605962339907,-12.81650719404534,-1.176552798566135,0.005933408904841286,-0.9767636501825372,-0.03556291959156965,0.00033333702695870215,-0.028214420678907004,0.0,70.0,255.0,255.0,255.0
477,23.85,-29.003158212633192,-10.411308930639704,-12.86538075433023,-1.178327692887322,0.005967241397311085,-0.9781425663093124,-0.03530333525496587,0.0010509570714134497,-0.026871979243736632,0.0,70.0,255.0,255.0,255.0
478,23.900000000000002,-29.062118794523222,-10.411009238200176,-12.91432145067627,-1.1800831320916316,0.006038504611982631,-0.9794508481069109,-0.034827416103411224,0.0017229847870225967,-0.02558598877815399,0.0,70.0,255.0,255.0,255.0
479,23.950000000000003,-29.121166525842355,-10.410705080178506,-12.963325839140921,-1.1818104344976632,0.006139539876013345,-0.9807011651871278,-0.03422607465424221,0.0021407008992113674,-0.024741744791079157,0.0,70.0,255.0,255.0,255.0
480,24.0,-29.18029983797299,-10.410395284212575,-13.012391567194983,-1.1835057395570558,0.006252574701903768,-0.9819250225860188,-0.03358808715034911,0.0021028065749106872,-0.024719848187793048,0.0,70.0,255.0,255.0,255.0
481,24.05,-29.23951709979806,-10.410079822708315,-13.061518341399523,-1.1851692432126981,0.006349820533504413,-0.9831731500059071,-0.032973894483490085,0.0015189386047609332,-0.02569208019593816,0.0,70.0,255.0,255.0,255.0
482,24.1,-29.29881676229426,-10.409760302159224,-13.110708882195574,-1.1868031290054049,0.006404468562379861,-0.9844942306056126,-0.032425913957467856,0.0005301621417430624,-0.027380750961292222,0.0,70.0,255.0,255.0,255.0
483,24.150000000000002,-29.3581974126986,-10.409439375852077,-13.159967764460085,-1.188411834608445,0.00640283674767872,-0.9859112251020363,-0.03199897328052259,-0.0005914372087190145,-0.029257396808368696,0.0,70.0,255.0,255.0,255.0
484,24.200000000000003,-29.417657945755103,-10.409120018484456,-13.209300004705778,-1.1900030263334571,0.00634532484150796,-0.9874199702864495,-0.03175120920566599,-0.0015638590726396728,-0.03078245627214926,0.0,70.0,255.0,255.0,255.0
485,24.25,-29.477197715331947,-10.408804843367927,-13.25870976148873,-1.1915869555290115,0.006246450840414752,-0.9889894707292513,-0.031727966550931797,-0.0021121867749940293,-0.031429869666865784,0.0,70.0,255.0,255.0,255.0
486,24.3,-29.536816641308004,-10.408495373400415,-13.308198951778703,-1.1931758229885503,0.006134106164008557,-0.990562957253136,-0.03194252811304921,-0.002095804732249462,-0.030936885576338113,0.0,70.0,255.0,255.0,255.0
487,24.35,-29.596515297630802,-10.408191432751526,-13.357766057214043,-1.1947812083403164,0.006036870367189806,-0.9920831592868851,-0.03234946579340203,-0.001619717527745479,-0.029540308285369576,0.0,70.0,255.0,255.0,255.0
488,24.400000000000002,-29.656294762142036,-10.407891686363696,-13.407407267707391,-1.1964107695678905,0.005972134411234009,-0.993516988081673,-0.03285855558026185,-0.0009091240649183874,-0.027729971774981266,0.0,70.0,255.0,255.0,255.0
489,24.450000000000003,-29.71615637458759,-10.407594219310402,-13.45711775602221,-1.1980670638983426,0.005945957960697967,-0.9948561564643832,-0.03336340087862766,-0.0001985513211621992,-0.02600777744010685,0.0,70.0,255.0,255.0,255.0
490,24.5,-29.77610146853187,-10.407297090567626,-13.50689288335383,-1.1997471096557533,0.005952279279117789,-0.9961177658256837,-0.03376000002326407,0.0002659405259564096,-0.024868645171416404,0.0,70.0,255.0,255.0,255.0
491,24.55,-29.836131085553166,-10.40699899138249,-13.556729532604779,-1.201443063900669,0.005972552013293608,-0.9973430209815248,-0.03398979259401358,0.0003520192516148768,-0.024579211996567096,0.0,70.0,255.0,255.0,255.0
492,24.6,-29.896245774921937,-10.406699835366297,-13.606627185451982,-1.2031460889151546,0.005987481204279277,-0.9985756870253404,-0.03405985923379262,0.00015327673299481148,-0.02500533524472104,0.0,70.0,255.0,255.0,255.0
493,24.650000000000002,-29.95644569444468,-10.406400243262063,-13.656587101307313,-1.2048490498240483,0.0059878796865930894,-0.9998435545059969,-0.034002328878912635,-0.00013831361815874743,-0.025837075067514093,0.0,70.0,255.0,255.0,255.0
494,24.700000000000003,-30.01673067990434,-10.406101047397637,-13.706611540902582,-1.2065463218030459,0.005973649842463402,-1.0011593945320918,-0.03385570010081551,-0.0003410498607081536,-0.026765548187590582,0.0,70.0,255.0,255.0,255.0
495,24.75,-30.077100326624986,-10.405802878277816,-13.756703040760522,-1.2082346198341298,0.005953774700522274,-1.002520109324756,-0.033676042678010276,-0.00026364991985161623,-0.02747559626676832,0.0,70.0,255.0,255.0,255.0
496,24.8,-30.137554141887755,-10.405505669927585,-13.806863551835058,-1.209913926070847,0.0059472848504782405,-1.0039069541587686,-0.03349727586652307,0.00018758786435313368,-0.027787944758017602,0.0,70.0,255.0,255.0,255.0
497,24.85,-30.19809171923207,-10.405208149792768,-13.857093736176399,-1.2115843474207821,0.0059725334869575875,-1.0052989038005578,-0.03329193643111239,0.0008839066316213007,-0.02776385190088604,0.0,70.0,255.0,255.0,255.0
498,24.900000000000002,-30.258712576629833,-10.40490841657889,-13.907393442215113,-1.2132431197139582,0.006035675513640371,-1.0066833393488572,-0.03301296806945686,0.0015850825006324953,-0.027553709306715746,0.0,70.0,255.0,255.0,255.0
499,24.950000000000003,-30.319416031203467,-10.404604582241404,-13.957762070111285,-1.2148856442277278,0.006131041737020837,-1.0080542747312293,-0.03262619965163083,0.0020628906261421776,-0.027291428411579943,0.0,70.0,255.0,255.0,255.0
500,25.0,-30.380201141052606,-10.404295312405187,-14.008198869688236,-1.2165057396791212,0.006241964576254588,-1.0094124821900152,-0.03208389452780125,0.0021007337462464193,-0.027116895170387068,0.0,70.0,255.0,255.0,255.0
501,25.05,-30.44106660517138,-10.403980385783779,-14.058703318330286,-1.218094033680508,0.006341115111645479,-1.010765964248268,-0.03137401769137682,0.0015967435079033976,-0.027108356290739266,0.0,70.0,255.0,255.0,255.0
502,25.1,-30.502010544420656,-10.403661200894023,-14.109275466113063,-1.219643141448259,0.006401638927044928,-1.0121233178190892,-0.030611462644358767,0.0006773438261831188,-0.02721832474925634,0.0,70.0,255.0,255.0,255.0
503,25.150000000000002,-30.563030919316205,-10.403340221891074,-14.159915650112195,-1.2211551799449438,0.006408849494263791,-1.0134877967231937,-0.029987570406930786,-0.00040658514794955636,-0.027349859267111754,0.0,70.0,255.0,255.0,255.0
504,25.200000000000003,-30.62412606241515,-10.403020315944596,-14.210624245785382,-1.222641898488952,0.0063609804122499725,-1.0148583037458003,-0.029685561899128743,-0.0013982515715937893,-0.02742165192088919,0.0,70.0,255.0,255.0,255.0
505,25.25,-30.6852951091651,-10.40270412384985,-14.261401480486775,-1.2241237361348567,0.006269024337104412,-1.0162299619152826,-0.029884323264539603,-0.002059285065136862,-0.027360878996240956,0.0,70.0,255.0,255.0,255.0
506,25.3,-30.746538436028636,-10.402393413510886,-14.31224724197691,-1.225630330815406,0.006155051905736286,-1.0175943916454244,-0.03065476525421218,-0.002261275182391387,-0.027131543829916893,0.0,70.0,255.0,255.0,255.0
507,25.35,-30.80785814224664,-10.402088618659276,-14.363160919651317,-1.227189212660278,0.006042896818865273,-1.0189431162982743,-0.03181689830782375,-0.0020413938241148344,-0.02676462066162344,0.0,70.0,255.0,255.0,255.0
508,25.400000000000002,-30.869257357294664,-10.401789123829,-14.414141553606738,-1.2288120206461883,0.005950912523324803,-1.0202708537115868,-0.03303954750606408,-0.0015106300208955759,-0.026325921226266757,0.0,70.0,255.0,255.0,255.0
509,25.450000000000003,-30.93073934431126,-10.401493527406943,-14.465188005022476,-1.2304931674108843,0.005891833816775716,-1.021575708420901,-0.033979804501171884,-0.0007898843394471555,-0.025881451086995355,0.0,70.0,255.0,255.0,255.0
510,25.5,-30.992306674035753,-10.401199940447322,-14.516299124448828,-1.2322100010963055,0.005871924089380087,-1.0228589988202863,-0.03429881241530097,4.3785417958019934e-06,-0.0254835981673196,0.0,70.0,255.0,255.0,255.0
511,25.55,-31.05396034442089,-10.400906334998005,-14.567473904904505,-1.2339230486524144,0.005892271670955296,-1.024124068237633,-0.03383312175451181,0.0007898956829066606,-0.02516546838897682,0.0,70.0,255.0,255.0,255.0
512,25.6,-31.115698978900994,-10.400610713280226,-14.618711531272591,-1.2355933132717567,0.005950913657670753,-1.025375545659184,-0.032770827573358474,0.0014910286736835587,-0.024960488639536038,0.0,70.0,255.0,255.0,255.0
513,25.650000000000002,-31.177519675748066,-10.400311243632238,-14.670011459470423,-1.2372001314097503,0.006041374538323652,-1.0266201171015865,-0.031485195282243694,0.0020037905448688775,-0.024909159790276192,0.0,70.0,255.0,255.0,255.0
514,25.700000000000003,-31.23941899204197,-10.400006575826394,-14.72137354298275,-1.238741832799981,0.006151292712157641,-1.0278664616382116,-0.030361280701995952,0.002219327391195236,-0.025045830448000572,0.0,70.0,255.0,255.0,255.0
515,25.75,-31.301393859028064,-10.399696114361022,-14.772798105634244,-1.2402362594799499,0.006263307277443175,-1.0291247001463866,-0.029792408426487782,0.002041770898664197,-0.025408691037753783,0.0,70.0,255.0,255.0,255.0
516,25.8,-31.363442617989964,-10.39938024509865,-14.824286012997389,-1.2417210736426298,0.006355469802024061,-1.030407330741987,-0.029978808329644835,0.0014401539891295556,-0.02600089496791469,0.0,70.0,255.0,255.0,255.0
517,25.85,-31.425565966392327,-10.39906056738082,-14.875838838708443,-1.2432341403129143,0.006407322676356131,-1.031724789643178,-0.030730747110396806,0.0005225938156883103,-0.02671258561921519,0.0,70.0,255.0,255.0,255.0
518,25.900000000000002,-31.487766032021256,-10.398739512831014,-14.927458491961707,-1.2447941483536695,0.006407729183592892,-1.0330785893039085,-0.031669554821434076,-0.0005073293625201813,-0.027356600450900714,0.0,70.0,255.0,255.0,255.0
519,25.950000000000003,-31.550045381227694,-10.39841979446246,-14.979146697638834,-1.2464010957950578,0.006356589740104113,-1.0344604496882681,-0.032421413014560585,-0.0014289636881770207,-0.02774296605068116,0.0,70.0,255.0,255.0,255.0
520,26.0,-31.61240614160076,-10.398103853857004,-15.030904536930533,-1.2480362896551256,0.00626483281477519,-1.0358528859089766,-0.032607637793447,-0.0020394341627039125,-0.027689656330132095,0.0,70.0,255.0,255.0,255.0
521,26.05,-31.674849010193206,-10.397793311180983,-15.082731986229732,-1.2496618595744025,0.0061526463238337215,-1.0372294153212813,-0.03203849807356107,-0.0022305116383236623,-0.027116639385660335,0.0,70.0,255.0,255.0,255.0
522,26.1,-31.7373723275582,-10.39748858922462,-15.134627478462662,-1.2512401394624817,0.0060417816509428235,-1.0385645498475427,-0.03091429587200878,-0.0020295158257965795,-0.026155415968354134,0.0,70.0,255.0,255.0,255.0
523,26.150000000000002,-31.799973024139454,-10.397189133015889,-15.186588441214486,-1.2527532891616033,0.0059496947412540635,-1.0398449569181167,-0.029628473547305134,-0.0015263612073823651,-0.02505986963825535,0.0,70.0,255.0,255.0,255.0
524,26.200000000000003,-31.862647656474362,-10.396893619750495,-15.238611974154473,-1.2542029868172122,0.005889145530204587,-1.0410705368113682,-0.02856621409108584,-0.0008234726383449242,-0.024094566422938613,0.0,70.0,255.0,255.0,255.0
525,26.25,-31.925393322821176,-10.396600218462869,-15.290695494895623,-1.255609910570712,0.005867347477419571,-1.0422544135604106,-0.02810095648015931,-1.6062220353774137e-05,-0.02351268364471082,0.0,70.0,255.0,255.0,255.0
526,26.3,-31.988208647531433,-10.396306885002753,-15.342837415510514,-1.2570130824652281,0.0058875393081692096,-1.0434218051758393,-0.028420859053923664,0.0008234310262977829,-0.023445834202995286,0.0,70.0,255.0,255.0,255.0
527,26.35,-32.0510946310677,-10.396011464532052,-15.395037675413207,-1.2584519964761043,0.005949690580049349,-1.0445989969807101,-0.02936218595230855,0.0015982666912606192,-0.023817638616918657,0.0,70.0,255.0,255.0,255.0
528,26.400000000000002,-32.11405384717904,-10.395711915944748,-15.447297315208585,-1.259949301060459,0.0060473659772952715,-1.0458035690375311,-0.03058559527637783,0.0021674595064524738,-0.024452032882926744,0.0,70.0,255.0,255.0,255.0
