idx,t,px,py,pz,vx,vy,vz,ax,ay,az,yaw,mode,ledr,ledg,ledb
0,0.0,4.5,7.500000000000004,6.537985096404736e-19,0.0002698628997777064,-0.0005770520823311642,0.00014899395610339526,-0.0015324193318733137,0.00518034721554983,-0.012726626374022647,0.0,70.0,255.0,255.0,255.0
1,0.05,4.500013493144989,7.499971147395888,7.449697805170417e-06,0.0001932419331840407,-0.00031803472155367274,-0.0004873373625977371,-0.0022070765813175797,0.007622977421295474,-0.019099111264281137,0.0,70.0,255.0,255.0,255.0
2,0.1,4.500019324193318,7.499968196527849,-4.873373625977306e-05,4.915524164594842e-05,0.00018524565979838314,-0.0017609171703247184,-0.0026986289978658817,0.009770520823160211,-0.025489939561033965,0.0,70.0,255.0,255.0,255.0
3,0.15000000000000002,4.5000184086691535,7.499989671961868,-0.00016864201922730143,-7.662096660254747e-05,0.0006590173607623484,-0.003036331318701134,-0.0023324193306528684,0.009180347217174756,-0.02552662637402406,0.0,70.0,255.0,255.0,255.0
4,0.2,4.500011662096658,7.500034098263925,-0.00035236686812988645,-0.00018408669141933842,0.0011032803815158587,-0.0043135798077271244,-0.001965240231083243,0.008584505631681338,-0.02556408284043244,0.0,70.0,255.0,255.0,255.0
5,0.25,4.5000000000000115,7.500100000000019,-0.0006000000000000139,-0.00027314498971087176,0.0015174679239304822,-0.005592739602744378,-0.0015924868911554313,0.007956073170412026,-0.025605964813999207,0.0,70.0,255.0,255.0,255.0
6,0.30000000000000004,4.499984347597687,7.500185845056318,-0.0009116408284043243,-0.00034333538053488155,0.0018988876985570613,-0.006874176289127045,-0.0012126782267252167,0.007286390430039091,-0.025653448154120007,0.0,70.0,255.0,255.0,255.0
7,0.35000000000000003,4.499965666461958,7.500289888769875,-0.0012874176289127185,-0.00039441281238339343,0.0022461069669343914,-0.008158084418156379,-0.0008384438041630915,0.006649298563665695,-0.025696505987081026,0.0,70.0,255.0,255.0,255.0
8,0.4,4.499944906316449,7.500410455753012,-0.0017274492702199623,-0.0004271797609511907,0.002563817554923631,-0.009443826887835148,-0.000489953229365625,0.006162722994140779,-0.025719125245905056,0.0,70.0,255.0,255.0,255.0
9,0.45,4.499922948485863,7.500546270525367,-0.0022318003176962334,-0.00044340813531995593,0.0028623792663484693,-0.010729996942746884,-0.00018052817400970866,0.005930375357809936,-0.025705399759926792,0.0,70.0,255.0,255.0,255.0
10,0.5,4.499900565502917,7.500696693679647,-0.002800448964494651,-0.00044523257835216157,0.0031568550907046244,-0.012014366863827827,9.360590000895286e-05,0.006052850786542052,-0.02563300957998513,0.0,70.0,255.0,255.0,255.0
11,0.55,4.499878425228028,7.500861956034438,-0.003433237004079016,-0.00043404754531906065,0.0034676643450026745,-0.013293297900745397,0.00033354964159570955,0.006563167360784661,-0.025494685757119755,0.0,70.0,255.0,255.0,255.0
12,0.6000000000000001,4.499857160748385,7.501043460114147,-0.004129778754569191,-0.0004118776141925906,0.0038131718267830905,-0.014563835439539803,0.00050559354898283,0.007321985616659532,-0.025333101297581352,0.0,70.0,255.0,255.0,255.0
13,0.65,4.4998372374666085,7.501243273217116,-0.0048896205480329965,-0.00038348819042077764,0.004199862906668628,-0.015826608030503533,0.0005604367117051368,0.0080802713886996,-0.025220005003461447,0.0,70.0,255.0,255.0,255.0
14,0.7000000000000001,4.499818811929343,7.501463446404814,-0.005712439557619544,-0.00035583394302207694,0.0046211989656530505,-0.017085835939885947,0.00046137879001761917,0.008578295905525835,-0.025224366174281844,0.0,70.0,255.0,255.0,255.0
15,0.75,4.499801654072306,7.5017053931136815,-0.006598204142021591,-0.0003373503114190157,0.005057692497221211,-0.018349044647931717,0.00017364166824407334,0.00855260617766973,-0.025415933708031364,0.0,70.0,255.0,255.0,255.0
16,0.8,4.499785076898201,7.501969215654536,-0.007547344022412716,-0.0003384697761976696,0.005476459583420024,-0.019627429310689084,-0.000308149975669636,0.007881472612947249,-0.025822378004618056,0.0,70.0,255.0,255.0,255.0
17,0.8500000000000001,4.4997678070946865,7.5022530390720235,-0.0085609470730905,-0.0003681653089859793,0.005845839758515936,-0.020931282448393523,-0.0009030912305085792,0.006749938457151217,-0.02636931726082297,0.0,70.0,255.0,255.0,255.0
18,0.9,4.499748260367302,7.5025537996303875,-0.009640472267252068,-0.0004287788992485275,0.006151453429135145,-0.02226436103677138,-0.0014709544560176369,0.005509851125307108,-0.026921787141182957,0.0,70.0,255.0,255.0,255.0
19,0.9500000000000001,4.499724929204762,7.502868184414937,-0.010787383176767638,-0.000515260754587743,0.006396824871046647,-0.02362346116251182,-0.0018660126275271693,0.004515788339176652,-0.027344361650172115,0.0,70.0,255.0,255.0,255.0
20,1.0,4.4996967342918435,7.503193482117492,-0.01200281838350325,-0.0006153801620012445,0.0066030322630528104,-0.024998797201788592,-0.0019441632491457028,0.004112668558509114,-0.02751127423590797,0.0,70.0,255.0,255.0,255.0
21,1.05,4.4996633911885615,7.503528487641242,-0.013287262896946497,-0.0007096770795023133,0.006808091726897558,-0.026374588586102615,-0.0016404369180378353,0.004471315147736021,-0.0273620026906082,0.0,70.0,255.0,255.0,255.0
22,1.1,4.499625766583893,7.503874291290182,-0.014640277242113512,-0.000779423853805028,0.007050163777826413,-0.027734997470849412,-0.0010577041509307605,0.005428377105065607,-0.026954105183604228,0.0,70.0,255.0,255.0,255.0
23,1.1500000000000001,4.499585448803181,7.504233504019025,-0.01606076264403144,-0.0008154474945953893,0.007350929437404119,-0.029069999104463038,-0.0003929825243886853,0.006649368399092026,-0.026409210068171693,0.0,70.0,255.0,255.0,255.0
24,1.2000000000000002,4.499544221834434,7.504609384233922,-0.017547277152559815,-0.0008187221062438965,0.007715100617735615,-0.03037591847766658,0.00014989782668450857,0.007792490131386387,-0.02585767440451605,0.0,70.0,255.0,255.0,255.0
25,1.25,4.499503576592557,7.5050050140807985,-0.019098354491798097,-0.0008004577119269385,0.008130178450542758,-0.03165576654491464,0.00036702065289162533,0.008524738236470597,-0.025426987996356176,0.0,70.0,255.0,255.0,255.0
26,1.3,4.499464176063241,7.505422402078977,-0.02071285380705128,-0.000782020040954734,0.008567574441382675,-0.0329186172773022,0.0001566109347983513,0.008667206190171584,-0.0251890984124363,0.0,70.0,255.0,255.0,255.0
27,1.35,4.499425374588461,7.505861771524937,-0.022390216219528317,-0.0007847966184471034,0.008996899069559916,-0.03417467638615827,-0.0003806842407527711,0.008305597411961685,-0.02513062564112392,0.0,70.0,255.0,255.0,255.0
28,1.4000000000000001,4.499385696401396,7.506322091985933,-0.024130321445667107,-0.0008200884650300111,0.009398134182578843,-0.03543167984141459,-0.001042523371630466,0.007642791828565976,-0.025205848110607457,0.0,70.0,255.0,255.0,255.0
29,1.4500000000000002,4.499343365741958,7.506801584943195,-0.025933384203669776,-0.00088904895561015,0.009761178252416514,-0.03669526119721902,-0.0016270052524802736,0.006881337382047548,-0.025371141197964506,0.0,70.0,255.0,255.0,255.0
30,1.5,4.499296791505835,7.507298209811174,-0.02779984756538901,-0.0009827889902780385,0.010086267920783598,-0.03796879396121104,-0.0019399566587807726,0.0062163505242907036,-0.025588792426685728,0.0,70.0,255.0,255.0,255.0
31,1.55,4.49924508684293,7.507810211735273,-0.02973026359979088,-0.0010830446214882272,0.010382813304845584,-0.03925414043988759,-0.0018794333952243392,0.005765407876801021,-0.02582882976687219,0.0,70.0,255.0,255.0,255.0
32,1.6,4.4991884870436865,7.508336491141659,-0.03172526160937777,-0.0011707323298004724,0.0106628087084637,-0.04055167693789826,-0.001504966811438635,0.005544664480883199,-0.026044324652833156,0.0,70.0,255.0,255.0,255.0
33,1.6500000000000001,4.49912801360995,7.508876492606119,-0.033785431293580706,-0.0012335413026320907,0.010937279752933904,-0.04185857290517091,-0.0009515160630968467,0.005545711373677875,-0.026165625927627653,0.0,70.0,255.0,255.0,255.0
34,1.7000000000000002,4.499065132913423,7.509430219116952,-0.03591111889989486,-0.001265883936110157,0.011217379845831488,-0.043168239530661026,-0.00035516352996367573,0.005767847987581121,-0.026118273624137905,0.0,70.0,255.0,255.0,255.0
35,1.75,4.499001425216339,7.5099982305907025,-0.03810225524664681,-0.0012690576556284583,0.011514064551692016,-0.0444704002675847,0.00015681530598499194,0.006217878314362935,-0.02581784229690326,0.0,70.0,255.0,255.0,255.0
36,1.8,4.49893822714786,7.510581625572121,-0.04035815892665333,-0.0012502024055116578,0.011839167677267781,-0.04575002376035135,0.0005083487526036379,0.00687890122925694,-0.025235069699565404,0.0,70.0,255.0,255.0,255.0
37,1.85,4.498876404975788,7.511182147358429,-0.042677257622681944,-0.0012182227803680945,0.01220195467461771,-0.04699390723754124,0.0006841878504637577,0.007634905502484912,-0.024493847309315503,0.0,70.0,255.0,255.0,255.0
38,1.9000000000000001,4.498816404869824,7.511801821039583,-0.04505754965040745,-0.001181783620465282,0.012602658227516272,-0.0481994084912829,0.0006841121002132411,0.008293523516833545,-0.02381071577794644,0.0,70.0,255.0,255.0,255.0
39,1.9500000000000002,4.498758226613742,7.512442413181181,-0.047497198471810234,-0.0011498115703467704,0.013031307026301064,-0.04937497881533588,0.0005081721928590355,0.00865500959656984,-0.023401824911543218,0.0,70.0,255.0,255.0,255.0
40,2.0,4.498701423712789,7.513104951742213,-0.04999504753194104,-0.0011309664011793785,0.013468159187173256,-0.050539590982437224,0.0001567047591244375,0.008520154866076268,-0.02347979176565776,0.0,70.0,255.0,255.0,255.0
41,2.0500000000000003,4.498645129973624,7.513789229099898,-0.05255115757005396,-0.0011341410944343266,0.013883322512908691,-0.05172295799190166,-0.0003549872566566137,0.007804674851463744,-0.024138490502465665,0.0,70.0,255.0,255.0,255.0
42,2.1,4.4985880096033455,7.514493283993504,-0.055167343331131206,-0.0011664651268450399,0.014248626672319631,-0.05295344003268379,-0.0009509454297784714,0.006681960594789871,-0.025214039023655627,0.0,70.0,255.0,255.0,255.0
43,2.15,4.498528483460939,7.51521409176713,-0.057846501573322336,-0.0012292356374121738,0.014551518572387678,-0.05424436189426722,-0.001504093176585286,0.005475625794559846,-0.02639607972515709,0.0,70.0,255.0,255.0,255.0
44,2.2,4.498465086039604,7.515948435850743,-0.06059177952055793,-0.0013168744445035685,0.014796189251775616,-0.0555930480051995,-0.001878550882139507,0.004517661412162255,-0.027368878944143,0.0,70.0,255.0,255.0,255.0
45,2.25,4.498396796016489,7.516693710692308,-0.06340580637384229,-0.0014170907256261245,0.015003284713603904,-0.05698124978868152,-0.0019396250181991093,0.004129474249392473,-0.027835018612491075,0.0,70.0,255.0,255.0,255.0
46,2.3000000000000003,4.498323376967042,7.517448764322103,-0.06628990449942608,-0.0015108369463234794,0.015209136676714863,-0.05837654986644861,-0.0016278869062524848,0.004469485612812463,-0.027643882043483503,0.0,70.0,255.0,255.0,255.0
47,2.35,4.498245712321856,7.518214624359979,-0.06924346136048715,-0.001579879416251373,0.01545023327488515,-0.05974563799302987,-0.0010448816560426621,0.005387368668419157,-0.026899880045944125,0.0,70.0,255.0,255.0,255.0
48,2.4000000000000004,4.4981653890254165,7.518993787649592,-0.07226446829872907,-0.0016153251119277456,0.01574787354355678,-0.06106653787104302,-0.0003841030298268322,0.006573017593236585,-0.025835921032391074,0.0,70.0,255.0,255.0,255.0
49,2.45,4.498084179810664,7.519789411714335,-0.07535011514759145,-0.0016182897192340562,0.01610753503420881,-0.06232923009626898,0.00015325744291416754,0.007708284148311151,-0.024695433204662,0.0,70.0,255.0,255.0,255.0
50,2.5,4.498003560053493,7.520604541153013,-0.07849739130835597,-0.0015999993676363289,0.016518701958387894,-0.06353608119150922,0.0003658046380472513,0.008489966783997716,-0.023704143108378706,0.0,70.0,255.0,255.0,255.0
51,2.5500000000000003,4.4979241798739,7.521441281910174,-0.08170372326674237,-0.001581709255429331,0.01695653171260858,-0.06469964440710685,0.00015324816819983766,0.008751322092059866,-0.022998242395864954,0.0,70.0,255.0,255.0,255.0
52,2.6,4.49784538912795,7.5223001943242735,-0.08496735574906665,-0.0015846745508163451,0.01739383416759388,-0.06583590543109571,-0.00038412002085763675,0.008537609020820014,-0.022619168065296513,0.0,70.0,255.0,255.0,255.0
53,2.6500000000000004,4.497765712418818,7.523180665326933,-0.08828731380985194,-0.0016201212575150947,0.01781029261469058,-0.0669615612136365,-0.001044902629399047,0.007982420381580368,-0.022589187194224647,0.0,70.0,255.0,255.0,255.0
54,2.7,4.497683377002199,7.524081223585743,-0.0916635118704303,-0.0016891648137562498,0.018192076205751917,-0.06809482415051818,-0.001627905463230661,0.00722300152817823,-0.022928362596187635,0.0,70.0,255.0,255.0,255.0
55,2.75,4.497596795937443,7.524999872947508,-0.09509679622490376,-0.0017829118038381608,0.018532592767508405,-0.06925439747325526,-0.0019396308299057807,0.00639065861536281,-0.023660390305987877,0.0,70.0,255.0,255.0,255.0
56,2.8000000000000003,4.497505085821815,7.5259344828624934,-0.09858895161775583,-0.001883127896746828,0.018831142067288198,-0.07046086318111697,-0.0018785323403491816,0.005576974271459534,-0.02476519965511209,0.0,70.0,255.0,255.0,255.0
57,2.85,4.497408483147768,7.526882987154237,-0.10214288254301546,-0.001970765037873079,0.019090290194654358,-0.07173091743876647,-0.0015040461859072707,0.004859398045020669,-0.02606176937117316,0.0,70.0,255.0,255.0,255.0
58,2.9000000000000004,4.4973080093180275,7.527843511881959,-0.10576204336163247,-0.002033532515337555,0.019317081871790265,-0.07306704011823428,-0.0009508785269396469,0.0043426155648340625,-0.027245651869009513,0.0,70.0,255.0,255.0,255.0
59,2.95,4.497205129896234,7.528814695341416,-0.10944958655483888,-0.0020658528905670437,0.019524551751137764,-0.07445548262566742,-0.0003549223037246918,0.00413817127711269,-0.027999880979368008,0.0,70.0,255.0,255.0,255.0
60,3.0,4.497101424028971,7.529795967057073,-0.11320759162419922,-0.002069024745710024,0.019730898999501534,-0.07586702821617108,0.00015672800612875903,0.004347398755033538,-0.028018304991708765,0.0,70.0,255.0,255.0,255.0
61,3.0500000000000003,4.496998227421663,7.530787785241366,-0.11703628937645599,-0.002050180089954168,0.019959291626641118,-0.0772573131248383,0.0005081073001456105,0.005002319284486134,-0.027166133808859128,0.0,70.0,255.0,255.0,255.0
62,3.1,4.496896406019975,7.531791896219737,-0.12093332293668305,-0.002018214015695463,0.020231130927950147,-0.078583641597057,0.0006839411280878949,0.0059794841137161825,-0.025664477060710622,0.0,70.0,255.0,255.0,255.0
63,3.1500000000000004,4.496796406020094,7.532810898334161,-0.12489465353616169,-0.0019817859771453783,0.020557240038012736,-0.07982376083090936,0.0006839412132642053,0.007049914561285675,-0.02394000020151943,0.0,70.0,255.0,255.0,255.0
64,3.2,4.496698227422261,7.533847620223538,-0.12891569901977398,-0.0019498198943690426,0.020936122384078715,-0.08097764161720894,0.0005081074981205802,0.007965851824565107,-0.022437148451395772,0.0,70.0,255.0,255.0,255.0
65,3.25,4.496601424030657,7.534904510572569,-0.1329924176978826,-0.0019309752273333203,0.021353825220469247,-0.08206747567604894,0.00015672812976319506,0.008487718393102028,-0.021582380403184498,0.0,70.0,255.0,255.0,255.0
66,3.3000000000000003,4.4965051298995276,7.535983002745585,-0.13712244658737888,-0.001934147081392723,0.021784894223388918,-0.08313587965752739,-0.00035492250107793666,0.008493748590776562,-0.02159683853601435,0.0,70.0,255.0,255.0,255.0
67,3.35,4.496408009322518,7.537082999994908,-0.14130600566363533,-0.001966467477441114,0.022203200079546903,-0.08422715952965038,-0.0009508791664281091,0.00807077738764761,-0.022346802572453806,0.0,70.0,255.0,255.0,255.0
68,3.4000000000000004,4.496308483151783,7.53820332275354,-0.14554516254034391,-0.002029234998035534,0.02259197196215368,-0.08537055991477277,-0.0015040471649463427,0.007409614302122947,-0.02352786713843702,0.0,70.0,255.0,255.0,255.0
69,3.45,4.496205085822714,7.539342197191123,-0.1498430616551126,-0.002116872193935748,0.022944161509759198,-0.08657994624349408,-0.0018785333290693984,0.006711708138507078,-0.024824951788490757,0.0,70.0,255.0,255.0,255.0
70,3.5,4.49609679593239,7.540497738904516,-0.15420315716469332,-0.002217088330942474,0.023263142776004386,-0.08785305509362185,-0.0019396312016972672,0.006181727672949222,-0.02593618271955478,0.0,70.0,255.0,255.0,255.0
71,3.5500000000000003,4.49598337698962,7.541668511468724,-0.1586283671644748,-0.002310835314105475,0.02356233427705412,-0.08917356451544955,-0.0016279044753986227,0.005934947423735792,-0.026681477082038385,0.0,70.0,255.0,255.0,255.0
72,3.6,4.495865712400979,7.542853972332221,-0.16312051361623828,-0.002379878778482336,0.023856637518377966,-0.09052120280182568,-0.0010448999868906128,0.005932837570465921,-0.027036517777684343,0.0,70.0,255.0,255.0,255.0
73,3.6500000000000004,4.495745389111772,7.544054175220562,-0.16768048744465736,-0.002415325312794536,0.024155618034100712,-0.09187721629321799,-0.00038411618987765905,0.006077875316989889,-0.02701780863401393,0.0,70.0,255.0,255.0,255.0
74,3.7,4.4956241798697,7.545269534135631,-0.17230823524556008,-0.002418290397470102,0.024464425050076954,-0.09322298366522708,0.00015325192599391357,0.0062797165539585365,-0.02663786956947911,0.0,70.0,255.0,255.0,255.0
75,3.75,4.495503560072025,7.546500617725569,-0.17700278581118006,-0.002400000120195145,0.024783589689496566,-0.0945410032501659,0.00036580600060176494,0.006445417535339004,-0.025908879394578865,0.0,70.0,255.0,255.0,255.0
76,3.8000000000000003,4.49538417985768,7.547747893104581,-0.18176233557057667,-0.0023817097974099255,0.025108966803610855,-0.09581387160468496,0.000153253688850441,0.006520401108200957,-0.024868488567050817,0.0,70.0,255.0,255.0,255.0
77,3.85,4.495265389092284,7.54901151440593,-0.18658417297164856,-0.0023846747513101008,0.02543562980031666,-0.09702785210687098,-0.000384112960460925,0.006518804731303618,-0.023668804638488083,0.0,70.0,255.0,255.0,255.0
78,3.9000000000000004,4.495145712382549,7.550291456084612,-0.19146512078126376,-0.002420121093456018,0.025760847276741217,-0.09818075206853377,-0.0010448960004794117,0.006477112868541468,-0.022562576647186527,0.0,70.0,255.0,255.0,255.0
79,3.95,4.495023376982938,7.5515875991336046,-0.19640224817850194,-0.002489164351358042,0.026083341087170808,-0.09928410977158963,-0.0016279009479980289,0.006423225179386094,-0.02182151865154358,0.0,70.0,255.0,255.0,255.0
80,4.0,4.4948967959474135,7.5528997901933295,-0.20139353175842273,-0.002582911188255821,0.026403169794679826,-0.10036290393368813,-0.0019396300968033131,0.0063845742130475,-0.021716318350151198,0.0,70.0,255.0,255.0,255.0
81,4.05,4.494765085864112,7.5542279161130725,-0.20643853857187075,-0.0026831273610383732,0.026721798508475558,-0.10145574160660475,-0.0018785368536278213,0.006376734857482802,-0.022365594290787993,0.0,70.0,255.0,255.0,255.0
82,4.1000000000000005,4.49462848321131,7.555571970044177,-0.2115391059190832,-0.002770764873618603,0.027040843280428106,-0.10259946336276693,-0.0015040560968238026,0.0063919435045356465,-0.023559312619408912,0.0,70.0,255.0,255.0,255.0
83,4.15,4.4944880093767505,7.556932000441115,-0.21669848490814744,-0.0028335329707207535,0.027360992858929123,-0.10381167286854565,-0.0009508918831890867,0.0064136732074615566,-0.02489915750451821,0.0,70.0,255.0,255.0,255.0
84,4.2,4.494345129914238,7.55830806933007,-0.22192027320593777,-0.0028658540619375117,0.027682210601174262,-0.10508937911321875,-0.0003549348472020597,0.006427382728624309,-0.02597050803881673,0.0,70.0,255.0,255.0,255.0
85,4.25,4.494201423970557,7.559700221501233,-0.22720742281946932,-0.0028690264554409595,0.028003731131791554,-0.10640872367242732,0.00015672371125319273,0.006416285613219941,-0.02635386585283228,0.0,70.0,255.0,255.0,255.0
86,4.3,4.4940582272686935,7.561108442443249,-0.2325611455731805,-0.0028501816908121924,0.028323839162496256,-0.10772476569850198,0.000508119832609566,0.00637265946226151,-0.02584256084321168,0.0,70.0,255.0,255.0,255.0
87,4.3500000000000005,4.4939164058014756,7.562532605417482,-0.23797989938931952,-0.002818214472180003,0.028640997078017705,-0.10899297975674849,0.0006839737111796751,0.006313421250059292,-0.024664760734680047,0.0,70.0,255.0,255.0,255.0
88,4.4,4.4937764058214755,7.563972542151051,-0.24346044354885535,-0.002781784319694225,0.028955181287502185,-0.11019124177196998,0.0006839880086317862,0.006268194300496077,-0.023269977483933446,0.0,70.0,255.0,255.0,255.0
89,4.45,4.493638227369506,7.565428123546233,-0.24899902356651651,-0.0027498156713168243,0.029267816508067312,-0.11131997750514183,0.0005081531572415088,0.006267243906776798,-0.022109596046365754,0.0,70.0,255.0,255.0,255.0
90,4.5,4.493501424254344,7.566899323801858,-0.25459244129936953,-0.002730969003970074,0.029581905678179865,-0.11240220137660656,0.00015674457634062833,0.0063502833348216825,-0.021636143646427963,0.0,70.0,255.0,255.0,255.0
91,4.55,4.493365130469109,7.568386314114051,-0.26023924370417717,-0.0027341412136827614,0.02990284484154948,-0.11348359186978463,-0.0003549681178327546,0.006532627293509563,-0.022077309189474925,0.0,70.0,255.0,255.0,255.0
92,4.6000000000000005,4.493228010132976,7.5698896082860125,-0.265940800486348,-0.0027664658157533495,0.03023516840753082,-0.11460993229555405,-0.0009509995872569732,0.006754371495087952,-0.023210828591069266,0.0,70.0,255.0,255.0,255.0
93,4.65,4.493088483887534,7.571409830954804,-0.2717002369337326,-0.0028292411724084587,0.030578281991058276,-0.11580467472889155,-0.0015042209906113158,0.0069135495904149025,-0.024591748410568437,0.0,70.0,255.0,255.0,255.0
94,4.7,4.492945086015735,7.572947436485118,-0.27752126795923715,-0.002916887914814481,0.03092652336657231,-0.1170691071366109,-0.0018787034229639232,0.0069103549310334245,-0.025777960922562793,0.0,70.0,255.0,255.0,255.0
95,4.75,4.492796795096052,7.574502483291461,-0.28340714764739366,-0.003017111514704851,0.03126931748416162,-0.11838247082114783,-0.0019396926922432556,0.006634609018796311,-0.026333634153546948,0.0,70.0,255.0,255.0,255.0
96,4.800000000000001,4.492643374864264,7.5760743682335345,-0.28935951504135193,-0.0031108571840388066,0.03158998426845194,-0.11970247055196559,-0.0016277345407544885,0.00604303182996091,-0.02603505554574226,0.0,70.0,255.0,255.0,255.0
97,4.8500000000000005,4.4924857093776485,7.577661481718306,-0.2953773947025902,-0.0031798849687803,0.03187362066715771,-0.12098597637572206,-0.0010444508869333902,0.005270864331574643,-0.02506274075186332,0.0,70.0,255.0,255.0,255.0
98,4.9,4.492325386367386,7.57926173030025,-0.30145811267892414,-0.0032153022727321456,0.03211707070160941,-0.12220874462715192,-0.00038346768249652996,0.004556674937017391,-0.02379221302300505,0.0,70.0,255.0,255.0,255.0
99,4.95,4.492164179150375,7.580873188788467,-0.3075982691653054,-0.003218231737029953,0.03232928816085945,-0.12336519767802256,0.00015388664209581293,0.004137396975600893,-0.022598420403241448,0.0,70.0,255.0,255.0,255.0
100,5.0,4.492003563193683,7.582494659116336,-0.3137946324467264,-0.0031999136085225643,0.032530810399169496,-0.12446858666747607,0.00036603551691882785,0.004251233969210233,-0.021849273119339818,0.0,70.0,255.0,255.0,255.0
101,5.050000000000001,4.491844187789523,7.584126269828384,-0.320045127832053,-0.00318162818533807,0.03275441155778047,-0.12555012498995655,0.00015261956720635794,0.005002844454349287,-0.02174181594693514,0.0,70.0,255.0,255.0,255.0
102,5.1000000000000005,4.491685400375149,7.585770100272114,-0.32634964494572205,-0.0031846516518019286,0.033031094844604425,-0.12664276826216958,-0.00038578893954976934,0.006195924092899929,-0.022169164112384454,0.0,70.0,255.0,255.0,255.0
103,5.15,4.491525722624343,7.5874293793128444,-0.33270940465827,-0.003220207079293047,0.033374003967070465,-0.127767041401195,-0.0010473162046054085,0.00746431942593162,-0.022889282947252676,0.0,70.0,255.0,255.0,255.0
104,5.2,4.49136337966722,7.589107500668821,-0.33912634908584155,-0.0032893832722624694,0.03377752678719759,-0.12893169655689485,-0.0016302697195769156,0.008434509381238797,-0.02366127121741224,0.0,70.0,255.0,255.0,255.0
105,5.25,4.4911967842971166,7.590807131991564,-0.34560257431395947,-0.0033832340512507386,0.034217454905194344,-0.13013316852293622,-0.001940486671170305,0.008732483076023811,-0.02424130134114355,0.0,70.0,255.0,255.0,255.0
106,5.300000000000001,4.491025056262095,7.592529246159341,-0.35213966593813517,-0.0034834319393795,0.03465077509479997,-0.1313558266910092,-0.0018761703009850805,0.008178504104972006,-0.024492132881026585,0.0,70.0,255.0,255.0,255.0
107,5.3500000000000005,4.490848441103179,7.594272209501044,-0.3587381569830604,-0.0035708510813492467,0.035035305315691545,-0.13258238181103887,-0.001497801280425648,0.006995322746927712,-0.02446517156313721,0.0,70.0,255.0,255.0,255.0
108,5.4,4.49066797115396,7.59603277669091,-0.36539790411923906,-0.0036332120674220647,0.03535030736949274,-0.13380234384732292,-0.0009418595737997748,0.005617003070934601,-0.024284408101654664,0.0,70.0,255.0,255.0,255.0
109,5.45,4.490485119896436,7.5978072402379935,-0.3721183913677927,-0.003665037038729224,0.035597005622785005,-0.13501082262120434,-0.0003460944779654085,0.004483912819086555,-0.024064093794701202,0.0,70.0,255.0,255.0,255.0
110,5.5,4.490301467450087,7.599592477253188,-0.3788989863813595,-0.0036678215152186056,0.035798698651401395,-0.13620875322679304,0.00015992049196000835,0.004038787106441788,-0.02392547489605823,0.0,70.0,255.0,255.0,255.0
111,5.550000000000001,4.4901183377449145,7.601387110103134,-0.385739266690472,-0.0036490449895332233,0.036000884333429184,-0.13740337011081016,0.0004992877451925892,0.004502999265199037,-0.02393571313507592,0.0,70.0,255.0,255.0,255.0
112,5.6000000000000005,4.489936562951134,7.603192565686531,-0.3926393233924405,-0.0036178927406993466,0.0362489985779213,-0.13860232454030064,0.0006606304246759009,0.005651969068143359,-0.0240492172341511,0.0,70.0,255.0,255.0,255.0
113,5.65,4.489756548470845,7.605012009960926,-0.39959949914450205,-0.0035829819470656332,0.03656608124024352,-0.13980829183422527,0.0006502789744899928,0.007038484142096735,-0.024174856207842543,0.0,70.0,255.0,255.0,255.0
114,5.7,4.489578264756427,7.606849173810556,-0.40662015257586304,-0.0035528648432503473,0.03695284699213097,-0.1410198101610849,0.000475160452229062,0.008216692489426691,-0.024235267356670365,0.0,70.0,255.0,255.0,255.0
115,5.75,4.48940126198652,7.608707294660139,-0.41370148016061054,-0.003535465901842727,0.03738775048918619,-0.1422318185698923,0.00014481402770272211,0.00874444308918143,-0.024160855018701133,0.0,70.0,255.0,255.0,255.0
116,5.800000000000001,4.489224718166243,7.610587948859474,-0.42084333443285227,-0.003538383440480075,0.037827291301049115,-0.143435895662955,-0.0003220063209852242,0.008396351981332373,-0.023917928331601557,0.0,70.0,255.0,255.0,255.0
117,5.8500000000000005,4.489047423642472,7.612490023790244,-0.42804506972690604,-0.0035676665339412494,0.038227385687319426,-0.14462361140305247,-0.0008638812576400312,0.007367616831555068,-0.023539731062055536,0.0,70.0,255.0,255.0,255.0
118,5.9,4.488867951512849,7.614410687428206,-0.4353056955731575,-0.0036247715662440783,0.03856405298420462,-0.14578986876916056,-0.001378417163522272,0.0060582445100543225,-0.02309523466605401,0.0,70.0,255.0,255.0,255.0
119,5.95,4.488684946485847,7.616346429088664,-0.4426240566038221,-0.0037055082502934766,0.03883321013832486,-0.14693313486965787,-0.001755572971173791,0.004869177363087118,-0.022654323958082312,0.0,70.0,255.0,255.0,255.0
120,6.0,4.4884974006878195,7.618294008442039,-0.4499990090601233,-0.0038003288633614574,0.039050970720513334,-0.1480553011649688,-0.0018951672786648999,0.004203393916135667,-0.022275114353120795,0.0,70.0,255.0,255.0,255.0
121,6.050000000000001,4.488304913599511,7.6202515261607155,-0.45742958672031897,-0.0038950249781599666,0.039253549529938425,-0.14916064630496995,-0.0017507496417934476,0.004270940128847656,-0.021992573538553994,0.0,70.0,255.0,255.0,255.0
122,6.1000000000000005,4.4881078981900036,7.622219363395033,-0.4649150736906203,-0.003975403827540802,0.0394780647333981,-0.1502545585188242,-0.001369580918275659,0.004908519317226023,-0.021829154554953156,0.0,70.0,255.0,255.0,255.0
123,6.15,4.487907373216757,7.624199332634055,-0.4724550425722014,-0.0040319830699875325,0.03974440146166103,-0.15134356176046526,-0.0008529739562668226,0.005778421267965683,-0.021806909090582582,0.0,70.0,255.0,255.0,255.0
124,6.2,4.487704699883005,7.626193803541199,-0.4800494298666668,-0.004060701223167484,0.04005590686019467,-0.15243524942788245,-0.00031235574695642754,0.006546225097547875,-0.021940723524255246,0.0,70.0,255.0,255.0,255.0
125,6.25,4.48750130309444,7.628204923320075,-0.48769856751498963,-0.004063218644683175,0.040399023971415815,-0.1535376341128908,0.00014783643873528263,0.0068660371899120776,-0.022242650272807918,0.0,70.0,255.0,255.0,255.0
126,6.300000000000001,4.4872983780185365,7.63023370593834,-0.4954031932779559,-0.004045917579293956,0.040742510579185875,-0.15465951445516324,0.0004655177082923956,0.006560540183464525,-0.022706089868546053,0.0,70.0,255.0,255.0,255.0
127,6.3500000000000005,4.487096711336511,7.632279174377993,-0.503164518960506,-0.004016666873853936,0.04105507798976227,-0.1558082430997454,0.0006258412945214786,0.0058046462262595355,-0.02326281155730081,0.0,70.0,255.0,255.0,255.0
128,6.4,4.486896711331151,7.6343392137373165,-0.5109840175879304,-0.003983333449841808,0.04132297520181183,-0.15698579561089332,0.000625837464074408,0.004940890931859343,-0.02379628981071802,0.0,70.0,255.0,255.0,255.0
129,6.45,4.486698377991527,7.636411471898175,-0.5188630985215953,-0.003954083127446495,0.0415491670829482,-0.1581878720808172,0.0004655087797900137,0.004299581919831041,-0.024183807585875794,0.0,70.0,255.0,255.0,255.0
130,6.5,4.486501303018406,7.638494130445611,-0.5268028047960122,-0.003936782571862807,0.04175293339379493,-0.1594041763694809,0.00014783084818503767,0.00421236408350012,-0.02431027523167595,0.0,70.0,255.0,255.0,255.0
131,6.550000000000001,4.48630469973434,7.640586765237554,-0.5348035161585434,-0.003939300042627991,0.041970403491298214,-0.1606188996039848,-0.0003123468329313539,0.0048405588109368125,-0.02412255416683884,0.0,70.0,255.0,255.0,255.0
132,6.6000000000000005,4.486107373014144,7.642691170794741,-0.5428646947564106,-0.003968017255155942,0.042236989274888614,-0.16181643178616478,-0.0008529450993499665,0.005985716291068144,-0.02368407474026002,0.0,70.0,255.0,255.0,255.0
133,6.65,4.485907898008825,7.644810464165043,-0.5509851593371599,-0.004024594552562988,0.04256897512040503,-0.1629873070780108,-0.001369536738682342,0.007264355331759731,-0.023124295302845432,0.0,70.0,255.0,255.0,255.0
134,6.7,4.485704913558887,7.646948068306782,-0.5591634254642117,-0.0041049709290241765,0.04296342480806459,-0.16412886131644933,-0.0017507050135812108,0.008296099903226661,-0.02258353331174856,0.0,70.0,255.0,255.0,255.0
135,6.75,4.485497400915922,7.649106806645849,-0.5673980454688048,-0.004199665053921109,0.043398585110727694,-0.16524566040918565,-0.0018951505078135256,0.008708562419901256,-0.022204267448533432,0.0,70.0,255.0,255.0,255.0
136,6.800000000000001,4.485284947053495,7.651287926817854,-0.5756879915051303,-0.004294485979805529,0.04383428105005471,-0.16634928806130267,-0.0017556175558652853,0.008316851612555354,-0.02206318064369439,0.0,70.0,255.0,255.0,255.0
137,6.8500000000000005,4.485067952317942,7.653490234750855,-0.5840329742749351,-0.004375226809507637,0.04423027027198323,-0.16745197847355509,-0.0013785364213703133,0.007302372058770601,-0.0221172531179592,0.0,70.0,255.0,255.0,255.0
138,6.9,4.4848474243725445,7.655710953845053,-0.5924331893524858,-0.00443233962194256,0.04456451825593177,-0.1685610133730986,-0.000864054144855686,0.00603264345180321,-0.022271004502294467,0.0,70.0,255.0,255.0,255.0
139,6.95,4.4846247183557475,7.657946686576448,-0.6008890756122449,-0.004461632223993206,0.04483353461716355,-0.16967907892378453,-0.00032217590559824316,0.00488207907336502,-0.022428259633355818,0.0,70.0,255.0,255.0,255.0
140,7.0,4.484401261150145,7.660194307306769,-0.6094010972448642,-0.004464557212502385,0.045052726163268275,-0.17080383933643417,0.00014475253413692712,0.004225367589860696,-0.022480673622238267,0.0,70.0,255.0,255.0,255.0
141,7.050000000000001,4.484178262634497,7.662451959192775,-0.6179694595458883,-0.004447156970579513,0.04525607137614962,-0.17192714628600836,0.0004753298775916903,0.004258095345477386,-0.02237194936567377,0.0,70.0,255.0,255.0,255.0
142,7.1000000000000005,4.483956545453087,7.664719914444384,-0.6265938118734651,-0.004417024224743216,0.045478535697816014,-0.17304103427300155,0.0006507271484323951,0.004835751183751569,-0.022167845188780788,0.0,70.0,255.0,255.0,255.0
143,7.15,4.483736560212023,7.6669998127625565,-0.6352735629731885,-0.004382084255736274,0.04573964649452478,-0.17414393080488644,0.0006612777937675673,0.0056549543102413224,-0.02198991512620818,0.0,70.0,255.0,255.0,255.0
144,7.2,4.483518337027514,7.6692938790938365,-0.6440082049539537,-0.004350896445366459,0.046044031128840146,-0.17524002578562237,0.0004999214572087851,0.006415210842902752,-0.021950514401891663,0.0,70.0,255.0,255.0,255.0
145,7.25,4.483301470567486,7.6716042158754405,-0.6527975655517507,-0.004332092110015395,0.04638116757881505,-0.1763389822450756,0.0001601496949277248,0.00681402316544677,-0.02216898211840901,0.0,70.0,255.0,255.0,255.0
146,7.300000000000001,4.483085127816512,7.673931995851718,-0.6616421031784613,-0.0043348814758736864,0.04672543344538482,-0.17745692399746327,-0.00034672759587905944,0.0066914196868772535,-0.022696108140785043,0.0,70.0,255.0,255.0,255.0
147,7.3500000000000005,4.482867982419899,7.676276759219979,-0.670543257951497,-0.004366764869603301,0.04705030954750278,-0.1786085930591541,-0.0009435330121654317,0.006160963531876007,-0.02340959456511582,0.0,70.0,255.0,255.0,255.0
148,7.4,4.482648451329552,7.678637026806468,-0.6795029624843767,-0.00442923477709023,0.047341529798572424,-0.17979788345397485,-0.0015002178695766588,0.005460359820030902,-0.024090267393817033,0.0,70.0,255.0,255.0,255.0
149,7.45,4.48242505894219,7.681010912199836,-0.6885230462968945,-0.004516786656560967,0.04759634552950587,-0.1810176197985358,-0.0018785355637263024,0.00481745051548188,-0.024523622153083124,0.0,70.0,255.0,255.0,255.0
150,7.5,4.482196772663896,7.683396661359419,-0.6976047244642303,-0.00461708833346286,0.04782327485012061,-0.18225024566928316,-0.001941341990008283,0.004450474479966715,-0.024503444524059947,0.0,70.0,255.0,255.0,255.0
151,7.550000000000001,4.481963350108844,7.685793239684848,-0.7067480708638229,-0.004710920855561795,0.04804139297750254,-0.1834679642509418,-0.0016279066728408509,0.004476086047233707,-0.023936019003600872,0.0,70.0,255.0,255.0,255.0
152,7.6000000000000005,4.481725680578339,7.688200800657169,-0.7159515208893245,-0.004779879000746945,0.04827088345484398,-0.18464384756964325,-0.0010410706236640976,0.004834986763402327,-0.022960023637075277,0.0,70.0,255.0,255.0,255.0
153,7.65,4.481485362208769,7.690620328030333,-0.7252124556207872,-0.004815027917928205,0.04852489165384277,-0.18576396661464933,-0.0003767699526591173,0.0053890143358437115,-0.02184444653391404,0.0,70.0,255.0,255.0,255.0
154,7.7,4.481244177786547,7.693053289822553,-0.7345279175507894,-0.004817555996012857,0.048809784888428354,-0.18682829222303465,0.0001614469042010569,0.006001700381652597,-0.020867258058065996,0.0,70.0,255.0,255.0,255.0
155,7.75,4.481003606609168,7.6955013065191755,-0.7438952848430906,-0.0047988832275080995,0.04912506169200803,-0.18785069242045593,0.0003692275888589336,0.0065480882376789395,-0.02029723978527187,0.0,70.0,255.0,255.0,255.0
156,7.800000000000001,4.480764289463796,7.697965795991754,-0.753312986792835,-0.004780633237126963,0.04946459371219625,-0.18885801620156184,0.00014506757457510844,0.006951462232152039,-0.020273102558054923,0.0,70.0,255.0,255.0,255.0
157,7.8500000000000005,4.480525543285455,7.700447765890395,-0.7627810864632468,-0.004784376470050589,0.049820207915223236,-0.18987800267626143,-0.00040677656647503113,0.007182725777798993,-0.020702198998567845,0.0,70.0,255.0,255.0,255.0
158,7.9,4.480285851816791,7.702947816783277,-0.7723007870604611,-0.004821310893774466,0.05018286628997615,-0.19092823610141862,-0.0010781102452561697,0.007219107311939865,-0.021380058358633214,0.0,70.0,255.0,255.0,255.0
159,7.95,4.4800434121960775,7.705466052519393,-0.7818739100733887,-0.004892187494576206,0.05054211864641722,-0.19201600851212475,-0.0016606786277684193,0.0070362607790919185,-0.022094058901345193,0.0,70.0,255.0,255.0,255.0
160,8.0,4.479796633067333,7.708002028647918,-0.7915023879116736,-0.004987378756551308,0.05088649236788534,-0.19313764199155314,-0.0019516056610768828,0.006601181893639563,-0.022627596334845457,0.0,70.0,255.0,255.0,255.0
161,8.05,4.479544674320422,7.710554701756181,-0.801187674272544,-0.005087348060683894,0.05120223683578118,-0.1942787681456093,-0.001845790198462538,0.005917039382996592,-0.022859309691924956,0.0,70.0,255.0,255.0,255.0
162,8.1,4.479287898261265,7.713122252331496,-0.8109302647262345,-0.005171957776397562,0.051478196306185,-0.19542357296074564,-0.0014172310365268004,0.005114949284568127,-0.02283574913320985,0.0,70.0,255.0,255.0,255.0
163,8.15,4.479027478542783,7.7157025213868,-0.8207300315686186,-0.005229071164336574,0.05171373176423799,-0.19656234305893028,-0.0008253811405900535,0.004415395577339609,-0.022669072945380453,0.0,70.0,255.0,255.0,255.0
164,8.200000000000001,4.478764991144831,7.71829362550792,-0.8305864990321276,-0.0052544958904565675,0.05191973586391896,-0.19769048025528368,-0.0002320191063276411,0.004045517575956836,-0.022464105404162993,0.0,70.0,255.0,255.0,255.0
165,8.25,4.478502028953737,7.720894494973192,-0.8404990795941469,-0.005252273074969338,0.052118283521833675,-0.19880875359934658,0.00020120437929094237,0.00423916553984327,-0.02233232825514797,0.0,70.0,255.0,255.0,255.0
166,8.3,4.478239763837334,7.723505453860104,-0.8504673743920622,-0.005234375452527473,0.052343652417903286,-0.19992371308079848,0.00038531932649021883,0.005094692588691885,-0.022335719280430766,0.0,70.0,255.0,255.0,255.0
167,8.35,4.477978591408484,7.726128860214982,-0.8604914509022268,-0.005213741142320316,0.05262775278070286,-0.20104232552738965,0.0003593370760945902,0.006391229996616232,-0.02243387206776193,0.0,70.0,255.0,255.0,255.0
168,8.4,4.477718389723102,7.728768229138174,-0.8705716069448012,-0.005198441744918014,0.05298277541756491,-0.20216710028757467,0.00021515928345650082,0.007723879144627688,-0.02254542142154925,0.0,70.0,255.0,255.0,255.0
169,8.450000000000001,4.477458747233992,7.7314271377567385,-0.8807081609309843,-0.005192225213974666,0.05340014069516563,-0.20329686766954458,4.255458705415549e-05,0.008682834419637686,-0.022602433234875097,0.0,70.0,255.0,255.0,255.0
170,8.5,4.477199167201705,7.73410824320769,-0.8909012937117556,-0.005194186286212599,0.05385105885952868,-0.20442734361106218,-6.12305040448291e-05,0.008866211890445896,-0.022547146588491884,0.0,70.0,255.0,255.0,255.0
171,8.55,4.476939328605371,7.736812243642691,-0.9011508952920905,-0.005198348264379149,0.05428676188421022,-0.20555158232839377,-4.271321518700688e-05,0.008083304479811204,-0.022350726939335264,0.0,70.0,255.0,255.0,255.0
172,8.6,4.476679332375267,7.739536919396111,-0.911456451944595,-0.005198457607731299,0.0546593893075098,-0.2066624163049957,5.895033075020706e-05,0.006571785740394631,-0.022030534157646553,0.0,70.0,255.0,255.0,255.0
173,8.65,4.476419482844598,7.742278182573442,-0.92181713692259,-0.005192453231304128,0.054943940458249685,-0.20775463574415842,0.00016651556897784303,0.004799111155762148,-0.021628308967447385,0.0,70.0,255.0,255.0,255.0
174,8.700000000000001,4.476160087052136,7.745031313441936,-0.9322319155190109,-0.005181806050833515,0.05513930042308601,-0.20882524720174045,0.000214714511237446,0.003241979244794635,-0.021185648835697624,0.0,70.0,255.0,255.0,255.0
175,8.75,4.475901302239515,7.747792112615751,-0.9426996616427641,-0.005170981780180384,0.05526813838272915,-0.20987320062772818,0.00014777358101625282,0.0023599496010717758,-0.02072309471482514,0.0,70.0,255.0,255.0,255.0
176,8.8,4.475642988874118,7.750558127280209,-0.9532192355817837,-0.00516702869273189,0.05537529538319319,-0.21089755667322296,-6.155271279340013e-05,0.00239194963160827,-0.020261372962393498,0.0,70.0,255.0,255.0,255.0
177,8.85,4.4753845993702415,7.75332964215407,-0.9637894173100864,-0.005177137051459724,0.055507333345889975,-0.21189933792396753,-0.00039336683750335055,0.003188107229501469,-0.019881287339051923,0.0,70.0,255.0,255.0,255.0
178,8.9,4.475125275168972,7.756108860614798,-0.9744091693741804,-0.005206365376482225,0.05569410610614334,-0.21288568540712816,-0.0008021539600555627,0.004413196046293422,-0.019704046671253916,0.0,70.0,255.0,255.0,255.0
179,8.950000000000001,4.474863962832593,7.758899052764685,-0.9850779858507992,-0.00525735244746528,0.05594865295051932,-0.21386974259109293,-0.0012419254529660861,0.005722675174091307,-0.019841544848764325,0.0,70.0,255.0,255.0,255.0
180,9.0,4.474599539924226,7.76170372590985,-0.9957961436332897,-0.0053305579217788335,0.05626637362355247,-0.2148698398920046,-0.0016858544965359101,0.006777999028528825,-0.020412409284242816,0.0,70.0,255.0,255.0,255.0
181,9.05,4.474330907040415,7.76452569012704,-1.0065649698399997,-0.005425937897118871,0.0566264528533722,-0.2159109835195172,-0.0021110759334419527,0.0073838620285648915,-0.021451893099366792,0.0,70.0,255.0,255.0,255.0
182,9.1,4.474056946134514,7.7673663711951875,-1.0173872419852414,-0.005541665515123029,0.05700475982640896,-0.21701502920194127,-0.0024481869428605307,0.007563990470682569,-0.022761705763463258,0.0,70.0,255.0,255.0,255.0
183,9.15,4.473776740488903,7.770226166109681,-1.0282664727601938,-0.005670756591404924,0.05738285190044046,-0.21818715409586353,-0.002595195765486835,0.00741738204856901,-0.0239955975875894,0.0,70.0,255.0,255.0,255.0
184,9.200000000000001,4.473489870475373,7.7731046563852315,-1.0392059573948278,-0.005801185091671712,0.05774649803126586,-0.2194145889607002,-0.002460439273654913,0.007035431946889048,-0.024803136804130155,0.0,70.0,255.0,255.0,255.0
185,9.25,4.473196621979736,7.776000815912807,-1.0502079316562638,-0.005916800518770415,0.05808639509512936,-0.22066746777627655,-0.001952420863560178,0.006512016988402536,-0.024843305444210984,0.0,70.0,255.0,255.0,255.0
186,9.3,4.472898190423496,7.7789132958947445,-1.0612727041724554,-0.00599642717802773,0.05839769973010611,-0.2218989195051213,-0.0010460316647531442,0.00591763721802252,-0.023962942752064897,0.0,70.0,255.0,255.0,255.0
187,9.35,4.472596979261933,7.781840585885818,-1.072397823606776,-0.00602140368524573,0.058678158816931614,-0.22306376205148304,0.00010350388732760507,0.005315837647401622,-0.022402612217864437,0.0,70.0,255.0,255.0,255.0
188,9.4,4.472296050054972,7.784781111776438,-1.0835790803776038,-0.0059860767892949696,0.058929283494846274,-0.22413918072690775,0.001223030262487157,0.004799886482764748,-0.020625357850390102,0.0,70.0,255.0,255.0,255.0
189,9.450000000000001,4.471998371583004,7.787733514235303,-1.0948117416794667,-0.005899100658997014,0.05915814746520809,-0.22512629783652205,0.0020319342947772157,0.004480771864479038,-0.019110942899769334,0.0,70.0,255.0,255.0,255.0
190,9.5,4.471706139989072,7.790696926522958,-1.106091710161256,-0.005782883359817248,0.05937736068129418,-0.22605027501688468,0.0022595472742636957,0.004469970314069371,-0.018330359614759928,0.0,70.0,255.0,255.0,255.0
191,9.55,4.471420083247022,7.793671250303432,-1.1174167691811552,-0.0056731459315706445,0.059605144496615026,-0.22695933379799804,0.0017808902386562409,0.004812815205390564,-0.018522909318763325,0.0,70.0,255.0,255.0,255.0
192,9.600000000000001,4.471138825395915,7.79665744097262,-1.1287876435410558,-0.005604794335951624,0.059858642201833234,-0.22790256594876102,0.0007631224423931826,0.00540818341487892,-0.019494325551461245,0.0,70.0,255.0,255.0,255.0
193,9.65,4.470859603813427,7.799657114523615,-1.1402070257760313,-0.005596833687331326,0.06014596283810292,-0.22890876635314417,-0.00046419801194019783,0.006066708384544484,-0.02083649082462724,0.0,70.0,255.0,255.0,255.0
194,9.700000000000001,4.470579142027182,7.80267203725643,-1.1516785201763702,-0.005651214137145644,0.06046531304028768,-0.22998621503122374,-0.0015550368329897424,0.006588706702537195,-0.022133231457122093,0.0,70.0,255.0,255.0,255.0
195,9.75,4.470294482399712,7.805703645827644,-1.1632056472791537,-0.0057523373706303005,0.06080483350835664,-0.23112208949885638,-0.002161758909480227,0.0067721110798224515,-0.02297129339263737,0.0,70.0,255.0,255.0,255.0
196,9.8,4.470003908290119,7.808752520607266,-1.1747907291262558,-0.005867390028093666,0.06114252414826993,-0.23228334437048748,-0.0021047553971698107,0.006517815246631642,-0.023126585473876027,0.0,70.0,255.0,255.0,255.0
197,9.850000000000001,4.469707743396903,7.811817898242471,-1.1864339817162024,-0.0059628129103472816,0.0614566150330198,-0.23343474804624398,-0.00152503794632608,0.005936836618225527,-0.02271006226617356,0.0,70.0,255.0,255.0,255.0
198,9.9,4.469407626999084,7.814898182110568,-1.1981342039308802,-0.006019893822726274,0.06173620781009248,-0.23455435059710483,-0.0007163547649291502,0.005247872054514602,-0.021977023839503396,0.0,70.0,255.0,255.0,255.0
199,9.950000000000001,4.46910575401463,7.81799151902348,-1.2098894167759129,-0.006034448386840197,0.06198140223847126,-0.23563245043019432,2.784007726575055e-05,0.0046709747518747236,-0.021177017052864677,0.0,70.0,255.0,255.0,255.0
200,10.0,4.4688041821604,7.821096322334415,-1.2216974489738996,-0.006017109814999699,0.06220330528527995,-0.2366720523023913,0.00041154430787671004,0.004425548070585705,-0.020560410870573698,0.0,70.0,255.0,255.0,255.0
201,10.05,4.46850404303313,7.824211849552008,-1.233556622006152,-0.005993293956052526,0.06242395704552983,-0.2376884915172517,0.0002787840305273903,0.00462249723458541,-0.02026958328447126,0.0,70.0,255.0,255.0,255.0
202,10.100000000000001,4.468204852764795,7.827338718038968,-1.2454662981256248,-0.00598923141194696,0.0626655550087385,-0.23869901063083843,-0.00025663033094147636,0.005159062186876895,-0.020260856619369605,0.0,70.0,255.0,255.0,255.0
203,10.15,4.4679051198919355,7.830478405052882,-1.2574265230692359,-0.006018956989146673,0.06293986326421752,-0.23971457717918865,-0.000957562415404567,0.0058272113228063915,-0.0204216609035468,0.0,70.0,255.0,255.0,255.0
204,10.200000000000001,4.46760295706588,7.83363270436539,-1.2694377558435437,-0.006084987653487417,0.06324827614101913,-0.2407411767211931,-0.0015959505152984832,0.006420820862906851,-0.02065110126381331,0.0,70.0,255.0,255.0,255.0
205,10.25,4.467296621126587,7.836803232666984,-1.2815006407413552,-0.0061785520406765215,0.0635819453505082,-0.24177968730556998,-0.0019524835898288018,0.0067417339344011395,-0.0208471097450591,0.0,70.0,255.0,255.0,255.0
206,10.3,4.4669851018618125,7.8399908989004405,-1.2936157245741007,-0.006280236012470297,0.06392244953445925,-0.24282588769569902,-0.0019105205853797713,0.006685622388857837,-0.020949020782157213,0.0,70.0,255.0,255.0,255.0
207,10.350000000000001,4.46666859752534,7.84319547762043,-1.305783229510925,-0.006369604099214499,0.06425050758939399,-0.2438745893837857,-0.0015338486556437658,0.006312322559587358,-0.020967443657426976,0.0,70.0,255.0,255.0,255.0
208,10.4,4.466348141451891,7.84641594965938,-1.3180031835124792,-0.006433620878034674,0.06455368179041798,-0.24492263206144171,-0.0009679876483481564,0.005757874728207213,-0.02093456098457569,0.0,70.0,255.0,255.0,255.0
209,10.450000000000001,4.466025235437536,7.849650845799472,-1.3302754927170692,-0.006466402864049314,0.06482629506221471,-0.24596804548224327,-0.0003573247290944437,0.005159028508927577,-0.020872377425584787,0.0,70.0,255.0,255.0,255.0
210,10.5,4.465701501165486,7.852898579165601,-1.3425999880607036,-0.006469353350944118,0.06506958464131074,-0.2470098698040002,0.00016239937652429148,0.004643506868617919,-0.020799122177073137,0.0,70.0,255.0,255.0,255.0
211,10.55,4.465378300102442,7.856157804263603,-1.3549764796974693,-0.006450162926396885,0.0652906457490765,-0.24804795769995058,0.0005105244182068702,0.004287787103240959,-0.020727620300231564,0.0,70.0,255.0,255.0,255.0
212,10.600000000000001,4.4650564848728465,7.859427643740509,-1.3674047838306986,-0.006418300909123431,0.06549836335163484,-0.24908263183402335,0.0006756613166736258,0.004108011210668394,-0.020669368751069506,0.0,70.0,255.0,255.0,255.0
213,10.65,4.4647364700115295,7.862707640598766,-1.3798847428808716,-0.006382596794729523,0.06570144687014334,-0.25011489457505753,0.0006650374836603135,0.004105765289086349,-0.020640095158208638,0.0,70.0,255.0,255.0,255.0
214,10.700000000000001,4.4644182251933735,7.865997788427523,-1.3924162732882044,-0.0063517971607574,0.06590893988054347,-0.2511466413498442,0.00048576225148977414,0.004282552280354679,-0.02065938903381692,0.0,70.0,255.0,255.0,255.0
215,10.75,4.464101290295454,7.869298534586821,-1.404999407015856,-0.006334020569580545,0.06612970209817881,-0.2521808334784392,0.00014689540837053983,0.004640229266783535,-0.02075640154641789,0.0,70.0,255.0,255.0,255.0
216,10.8,4.4637848231364154,7.872610758637341,-1.4176343566360483,-0.006337107619920346,0.06637296280722182,-0.253222281504486,-0.0003326027280259325,0.005164254840472893,-0.02094049801677489,0.0,70.0,255.0,255.0,255.0
217,10.850000000000001,4.463467579533462,7.875935830867543,-1.4303216351663046,-0.006367280842383138,0.0666461275822261,-0.2542748832801167,-0.0008879574503239951,0.005774793436952308,-0.02115508133866406,0.0,70.0,255.0,255.0,255.0
218,10.9,4.463148095052177,7.879275371395564,-1.44306184496406,-0.006425903364952745,0.06695044215091706,-0.2553377896383524,-0.0014113231254775371,0.006338224954038907,-0.02130505838275898,0.0,70.0,255.0,255.0,255.0
219,10.950000000000001,4.4628249891969665,7.882630875082635,-1.4558554141301399,-0.006508413154930892,0.06727995007762999,-0.2564053891183926,-0.0017867499180646007,0.006711788010438369,-0.02129677972564359,0.0,70.0,255.0,255.0,255.0
220,11.0,4.462497253736684,7.886003366403327,-1.4687023838758992,-0.006604578356759205,0.06762162095196089,-0.25746746761091677,-0.0019059716859892717,0.006751566739904291,-0.021027299609177597,0.0,70.0,255.0,255.0,255.0
221,11.05,4.4621645313612905,7.889393037177831,-1.4816021608912315,-0.006699010323529819,0.06795510675162042,-0.2585081190793104,-0.0017196006855790813,0.006394680714905121,-0.020456588098882733,0.0,70.0,255.0,255.0,255.0
222,11.100000000000001,4.461827352704331,7.892798877078489,-1.4945531957838303,-0.0067765384253171135,0.0682610890234514,-0.25951312642080504,-0.0012883070397151641,0.0057572905663327845,-0.01971207745610215,0.0,70.0,255.0,255.0,255.0
223,11.15,4.461486877518759,7.896219146080176,-1.507553473533312,-0.006827841027501336,0.0685308358082537,-0.2604793268249206,-0.0007361086179713539,0.005057698530475108,-0.019018738909926114,0.0,70.0,255.0,255.0,255.0
224,11.200000000000001,4.461144568601581,7.899651960659314,-1.5206011284663223,-0.006850149287114249,0.06876685887649892,-0.26141500031179765,-0.00019824975892035468,0.004523069570794291,-0.01859955266956259,0.0,70.0,255.0,255.0,255.0
225,11.25,4.460801862590047,7.903095831967826,-1.5336949735644918,-0.006847666003393371,0.06898314276533313,-0.26233928209187685,0.00018897268718731652,0.004389494450762754,-0.01867435339666379,0.0,70.0,255.0,255.0,255.0
226,11.3,4.460459802001242,7.906550274935848,-1.54683505667551,-0.006831252018395517,0.06920580832157519,-0.26328243565146403,0.00035151829083091,0.0047703090125139624,-0.019340748655416462,0.0,70.0,255.0,255.0,255.0
227,11.350000000000001,4.460118737388208,7.910016412799983,-1.5600232171296382,-0.00681251417431028,0.06946017366658452,-0.2642733569574185,0.0003248219734075519,0.005510636371308664,-0.02043036175076729,0.0,70.0,255.0,255.0,255.0
228,11.4,4.459778550583811,7.913496292302506,-1.5732623923712519,-0.006798769821054762,0.06975687195870606,-0.26532547182654076,0.00019128207293661603,0.006316388849558763,-0.021624554742105673,0.0,70.0,255.0,255.0,255.0
229,11.450000000000001,4.459438860406102,7.916992099995854,-1.5865557643122923,-0.0067933859670166186,0.0700918125515404,-0.26643581243162906,3.3548487365919755e-05,0.006896073567030925,-0.02259946181042416,0.0,70.0,255.0,255.0,255.0
230,11.5,4.459099211987109,7.92050547355766,-1.5999059736144148,-0.00679541497231817,0.07044647931540915,-0.2675854180075832,-5.793771062911901e-05,0.006958520725852679,-0.023047314776070138,0.0,70.0,255.0,255.0,255.0
231,11.55,4.458759318908871,7.924036747927395,-1.6133143061130506,-0.0067991797380795305,0.07078766462412567,-0.2687405439092361,-3.369858507795698e-05,0.006363710274204237,-0.022813331032578432,0.0,70.0,255.0,255.0,255.0
232,11.600000000000001,4.458419294013301,7.927584240020073,-1.6267800280053384,-0.006798784830825966,0.07108285034282957,-0.269866751110841,6.808674539726667e-05,0.005287343434812186,-0.022016358990839535,0.0,70.0,255.0,255.0,255.0
233,11.65,4.458079440425788,7.931145032961678,-1.6403009812241347,-0.006792371063539804,0.07131639896760689,-0.27094217980832,0.00017275188808341113,0.004070405743927807,-0.020913997832527897,0.0,70.0,255.0,255.0,255.0
234,11.700000000000001,4.457740056906947,7.934715879916833,-1.6538742459861704,-0.006781509642017625,0.07148989091722235,-0.2719581508940938,0.0002169695616949241,0.0030519834813169666,-0.01977537398136775,0.0,70.0,255.0,255.0,255.0
235,11.75,4.457401289461586,7.9382940220534,-1.667496796313544,-0.006770674107370311,0.07162159731573858,-0.2729197172064568,0.0001468340994570383,0.002552366703501008,-0.018860396822839576,0.0,70.0,255.0,255.0,255.0
236,11.8,4.45706298949621,7.941878039648407,-1.681166217706816,-0.006766826232071921,0.07174512758757245,-0.27384419057637777,-6.38101968597482e-05,0.0027352228505250764,-0.01831818828677001,0.0,70.0,255.0,255.0,255.0
237,11.850000000000001,4.456724606838379,7.945468534812157,-1.6948812153711819,-0.006777055127056286,0.07189511960079109,-0.2747515360351338,-0.0003953973935821864,0.003490106438963636,-0.018136929559031678,0.0,70.0,255.0,255.0,255.0
238,11.9,4.456385283983504,7.949067551608486,-1.7086413713103294,-0.0068063659714301394,0.07209413823146882,-0.27565788353228093,-0.0008032220269349466,0.004571032462852287,-0.018248404976461963,0.0,70.0,255.0,255.0,255.0
239,11.950000000000001,4.456043970241236,7.952677948635304,-1.72244700372441,-0.006857377329749781,0.07235222284707632,-0.27657637653278,-0.0012419395546636736,0.005723218615383274,-0.01858472990940996,0.0,70.0,255.0,255.0,255.0
240,12.0,4.455699546250529,7.956302773893194,-1.7362990089636074,-0.006930559926896507,0.07266646009300715,-0.27751635652322193,-0.0016853893624713123,0.0067080031376676175,-0.019075107256649737,0.0,70.0,255.0,255.0,255.0
241,12.05,4.455350914248546,7.959944594644605,-1.7501986393767321,-0.007025916265996912,0.07302302316084308,-0.278483887258445,-0.002111060626841521,0.007383137251260052,-0.019662167568834654,0.0,70.0,255.0,255.0,255.0
242,12.100000000000001,4.45499695462393,7.963605076209278,-1.764147397689452,-0.007141665989580659,0.07340477381813315,-0.2794825732801054,-0.0024492011339916075,0.007719503535774663,-0.020276016013243137,0.0,70.0,255.0,255.0,255.0
243,12.15,4.454636747649588,7.967285072026418,-1.7781468967047427,-0.007270836379396073,0.07379497351442055,-0.2805114888597693,-0.0025971598182294997,0.0077165133546053255,-0.020809771538843336,0.0,70.0,255.0,255.0,255.0
244,12.200000000000001,4.45426987098599,7.97098457356072,-1.7921985465754289,-0.007401381971403609,0.07417642515359368,-0.28156355043398973,-0.002462637916877952,0.007376167698858183,-0.021140531555685627,0.0,70.0,255.0,255.0,255.0
245,12.25,4.453896609452448,7.9747027145417775,-1.8063032517481417,-0.007517100171083868,0.07453259028430637,-0.28262554201533785,-0.001953341917104723,0.006703639394967098,-0.021143136854617772,0.0,70.0,255.0,255.0,255.0
246,12.3,4.453518160968882,7.978437832589151,-1.8204611007769627,-0.007596716163114081,0.0748467890930904,-0.2836778641194515,-0.0010438354075326117,0.005730176862339675,-0.020765915330733797,0.0,70.0,255.0,255.0,255.0
247,12.350000000000001,4.4531369378361365,7.9821873934510865,-1.8346710381600868,-0.007621483711837129,0.07510560797054033,-0.28470213354841123,0.00010959120668729838,0.00459355773978487,-0.02012348191247071,0.0,70.0,255.0,255.0,255.0
248,12.4,4.452756012597698,7.985948393386205,-1.8489313141318038,-0.007585757042445351,0.07530614486706888,-0.2856902123106986,0.0012319545399819276,0.00352459243977421,-0.01942887250458991,0.0,70.0,255.0,255.0,255.0
249,12.450000000000001,4.452378362131892,7.989718007937793,-1.8632400593911567,-0.0074982882578389365,0.07545806721451775,-0.2866450207988702,0.0020407429700775026,0.0027700593066448675,-0.01890591776059214,0.0,70.0,255.0,255.0,255.0
250,12.5,4.452006183771914,7.993494200107657,-1.8775958162116908,-0.007381682745437601,0.07558315079773337,-0.2875808040867578,0.002262766355531909,0.002565457930447934,-0.018788336000730155,0.0,70.0,255.0,255.0,255.0
251,12.55,4.451640193857348,7.997276323017567,-1.8919981397998324,-0.007272011622285746,0.07571461300756255,-0.28852385439894324,0.0017720899029072257,0.003017180940023678,-0.01918745782150122,0.0,70.0,255.0,255.0,255.0
252,12.600000000000001,4.4512789826096855,8.001065661408413,-1.9064482016515851,-0.0072044737551468785,0.07588486889173574,-0.2894995498689079,0.0007397873553749434,0.003977314457159764,-0.01994464841161836,0.0,70.0,255.0,255.0,255.0
253,12.65,4.4509197464818335,8.00486480990674,-1.9209480947867232,-0.007198032886748251,0.07611234445327852,-0.29051831924010507,-0.0004979310689101624,0.005152389614071495,-0.020760146368314913,0.0,70.0,255.0,255.0,255.0
254,12.700000000000001,4.450559179321011,8.00867689585374,-1.9355000335755956,-0.007254266862037895,0.07640010785314288,-0.2915755645057394,-0.0015880728907013975,0.0062313340004394036,-0.02133593726201255,0.0,70.0,255.0,255.0,255.0
255,12.75,4.45019431979563,8.012504820692055,-1.9501056512372972,-0.007356840175818391,0.07673547785332246,-0.2926519129663063,-0.002173714181363806,0.006910519559433226,-0.0213715844103346,0.0,70.0,255.0,255.0,255.0
256,12.8,4.449823495303429,8.016350443639073,-1.9647652248722263,-0.007471638280174275,0.07709115980908621,-0.29371272294677286,-0.0020717503119271896,0.007028325485336495,-0.020723880422890417,0.0,70.0,255.0,255.0,255.0
257,12.850000000000001,4.449447155967612,8.020213936672963,-1.9794769235319745,-0.00756401520701111,0.07743831040185611,-0.29472430100859537,-0.0014377849165470025,0.00666622872103062,-0.019585103928365655,0.0,70.0,255.0,255.0,255.0
258,12.9,4.449067093782728,8.024094274679259,-1.9942376549730858,-0.007615416771828976,0.07775778268118927,-0.29567123333960943,-0.0005903468135670664,0.006015965654349031,-0.018324201695762987,0.0,70.0,255.0,255.0,255.0
259,12.950000000000001,4.448685614290429,8.027989714941082,-2.0090440468659354,-0.007623049888367817,0.07803990696729102,-0.29655672117817167,0.00015117563201272333,0.005271690936581308,-0.017309680510724235,0.0,70.0,255.0,255.0,255.0
260,13.0,4.448304788793891,8.031898265375988,-2.023893327090903,-0.007600299208627703,0.0782849517748474,-0.29740220139068185,0.0004561463130769994,0.0046204358609358565,-0.016901270413982594,0.0,70.0,255.0,255.0,255.0
261,13.05,4.447925584369567,8.035818210118567,-2.0387842670050036,-0.007577435257060117,0.0785019505533846,-0.2982468482195699,0.00015556402512828527,0.004175064905886927,-0.01727739344739021,0.0,70.0,255.0,255.0,255.0
262,13.100000000000001,4.447547045268185,8.039748460431326,-2.05371801191286,-0.007584742806114875,0.07870245826543609,-0.2991299407354209,-0.0005823073625954578,0.003953201894368874,-0.018265052424881745,0.0,70.0,255.0,255.0,255.0
263,13.15,4.447167110088955,8.04368845594511,-2.0686972610785457,-0.0076356659933196624,0.07889727074282149,-0.3000733534620581,-0.001427861163616484,0.003949994854579586,-0.019512091137574572,0.0,70.0,255.0,255.0,255.0
264,13.200000000000001,4.446783478668853,8.047638187505608,-2.0837253472590658,-0.007727528922476523,0.07909745775089405,-0.30108114984917833,-0.00206296996339006,0.004167589896653112,-0.020659280089230236,0.0,70.0,255.0,255.0,255.0
265,13.25,4.4463943571967075,8.0515982017202,-2.0988053760634635,-0.007841962989658668,0.0793140297324868,-0.3021392814709811,-0.0021709643114320443,0.004615755645076547,-0.021351352581611138,0.0,70.0,255.0,255.0,255.0
266,13.3,4.445999282369887,8.055569590478857,-2.113939275406164,-0.007944625353619728,0.0795590333154017,-0.30321628510733944,-0.0015968461150706048,0.005279153820758609,-0.02140048518155524,0.0,70.0,255.0,255.0,255.0
267,13.350000000000001,4.4455998946613455,8.05955410505174,-2.1291270045741975,-0.008001647601165729,0.07984194511456266,-0.30427932998913665,-0.0005201651199548962,0.006040124541684122,-0.020923730661426276,0.0,70.0,255.0,255.0,255.0
268,13.4,4.4451991176097705,8.063553784990313,-2.1443672084050776,-0.007996641865615217,0.08016304576957012,-0.3053086581734821,0.0007081317943580245,0.006703215765391235,-0.020177550303879244,0.0,70.0,255.0,255.0,255.0
269,13.450000000000001,4.444800230474784,8.067570409628697,-2.1596578703915457,-0.007930834421729926,0.08051226669110179,-0.3062970850195246,0.0017413569022295405,0.007065688401652892,-0.019420285379112556,0.0,70.0,255.0,255.0,255.0
270,13.5,4.4444060341675975,8.071605011659424,-2.17499691690703,-0.007822506175392263,0.08086961460973541,-0.30725068671139333,0.0022517668764265864,0.006924560207366426,-0.018921291287243847,0.0,70.0,255.0,255.0,255.0
271,13.55,4.444017979857245,8.07565737108967,-2.190382939062685,-0.007705657734087268,0.08120472271183843,-0.30818921414824896,0.0020714474747052236,0.0061940074589372784,-0.018826213612133103,0.0,70.0,255.0,255.0,255.0
272,13.600000000000001,4.443635468394189,8.079725483930607,-2.205815838321855,-0.007615361427921741,0.08148901535562914,-0.30913330807260664,0.0013128512927451652,0.005052547025208298,-0.01903545616541713,0.0,70.0,255.0,255.0,255.0
273,13.65,4.443256443714453,8.083806272625234,-2.2212962698699457,-0.007574372604812751,0.08170997741435926,-0.31009275976479067,0.00022628969711391278,0.003832573318618415,-0.019343954733219704,0.0,70.0,255.0,255.0,255.0
274,13.700000000000001,4.4428780311337075,8.087896481672043,-2.236825114298334,-0.0075927324582103495,0.08187227268749098,-0.3110677035459286,-0.0009296837527372759,0.0028752042812385525,-0.01955869261291987,0.0,70.0,255.0,255.0,255.0
275,13.75,4.442497170468632,8.091993499893983,-2.2524030402245385,-0.007667340980086479,0.08199749784248311,-0.31204862902608266,-0.0019120938701711054,0.0025139755535974473,-0.01947555686148128,0.0,70.0,255.0,255.0,255.0
276,13.8,4.442111297035699,8.096096231456292,-2.2680299772009422,-0.00778394184522746,0.08212367024285072,-0.31301525923207674,-0.002576682711463718,0.0029119025917623276,-0.01899480023035416,0.0,70.0,255.0,255.0,255.0
277,13.850000000000001,4.441718776284109,8.100205866918268,-2.283704566147746,-0.00792500925123285,0.08228868810165935,-0.3139481090491181,-0.0028985127781488984,0.0038998039075366364,-0.01825714863965544,0.0,70.0,255.0,255.0,255.0
278,13.9,4.441318796110576,8.104325100266458,-2.299424788105854,-0.00807379312304235,0.08251365063360439,-0.3148409740960423,-0.002884339534325875,0.0051355352487902906,-0.01752392680045567,0.0,70.0,255.0,255.0,255.0
279,13.950000000000001,4.440911396971805,8.108457231981628,-2.3151886635573504,-0.008213443204665438,0.08280224162653838,-0.31570050172916364,-0.002543647532249338,0.00626743386682449,-0.017044804308952166,0.0,70.0,255.0,255.0,255.0
280,14.0,4.440497451790109,8.112605324429111,-2.3309948382787704,-0.008328157876267284,0.08314039402028683,-0.3165454545269375,-0.0018914100434308523,0.006947556226322149,-0.017064406675082466,0.0,70.0,255.0,255.0,255.0
281,14.05,4.440078581184178,8.116771271383657,-2.346843209010044,-0.008402584209008523,0.08349699724917059,-0.3174069423966719,-0.0009626653470817814,0.006992321568688453,-0.0176954712473254,0.0,70.0,255.0,255.0,255.0
282,14.100000000000001,4.439657193369208,8.120955024154028,-2.3627355325184376,-0.008424424410975462,0.08383962617715568,-0.31831500165167004,0.00011952149838734272,0.006517281632945071,-0.018769702189480597,0.0,70.0,255.0,255.0,255.0
283,14.15,4.43923613874308,8.125155234001372,-2.378674709175211,-0.00839063205916979,0.0841487254124651,-0.31928391261561995,0.0011493901183712296,0.005775402236096738,-0.019964906829272877,0.0,70.0,255.0,255.0,255.0
284,14.200000000000001,4.438818130163291,8.129369896695275,-2.3946639237799996,-0.008309485399138339,0.08441716640076535,-0.3203114923345973,0.0019063251639472867,0.005022146499911173,-0.020956542365313524,0.0,70.0,255.0,255.0,255.0
285,14.25,4.4384051902031665,8.133596950641449,-2.410705858408671,-0.00819999954277506,0.08465094006245621,-0.3213795668521513,0.002189715396205827,0.004523771568898383,-0.021438844410859303,0.0,70.0,255.0,255.0,255.0
286,14.3,4.437998130209014,8.13783499070152,-2.4268018804652147,-0.008090513859517756,0.08486954355765519,-0.32245537677568326,0.0019063184579337644,0.004424358917098914,-0.021256228533772514,0.0,70.0,255.0,255.0,255.0
287,14.350000000000001,4.437596138817215,8.142083904997214,-2.4429513960862392,-0.008009367696981684,0.0850933759541661,-0.32350518970552855,0.0011493778333537819,0.004626500795623656,-0.02051392605175728,0.0,70.0,255.0,255.0,255.0
288,14.4,4.4371971934393155,8.146344328296937,-2.4591523994357676,-0.007975576076182378,0.08533219363721756,-0.324506769380859,0.00011950633398427613,0.004929102895090409,-0.019447401593186697,0.0,70.0,255.0,255.0,255.0
289,14.450000000000001,4.4367985812095965,8.150617124360936,-2.475402073024325,-0.007997417063583256,0.08558628624367515,-0.3254499298648472,-0.0009626787642602608,0.005143094353599054,-0.018301800122566547,0.0,70.0,255.0,255.0,255.0
290,14.5,4.436397451732957,8.154902956921305,-2.4916973924222523,-0.008071843952608404,0.08584650307257746,-0.32633694939311564,-0.0018914142454917737,0.005069432089221948,-0.017304225005743135,0.0,70.0,255.0,255.0,255.0
291,14.55,4.435991396814336,8.159201774668194,-2.5080357679636367,-0.008186558488132434,0.08609322945259734,-0.32718035236542153,-0.0025436341257289996,0.004610382622693976,-0.01659187569020837,0.0,70.0,255.0,255.0,255.0
292,14.600000000000001,4.435578795884144,8.163512279866564,-2.5244154276587945,-0.008326207365181304,0.08630754133484686,-0.3279961369621365,-0.0028843055586591504,0.003899419147224137,-0.016207320875816222,0.0,70.0,255.0,255.0,255.0
293,14.65,4.4351587760778175,8.167832528801679,-2.5408353816598503,-0.008474989043998349,0.08648317136731976,-0.32880108445300316,-0.0028984644057317155,0.0031854822214683054,-0.01617443784676098,0.0,70.0,255.0,255.0,255.0
294,14.700000000000001,4.434731296979744,8.172160597003296,-2.5572955361040948,-0.008616053805754476,0.08662608955699369,-0.3296135807468126,-0.0025766357484080515,0.002705336225616861,-0.016515231503522187,0.0,70.0,255.0,255.0,255.0
295,14.75,4.434297170697242,8.176495137757378,-2.5737967397345316,-0.008732652618839154,0.08675370498988144,-0.3304526076033554,-0.0019120770619274197,0.0026864254817127176,-0.01725623691815059,0.0,70.0,255.0,255.0,255.0
296,14.8,4.43385803171786,8.180835967502285,-2.5903407968644303,-0.008807261511947218,0.08689473210516496,-0.33133920443862763,-0.000929730672183382,0.003234996374068544,-0.01837831998767747,0.0,70.0,255.0,255.0,255.0
297,14.850000000000001,4.433416444546047,8.185184610967895,-2.6069306601783944,-0.008825625686057492,0.0870772046272883,-0.3322904396021231,0.00022616607946446265,0.004209575529401377,-0.019695112123319092,0.0,70.0,255.0,255.0,255.0
298,14.9,4.432975469149254,8.189543687965013,-2.6235698408246426,-0.008784644904000771,0.0873156896581051,-0.33330871565095954,0.001312672966413686,0.005333536982732312,-0.020893168697888598,0.0,70.0,255.0,255.0,255.0
299,14.950000000000001,4.432537980055647,8.193916179933705,-2.6402615317434903,-0.008694358389416124,0.08761055832556153,-0.334379756471912,0.0020712730399274903,0.006323299670896176,-0.02164603843213264,0.0,70.0,255.0,255.0,255.0
300,15.0,4.432106033310313,8.19830474379757,-2.657007816471834,-0.008577517600008022,0.08794801962519472,-0.3354733194941728,0.0022517038455127647,0.006904865983337061,-0.02163483664574528,0.0,70.0,255.0,255.0,255.0
301,15.05,4.4316802282956465,8.202710981896224,-2.6738088636929076,-0.008469188004864847,0.08830104492389523,-0.3365432401364865,0.0017415311735824446,0.006936345168284674,-0.020720019184228278,0.0,70.0,255.0,255.0,255.0
302,15.100000000000001,4.431259114509826,8.207134848289959,-2.6906621404854825,-0.008403364482649778,0.08864165414202319,-0.33754532141259563,0.0007085922900884611,0.006510390623937212,-0.01914295324154658,0.0,70.0,255.0,255.0,255.0
303,15.15,4.4308398918473815,8.211575147310427,-2.707563395834167,-0.008398328775856001,0.08895208398628895,-0.33845753546064117,-0.0005195001875790695,0.0058322579594261015,-0.017364682233456108,0.0,70.0,255.0,255.0,255.0
304,15.200000000000001,4.430419281632241,8.216030056688588,-2.7245078940315466,-0.008455314501407685,0.0892248799379658,-0.33928178963594124,-0.0015961953399035167,0.005114751803247941,-0.015865649733193266,0.0,70.0,255.0,255.0,255.0
305,15.25,4.429994360397241,8.220497635304223,-2.7414915747977613,-0.008557948309846353,0.08946355916661375,-0.3400441004339605,-0.0021707289958428078,0.0045741105846985874,-0.015120407174640249,0.0,70.0,255.0,255.0,255.0
306,15.3,4.429563486801256,8.22497641260525,-2.7585123040749426,-0.008672387400991965,0.08968229099643565,-0.34079383035340527,-0.002063620128822663,0.004331884026065325,-0.015368176701802128,0.0,70.0,255.0,255.0,255.0
307,15.350000000000001,4.4291271216571415,8.229465864403867,-2.775570957833102,-0.008764310322728619,0.08989674756922028,-0.3415809181041407,-0.0014295795288887803,0.004344293209612715,-0.01639955509733504,0.0,70.0,255.0,255.0,255.0
308,15.4,4.428687055768983,8.233966087362171,-2.7926703958853567,-0.008815345353880844,0.09011672031739693,-0.3424337858631388,-0.0005847887666554641,0.0045036782651664,-0.01778162218180057,0.0,70.0,255.0,255.0,255.0
309,15.450000000000001,4.428245587121753,8.238477536435607,-2.8098143364194157,-0.008822789199394165,0.09034711539573692,-0.34335908032232076,0.00015313535923766608,0.004710094050253133,-0.019071502495027204,0.0,70.0,255.0,255.0,255.0
310,15.5,4.427804776849044,8.243000798901745,-2.827006303917589,-0.008800031817957077,0.09058772972242224,-0.3443409361126415,0.0004552680822555999,0.004858738298629817,-0.019819571951451564,0.0,70.0,255.0,255.0,255.0
311,15.55,4.427365583939958,8.247536309407849,-2.84424843003068,-0.008777262391168605,0.0908329892255999,-0.3453410375174659,0.00015360202247904908,0.004890058121453933,-0.01978843950971587,0.0,70.0,255.0,255.0,255.0
312,15.600000000000001,4.426927050609927,8.252084097824305,-2.8615404076693354,-0.008784671615709172,0.09107673553456763,-0.3463197800636131,-0.0005839338481195,0.004833368938150784,-0.019148803059954034,0.0,70.0,255.0,255.0,255.0
313,15.65,4.426487116778387,8.256643982961306,-2.878880408037041,-0.008835655775980555,0.09131632611941498,-0.3472559178234613,-0.0014285242328604397,0.004751257416124588,-0.018257174027880296,0.0,70.0,255.0,255.0,255.0
314,15.700000000000001,4.426043485032329,8.261215730436247,-2.8962659994516815,-0.008927524038995216,0.09155186127618009,-0.3481454974664011,-0.0020626864230877118,0.004698671529901333,-0.0174625127801864,0.0,70.0,255.0,255.0,255.0
315,15.75,4.425594364374487,8.265799169088924,-2.9136949577836813,-0.009041924418289327,0.09178619327240511,-0.34900216910147996,-0.0021704365736674447,0.004738908250701002,-0.01712522110310921,0.0,70.0,255.0,255.0,255.0
316,15.8,4.4251392925905,8.270394349763487,-2.9311662163618295,-0.00914456769636196,0.09202575210125019,-0.34985801957671203,-0.001597128288022276,0.004901170201421223,-0.017430699291809404,0.0,70.0,255.0,255.0,255.0
317,15.850000000000001,4.424679907604851,8.275001744299049,-2.9486807597413525,-0.009201637247091554,0.09227631029254724,-0.3507452390306609,-0.0005218645655169496,0.00512223103665832,-0.018198892336940276,0.0,70.0,255.0,255.0,255.0
318,15.9,4.424219128865791,8.279621980792742,-2.9662407402648956,-0.009196754152913655,0.09253797520491602,-0.35167790881040606,0.0007052260247775166,0.00529129206956469,-0.019076861194333716,0.0,70.0,255.0,255.0,255.0
319,15.950000000000001,4.42376023218956,8.28425554181954,-2.983848550622393,-0.009131114644613803,0.0928054394995037,-0.3526529251500943,0.0017382630136175692,0.005301933116719226,-0.019724786710462183,0.0,70.0,255.0,255.0,255.0
320,16.0,4.4233060174013294,8.288902524742692,-3.001506032779905,-0.009022927851551898,0.09306816851658795,-0.3536503874814523,0.0022505341562784054,0.0050376566713694615,-0.01979963687599451,0.0,70.0,255.0,255.0,255.0
321,16.05,4.4228579394044045,8.293562358671199,-3.0192135893705383,-0.008906061228985962,0.09330920516664065,-0.3546328888376937,0.0020745381696940512,0.004451461539645152,-0.019135103649148277,0.0,70.0,255.0,255.0,255.0
322,16.1,4.422415411278431,8.298233445259356,-3.0369693216636744,-0.008815474034582493,0.09351331467055246,-0.3555638978463671,0.0013212755602509674,0.003679478475682174,-0.017942807079585066,0.0,70.0,255.0,255.0,255.0
323,16.150000000000002,4.421976392000946,8.302913690138254,-3.054769979155175,-0.008773933672960865,0.09367715301420887,-0.35642716954565223,0.00023857584432462886,0.0029626419042472207,-0.016629040868920697,0.0,70.0,255.0,255.0,255.0
324,16.2,4.421538017911135,8.307601160560777,-3.0726120386182396,-0.00879161645015003,0.09380957886097718,-0.3572268019332592,-0.0009175917388581922,0.002539656610700547,-0.015597687697299634,0.0,70.0,255.0,255.0,255.0
325,16.25,4.421097230355931,8.312294648024352,-3.090492659348501,-0.008865692846846684,0.09393111867527892,-0.3579869383153822,-0.0019076907278758881,0.0026504184441833445,-0.015252175448532412,0.0,70.0,255.0,255.0,255.0
326,16.3,4.42065144862645,8.316994272428305,-3.108410732449778,-0.00898238552293762,0.09407462070539552,-0.3587520194781124,-0.002588763318289722,0.0034005827068028793,-0.01578925907166351,0.0,70.0,255.0,255.0,255.0
327,16.35,4.4201989918036375,8.321702110094892,-3.126367861296312,-0.009124569178675657,0.09427117694595921,-0.35956586422254855,-0.002930510401988329,0.004593607974001657,-0.01697999589489463,0.0,70.0,255.0,255.0,255.0
328,16.400000000000002,4.4197389917085825,8.326421390122901,-3.1443673188720327,-0.009275436563136452,0.09453398150279568,-0.3604500190676019,-0.00293057835323296,0.005862709078918726,-0.01837601961947044,0.0,70.0,255.0,255.0,255.0
329,16.45,4.419271448147324,8.331155508245171,-3.1624128632030724,-0.009417627013998953,0.09485744785385108,-0.3614034661844956,-0.002588921699864244,0.0068338926553224155,-0.019525115180885066,0.0,70.0,255.0,255.0,255.0
330,16.5,4.418797229007183,8.335907134908286,-3.1805076654904822,-0.009534328733122877,0.09521737076832792,-0.3624025305856904,-0.001907789892729994,0.007132697523815068,-0.019971707949606454,0.0,70.0,255.0,255.0,255.0
331,16.55,4.418318015274012,8.340677245322004,-3.1986531162616414,-0.009608406003271952,0.09557071760623259,-0.36340063697945624,-0.0009174336140560513,0.006579121386529607,-0.01948799992419481,0.0,70.0,255.0,255.0,255.0
332,16.6,4.417836388406855,8.34546420666891,-3.216847729188428,-0.009626072094528482,0.09587528290698089,-0.36435133057810987,0.00023908772597280858,0.00539597307760431,-0.018308025191915434,0.0,70.0,255.0,255.0,255.0
333,16.650000000000002,4.417355408064559,8.350264773612702,-3.2350882493194524,-0.009584497230674671,0.09611031491399302,-0.3652314394986478,0.0013220592465224001,0.004017477490947385,-0.01689606480255179,0.0,70.0,255.0,255.0,255.0
334,16.7,4.416877938683788,8.355075238160309,-3.2533708731382927,-0.009493866169876242,0.09627703065607562,-0.36604093705836505,0.0020753298203501913,0.0028841200869322847,-0.015714998431937133,0.0,70.0,255.0,255.0,255.0
335,16.75,4.416406021447571,8.35989247667831,-3.271692343025289,-0.009376964248639652,0.09639872692268625,-0.3668029393418415,0.002250831651640084,0.0024387448391394173,-0.015228918161147575,0.0,70.0,255.0,255.0,255.0
336,16.8,4.415940242258924,8.364715110852577,-3.290051167072477,-0.009268783004712233,0.09652090513998957,-0.3675638288744798,0.001737472133545026,0.00290279188774889,-0.01567188808495601,0.0,70.0,255.0,255.0,255.0
337,16.85,4.4154791431471,8.369544567192309,-3.308448725912737,-0.00920321703528515,0.09668900611146114,-0.3683701281503371,0.0007031105464072596,0.004051683866101996,-0.01681708748666466,0.0,70.0,255.0,255.0,255.0
338,16.900000000000002,4.4150199205553955,8.374384011463723,-3.3268881798875105,-0.009198471950071507,0.09692607352659977,-0.36924553762314627,-0.0005249313601574102,0.005438196807894258,-0.0182105370208685,0.0,70.0,255.0,255.0,255.0
339,16.95,4.414559295952093,8.379237174544969,-3.3453732796750515,-0.00925571017130089,0.09723282579225057,-0.37019118185242395,-0.0016001365088058606,0.006616480142973558,-0.01940174423800123,0.0,70.0,255.0,255.0,255.0
340,17.0,4.414094349538265,8.384107294042948,-3.363907298072753,-0.009358485600952093,0.09758772154089712,-0.3711857120469464,-0.0021715273894606923,0.0071443977107676915,-0.019944693998397156,0.0,70.0,255.0,255.0,255.0
341,17.05,4.4136234473919975,8.388995946699058,-3.382491850879746,-0.00947286291024696,0.09794726556332733,-0.37218565125226366,-0.002059681028310223,0.00679656420992103,-0.019611300882704796,0.0,70.0,255.0,255.0,255.0
342,17.1,4.413147063247241,8.393902020599281,-3.4011258631979793,-0.009564453703783116,0.09826737796188922,-0.37314684213521687,-0.0014205742012940448,0.005768107310544224,-0.0185944407118388,0.0,70.0,255.0,255.0,255.0
343,17.150000000000002,4.412667002021619,8.398822684495247,-3.419806535093268,-0.009614920330376364,0.09852407629438176,-0.37404509532344754,-0.0005724503549409121,0.004458919426042485,-0.017290971263372867,0.0,70.0,255.0,255.0,255.0
344,17.2,4.412185571214203,8.40375442822872,-3.438530372730324,-0.009621698739277207,0.09871326990449347,-0.37487593926155416,0.00016484325504606545,0.0032698194800673264,-0.01609788475636087,0.0,70.0,255.0,255.0,255.0
345,17.25,4.4117048321476915,8.408694011485697,-3.4572941290194232,-0.009598436004871758,0.09885105824238849,-0.3756548837990836,0.0004593338495340049,0.002603617697438665,-0.015412259225389136,0.0,70.0,255.0,255.0,255.0
346,17.3,4.411225727613716,8.413639534052958,-3.4760958611102324,-0.009575765354323806,0.09897363167423734,-0.37641716518409307,0.0001419046599338003,0.0026702985916671196,-0.015442255703002061,0.0,70.0,255.0,255.0,255.0
347,17.35,4.410747255612259,8.41859137465312,-3.4949358455378325,-0.009584245538878378,0.0991180881015552,-0.37719910936938383,-0.0006144734148172404,0.0033068426038340704,-0.016036105376260323,0.0,70.0,255.0,255.0,255.0
348,17.400000000000002,4.410267303059828,8.423551342863114,-3.5138157720471708,-0.00963721269580553,0.09930431593462075,-0.3780207757217191,-0.0014724467066962177,0.004176008938117093,-0.016875461375898126,0.0,70.0,255.0,255.0,255.0
349,17.45,4.409783534342679,8.428521806246582,-3.5327379231100045,-0.009731490209548,0.09953568899536691,-0.37888665550697365,-0.002105576837685419,0.004943868975715304,-0.01764634377678931,0.0,70.0,255.0,255.0,255.0
350,17.5,4.409294154038873,8.43350491176265,-3.551704437597868,-0.009847770379574072,0.09979870283219228,-0.37978541009939804,-0.002185901249340816,0.005265187443548314,-0.018030325043749684,0.0,70.0,255.0,255.0,255.0
351,17.55,4.408798757304721,8.438501676529802,-3.5707164641199443,-0.009950080334482081,0.10006220773972174,-0.3806896880113486,-0.0015542779373767246,0.0049628941040325,-0.01786032898576373,0.0,70.0,255.0,255.0,255.0
352,17.6,4.408299146005425,8.443511132536623,-3.589773406399003,-0.010003198173311745,0.10029499224259553,-0.3815714429979744,-0.0004087116268536306,0.004210862601183862,-0.017267478109772583,0.0,70.0,255.0,255.0,255.0
353,17.650000000000002,4.40779843748739,8.448531175754061,-3.6088736084197417,-0.009990951497167444,0.10048329399984013,-0.3824164358223259,0.0008685775079619873,0.003349865334989488,-0.016520003745945644,0.0,70.0,255.0,255.0,255.0
354,17.7,4.407300050855708,8.453559461936607,-3.6280150499812356,-0.009916340422515546,0.10062997877609448,-0.383223443372569,0.0018981167769105411,0.0027083642891057025,-0.01587711309669615,0.0,70.0,255.0,255.0,255.0
355,17.75,4.406806803445138,8.45859417363167,-3.6471959527569986,-0.00980113981947639,0.1007541304287507,-0.3840041471319955,0.0023083270915158494,0.0026155392866655802,-0.015598375331604686,0.0,70.0,255.0,255.0,255.0
356,17.8,4.406319936873761,8.463634874979482,-3.666415464694435,-0.009685507713363961,0.10089153270476103,-0.38478328090572944,0.0019148341291241877,0.003231784667612203,-0.01581628849400829,0.0,70.0,255.0,255.0,255.0
357,17.85,4.405838252673802,8.468683326902147,-3.6856742808475715,-0.009609656406563971,0.10107730889551192,-0.3855857759813963,0.0008992033720289783,0.00436252750635191,-0.016408574259108022,0.0,70.0,255.0,255.0,255.0
358,17.900000000000002,4.405358971233104,8.473742605869033,-3.7049740422925748,-0.009595587376161063,0.10132778545539622,-0.38642413833164024,-0.000370907613955751,0.0056308700473906015,-0.01712993156557374,0.0,70.0,255.0,255.0,255.0
359,17.95,4.404878693936186,8.478816105447686,-3.7243166946807356,-0.009646747167959546,0.10164039590025098,-0.3872987691379537,-0.0015208296632707174,0.006663326547773352,-0.01773863040992474,0.0,70.0,255.0,255.0,255.0
360,18.0,4.404394296516308,8.483906645459058,-3.74370391920637,-0.009747670342488135,0.10199411811017356,-0.3881980013726327,-0.002175425765482686,0.00709671135261658,-0.017992210925799057,0.0,70.0,255.0,255.0,255.0
361,18.05,4.403903926901937,8.489015517258704,-3.763136494817999,-0.009864289744507815,0.10235006703551264,-0.3890979902305336,-0.0021389979734109943,0.006749594265365033,-0.017767943611257664,0.0,70.0,255.0,255.0,255.0
362,18.1,4.4034078675418575,8.49414165216261,-3.7826137182294235,-0.009961570139829234,0.10266907753671006,-0.3899747957337585,-0.001557146149533395,0.005788910825721416,-0.017183632779405045,0.0,70.0,255.0,255.0,255.0
363,18.150000000000002,4.402907769887954,8.499282425012375,-3.8021339743913747,-0.010020004359461154,0.10292895811808478,-0.3908163535084741,-0.0007350636021641321,0.004557610185429439,-0.016474862066973017,0.0,70.0,255.0,255.0,255.0
364,18.2,4.402405867105911,8.504434547974418,-3.821695353580271,-0.010035076500045648,0.103124838555253,-0.3916222819404558,2.482891545696475e-05,0.003404390124650547,-0.015874938690085827,0.0,70.0,255.0,255.0,255.0
365,18.25,4.40190426223795,8.5095949088679,-3.8412962025854203,-0.010017521467915458,0.10326939713054983,-0.3924038473774827,0.0004174319141903027,0.0026695966548473393,-0.015616743668811495,0.0,70.0,255.0,255.0,255.0
366,18.3,4.40140411495912,8.514761487687473,-3.860935738318019,-0.009993333308626617,0.10339179822073774,-0.39318395630733693,0.0002818104452018133,0.0025358988768431345,-0.015818510487042303,0.0,70.0,255.0,255.0,255.0
367,18.35,4.400904928907087,8.519934088689974,-3.880614598216154,-0.009989340423395277,0.10352298701823415,-0.3939856984261869,-0.00026427844677101575,0.00291278490358593,-0.01637148669790811,0.0,70.0,255.0,255.0,255.0
368,18.400000000000002,4.40040518091678,8.525113786389296,-3.900334308160638,-0.010019761153303719,0.10368307671109633,-0.39482110497712775,-0.0009760174645379038,0.0035885726617834734,-0.017056028092854447,0.0,70.0,255.0,255.0,255.0
369,18.45,4.399902952791757,8.530302396361083,-3.9200967087138667,-0.010086942169849067,0.1038818442844125,-0.39569130123547236,-0.0016181130392034504,0.004352026704346201,-0.017655041402919736,0.0,70.0,255.0,255.0,255.0
370,18.5,4.399396486699795,8.535501970817737,-3.939903438284185,-0.010181572457224064,0.10411827938153095,-0.3965866091174197,-0.0019623671597024384,0.004996929998313249,-0.017956851694389542,0.0,70.0,255.0,255.0,255.0
371,18.55,4.398884795546034,8.540714224299236,-3.9597553696256087,-0.01028317888581931,0.10438153728424382,-0.3974869864049113,-0.0018883836666816478,0.005401262442106258,-0.017851441014160585,0.0,70.0,255.0,255.0,255.0
372,18.6,4.3983681688112135,8.545940124546162,-3.9796521369246762,-0.010370410823892229,0.10465840562574158,-0.3983717532188358,-0.0014711479884077505,0.005564518326472978,-0.017415828354749863,0.0,70.0,255.0,255.0,255.0
373,18.650000000000002,4.397847754463645,8.55118006486181,-3.9995925449474923,-0.010430293684660086,0.10493798911689112,-0.3992285692403863,-0.0008754586152903698,0.00552185208206879,-0.01681561763682282,0.0,70.0,255.0,255.0,255.0
374,18.7,4.3973251394427475,8.55643392345785,-4.019574993848715,-0.010457956685421266,0.10521059083394846,-0.40005331498251806,-0.00026566347184342476,0.0053018154103412485,-0.01621818241113182,0.0,70.0,255.0,255.0,255.0
375,18.75,4.396801958795103,8.561701123945205,-4.039597876445744,-0.010456860031844428,0.10546817065792524,-0.4008503874814995,0.00019604604926115599,0.0049346647031711655,-0.0157918402283741,0.0,70.0,255.0,255.0,255.0
376,18.8,4.396279453439563,8.566980740523643,-4.059660032596865,-0.01043835208049515,0.10570405730426558,-0.40163249900535547,0.0004189503285623175,0.004451312427455889,-0.015628499349418234,0.0,70.0,255.0,255.0,255.0
377,18.85,4.395758123587053,8.572271529675632,-4.07976112634628,-0.010414964998988196,0.10591330190067083,-0.4024132374164413,0.00043250676409201105,0.00390998095181061,-0.015681563520608677,0.0,70.0,255.0,255.0,255.0
378,18.900000000000002,4.395237956939664,8.57757207071371,-4.099901356338509,-0.010395101404085949,0.10609505539944664,-0.40320065535741634,0.00031337640100659314,0.0034048581719403614,-0.015845976884332202,0.0,70.0,255.0,255.0,255.0
379,18.95,4.394718613446645,8.582881035215577,-4.120081191882021,-0.010383627358887537,0.10625378771786487,-0.4039978351048745,0.00013456646019704976,0.003039686012762388,-0.016018429418007685,0.0,70.0,255.0,255.0,255.0
380,19.0,4.3941995942037755,8.588197449485497,-4.140301139848996,-0.010381644758066244,0.10639902400072287,-0.4048024982992171,-2.9835685033674508e-05,0.0029084205117158035,-0.016083806039723925,0.0,70.0,255.0,255.0,255.0
381,19.05,4.393680448970838,8.593520937615649,-4.160561441711943,-0.010386610927390905,0.10654462976903645,-0.4056062157088469,-0.00013464375472338475,0.003054000669067136,-0.015981787696084382,0.0,70.0,255.0,255.0,255.0
382,19.1,4.393160933111036,8.5988519124624,-4.180861761419881,-0.010395109133538583,0.10670442406762959,-0.40640067706882554,-0.00017981146882561916,0.0034310823428640447,-0.0157788499639544,0.0,70.0,255.0,255.0,255.0
383,19.150000000000002,4.392640938057484,8.604191380022412,-4.2012015094188255,-0.010404592074273467,0.10688773800332285,-0.40718410070524236,-0.00017627542687748132,0.003942351594155014,-0.015598703263464131,0.0,70.0,255.0,255.0,255.0
384,19.200000000000003,4.392120473903609,8.609540686262733,-4.221580171490405,-0.01041273667622633,0.10709865922704509,-0.40796054739517196,-0.00012640190290014175,0.004479953358327293,-0.015555186164117885,0.0,70.0,255.0,255.0,255.0
385,19.25,4.391599664389862,8.614901245945116,-4.241997564158343,-0.01041723226456348,0.10733573333915558,-0.40873961932165415,-2.4675336707247197e-05,0.004943634601062286,-0.015768879669053604,0.0,70.0,255.0,255.0,255.0
386,19.3,4.391078750677153,8.620274259596648,-4.262454133422571,-0.010415204209897055,0.10759302268715132,-0.4095374353620773,0.00012633797732419794,0.005273197717592382,-0.016291436113125002,0.0,70.0,255.0,255.0,255.0
387,19.35,4.390558143968872,8.625660548213832,-4.2829513076945505,-0.010404598466831061,0.10786305311091482,-0.41036876293296665,0.000286739110411105,0.005449326041073732,-0.01700126506145594,0.0,70.0,255.0,255.0,255.0
388,19.400000000000002,4.39003829083047,8.63106056490774,-4.303491009715867,-0.010386530298855945,0.10813795529125869,-0.4112375618682229,0.0003917253061480608,0.0054612599269532325,-0.017680142462594972,0.0,70.0,255.0,255.0,255.0
389,19.450000000000003,4.389519490938986,8.636474343742957,-4.324075063881373,-0.010365425936216255,0.10840917910361014,-0.41213677717922614,0.0003777544388405829,0.005301013373504304,-0.018114765319854342,0.0,70.0,255.0,255.0,255.0
390,19.5,4.389001748236848,8.6419014828181,-4.34470468743379,-0.010348754854971887,0.10866805662860912,-0.41304903840020835,0.00018056500428187405,0.004961050406215861,-0.018100721904534822,0.0,70.0,255.0,255.0,255.0
391,19.55,4.388484615453489,8.647341149405818,-4.365379967721394,-0.010347369435788067,0.10890528414423173,-0.4139468493696796,-0.00022450768835113877,0.004452182820990913,-0.017544868783403444,0.0,70.0,255.0,255.0,255.0
392,19.6,4.387967011293269,8.652792011232524,-4.386099372370758,-0.010371205623807,0.10911327491070821,-0.4148035252785487,-0.0007653734118484579,0.0038524526555505645,-0.016582336876069803,0.0,70.0,255.0,255.0,255.0
393,19.650000000000002,4.387447494891108,8.65825247689689,-4.4068603202492485,-0.010423906776972913,0.10929052940978679,-0.4156050830572866,-0.0013115581994682657,0.003293447857366516,-0.015476158121519035,0.0,70.0,255.0,255.0,255.0
394,19.700000000000003,4.386924620615572,8.663721064173503,-4.427659880676487,-0.010502361443753827,0.10944261969644486,-0.4163511410907006,-0.0017318419589074097,0.0029149675050632595,-0.014498013629271611,0.0,70.0,255.0,255.0,255.0
395,19.75,4.386397258746733,8.669196738866534,-4.4484954343583185,-0.010597090972863654,0.10958202616029311,-0.41705488442021377,-0.0019056033278452844,0.0028561730985643408,-0.013908232713610857,0.0,70.0,255.0,255.0,255.0
396,19.8,4.3858649115182855,8.674679266789532,-4.469365369118508,-0.010692921776538356,0.1097282370063013,-0.4177419643620617,-0.0017745076903885604,0.0031785838206843664,-0.013842375466044388,0.0,70.0,255.0,255.0,255.0
397,19.85,4.385327966569079,8.680169562567164,-4.490269630794525,-0.01077454174190251,0.10989988454236155,-0.4184391219668182,-0.001389720988065335,0.0037763878127705652,-0.014221275545356349,0.0,70.0,255.0,255.0,255.0
398,19.900000000000002,4.384787457344095,8.685669255243768,-4.51120928131519,-0.010831893875344889,0.11010587578757836,-0.4191640919165973,-0.0008618561449402762,0.004448585005967232,-0.014863336939541227,0.0,70.0,255.0,255.0,255.0
399,19.950000000000003,4.384244777181545,8.691180150145922,-4.532186039986184,-0.010860727356396538,0.11034474304295827,-0.41992545566077233,-0.0003098737821893849,0.004986342713309,-0.015579893450290427,0.0,70.0,255.0,255.0,255.0
400,20.0,4.383701384608456,8.696703729548064,-4.553201826881267,-0.010862881253563827,0.11060451005890926,-0.42072208126162636,0.00015382965949939376,0.005178266524197284,-0.01618634724103174,0.0,70.0,255.0,255.0,255.0
401,20.05,4.383158489056188,8.702240601151813,-4.574258248112347,-0.010845344390446598,0.110862569695378,-0.4215440903848755,0.0004630512701275791,0.004920195182478437,-0.01657336828007061,0.0,70.0,255.0,255.0,255.0
402,20.1,4.382616850169411,8.707789986517602,-4.595356235919755,-0.01081657612655107,0.1110965295771571,-0.4223794180896334,0.0006078937274445195,0.004327404018944492,-0.016737129707333764,0.0,70.0,255.0,255.0,255.0
403,20.150000000000002,4.382076831443533,8.713350254109528,-4.61649618992131,-0.010784555017702147,0.11129531009727245,-0.4232178033556089,0.0005945072550694874,0.0036268041931464268,-0.01670424703403839,0.0,70.0,255.0,255.0,255.0
404,20.200000000000003,4.381538394667641,8.718919517527329,-4.6376780162553155,-0.01075712540104412,0.11145920999647174,-0.42404984279303726,0.000431849908277826,0.0030462350689930418,-0.016496724923165118,0.0,70.0,255.0,255.0,255.0
405,20.25,4.381001118903429,8.724496175109175,-4.658901174200614,-0.010741370026874364,0.11159993360417175,-0.4248674758479254,0.00013429401359843496,0.002814723509558803,-0.016138359673245617,0.0,70.0,255.0,255.0,255.0
406,20.3,4.380464257664953,8.730079510887746,-4.680164763840108,-0.010743695999684277,0.11174068234742762,-0.4256636787603618,-0.0002787230308776145,0.0030472088743849213,-0.015656412486908522,0.0,70.0,255.0,255.0,255.0
407,20.35,4.37992674930346,8.735670243343918,-4.70146754207665,-0.010769242329962125,0.11190465449161024,-0.42643311709661624,-0.0007610147606307294,0.003628588185655701,-0.015111044787285977,0.0,70.0,255.0,255.0,255.0
408,20.400000000000002,4.379387333431957,8.741269976336907,-4.72280807554977,-0.01081979747574735,0.11210354116599319,-0.4271747832390904,-0.0012353337144332954,0.004329606147734921,-0.014600514084595062,0.0,70.0,255.0,255.0,255.0
409,20.450000000000003,4.378844769555886,8.746880597460517,-4.744185020400559,-0.010892775701405455,0.11233761510638374,-0.42789316850507575,-0.0016185514917665955,0.004922143585339711,-0.014232181215856343,0.0,70.0,255.0,255.0,255.0
410,20.5,4.3782980558618165,8.752503737847546,-4.765597392400277,-0.01098165262492401,0.11259575552452716,-0.42859800136067605,-0.0018469963904976794,0.005178876734035498,-0.01410422338965489,0.0,70.0,255.0,255.0,255.0
411,20.55,4.377746604293393,8.75814017301297,-4.787044820536627,-0.011077475340455223,0.11285550277978729,-0.42930359084404124,-0.0018876463262706977,0.004984395891760585,-0.014261494592737733,0.0,70.0,255.0,255.0,255.0
412,20.6,4.377190308327771,8.763789288125524,-4.808527751484681,-0.01117041725755108,0.11309419511370322,-0.4300241508199498,-0.0017283102088150315,0.0044436511613454854,-0.014654215619369637,0.0,70.0,255.0,255.0,255.0
413,20.650000000000002,4.376629562567638,8.76944959252434,-4.830047235618622,-0.011250306361336726,0.11329986789592184,-0.4307690124059782,-0.001369536033912766,0.0037693632897628504,-0.01517733299118973,0.0,70.0,255.0,255.0,255.0
414,20.700000000000003,4.376065277691637,8.775119274915117,-4.851604652725279,-0.011307370860942356,0.11347113144267951,-0.4315418841190688,-0.0008238444072716788,0.003171764018539136,-0.015715063033816534,0.0,70.0,255.0,255.0,255.0
415,20.75,4.375498825481544,8.780796705668608,-4.873201424030529,-0.011332690802063894,0.11361704429777575,-0.43234051870935986,-8.635507198206938e-05,0.002853732260632569,-0.016156728120453323,0.0,70.0,255.0,255.0,255.0
416,20.8,4.374932008611431,8.786480979344894,-4.894838704596215,-0.011316006368140563,0.11375650466874276,-0.43315755693111413,0.0008236206896050646,0.0029217809844439557,-0.016438121963169294,0.0,70.0,255.0,255.0,255.0
417,20.85,4.37436722484473,8.792172356135483,-4.91651717972364,-0.011250328733103387,0.11390922239622014,-0.4339843309056768,0.0017561203979887807,0.0033113992405020554,-0.01655572909804448,0.0,70.0,255.0,255.0,255.0
418,20.900000000000002,4.373806975738121,8.797871901584516,-4.938237137686783,-0.011140394328341685,0.11408764459279297,-0.4348131298409186,0.0024699347263457128,0.0038783486187909944,-0.016525678425693968,0.0,70.0,255.0,255.0,255.0
419,20.950000000000003,4.373253185411896,8.803581120594762,-4.959998492707732,-0.011003335260468816,0.11429705725809924,-0.4356368987482462,0.0027283813357925624,0.00447751362919746,-0.016368079469675223,0.0,70.0,255.0,255.0,255.0
420,21.0,4.372706642212074,8.809301607310326,-4.9818008275616075,-0.010867556194762429,0.11453539595571272,-0.4364499377878861,0.0022964726227314713,0.00497020354828237,-0.016112873453000276,0.0,70.0,255.0,255.0,255.0
421,21.05,4.372166429792419,8.815034660190333,-5.003643486486521,-0.010773687998195669,0.11479407761292748,-0.4372481860935462,0.0010845388589864058,0.005275706278418113,-0.015784991914014057,0.0,70.0,255.0,255.0,255.0
422,21.1,4.371629273412254,8.820781015071619,-5.025525646170962,-0.010759102308863788,0.11506296658355453,-0.4380284369792875,-0.0006490851355067662,0.0053943882377893715,-0.015403707148831103,0.0,70.0,255.0,255.0,255.0
423,21.150000000000002,4.371090519561533,8.826540956848689,-5.047446330184449,-0.010838596511746346,0.11533351643670642,-0.4387885568084293,-0.002433932475565115,0.005352766710409185,-0.015000792466590696,0.0,70.0,255.0,255.0,255.0
424,21.200000000000003,4.3705454137610795,8.83231436671529,-5.069404501851805,-0.0110024955564203,0.11559824325459545,-0.4395285162259466,-0.0037851587913806384,0.005178694287799601,-0.014618306733105157,0.0,70.0,255.0,255.0,255.0
425,21.25,4.369990270005891,8.838100781174148,-5.091399181807044,-0.01121711239088441,0.11585138586548638,-0.44025038748173984,-0.004227554066638106,0.004909462869484571,-0.014287815363633882,0.0,70.0,255.0,255.0,255.0
426,21.3,4.369423702521991,8.843899505301838,-5.113429540599979,-0.01142525096308411,0.1160891895415439,-0.44095729776230996,-0.0035341770582952847,0.004574368260357176,-0.014028623667527995,0.0,70.0,255.0,255.0,255.0
427,21.35,4.368847744909583,8.849709700128303,-5.135494911583275,-0.011570530096713938,0.1163088226915221,-0.44165324984849264,-0.00197413883009645,0.004191886968385461,-0.013866738344159302,0.0,70.0,255.0,255.0,255.0
428,21.400000000000002,4.36826664951232,8.85553038757099,-5.157594865584828,-0.011622664846093755,0.11650837823838245,-0.4423439715967259,-8.152417150242286e-05,0.0037914236999725404,-0.013833855671485651,0.0,70.0,255.0,255.0,255.0
429,21.450000000000003,4.367685478424973,8.861360537952141,-5.179729308742948,-0.01157868251386418,0.11668796506151935,-0.4430366354156412,0.0015934193305255917,0.0034133968670246873,-0.013951980311066592,0.0,70.0,255.0,255.0,255.0
430,21.5,4.367108781260933,8.867199184077142,-5.201898529126392,-0.011463322913041196,0.11684971792508492,-0.44373916962783255,0.0025057716158016774,0.0030879822693563597,-0.014239827795670124,0.0,70.0,255.0,255.0,255.0
431,21.55,4.366539146133669,8.87304550974465,-5.224103225705731,-0.011328105352284012,0.11699676328845499,-0.4444606181952082,0.002372822055107804,0.0028335339658625003,-0.014694825769456799,0.0,70.0,255.0,255.0,255.0
432,21.6,4.365975970725705,8.878898860405988,-5.246344590945913,-0.011226040707530416,0.11713307132167117,-0.44520865220477823,0.0014000926706891903,0.002675359926840315,-0.015248500313980173,0.0,70.0,255.0,255.0,255.0
433,21.650000000000002,4.365416542062916,8.884758816876817,-5.268624090926209,-0.011188096085215093,0.11726429928113902,-0.44598546822660623,2.47377857753861e-05,0.00264424245273176,-0.015782945687803362,0.0,70.0,255.0,255.0,255.0
434,21.700000000000003,4.364857161117183,8.890625290334102,-5.290943137768574,-0.011223566928952877,0.11739749556694434,-0.44678694677355857,-0.0013148588574374287,0.0027610049567527994,-0.016174797663293106,0.0,70.0,255.0,255.0,255.0
435,21.75,4.364294185370021,8.896498566433511,-5.313302785603565,-0.011319581970958836,0.1175403997768143,-0.44760294799293554,-0.0021835976641959576,0.00304257075676162,-0.01630886412860022,0.0,70.0,255.0,255.0,255.0
436,21.8,4.3637252029200875,8.902379330311783,-5.335703432567867,-0.011441926695372473,0.1177017526426205,-0.4484178331864186,-0.002344989949953913,0.003485808229974907,-0.016131560433674252,0.0,70.0,255.0,255.0,255.0
437,21.85,4.3631499927004835,8.908268741697773,-5.3581445689222065,-0.011554080965954228,0.11788898059981179,-0.44921610403630297,-0.0019162085424184738,0.004025834163456921,-0.01570373592523211,0.0,70.0,255.0,255.0,255.0
438,21.900000000000002,4.362569794823492,8.914168228371764,-5.380625042971498,-0.01163354754961432,0.1181043360589662,-0.4499882067789418,-0.0011657719593216598,0.0045507673295475115,-0.015150725214763128,0.0,70.0,255.0,255.0,255.0
439,21.950000000000003,4.361986637945522,8.92007917530367,-5.403143389600101,-0.011670658161886394,0.11834405733276654,-0.4507311765577793,-0.00035486968208431335,0.004943608947094447,-0.014608316214737016,0.0,70.0,255.0,255.0,255.0
440,22.0,4.361402729007303,8.926002634105041,-5.425698160627276,-0.011669034517822752,0.11859869695367564,-0.4514490384004155,0.0002526749844022902,0.005097725379421547,-0.014212734336993549,0.0,70.0,255.0,255.0,255.0
441,22.05,4.36081973449374,8.931939044999037,-5.448288293440142,-0.011645390663446165,0.1188538298707087,-0.45215244999147863,0.0005083032458941261,0.0049627202928448355,-0.014038419675532765,0.0,70.0,255.0,255.0,255.0
442,22.1,4.360238189940959,8.937888017092112,-5.4709134056264235,-0.011618204193233339,0.11909496898296013,-0.4528528803679688,0.0004693102637176594,0.004585778943066998,-0.014052919622464799,0.0,70.0,255.0,255.0,255.0
443,22.150000000000002,4.3596579140744165,8.943848541897333,-5.493573581476939,-0.011598459637074399,0.1193124077650154,-0.4535577419537251,0.00027210296558166647,0.004069051867361395,-0.014178628977568053,0.0,70.0,255.0,255.0,255.0
444,22.200000000000003,4.359078343977251,8.949819257868613,-5.516269179821796,-0.011590993896675172,0.11950187416969626,-0.4542707432657256,4.193665361640342e-05,0.0035240464349328704,-0.01433813794289307,0.0,70.0,255.0,255.0,255.0
445,22.25,4.358498814684749,8.955798729314303,-5.539000655803512,-0.011594265971712758,0.11966481240850868,-0.4549915557480144,-8.714889361272071e-05,0.0030545463728159916,-0.014448217171381117,0.0,70.0,255.0,255.0,255.0
446,22.3,4.35791891738008,8.961785739109464,-5.561768335396597,-0.011599708786036445,0.11980732880697786,-0.4557155649828637,-4.216242803778414e-05,0.002722797776577579,-0.014461986972236218,0.0,70.0,255.0,255.0,255.0
447,22.35,4.357338843806145,8.967779462195,-5.584572212301798,-0.011598482214516537,0.11993709218616644,-0.45643775444523804,0.000118035086593693,0.002547413700249024,-0.014405517986038063,0.0,70.0,255.0,255.0,255.0
448,22.400000000000002,4.356759069158628,8.97377944832808,-5.607412110841121,-0.011587905277377075,0.12006207017700277,-0.4571561167814675,0.0002791316592087867,0.0025375007275840744,-0.014332987312748457,0.0,70.0,255.0,255.0,255.0
449,22.450000000000003,4.356180053278408,8.979785669212701,-5.630287823979945,-0.011570569048595658,0.12019084225892485,-0.4578710531765129,0.00034003682074512653,0.0026996924921363075,-0.0142929315468443,0.0,70.0,255.0,255.0,255.0
450,22.5,4.355602012253769,8.985798532553973,-5.6531992161587725,-0.011553901595302563,0.1203320394262164,-0.45858540993615193,0.0001999765339100179,0.003040079804250695,-0.014342369006037359,0.0,70.0,255.0,255.0,255.0
451,22.55,4.355024663118877,8.991818873155323,-5.67614636497356,-0.011550571395204656,0.12049485023934992,-0.4593052900771166,-0.0001867397814159233,0.0035471142412646373,-0.014506919150036879,0.0,70.0,255.0,255.0,255.0
452,22.6,4.354446955114248,8.997848017577908,-5.699129745166484,-0.011572575573444155,0.12068675085034286,-0.4600361018511556,-0.0007396790483227278,0.0041437270960287265,-0.014725008433025266,0.0,70.0,255.0,255.0,255.0
453,22.650000000000002,4.353867405561533,9.003887548240357,-5.7221499751586755,-0.011624539300036929,0.12090922294895279,-0.46077779092041915,-0.0013095620028380495,0.0047001060632823055,-0.014889421770192257,0.0,70.0,255.0,255.0,255.0
454,22.700000000000003,4.353284501184245,9.009938939872804,-5.745207524258526,-0.01170353177372796,0.12115676145667109,-0.46152504402817485,-0.0017493100441079434,0.00507820923605351,-0.01489684915600975,0.0,70.0,255.0,255.0,255.0
455,22.75,4.35269705238416,9.016003224386024,-5.768302479561493,-0.011799470304447723,0.12141704387255814,-0.4622674758360201,-0.0019207758905182004,0.00514112508582798,-0.014634334777774427,0.0,70.0,255.0,255.0,255.0
456,22.8,4.3521045541538,9.02208064426006,-5.791434271842128,-0.01189560936277978,0.12167087396525389,-0.4629884775059523,-0.0017570789124121688,0.004828232438391922,-0.01405653689445785,0.0,70.0,255.0,255.0,255.0
457,22.85,4.351507491447882,9.02817031178255,-5.814601327312088,-0.01197517819568894,0.12189986711639733,-0.4636731295254659,-0.0013237944176403005,0.0042421534400816086,-0.013296219842651169,0.0,70.0,255.0,255.0,255.0
458,22.900000000000002,4.350907036334231,9.0342706309717,-5.837801584794675,-0.01202798880454381,0.12209508930926205,-0.4643180994902174,-0.0007572472835448707,0.003578438656859362,-0.012588393204815418,0.0,70.0,255.0,255.0,255.0
459,22.950000000000003,4.350304692567428,9.040379820713476,-5.86103313726111,-0.012050902924043427,0.12225771098208327,-0.46493196884594745,-0.00020228382320297555,0.00304024445636486,-0.012165732435232002,0.0,70.0,255.0,255.0,255.0
460,23.0,4.349701946041827,9.046496402069907,-5.8842947816792694,-0.012048217186864107,0.12239911375489854,-0.4655346727337406,0.00019510837958591765,0.002831410527015521,-0.01226024526372882,0.0,70.0,255.0,255.0,255.0
461,23.05,4.349099870848741,9.052619732088965,-5.907586604534484,-0.012031392086084836,0.12254085203478482,-0.46615799337232033,0.0003555682506650726,0.0030532427176765964,-0.012974532340237488,0.0,70.0,255.0,255.0,255.0
462,23.1,4.348498806833218,9.058750487273386,-5.9309105810165015,-0.0120126603617976,0.1227044380266662,-0.46683212596776436,0.0003184930824851051,0.0036022512185596156,-0.014123865109283429,0.0,70.0,255.0,255.0,255.0
463,23.150000000000002,4.347898604812562,9.064890175891632,-5.9542698171312605,-0.011999542777836325,0.12290107715664078,-0.4675703798832487,0.0001740756137458277,0.00427154723627865,-0.015361574174033166,0.0,70.0,255.0,255.0,255.0
464,23.200000000000003,4.347298852555435,9.07104059498905,-5.977667619004826,-0.011995252800423017,0.12313159275029406,-0.46836828338516767,1.2244871161470883e-05,0.004854239512397385,-0.016334673318052495,0.0,70.0,255.0,255.0,255.0
465,23.25,4.346699079532519,9.077203335166661,-6.001106645469777,-0.011998318290720178,0.12338650110788052,-0.4692038472150539,-6.767627676040888e-05,0.0051492701004463015,-0.01669671214088453,0.0,70.0,255.0,255.0,255.0
466,23.3,4.346099020726363,9.083379245099838,-6.024588003726332,-0.012002020428099058,0.12364651976033869,-0.4700379545992561,-1.2420198292062423e-05,0.0050522232633909425,-0.01627824749723672,0.0,70.0,255.0,255.0,255.0
467,23.35,4.345498877489709,9.089567987142695,-6.048110440929703,-0.011999560310549384,0.12389172343421961,-0.4708316719647776,0.00012888968692337244,0.004634249611257246,-0.01525820316921056,0.0,70.0,255.0,255.0,255.0
468,23.400000000000002,4.344899064695308,9.09576841744326,-6.0716711709228095,-0.011989131459406721,0.12410994472146442,-0.4715637749161772,0.00026271639130825974,0.004049964474184264,-0.013996265810067854,0.0,70.0,255.0,255.0,255.0
469,23.450000000000003,4.344299964343769,9.101978981614842,-6.095266818421321,-0.011973288671418558,0.12429671988163804,-0.4722312985457844,0.00030621809159470104,0.00345608420868615,-0.01286163489870873,0.0,70.0,255.0,255.0,255.0
470,23.5,4.343701735828166,9.108198089431424,-6.118894300777388,-0.011958509650247251,0.12445555314233303,-0.47284993840604805,0.00017965267069541824,0.0030074997461326802,-0.012224887525214001,0.0,70.0,255.0,255.0,255.0
471,23.55,4.343104113378744,9.114424536929075,-6.142551812261925,-0.011955323404349016,0.12459746985625131,-0.4734537872983058,-0.00015297370481448525,0.0027906381207642994,-0.012278538276433437,0.0,70.0,255.0,255.0,255.0
472,23.6,4.342506203487731,9.120657836417049,-6.1662396795072185,-0.0119738070207287,0.12473461695440946,-0.4740777922336914,-0.0006322802679648021,0.002777113971674794,-0.012874277923735633,0.0,70.0,255.0,255.0,255.0
473,23.650000000000002,4.341906732676671,9.126897998624516,-6.1899595914852945,-0.012018551431145497,0.12487518125341879,-0.47474121509067935,-0.0011458735798441921,0.0028930703916074663,-0.013703246035845495,0.0,70.0,255.0,255.0,255.0
474,23.700000000000003,4.341304348344616,9.13314535454239,-6.2137138010162865,-0.012088394378713119,0.1250239239935702,-0.47544811683727595,-0.0015843433446960375,0.0030676241209448563,-0.014458414127727082,0.0,70.0,255.0,255.0,255.0
475,23.75,4.3406978932388,9.139400391023873,-6.237504403169022,-0.0121769857656151,0.12518194366551327,-0.47618705650345206,-0.0018589530540680244,0.003228749562289579,-0.014827793703009462,0.0,70.0,255.0,255.0,255.0
476,23.8,4.340086649768055,9.145663548908942,-6.261332506666632,-0.012274289684119921,0.12534679894979917,-0.4769308962075769,-0.0019218854490965498,0.003332450360282735,-0.014648252076732149,0.0,70.0,255.0,255.0,255.0
477,23.85,4.339470464270388,9.151935070918853,-6.28519749278978,-0.012369174310524755,0.12551518870154155,-0.47765188171112527,-0.001764244139224047,0.0033782269028392875,-0.014051025461547795,0.0,70.0,255.0,255.0,255.0
478,23.900000000000002,4.338849732337002,9.158215067779096,-6.309097694837744,-0.012450714098042326,0.1256846216400831,-0.4783359987537317,-0.0013955857079750444,0.003375982398523547,-0.013303570560374567,0.0,70.0,255.0,255.0,255.0
479,23.950000000000003,4.338225392860584,9.164503533082861,-6.333031092665153,-0.01250873288132226,0.1258527869413939,-0.4789822387671627,-0.0008350451787819679,0.003327218842130719,-0.012665081551777035,0.0,70.0,255.0,255.0,255.0
480,24.0,4.33759885904887,9.170800346473236,-6.3569959187144605,-0.012534218615920523,0.12601734352429617,-0.4796025069089094,-8.38870744424014e-05,0.003225474029910913,-0.012395872394055374,0.0,70.0,255.0,255.0,255.0
481,24.05,4.336971970998992,9.17710526743529,-6.380991343356044,-0.0125171215887665,0.126175334344385,-0.48022182600656826,0.0008348278548453436,0.0030728471527297074,-0.012628313554330362,0.0,70.0,255.0,255.0,255.0
482,24.1,4.3363471468899935,9.183417879907674,-6.405018101315117,-0.012450735830435988,0.12632462823956914,-0.4808653382643424,0.0017711216266924623,0.0029099784194741574,-0.01323621230540084,0.0,70.0,255.0,255.0,255.0
483,24.150000000000002,4.335726897415948,9.189737730259248,-6.429077877182478,-0.012340009426097254,0.1264663321863324,-0.48154544723710835,0.0024846732884498124,0.0028030000134293687,-0.013967879649801063,0.0,70.0,255.0,255.0,255.0
484,24.200000000000003,4.335113145947384,9.196064513126307,-6.453172646038828,-0.012202268501591007,0.12660492824091207,-0.4822621262293225,0.002738976274052618,0.0028167872235584923,-0.014574686238688628,0.0,70.0,255.0,255.0,255.0
485,24.25,4.334506670565789,9.202398223083339,-6.47730408980541,-0.012066111798691992,0.12674801090868826,-0.4830029158609772,0.002298557295787873,0.003017326343979221,-0.014804754016584099,0.0,70.0,255.0,255.0,255.0
486,24.3,4.3339065347675145,9.208739314217176,-6.501472937624926,-0.01197241277201222,0.12690666087531,-0.48374260163098093,0.0010739493214728668,0.0034299605632170937,-0.014531920277605082,0.0,70.0,255.0,255.0,255.0
487,24.35,4.333309429288588,9.21508888917087,-6.5256783499685085,-0.011958716866544705,0.12709100696500997,-0.4844561078887377,-0.0006731561202677483,0.003980087859645209,-0.013889533242128493,0.0,70.0,255.0,255.0,255.0
488,24.400000000000002,4.33271066308086,9.221448414913677,-6.5499185484138,-0.012039728384038995,0.12730466966127452,-0.4851315549551938,-0.002466837049919235,0.004532949946600695,-0.013139502916637014,0.0,70.0,255.0,255.0,255.0
489,24.450000000000003,4.332105456450184,9.227819356136997,-6.574191505464028,-0.012205400571536629,0.12754430195967004,-0.4857700581804014,-0.003816337772910572,0.004952858370010915,-0.012542746920196635,0.0,70.0,255.0,255.0,255.0
490,24.5,4.331490123023706,9.234202845109644,-6.59849555423184,-0.012421362161330052,0.1277999554982756,-0.48638582964721344,-0.0042383607566698345,0.0051132392423269835,-0.012369074243245848,0.0,70.0,255.0,255.0,255.0
491,24.55,4.330863320234051,9.240599351686825,-6.622830088428749,-0.012629236647203612,0.12805562588390274,-0.487006965604726,-0.003503026073481408,0.004953511061422944,-0.012750578761000497,0.0,70.0,255.0,255.0,255.0
492,24.6,4.330227199358986,9.247008407698035,-6.647196250792312,-0.012771664768678193,0.1282953066044179,-0.4876608875233135,-0.0018928561197562033,0.004534145666568179,-0.013520246800435842,0.0,70.0,255.0,255.0,255.0
493,24.650000000000002,4.329586153757183,9.253428882347267,-6.6715961771810806,-0.012818522259179232,0.12850904045055955,-0.4883589902847696,3.535556398759354e-05,0.003981563834720703,-0.014359516609818712,0.0,70.0,255.0,255.0,255.0
494,24.700000000000003,4.328945347133068,9.25985931174309,-6.696032149820789,-0.012768129212279433,0.12869346298788997,-0.48909683918429536,0.0017075403188293592,0.0034312664775271173,-0.014954465940775208,0.0,70.0,255.0,255.0,255.0
495,24.75,4.328309340835955,9.266298228646056,-6.72050586109951,-0.012647768227296297,0.12885216709831226,-0.4898544368788471,0.0025469137029610067,0.0030177353362859094,-0.014987014278489141,0.0,70.0,255.0,255.0,255.0
496,24.8,4.3276805703103385,9.272744528452922,-6.745017593508674,-0.012513437841983333,0.12899523652151856,-0.4905955406121443,0.002258807652477657,0.002815482369022959,-0.014305391717872595,0.0,70.0,255.0,255.0,255.0
497,24.85,4.327057997051757,9.279197752298208,-6.7695654151607245,-0.012421887462048531,0.12913371533521456,-0.49128497605063437,0.0010990328140891847,0.002799693109878376,-0.013116659043355128,0.0,70.0,255.0,255.0,255.0
498,24.900000000000002,4.326438381564134,9.285657899986443,-6.7941460911137375,-0.012403534560574414,0.1292752058325064,-0.4919072065164798,-0.00040987658103119884,0.0029052702393173035,-0.011816090318284012,0.0,70.0,255.0,255.0,255.0
499,24.950000000000003,4.325817643595699,9.292125272881458,-6.8187561358123725,-0.01246287512015165,0.1294242423591463,-0.49246658508246277,-0.0017468771156714524,0.0030682761865463704,-0.010798736635475592,0.0,70.0,255.0,255.0,255.0
500,25.0,4.3251920940521185,9.298600324222358,-6.843392749621984,-0.01257822227214156,0.12958203345116104,-0.49298708018002735,-0.0023893872950431216,0.00322383806103943,-0.010458812698299624,0.0,70.0,255.0,255.0,255.0
501,25.05,4.324559821368485,9.305083476226574,-6.868054843830375,-0.012701813849655963,0.12974662616525023,-0.49351246635229273,-0.0020662837907359233,0.0033317855699266374,-0.010988227328567746,0.0,70.0,255.0,255.0,255.0
502,25.1,4.323921912667153,9.311574986838883,-6.892743996257213,-0.012784850651215152,0.1299152120081537,-0.4940859029128841,-0.00099502338821722,0.0033880142954245684,-0.012163233576423238,0.0,70.0,255.0,255.0,255.0
503,25.150000000000002,4.3232813363033635,9.31807499742739,-6.917463434121664,-0.012801316188477685,0.1300854275947927,-0.49472878970993506,0.00037673817310235336,0.0033955836453714028,-0.013545166405304343,0.0,70.0,255.0,255.0,255.0
504,25.200000000000003,4.322641781048305,9.324583529598362,-6.9422168752282065,-0.012747176833904916,0.13025477037269084,-0.49544041955341456,0.0016130217564302995,0.003349428308752067,-0.014691240197617361,0.0,70.0,255.0,255.0,255.0
505,25.25,4.322006618619973,9.331100474464659,-6.967007476077005,-0.012640014012834655,0.1304203704256679,-0.4961979137296968,0.0022947380414528595,0.003234884447778086,-0.015157781548591487,0.0,70.0,255.0,255.0,255.0
506,25.3,4.321377779647022,9.337625566640929,-6.991836666601176,-0.01251770302975963,0.13057825881746865,-0.4969561977082737,0.00219989394478759,0.003050662065717802,-0.014721838828624101,0.0,70.0,255.0,255.0,255.0
507,25.35,4.320754848316997,9.344158300346406,-7.0167030958478325,-0.012420024618355896,0.13072543663223968,-0.4976700976125592,0.0014518765894422359,0.0028482497086201874,-0.01360122250204654,0.0,70.0,255.0,255.0,255.0
508,25.400000000000002,4.320135777185186,9.350698110304153,-7.041603676362432,-0.012372515370815407,0.13086308378833067,-0.49831631995847836,0.00033210803724870175,0.00271239517743993,-0.01223242820875825,0.0,70.0,255.0,255.0,255.0
509,25.450000000000003,4.3195175967799155,9.357244608725239,-7.06653472784368,-0.012386813814631026,0.13099667614998367,-0.49889334043343503,-0.0008786364839252769,0.002727297291826858,-0.011049449427602553,0.0,70.0,255.0,255.0,255.0
510,25.5,4.318897095803723,9.363797777919151,-7.091493010405776,-0.012460379019207934,0.13113581351751336,-0.4994212649012386,-0.001917583518817878,0.002984596176780485,-0.010477986515677884,0.0,70.0,255.0,255.0,255.0
511,25.55,4.318271558877995,9.37035819007699,-7.116476854333804,-0.012578572166512814,0.13129513576766172,-0.4999411390850028,-0.0026277442022326625,0.0035193657016208135,-0.010737564209595263,0.0,70.0,255.0,255.0,255.0
512,25.6,4.317639238587072,9.376927291495917,-7.141487124314276,-0.0127231534394312,0.13148775008767544,-0.5004950213221981,-0.002979755696763675,0.004217215308699451,-0.011661060564716053,0.0,70.0,255.0,255.0,255.0
513,25.650000000000002,4.316999243534052,9.383506965085758,-7.166526356466024,-0.012876547736189181,0.13171685729853166,-0.5011072451414744,-0.0029762192736093596,0.004875768044421136,-0.012895936611112546,0.0,70.0,255.0,255.0,255.0
514,25.700000000000003,4.316351583813453,9.39009897722577,-7.191597848828423,-0.013020775366792137,0.13197532689211755,-0.5017846149833094,-0.0026195014618757284,0.005295321917664353,-0.01409110195247365,0.0,70.0,255.0,255.0,255.0
515,25.75,4.315697165997372,9.39670449777497,-7.216704817964355,-0.013138497882376754,0.1322463894902981,-0.5025163553367218,-0.0019124226141364886,0.005286777464519332,-0.014910319007732653,0.0,70.0,255.0,255.0,255.0
516,25.8,4.315037734025215,9.4033236161748,-7.2418494843620955,-0.013212017628205786,0.13250400463856948,-0.5032756468840827,-0.0008868658538219165,0.004764276060065242,-0.01516855701391151,0.0,70.0,255.0,255.0,255.0
517,25.85,4.314375964234552,9.409954898238826,-7.267032382652763,-0.013227184467758946,0.13272281709630462,-0.5040332110381129,0.00030546787543883624,0.0038491361443959704,-0.01492357952823653,0.0,70.0,255.0,255.0,255.0
518,25.900000000000002,4.313715015578439,9.41659589788443,-7.292252805465907,-0.013181470840661902,0.13288891825300908,-0.5047680048369063,0.0014110907357256508,0.0027799638800729554,-0.014333941896715885,0.0,70.0,255.0,255.0,255.0
519,25.950000000000003,4.313057817150486,9.423243790064127,-7.317509183136454,-0.01308607539418638,0.13300081348431192,-0.5054666052277845,0.0021586936143513924,0.0018036761098016996,-0.013559942296659244,0.0,70.0,255.0,255.0,255.0
520,26.0,4.3124064080390205,9.429895979232862,-7.342799465988685,-0.012965601479226763,0.13306928586398925,-0.5061239990665722,0.002279255327497509,0.001148293964980951,-0.01276073745222206,0.0,70.0,255.0,255.0,255.0
521,26.05,4.311761257002563,9.436550718650526,-7.368121583043111,-0.01285814986143663,0.13311564288081001,-0.5067426789730067,0.0016541819761073384,0.0009368167710022135,-0.012039955986775652,0.0,70.0,255.0,255.0,255.0
522,26.1,4.311120593052877,9.443207543520943,-7.393473733885986,-0.012800183281616029,0.13316296754108947,-0.5073279946652498,0.00048683524349613094,0.0011381282263300818,-0.011441824120161925,0.0,70.0,255.0,255.0,255.0
523,26.150000000000002,4.310481238674401,9.449867015404635,-7.418854382509636,-0.012809466337087017,0.13322945570344302,-0.5078868613850229,-0.0008354163962387418,0.001652488323422574,-0.011013610486987346,0.0,70.0,255.0,255.0,255.0
524,26.200000000000003,4.309839646419168,9.456530489091287,-7.444262420024488,-0.012883724921239903,0.13332821637343173,-0.5084293557139485,-0.0019097252093480677,0.0023699736445337294,-0.010814303686146332,0.0,70.0,255.0,255.0,255.0
525,26.25,4.309192866182277,9.463199837041978,-7.469697318081031,-0.013000438858021823,0.1334664530678964,-0.5089682917536376,-0.002332617344258381,0.0031880187036037455,-0.010898759155164583,0.0,70.0,255.0,255.0,255.0
526,26.3,4.308539602533366,9.469877134398077,-7.495159249199852,-0.013116986655665741,0.1336470182437921,-0.509519231629465,-0.0019032886248382397,0.004029995315590895,-0.011279357966120784,0.0,70.0,255.0,255.0,255.0
527,26.35,4.307881167516711,9.476564538866358,-7.520649241243977,-0.013190767720505647,0.13386945259945549,-0.5100962275502496,-0.0008236246998194474,0.00480114815388788,-0.011865580868075654,0.0,70.0,255.0,255.0,255.0
528,26.400000000000002,4.307220525761315,9.483264079658023,-7.546168871954877,-0.013199349125647686,0.1341271330591809,-0.5107057897162726,0.0005013907006912177,0.0053647681410140535,-0.012493480958042369,0.0,70.0,255.0,255.0,255.0
529,26.450000000000003,4.306561232604146,9.489977252172276,-7.571719820215605,-0.013140628650436526,0.1344059294135569,-0.5113455756460539,0.001667060369392459,0.005577967773007231,-0.01298386859955869,0.0,70.0,255.0,255.0,255.0
530,26.5,4.305906462896272,9.496704672599378,-7.597303429519482,-0.01303264308870844,0.13468492983648161,-0.5120041765762284,0.0022832886416246367,0.005299631220267997,-0.01315620727933009,0.0,70.0,255.0,255.0,255.0
531,26.55,4.305257968295275,9.503445745155924,-7.6229202378732275,-0.012912299786274062,0.1349358925355837,-0.5126611963739869,0.002145825670218926,0.004481663504840583,-0.012922612148269508,0.0,70.0,255.0,255.0,255.0
532,26.6,4.304615232917644,9.510198261852937,-7.648569549156881,-0.012818060521686547,0.13513309618696567,-0.5132964377910554,0.0013784794059112926,0.003302593844445312,-0.012381260332272603,0.0,70.0,255.0,255.0,255.0
