idx,t,px,py,pz,vx,vy,vz,ax,ay,az,yaw,mode,ledr,ledg,ledb
0,0.0,-7.500000000000003,-13.500000000000005,7.845582115685684e-19,0.0007093433851323994,-0.000392152798127654,0.0012277223327007178,-0.015662289234441573,0.008214351987589907,-0.03831814888467141,0.0,70.0,255.0,255.0,255.0
1,0.05,-7.499964532830746,-13.500019607639912,6.138611663503668e-05,-7.37710765896793e-05,1.8564801251841345e-05,-0.0006881851115328528,-0.023435647697134243,0.012194733982973105,-0.0573874547164232,0.0,70.0,255.0,255.0,255.0
2,0.1,-7.500007377107662,-13.49999814351988,-6.88185111532845e-05,-0.001634221384581025,0.0008273206001696565,-0.004511023138941603,-0.03109343385121477,0.015921527981355155,-0.07627722332700715,0.0,70.0,255.0,255.0,255.0
3,0.15000000000000002,-7.500127954969204,-13.499936875579895,-0.00038971619725912366,-0.003183114461711156,0.0016107175993873568,-0.00831590744423357,-0.030862289235855656,0.015414351983977781,-0.07591814888467549,0.0,70.0,255.0,255.0,255.0
4,0.2,-7.500325688553833,-13.499837071759941,-0.0009004092555766415,-0.0047204503081665905,0.0023687557985674346,-0.012102838027409153,-0.030633008717639854,0.014903249221198678,-0.07555825469879528,0.0,70.0,255.0,255.0,255.0
5,0.25,-7.500600000000021,-13.499700000000038,-0.001600000000000039,-0.0062464153334751416,0.0031010425215072246,-0.015871732914113097,-0.030414446765014702,0.014369567543148776,-0.07519364698752043,0.0,70.0,255.0,255.0,255.0
6,0.30000000000000004,-7.50095033008718,-13.49952696750779,-0.0024875825469879514,-0.007761894984668061,0.003805712552882312,-0.019622202726161195,-0.03020945131382291,0.013807307704816196,-0.07482307336489274,0.0,70.0,255.0,255.0,255.0
7,0.35000000000000003,-7.501376189498488,-13.49931942874475,-0.0035622202726161584,-0.009267360464857433,0.004481773291988844,-0.02335404025060237,-0.029993737295175293,0.0132676267856624,-0.07445721326765568,0.0,70.0,255.0,255.0,255.0
8,0.4,-7.501877066133666,-13.499078790178592,-0.004822986572048189,-0.01076126871418559,0.005132475231448552,-0.027067924052926764,-0.029728521091687554,0.012832223405112586,-0.07411312191567938,0.0,70.0,255.0,255.0,255.0
9,0.45,-7.502452316369906,-13.498806181221605,-0.006269012677908835,-0.012240212574026188,0.005764995632500103,-0.03076535244217031,-0.029375277993803905,0.012568824213232688,-0.07380102738886066,0.0,70.0,255.0,255.0,255.0
10,0.5,-7.503101087391069,-13.498502290615342,-0.00789952181626522,-0.01369879651356598,0.006389357652771821,-0.03444802679181283,-0.02887994913232106,0.012527529291972428,-0.07351281413813172,0.0,70.0,255.0,255.0,255.0
11,0.55,-7.503822196021263,-13.498167245456328,-0.009713815357090119,-0.015128207487258294,0.007017748561697346,-0.03811663385598348,-0.028224929128217724,0.012724911973016617,-0.07324596777561004,0.0,70.0,255.0,255.0,255.0
12,0.6000000000000001,-7.5046139081397945,-13.497800515759172,-0.011711185201863568,-0.016521289426387753,0.007661848850073483,-0.041772623569373835,-0.027513571911708112,0.013118173138693123,-0.07304249728328611,0.0,70.0,255.0,255.0,255.0
13,0.65,-7.5054743249639015,-13.49740106057132,-0.013891077714027502,-0.017879564678429105,0.008329565875566658,-0.045420883584312094,-0.026919652928292237,0.013620597967722858,-0.0729656580058708,0.0,70.0,255.0,255.0,255.0
14,0.7000000000000001,-7.506401864607637,-13.496967559171615,-0.016253273560294778,-0.019213254719216977,0.009023908646845769,-0.049069189369960915,-0.02660633538056345,0.01413024997010126,-0.07306686980008435,0.0,70.0,255.0,255.0,255.0
15,0.75,-7.507395650435823,-13.496498669706636,-0.018797996651023594,-0.02054019821648545,0.009742590872576784,-0.05272757056432053,-0.026724119554444314,0.014549836210875355,-0.07340067817940832,0.0,70.0,255.0,255.0,255.0
16,0.8,-7.508455884429286,-13.495993300084358,-0.02152603061672683,-0.021885666674661408,0.010478892267933304,-0.05640925718790175,-0.02733409487216676,0.01482291717209705,-0.07397983485672097,0.0,70.0,255.0,255.0,255.0
17,0.8500000000000001,-7.509584217103289,-13.495450780479842,-0.024438922369813768,-0.023273607703702126,0.011224882589786489,-0.060125554049992626,-0.02830666037318963,0.014943317023075053,-0.07469195843836228,0.0,70.0,255.0,255.0,255.0
18,0.9,-7.510783245199656,-13.494870811825379,-0.027538586021726093,-0.02471633271198037,0.01197322397024081,-0.06387845303173798,-0.02939566439801311,0.014920909198679055,-0.07534340689999829,0.0,70.0,255.0,255.0,255.0
19,0.9500000000000001,-7.512055850374487,-13.494253458082818,-0.030826767672987566,-0.026213174143503437,0.012716973509654395,-0.06765989473999245,-0.030340918945181983,0.014770688727416825,-0.07573923233854224,0.0,70.0,255.0,255.0,255.0
20,1.0,-7.5134045626140065,-13.493599114474414,-0.03430457549572534,-0.02775042460649857,0.013450292842982492,-0.0714523762655922,-0.030891544677924543,0.014517135189073826,-0.07569249179225329,0.0,70.0,255.0,255.0,255.0
21,1.05,-7.514830892835137,-13.49290842879852,-0.037972005299546786,-0.02930232861129589,0.014168687028561777,-0.07522914391921778,-0.030918691382986196,0.014182393697126372,-0.07512038044319505,0.0,70.0,255.0,255.0,255.0
22,1.1,-7.516334795475136,-13.492182245771557,-0.04182748988764712,-0.03084229374479719,0.01486853221269513,-0.0789644143099117,-0.030507898483378426,0.013789397930175085,-0.07415591604951477,0.0,70.0,255.0,255.0,255.0
23,1.1500000000000001,-7.517915122209617,-13.49142157557725,-0.04586844673053796,-0.032353118459633734,0.015547626821579286,-0.08264473552416926,-0.02984957759162299,0.013376604397308256,-0.07305614562956725,0.0,70.0,255.0,255.0,255.0
24,1.2000000000000002,-7.519570107321099,-13.4906274830894,-0.050091963440064044,-0.03382725150395949,0.016206192652425955,-0.08627002887286843,-0.029143275552634407,0.01299268276628851,-0.07208846191800941,0.0,70.0,255.0,255.0,255.0
25,1.25,-7.521297847360013,-13.489800956312008,-0.0544954496178248,-0.035267446014897175,0.016846895098208137,-0.0898535817159702,-0.028589701734116346,0.012677660329352136,-0.07150935465158048,0.0,70.0,255.0,255.0,255.0
26,1.3,-7.523096851922589,-13.488942793579579,-0.059077321611661064,-0.03668622167737112,0.01747395868536117,-0.09342096433802648,-0.028303400667706313,0.012454221326230197,-0.07145193008378653,0.0,70.0,255.0,255.0,255.0
27,1.35,-7.52496646952775,-13.488053560443472,-0.06383754605162745,-0.038097786081667806,0.018092317230831156,-0.09699877472434885,-0.028257176928914163,0.012336387294809015,-0.0718362654754702,0.0,70.0,255.0,255.0,255.0
28,1.4000000000000001,-7.526906630530756,-13.487133561856496,-0.06877719908409595,-0.03951193937026254,0.01870759741484207,-0.1006045908855735,-0.028372272322130243,0.01233537717197919,-0.07248012246984861,0.0,70.0,255.0,255.0,255.0
29,1.4500000000000002,-7.528917663464776,-13.486182800701988,-0.0738980051401848,-0.04093501331388083,0.019325854948029075,-0.10424678697133372,-0.02857837977598976,0.012451866919604981,-0.07319363327612932,0.0,70.0,255.0,255.0,255.0
30,1.5,-7.531000131862144,-13.485200976361693,-0.07920187778122932,-0.042369777347861515,0.019952784106802568,-0.10792395421318643,-0.02880969500580477,0.012676186200089035,-0.07379008960142208,0.0,70.0,255.0,255.0,255.0
31,1.55,-7.5331546411995625,-13.484187522291307,-0.08469040056150344,-0.04381598281446131,0.02059347356803798,-0.11162579593147592,-0.02902164534077656,0.01299503335339125,-0.07415963814940002,0.0,70.0,255.0,255.0,255.0
32,1.6,-7.53538173014359,-13.483141629004889,-0.09036445737437691,-0.04527194188193917,0.021252287442141693,-0.11533991802812643,-0.02918432620129252,0.01338421373038301,-0.07430359081317117,0.0,70.0,255.0,255.0,255.0
33,1.6500000000000001,-7.537681835387756,-13.482062293547093,-0.09622439236431608,-0.04673441543459056,0.02193189494107628,-0.11905615501279304,-0.029259561557992697,0.01380104775208224,-0.07425711740480512,0.0,70.0,255.0,255.0,255.0
34,1.7000000000000002,-7.540055171687049,-13.480948439510781,-0.10227007287565622,-0.04819789803773844,0.022632392217349917,-0.12276562976860694,-0.029203718163639536,0.014194161907887803,-0.07405131733179138,0.0,70.0,255.0,255.0,255.0
35,1.75,-7.54250162519153,-13.479799054325358,-0.10850095534117678,-0.04965478725095451,0.02335131113186506,-0.12646128674597218,-0.028971518242570937,0.014521557576863131,-0.07372226829469725,0.0,70.0,255.0,255.0,255.0
36,1.8,-7.545020650412145,-13.478613308397595,-0.11491620155025344,-0.051095049861995534,0.02408454797503623,-0.13013785659807667,-0.02854950514947774,0.014758931973624101,-0.0733017783908732,0.0,70.0,255.0,255.0,255.0
37,1.85,-7.54761113017773,-13.477390599527855,-0.12151474100098444,-0.05250973776590229,0.02482720432922747,-0.1337914645850595,-0.02800728982759182,0.014889461744793664,-0.07283021043268528,0.0,70.0,255.0,255.0,255.0
38,1.9000000000000001,-7.550271624188735,-13.476130587964672,-0.12829534800875939,-0.053895778844754716,0.025573494149515597,-0.1374208776413452,-0.027468549045028823,0.014897727857565712,-0.07237224707177664,0.0,70.0,255.0,255.0,255.0
39,1.9500000000000002,-7.553000708062205,-13.474833250112903,-0.13525682876511896,-0.05525659267040517,0.02631697711498404,-0.14102868929223716,-0.027059521462291514,0.014778198735498904,-0.07200678504239999,0.0,70.0,255.0,255.0,255.0
40,2.0,-7.555797283455775,-13.473498890253174,-0.1423982169379831,-0.05660173099098387,0.027051314023065487,-0.1446215561455852,-0.02689621337426118,0.014533620788981239,-0.07181687451582042,0.0,70.0,255.0,255.0,255.0
41,2.0500000000000003,-7.558660881161304,-13.472128118710597,-0.14971898437967748,-0.05794621400783129,0.027770339193882165,-0.1482103767438192,-0.027034133594661114,0.014174926397814147,-0.07183996157382744,0.0,70.0,255.0,255.0,255.0
42,2.1,-7.5615919048565585,-13.470721856333785,-0.15721925461236502,-0.05930514435044998,0.0284688066628469,-0.15180555230296794,-0.02742203896577422,0.01373877845143312,-0.07201286349338698,0.0,70.0,255.0,255.0,255.0
43,2.15,-7.564591395596349,-13.469281238044312,-0.16489953960997428,-0.06068841790440871,0.029144217039025477,-0.1554116630931579,-0.02794987862619891,0.01328887997846806,-0.07221659827078564,0.0,70.0,255.0,255.0,255.0
44,2.2,-7.567660746646999,-13.467807434629883,-0.1727604209216808,-0.06210013221306987,0.029797694660693708,-0.1590272121300465,-0.0284987088069677,0.012898730794042024,-0.07232825578531721,0.0,70.0,255.0,255.0,255.0
45,2.25,-7.570801408817656,-13.466301468578243,-0.18080226082297893,-0.06353828878510548,0.03043409011842968,-0.16264448867168962,-0.028955609611447386,0.012639996563379441,-0.0722182522900433,0.0,70.0,255.0,255.0,255.0
46,2.3000000000000003,-7.57401457552551,-13.46476402561804,-0.18902486978884978,-0.06499569317421461,0.031061694317031652,-0.16624903735905083,-0.029254473292184002,0.012548075724083674,-0.0718250886005467,0.0,70.0,255.0,255.0,255.0
47,2.35,-7.577300978135077,-13.46319529914654,-0.197427164558884,-0.06646373611432388,0.03168889769083805,-0.1698269975317443,-0.02938819067388465,0.012592720487170084,-0.07124103955646888,0.0,70.0,255.0,255.0,255.0
48,2.4000000000000004,-7.580660949136942,-13.461595135848956,-0.2060075695420242,-0.06793451224160307,0.03232096636574866,-0.17337314131469772,-0.029367460926366107,0.01270945618951913,-0.07063865588236296,0.0,70.0,255.0,255.0,255.0
49,2.45,-7.584094429359237,-13.459963202509964,-0.21476447869035378,-0.06940048220696049,0.03295984330978996,-0.1768908631199806,-0.029206156130090477,0.01282687808767946,-0.07018676524290501,0.0,70.0,255.0,255.0,255.0
50,2.5,-7.587600997357638,-13.458299151517977,-0.22369665585402226,-0.07085512785461212,0.033603654174516606,-0.18039181783898822,-0.028925357503251092,0.012862383633738261,-0.07005006970398353,0.0,70.0,255.0,255.0,255.0
51,2.5500000000000003,-7.591179942144699,-13.456602837092513,-0.2328036604742526,-0.0722930179572856,0.034246081673163786,-0.18389587009037894,-0.02854694759575338,0.012773283528133561,-0.07030677027108079,0.0,70.0,255.0,255.0,255.0
52,2.6,-7.594830299153367,-13.45487454335066,-0.24208624286306016,-0.07370982261418746,0.03488098252732996,-0.1874224948660963,-0.02810603749976437,0.01261127200109513,-0.07085850275623806,0.0,70.0,255.0,255.0,255.0
53,2.6500000000000004,-7.598550924406117,-13.45311473883978,-0.25154590996086224,-0.07510362170726204,0.0355072088732733,-0.19098172036600275,-0.027661116829413857,0.01247152369892035,-0.07151241456340718,0.0,70.0,255.0,255.0,255.0
54,2.7,-7.602340661324093,-13.451323822463333,-0.26118441489966043,-0.07647593429712884,0.036128134897222,-0.19457373632243702,-0.027282354318636237,0.012440843101835242,-0.07207190935031027,0.0,70.0,255.0,255.0,255.0
55,2.75,-7.60619851783583,-13.449501925350058,-0.27100328359310594,-0.07783185713912566,0.036751293183456823,-0.19818891130103378,-0.027038997670292275,0.012606412959037527,-0.07234547821802773,0.0,70.0,255.0,255.0,255.0
56,2.8000000000000003,-7.610123847038006,-13.447648693144988,-0.2810033060297638,-0.07917983406415807,0.03738877619312575,-0.2018082841442398,-0.026964449611455166,0.013005876411931183,-0.07223454360182346,0.0,70.0,255.0,255.0,255.0
57,2.85,-7.614116501242246,-13.445763047730745,-0.2911841120075299,-0.08052830210027118,0.03805188082464994,-0.20541236566121612,-0.02702495536519578,0.01356041994782231,-0.07181035734397101,0.0,70.0,255.0,255.0,255.0
58,2.9000000000000004,-7.618176677248033,-13.443843505062523,-0.3015445425958854,-0.08188232960067765,0.03874481818790798,-0.2089893198786369,-0.027150775718887132,0.014125381414409333,-0.07122627793863523,0.0,70.0,255.0,255.0,255.0
59,2.95,-7.622304734202314,-13.441888565911954,-0.3120830439953936,-0.08324337967215989,0.039464418966090875,-0.21253499345507965,-0.027264426595774438,0.014556975609281153,-0.07063888406914631,0.0,70.0,255.0,255.0,255.0
60,3.0,-7.626501015215249,-13.439897063165914,-0.3227980419413934,-0.0846087722602551,0.040200515748836096,-0.21605320828555152,-0.0272746424910153,0.014719983176725293,-0.07020400809985561,0.0,70.0,255.0,255.0,255.0
61,3.0500000000000003,-7.630765611428339,-13.43786851433707,-0.33368836482394876,-0.08597084392126142,0.040936417283763404,-0.2195553942650652,-0.02713576677866314,0.014549411293529602,-0.0700078292143913,0.0,70.0,255.0,255.0,255.0
62,3.1,-7.635098099607375,-13.435803421437537,-0.3447535813678999,-0.08732234893812141,0.04165545687818906,-0.22305399120699065,-0.026915073440303416,0.014111523735316212,-0.07001643150423842,0.0,70.0,255.0,255.0,255.0
63,3.1500000000000004,-7.6394978463221515,-13.433702968649252,-0.3559937639446478,-0.08866235126529176,0.042347569657295026,-0.22655703741548905,-0.02673400873360876,0.013543314276809326,-0.07014694920655651,0.0,70.0,255.0,255.0,255.0
64,3.2,-7.643964334733904,-13.431568664471808,-0.3674092851094488,-0.08999574981148228,0.04300978830586999,-0.2300686861276463,-0.026707025545746887,0.012990741638141401,-0.07031875483933248,0.0,70.0,255.0,255.0,255.0
65,3.25,-7.6484974213033,-13.429401989818665,-0.37900063255741245,-0.09133305381986645,0.043646643821109166,-0.2335889128994223,-0.026958376421237773,0.012601672982270884,-0.07044650803056385,0.0,70.0,255.0,255.0,255.0
66,3.3000000000000003,-7.653097640115891,-13.427204000089697,-0.39076817639939104,-0.09269158745360606,0.04426995560409708,-0.2371133369307027,-0.027539569521195517,0.012455965595670193,-0.07048136564780094,0.0,70.0,255.0,255.0,255.0
67,3.35,-7.65776658004866,-13.424974994258255,-0.4027119662504827,-0.094087010771986,0.044892240380676185,-0.2406370494642024,-0.02831297931136234,0.012509848749786556,-0.0704448490399634,0.0,70.0,255.0,255.0,255.0
68,3.4000000000000004,-7.662506341193089,-13.42271477605163,-0.4148318813458113,-0.0955228853847423,0.04552094047907573,-0.24415782183469903,-0.029034121747617547,0.012665837000724878,-0.07038415367346951,0.0,70.0,255.0,255.0,255.0
69,3.45,-7.6673188685871345,-13.420422900210347,-0.4271277484339526,-0.09699042294674776,0.04615882408074867,-0.24767546483154934,-0.029461410615194694,0.01282625830256734,-0.07033989610739089,0.0,70.0,255.0,255.0,255.0
70,3.5,-7.672205383487764,-13.418098893643554,-0.4395994278289662,-0.09846902644626176,0.04680356630933247,-0.2511918114454381,-0.029351898443508162,0.012881343543291734,-0.0703579318057701,0.0,70.0,255.0,255.0,255.0
71,3.5500000000000003,-7.677165771231761,-13.415742543579414,-0.45224692957849644,-0.09992561279109857,0.047446958435077846,-0.25471125801212635,-0.028598356069764463,0.012773952431821556,-0.07045999490764565,0.0,70.0,255.0,255.0,255.0
72,3.6,-7.682197944766874,-13.413354197800047,-0.46507055363017885,-0.10132886205323821,0.04808096155251462,-0.2582378109362027,-0.027399256400251204,0.01257001366585797,-0.07060417233594185,0.0,70.0,255.0,255.0,255.0
73,3.6500000000000004,-7.6872986574370845,-13.410934447424163,-0.4780707106721167,-0.10266553843112369,0.04870395980166364,-0.26177167524572054,-0.02612493551099604,0.012391566158065359,-0.07071643609962708,0.0,70.0,255.0,255.0,255.0
74,3.7,-7.692464498609986,-13.40848380181988,-0.4912477211547509,-0.10394135560433782,0.04932011816832116,-0.2653094545461654,-0.025152879779888337,0.0123513113994278,-0.07072837401780885,0.0,70.0,255.0,255.0,255.0
75,3.75,-7.697692792997518,-13.40600243560733,-0.5046016561267332,-0.10518082640911253,0.04993909094160642,-0.2688445126475014,-0.024862001832648417,0.012568896901221649,-0.07057379271833142,0.0,70.0,255.0,255.0,255.0
76,3.8000000000000003,-7.702982581250898,-13.40348989272572,-0.518132172419501,-0.10642755578760266,0.050577007858443324,-0.27236683381799853,-0.025434092446285916,0.013095310922395242,-0.07022485518780597,0.0,70.0,255.0,255.0,255.0
77,3.85,-7.708335548576279,-13.400944734821486,-0.5318383395085331,-0.10772423565374112,0.05124862203384595,-0.275866998166282,-0.0266401116372883,0.01380832502437812,-0.06974023317808387,0.0,70.0,255.0,255.0,255.0
78,3.9000000000000004,-7.713755004816272,-13.398365030522335,-0.5457188722361292,-0.10909156695133149,0.051957840360881136,-0.2793408571358069,-0.02803518049780962,0.014488830769465721,-0.06922916952715186,0.0,70.0,255.0,255.0,255.0
79,3.95,-7.719244705271412,-13.395748950785398,-0.5597724252221138,-0.11052775370352208,0.05269750511079252,-0.2827899151189972,-0.029167722945988572,0.014922435493858188,-0.06880609500078405,0.0,70.0,255.0,255.0,255.0
80,4.0,-7.724807780186624,-13.393095280011256,-0.573997863748029,-0.11200833924593034,0.053450083910266954,-0.2862214666358853,-0.02958014084599725,0.014903115472364448,-0.06859090664478318,0.0,70.0,255.0,255.0,255.0
81,4.05,-7.730445539196005,-13.390403942394371,-0.5883945718857023,-0.1134857677881218,0.054187816658028964,-0.2896490057834755,-0.029045414005679504,0.014337204810210835,-0.06864058434117304,0.0,70.0,255.0,255.0,255.0
82,4.1000000000000005,-7.736156356965436,-13.387676498345453,-0.6029627643263765,-0.1149128806464983,0.05488380439128804,-0.29308552507000263,-0.027811112901421353,0.013362933322902393,-0.06887219098915542,0.0,70.0,255.0,255.0,255.0
83,4.15,-7.741936827260655,-13.384915561955243,-0.6177031243927026,-0.11626687907826394,0.055524109990319204,-0.29653622488239106,-0.02636352664708852,0.012248541999859697,-0.069129589754513,0.0,70.0,255.0,255.0,255.0
84,4.2,-7.7477830448732625,-13.382124087346421,-0.6326163868146156,-0.11754923331120715,0.05610865859127401,-0.29999848404545393,-0.025189375288459104,0.011271207695706664,-0.06925395926568045,0.0,70.0,255.0,255.0,255.0
85,4.25,-7.753691750591775,-13.379304696096115,-0.647702972797248,-0.11878581660710985,0.05665123075988987,-0.3034616208089591,-0.02478536019099309,0.010698641209927473,-0.06907059935046256,0.0,70.0,255.0,255.0,255.0
86,4.3,-7.7596616265339735,-13.376458964270432,-0.6629625488955115,-0.12002776933030646,0.057178522712266755,-0.3069055439805002,-0.02539739838400834,0.010669156550591197,-0.06849952073429977,0.0,70.0,255.0,255.0,255.0
87,4.3500000000000005,-7.765694527524806,-13.373586843824889,-0.678393527195298,-0.12132555644551068,0.05771814641494899,-0.3103115728823891,-0.026744620906260508,0.011091829796505692,-0.06769370682813136,0.0,70.0,255.0,255.0,255.0
88,4.4,-7.771794182178525,-13.370687149628937,-0.6939937061837504,-0.1227022314209325,0.058287705691917324,-0.3136749146633133,-0.02828152876608314,0.011765113119999171,-0.06692976749204105,0.0,70.0,255.0,255.0,255.0
89,4.45,-7.777964750666899,-13.367758073255697,-0.7097610186616293,-0.124153709322119,0.05889465772694891,-0.3170045496315932,-0.029468342334038056,0.012479447008573175,-0.06647792807628061,0.0,70.0,255.0,255.0,255.0
90,4.5,-7.7842095531107365,-13.364797683856242,-0.7256941611469098,-0.1256490656543363,0.05953565039277464,-0.3203227074709414,-0.029762520953013905,0.013022319686761819,-0.06661462136127172,0.0,70.0,255.0,255.0,255.0
91,4.55,-7.790529657232333,-13.36180450821642,-0.7417932894087235,-0.1271299614174204,0.06019688969562509,-0.32366601176772036,-0.028898046070580108,0.013273907914523875,-0.06746221850248979,0.0,70.0,255.0,255.0,255.0
92,4.6000000000000005,-7.7969225492524785,-13.35877799488668,-0.7580607623236818,-0.12853887026139432,0.06086304118422703,-0.32706892932119036,-0.0271829908867538,0.01327431625668396,-0.06878673461210294,0.0,70.0,255.0,255.0,255.0
93,4.65,-7.803383544258472,-13.355718204097997,-0.7745001823408425,-0.12984826050609577,0.061524321321293485,-0.33054468522893066,-0.02521861003685899,0.013124758435978379,-0.0701559090419357,0.0,70.0,255.0,255.0,255.0
94,4.7,-7.809907375303088,-13.35262556275455,-0.7911152308465749,-0.13106073126508022,0.06217551702782487,-0.33408452022538393,-0.02360317612062346,0.012918603337475076,-0.07113549393034102,0.0,70.0,255.0,255.0,255.0
95,4.75,-7.81648961738498,-13.349500652395214,-0.8079086343633809,-0.13220857811815812,0.06281618165504099,-0.33765823462196476,-0.02292446275724558,0.012752033421570275,-0.07129497114847227,0.0,70.0,255.0,255.0,255.0
96,4.800000000000001,-7.823128233114904,-13.346343944589046,-0.8248810543087713,-0.13335317754080478,0.0634507203699819,-0.34121401734023116,-0.023477363721013944,0.012681272396797283,-0.07043071947487878,0.0,70.0,255.0,255.0,255.0
97,4.8500000000000005,-7.829824935139061,-13.343155580358216,-0.842030036097404,-0.1345563144902595,0.06408430889472072,-0.34470130656945264,-0.024988124171354542,0.012689972776414038,-0.06881100973512577,0.0,70.0,255.0,255.0,255.0
98,4.9,-7.83658386456393,-13.339935513699574,-0.8593511849657166,-0.13585198995794023,0.0647197176476233,-0.34809511831374373,-0.02689848330117428,0.012737624698644368,-0.06695661965028243,0.0,70.0,255.0,255.0,255.0
99,4.95,-7.843410134134855,-13.336683608593454,-0.8768395479287784,-0.13724616282037694,0.06535807136458516,-0.3513969685344809,-0.028646319150560373,0.012792340108624956,-0.06539893070118818,0.0,70.0,255.0,255.0,255.0
100,5.0,-7.8503084808459676,-13.333399706563116,-0.8944908818191647,-0.13871662187299627,0.0659989516584858,-0.35463501138386255,-0.02968368396185639,0.012821574599364283,-0.0646694567487005,0.0,70.0,255.0,255.0,255.0
101,5.050000000000001,-7.857281796322154,-13.330083713427605,-0.9123030490671646,-0.14021453121656258,0.06664022882452159,-0.35786391420935093,-0.029719865013433377,0.012807715784113327,-0.0650347637378701,0.0,70.0,255.0,255.0,255.0
102,5.1000000000000005,-7.864329933967624,-13.326735683680663,-0.9302772732400998,-0.1416886083743396,0.06727972323689713,-0.36113848775764956,-0.028918964642166145,0.012765792637203788,-0.06623570663395473,0.0,70.0,255.0,255.0,255.0
103,5.15,-7.871450657159588,-13.323355741103915,-0.9484168978429296,-0.1431064276807792,0.06791680808824196,-0.3644874848727464,-0.027652165383340588,0.0127247427702315,-0.06775113217044604,0.0,70.0,255.0,255.0,255.0
104,5.2,-7.878640576735702,-13.31994400287184,-0.9667260217273744,-0.14445382491267367,0.06855219751392028,-0.36791360097469417,-0.026291920237397903,0.012712036228279544,-0.06905563641180779,0.0,70.0,255.0,255.0,255.0
105,5.25,-7.885896039650856,-13.316500521352523,-0.985208257940399,-0.14573561970451898,0.06918801171106992,-0.3713930485139272,-0.025204764098418764,0.01276166817945068,-0.06961526712482291,0.0,70.0,255.0,255.0,255.0
106,5.300000000000001,-7.893214138706154,-13.313025201700732,-1.0038653265787671,-0.14697430132251554,0.06982836433186534,-0.37487512768717646,-0.024601497904619407,0.012887864466115673,-0.06915759154090262,0.0,70.0,255.0,255.0,255.0
107,5.3500000000000005,-7.900593469783107,-13.309517684919337,-1.0226957707091167,-0.14819576949498092,0.07047679815768149,-0.37830880766801744,-0.024447812132066815,0.013046856676623975,-0.06793791198073107,0.0,70.0,255.0,255.0,255.0
108,5.4,-7.908033715655652,-13.305977521884964,-1.041696207345569,-0.14941908253572223,0.07113304999952774,-0.38166891888524956,-0.024623577775084726,0.013163404219440622,-0.0664662642553937,0.0,70.0,255.0,255.0,255.0
109,5.45,-7.9155353780366795,-13.302404379919384,-1.0608626625976416,-0.1506581272724894,0.07179313857962555,-0.3849554340935568,-0.025017888011635847,0.013166228263550295,-0.06524547003856629,0.0,70.0,255.0,255.0,255.0
110,5.5,-7.923099528382901,-13.298798208027002,-1.0801917507549246,-0.1519208713368858,0.07244967282588277,-0.3881934658891062,-0.025513296940982144,0.012983780655417831,-0.06478537218794767,0.0,70.0,255.0,255.0,255.0
111,5.550000000000001,-7.930727465170368,-13.295159412636796,-1.0996820091865522,-0.1532094569665876,0.07309151664516733,-0.3914339713123516,-0.026029108403857748,0.012587026817456604,-0.0653413036650008,0.0,70.0,255.0,255.0,255.0
112,5.6000000000000005,-7.938420474079559,-13.291489056362485,-1.1193351478861597,-0.15452378217727158,0.07370837550762843,-0.3947275962556063,-0.026529880068881795,0.012048552219745545,-0.06664182959219556,0.0,70.0,255.0,255.0,255.0
113,5.65,-7.946179843388095,-13.287788575086033,-1.1391547688121129,-0.1558624449734758,0.07429637186714189,-0.39809815427157114,-0.02697091279255659,0.01150070795130631,-0.06815462665881178,0.0,70.0,255.0,255.0,255.0
114,5.7,-7.954006718576907,-13.28405941917577,-1.1591449633133168,-0.15722087345652724,0.07485844630275906,-0.40154305892148745,-0.027291352891900544,0.011075824608752782,-0.06935604986757493,0.0,70.0,255.0,255.0,255.0
115,5.75,-7.961901930733748,-13.280302730455757,-1.1793090747042616,-0.15859158026266584,0.07540395432801716,-0.40503375925832863,-0.02744601084270215,0.010895190549220501,-0.06972734668746483,0.0,70.0,255.0,255.0,255.0
116,5.800000000000001,-7.969865876603174,-13.276519023742969,-1.1996483392391497,-0.15996547454079746,0.07594796535768111,-0.40851579359023393,-0.027414842372852632,0.01101782779819871,-0.0690102474121268,0.0,70.0,255.0,255.0,255.0
117,5.8500000000000005,-7.977898478187828,-13.272707933919989,-1.220160654063285,-0.1613330644999511,0.07650573710783704,-0.4119347839995413,-0.02719714311592014,0.011394458923419393,-0.06746735706297802,0.0,70.0,255.0,255.0,255.0
118,5.9,-7.985999183053169,-13.268868450032185,-1.2408418176391038,-0.16268518885238947,0.07708741125002305,-0.41526252929653173,-0.026809134690441994,0.011917400339456208,-0.06562348085759062,0.0,70.0,255.0,255.0,255.0
119,5.95,-7.994166997073067,-13.264999192794987,-1.2616869069929382,-0.1640139779689953,0.07769747714178266,-0.41849713208530037,-0.026282900887419913,0.012470986119694771,-0.0640029645237572,0.0,70.0,255.0,255.0,255.0
120,6.0,-8.002400580850068,-13.261098702318007,-1.2826915308476339,-0.16531347894113146,0.07833450986199253,-0.42166282574890745,-0.025642706308559582,0.012947438498223107,-0.06311717579410292,0.0,70.0,255.0,255.0,255.0
121,6.050000000000001,-8.01069834496718,-13.257165741808787,-1.303853189567829,-0.16657824859985126,0.07899222099160497,-0.42480884966471066,-0.024917209750885405,0.01328217481066929,-0.06323085353980851,0.0,70.0,255.0,255.0,255.0
122,6.1000000000000005,-8.019058405710053,-13.253199480218846,-1.325172415814105,-0.16780519991622,0.07966272734305946,-0.4279859111028883,-0.024199682664871602,0.013457248452297677,-0.06415522234242133,0.0,70.0,255.0,255.0,255.0
123,6.15,-8.027478864958802,-13.249199469074481,-1.3466517806781177,-0.16899821686633842,0.08033794583683473,-0.4312243718989528,-0.023636091567702522,0.013465215167052236,-0.06548496972422768,0.0,70.0,255.0,255.0,255.0
124,6.2,-8.035958227396687,-13.245165685635163,-1.3682948530040002,-0.17016880907299026,0.08100924885976468,-0.4345344080753111,-0.02336930463027187,0.013300743731825548,-0.06681223189748398,0.0,70.0,255.0,255.0,255.0
125,6.25,-8.0444957458661,-13.241098544188505,-1.3901052214856489,-0.1713351473293656,0.08166802021001729,-0.4379055950887012,-0.023531135952126192,0.012959064781448149,-0.06773998743203613,0.0,70.0,255.0,255.0,255.0
126,6.300000000000001,-8.053091742129624,-13.236998883614161,-1.4120854125128703,-0.17252192266820288,0.0823051553379095,-0.4413084068185147,-0.02417114379973384,0.012452447318267446,-0.06804750392992442,0.0,70.0,255.0,255.0,255.0
127,6.3500000000000005,-8.061747938132921,-13.232868028654714,-1.4342360621675003,-0.173752261709339,0.08291326494184403,-0.44471034548169364,-0.025158811539505166,0.011857386428815175,-0.06780173025755509,0.0,70.0,255.0,255.0,255.0
128,6.4,-8.070466968300558,-13.228707557119977,-1.4565564470610397,-0.1750378038221534,0.08349089398079101,-0.4480885798442702,-0.02624929624079897,0.011302578153404852,-0.06718498523379246,0.0,70.0,255.0,255.0,255.0
129,6.45,-8.079251718515136,-13.224518939256635,-1.4790449201519273,-0.1763771913334189,0.08404352275718452,-0.4514288440050729,-0.027181419052446643,0.01092501331125817,-0.06637570695382511,0.0,70.0,255.0,255.0,255.0
130,6.5,-8.0881046874339,-13.220303204844258,-1.501699331461547,-0.17775594572739806,0.08458339531191683,-0.4547261505396527,-0.02770072191164985,0.010860311699900649,-0.06555084650574639,0.0,70.0,255.0,255.0,255.0
131,6.550000000000001,-8.097027313087876,-13.216060599725443,-1.5245175352058926,-0.17914726352458388,0.08512955392717458,-0.4579839286556475,-0.027678215050741528,0.011168548736684158,-0.06482416570559035,0.0,70.0,255.0,255.0,255.0
132,6.6000000000000005,-8.106019413786358,-13.211790249451541,-1.5474977243271117,-0.1805237672324722,0.08570025018558525,-0.46120856711021174,-0.02721318306520004,0.01174873030738155,-0.06423505942438901,0.0,70.0,255.0,255.0,255.0
133,6.65,-8.115079689811123,-13.207490574706885,-1.5706383919169138,-0.18186858183110388,0.08630442695791274,-0.4644074345980864,-0.02651861158096125,0.012408108582739885,-0.06382040402583833,0.0,70.0,255.0,255.0,255.0
134,6.7,-8.124206271969468,-13.20315980675575,-1.5939384677869204,-0.18317562839056833,0.08694106104385924,-0.4675906075127956,-0.025818305872959968,0.012946429129812032,-0.06363011511261174,0.0,70.0,255.0,255.0,255.0
135,6.75,-8.13339725265018,-13.198796468602499,-1.6173974526681933,-0.18445041241839988,0.08759906987089394,-0.4707704461093476,-0.025345976401069947,0.013163697744111857,-0.06370865451703622,0.0,70.0,255.0,255.0,255.0
136,6.800000000000001,-8.142651313211308,-13.19439989976866,-1.6410155123978551,-0.18571022603067533,0.08825743081827042,-0.4739614729644992,-0.025228257069542792,0.012960071023293551,-0.06406357217552117,0.0,70.0,255.0,255.0,255.0
137,6.8500000000000005,-8.151968275253248,-13.189970725520672,-1.6647935999646433,-0.18697323812535416,0.0888950769732233,-0.4771768033268997,-0.0253838874344936,0.012433100265418773,-0.06461448892125521,0.0,70.0,255.0,255.0,255.0
138,6.9,-8.161348637023844,-13.185510392071338,-1.6887331927305451,-0.1882486147741247,0.0895007408448123,-0.4804229218566247,-0.025642504522238596,0.01177957958926612,-0.0652152634644576,0.0,70.0,255.0,255.0,255.0
139,6.95,-8.17079313673066,-13.18102065143619,-1.7128358921503057,-0.18953748857757802,0.09007303493214991,-0.4836983296733455,-0.025844471675817715,0.01119584359603465,-0.06570485823687022,0.0,70.0,255.0,255.0,255.0
140,7.0,-8.180302385881602,-13.176503088578123,-1.7371030256978797,-0.19083306194170646,0.09062032520441576,-0.48699340768031174,-0.02582744707453344,0.010868860028701022,-0.06592651677821415,0.0,70.0,255.0,255.0,255.0
141,7.050000000000001,-8.189876442924831,-13.171958618915749,-1.761535232918337,-0.19212023328503136,0.09115992093502001,-0.4902909813511669,-0.025508896530723746,0.010897740597748395,-0.06580154559239215,0.0,70.0,255.0,255.0,255.0
142,7.1000000000000005,-8.199514409210105,-13.167387096484621,-1.7861321238329964,-0.19338395159477884,0.0917100992641906,-0.49357356223955096,-0.02497397116023592,0.01123346070386333,-0.0653923928160216,0.0,70.0,255.0,255.0,255.0
143,7.15,-8.209214838084309,-13.16278760898933,-1.810892589142292,-0.19461763040105495,0.09228326700540634,-0.49683022063276905,-0.02438866636804704,0.011758980986265044,-0.06483313419081149,0.0,70.0,255.0,255.0,255.0
144,7.2,-8.21897617225021,-13.15815876978408,-1.8358151458962733,-0.19582281823158354,0.09288599736281711,-0.5000568756586321,-0.02391038085072239,0.012356909774347002,-0.06426373865306978,0.0,70.0,255.0,255.0,255.0
145,7.25,-8.228797119907467,-13.153499009253048,-1.8608982767081552,-0.1970086684861272,0.09351895798284104,-0.503256594498076,-0.023684188679062856,0.012924871465003207,-0.06382126904616037,0.0,70.0,255.0,255.0,255.0
146,7.300000000000001,-8.238677039098823,-13.148806873985796,-1.8861408053460809,-0.19819123709948983,0.09417848450931743,-0.5064390025632481,-0.023783243054253944,0.013396192692205489,-0.06358301934801247,0.0,70.0,255.0,255.0,255.0
147,7.3500000000000005,-8.248616243617416,-13.144081160802116,-1.91154217696448,-0.1993869927915526,0.0948585772520616,-0.5096148964328773,-0.024155752401711084,0.013716693281473624,-0.06353230345093053,0.0,70.0,255.0,255.0,255.0
148,7.4,-8.258615738377978,-13.13932101626059,-1.9371022949893686,-0.20060681233966093,0.09555015383746479,-0.5127922329083412,-0.024686466369949756,0.013820020940968902,-0.06361667529641846,0.0,70.0,255.0,255.0,255.0
149,7.45,-8.268676924851382,-13.13452614541837,-1.9628214002553142,-0.20185563942854756,0.09624057934615848,-0.5159765639625191,-0.025254517740869176,0.013643743415769904,-0.06378638761688205,0.0,70.0,255.0,255.0,255.0
150,7.5,-8.278801302320833,-13.129696958325974,-1.9886999513856205,-0.20313226411374785,0.09691452817904178,-0.5191708716700294,-0.02574777955963725,0.013127691408598707,-0.06399642568515329,0.0,70.0,255.0,255.0,255.0
151,7.550000000000001,-8.288990151262757,-13.124834692600466,-2.014738487422317,-0.2044304173845113,0.09755334848701835,-0.5223762065310344,-0.02609864407308038,0.01226266345639715,-0.06421360312320878,0.0,70.0,255.0,255.0,255.0
152,7.6000000000000005,-8.299244344059284,-13.119941623477272,-2.040937572038724,-0.2057421285210559,0.0981407945246815,-0.5255922319823503,-0.026286655598362074,0.011182376891660795,-0.06439932578143903,0.0,70.0,255.0,255.0,255.0
153,7.65,-8.309564364114863,-13.115020613147998,-2.067297710620552,-0.2070590829443475,0.09867158617618443,-0.5288161391091784,-0.02630099262770358,0.010120842009975206,-0.06449839306150729,0.0,70.0,255.0,255.0,255.0
154,7.7,-8.319950252353719,-13.110074464859654,-2.093819185949642,-0.20837222778382625,0.09915287872567902,-0.532042071288501,-0.026132061004702223,0.009319864814649748,-0.0644512236996242,0.0,70.0,255.0,255.0,255.0
155,7.75,-8.330401586893245,-13.10510532527543,-2.120501917749402,-0.20967228904481772,0.09960357265764941,-0.5352612614791408,-0.025768702407091837,0.009000353577981457,-0.06419302821321082,0.0,70.0,255.0,255.0,255.0
156,7.800000000000001,-8.3409174812582,-13.100114107593889,-2.147345312097556,-0.21094909802453543,0.10005291408347716,-0.5384613741098221,-0.025221155013710472,0.009267465835272048,-0.06370205533889894,0.0,70.0,255.0,255.0,255.0
157,7.8500000000000005,-8.351496496695699,-13.095100033867082,-2.1743480551603844,-0.21219440454618876,0.10053031924117661,-0.5416314670130307,-0.024578464364566344,0.010024848101686246,-0.06307216498511181,0.0,70.0,255.0,255.0,255.0
158,7.9,-8.36213692171282,-13.090061075669771,-2.201508458798859,-0.21340694446099207,0.10105539889364579,-0.5447685906083333,-0.02399040227949456,0.011063883747830516,-0.06246882005669363,0.0,70.0,255.0,255.0,255.0
159,7.95,-8.372837191141798,-13.084994493977717,-2.2288249142212178,-0.21459344477413822,0.10163670761595966,-0.5478783490187,-0.023616212599897324,0.012157822968461574,-0.06206149147738316,0.0,70.0,255.0,255.0,255.0
160,8.0,-8.383596266190233,-13.079897404908175,-2.256296293700729,-0.2157685657209818,0.10227118119049194,-0.5509747397560716,-0.02362142013634383,0.013094856983286718,-0.06202344281369676,0.0,70.0,255.0,255.0,255.0
161,8.05,-8.394414047713896,-13.074767375858668,-2.283922388196825,-0.2169555867877726,0.10294619331428834,-0.5540806933000697,-0.024077248692400133,0.013748498840726597,-0.06243197505493292,0.0,70.0,255.0,255.0,255.0
162,8.1,-8.40529182486901,-13.069602785576746,-2.311704363030736,-0.2181762905902218,0.1036460310745646,-0.5572179372615649,-0.024835011418744557,0.01408550342762993,-0.06314753875380497,0.0,70.0,255.0,255.0,255.0
163,8.15,-8.416231676772918,-13.064402772751212,-2.3396441819229814,-0.21943908792964706,0.10435474365705133,-0.5603954471754502,-0.025621034618161787,0.01409467195170322,-0.063909963075659,0.0,70.0,255.0,255.0,255.0
164,8.200000000000001,-8.427235733661975,-13.059167311211041,-2.367743907748281,-0.220738394052038,0.10505549826973493,-0.5636089335691308,-0.02615702798909325,0.013769868955115783,-0.06445674978485805,0.0,70.0,255.0,255.0,255.0
165,8.25,-8.438305516178122,-13.053897222924238,-2.3960050752798945,-0.22205479072855638,0.10573173055256291,-0.566841122153936,-0.026161654343681562,0.013108237135917022,-0.06452923782771514,0.0,70.0,255.0,255.0,255.0
166,8.3,-8.44944121273483,-13.048594138155785,-2.4244280199636745,-0.22335455948640615,0.10636632198332663,-0.5700618573519023,-0.025502763970308706,0.01213648751718921,-0.06400295819384283,0.0,70.0,255.0,255.0,255.0
167,8.35,-8.460640972126763,-13.043260590725906,-2.4530112610150847,-0.22460506712558725,0.10694537930428183,-0.5732414179733203,-0.02436866944748317,0.01099481650985723,-0.0630248594869709,0.0,70.0,255.0,255.0,255.0
168,8.4,-8.47190171944739,-13.037899600225357,-2.4817521617610065,-0.22579142643115446,0.10746580363431235,-0.5763643433005994,-0.023119118921677284,0.00991910676848562,-0.061884987314808626,0.0,70.0,255.0,255.0,255.0
169,8.450000000000001,-8.483220114769878,-13.032514010362474,-2.5106476953451446,-0.22691697901775498,0.10793728998113039,-0.5794299167048012,-0.022115022762569936,0.009160649929995657,-0.0608775699891595,0.0,70.0,255.0,255.0,255.0
170,8.5,-8.494593417349165,-13.027105871227244,-2.5396951534314867,-0.22800292870741146,0.10838186862731192,-0.5824521002995153,-0.02170790654396626,0.00896021312062345,-0.06028757790317307,0.0,70.0,255.0,255.0,255.0
171,8.55,-8.50602040764062,-13.021675823499743,-2.568892905375096,-0.2290877696721516,0.10883331129319274,-0.5854586744951185,-0.02207206838757969,0.009426576729865133,-0.060262765596252876,0.0,70.0,255.0,255.0,255.0
172,8.6,-8.51750219431638,-13.016222540097925,-2.5982410208809985,-0.23021013554616943,0.10932452630029843,-0.5884783768591406,-0.0230404273423801,0.01040627948381001,-0.06070491141016987,0.0,70.0,255.0,255.0,255.0
173,8.65,-8.529041421195236,-13.010743370869713,-2.6277407430610102,-0.23139181240638962,0.10987393924157374,-0.5915291656361354,-0.02427153398407711,0.011596173703054546,-0.061398199553241994,0.0,70.0,255.0,255.0,255.0
174,8.700000000000001,-8.54064137555702,-13.005235146173767,-2.657393937444612,-0.23263728894457714,0.11048414367060388,-0.5946181968144648,-0.025416820353463265,0.012675270252593407,-0.062119683545525106,0.0,70.0,255.0,255.0,255.0
175,8.75,-8.552305150089694,-12.999694956502653,-2.6872025627424567,-0.23393349444173595,0.11114146626683308,-0.597741133990688,-0.026134738128114066,0.01332690105702028,-0.06264045055965894,0.0,70.0,255.0,255.0,255.0
176,8.8,-8.564034725001193,-12.994120999547084,-2.717168050843681,-0.23525076275738854,0.11181683377630591,-0.6008822418704307,-0.02624290187469569,0.013384431672136543,-0.06283371834876483,0.0,70.0,255.0,255.0,255.0
177,8.85,-8.575830226365433,-12.988513273125022,-2.7472907869295,-0.23655778462920551,0.11247990943404673,-0.6040245058255644,-0.025838665472122102,0.012949109843596318,-0.06276006363696851,0.0,70.0,255.0,255.0,255.0
178,8.9,-8.587690503464113,-12.98287300860368,-2.7775705014262373,-0.23783462930460075,0.11311174476066554,-0.6071582482341276,-0.02514486169129526,0.012246314967789829,-0.06255596738586888,0.0,70.0,255.0,255.0,255.0
179,8.950000000000001,-8.599613689295893,-12.977202098648956,-2.8080066117529126,-0.23907227079833504,0.11370454093082571,-0.6102801025641513,-0.02438478207000827,0.011505355307228626,-0.06235129489637892,0.0,70.0,255.0,255.0,255.0
180,9.0,-8.611597730543947,-12.971502554510597,-2.8385985116826524,-0.24027310751160158,0.11426228029138841,-0.6133933777237655,-0.023781112971477114,0.010960154679295897,-0.06229057323809961,0.0,70.0,255.0,255.0,255.0
181,9.05,-8.623641000047053,-12.965775870619817,-2.869345949525289,-0.24145038209548275,0.1148005563987553,-0.6165091598879613,-0.023461871899854714,0.010741244366307967,-0.06244842161460262,0.0,70.0,255.0,255.0,255.0
182,9.1,-8.635742768753495,-12.960022498870721,-2.9002494276714486,-0.24261929470158705,0.1153364047280192,-0.6196382198852257,-0.023400342004364916,0.010792712376961333,-0.06273390164128756,0.0,70.0,255.0,255.0,255.0
183,9.15,-8.647902929517212,-12.954242230147015,-2.9313097715138117,-0.24379041629591924,0.11587982763645144,-0.62278255005209,-0.02351526633734835,0.010984813514092195,-0.0629797024653378,0.0,70.0,255.0,255.0,255.0
184,9.200000000000001,-8.660121810383087,-12.948434516107076,-2.9625276826766576,-0.2449708213353219,0.11643488607942842,-0.6259361901317595,-0.023736452299161215,0.011195709452316294,-0.06303476390834284,0.0,70.0,255.0,255.0,255.0
185,9.25,-8.672400011650744,-12.942598741539072,-2.9939033905269876,-0.24616406152583536,0.11699939858168307,-0.6290860264429243,-0.02400085660507756,0.011292526843220685,-0.06275334040366509,0.0,70.0,255.0,255.0,255.0
186,9.3,-8.68473821653567,-12.936734576248908,-3.02543628532095,-0.24737090699582964,0.11756413876375049,-0.632211524172126,-0.02426354992000057,0.011204530254182998,-0.062071709412148124,0.0,70.0,255.0,255.0,255.0
187,9.35,-8.697137102350327,-12.930842327662697,-3.0571245429442,-0.24859041651783542,0.11811985160710137,-0.6352931973841391,-0.02448089891160521,0.011000973051089602,-0.06110787292161746,0.0,70.0,255.0,255.0,255.0
188,9.4,-8.709597258187454,-12.924922591088198,-3.088965605059364,-0.24981899688699016,0.11866423606885945,-0.6383223114642878,-0.024592301398129734,0.01081265941795806,-0.06008335795097963,0.0,70.0,255.0,255.0,255.0
189,9.450000000000001,-8.722119002039026,-12.918975904055811,-3.120956774090629,-0.2510496466576484,0.11920111754889717,-0.6413015331792371,-0.024529921554616863,0.010758893130535796,-0.059221910542328615,0.0,70.0,255.0,255.0,255.0
190,9.5,-8.734702222853219,-12.913002479333308,-3.1530957583772876,-0.25227198904245185,0.11974012538191303,-0.6442445025185206,-0.024215460607024397,0.010965682000119159,-0.0587320558227411,0.0,70.0,255.0,255.0,255.0
191,9.55,-8.747346200943271,-12.90700189151762,-3.185381224342481,-0.25347119271835084,0.12029768574890909,-0.6471747387615112,-0.023623415598805764,0.011487720862568551,-0.058718540270641384,0.0,70.0,255.0,255.0,255.0
192,9.600000000000001,-8.760049342125054,-12.900972710758417,-3.2178132322534387,-0.2546343306023324,0.12088889746816989,-0.6501163565455848,-0.02287783391174969,0.012201623858842936,-0.05910742718548967,0.0,70.0,255.0,255.0,255.0
193,9.65,-8.772809634003504,-12.894913001770803,-3.2503928599970395,-0.2557589761095258,0.12151784813479338,-0.6530854814800602,-0.02219459567012194,0.012885481217317363,-0.05973320605758836,0.0,70.0,255.0,255.0,255.0
194,9.700000000000001,-8.785625239736007,-12.888820925944938,-3.2831217804014448,-0.2568537901693446,0.12217744558990162,-0.6560896771513436,-0.02178992208836661,0.013322657419045925,-0.06041810674273229,0.0,70.0,255.0,255.0,255.0
195,9.75,-8.798495013020439,-12.882695257211813,-3.316001827712174,-0.25793796831836246,0.12285011387669798,-0.6591272921543334,-0.021877254346591712,0.013304791774082503,-0.06098640833283042,0.0,70.0,255.0,255.0,255.0
196,9.8,-8.811419036567843,-12.876535914557268,-3.349034509616878,-0.2590415156040038,0.12350792476730987,-0.6621883179846266,-0.0225503867522292,0.012736987227768282,-0.06133515514590293,0.0,70.0,255.0,255.0,255.0
197,9.850000000000001,-8.82439916458084,-12.870344464735082,-3.3822206595106366,-0.2601930069935854,0.1241238125994748,-0.6652608076689237,-0.023641518354011737,0.01175877860184471,-0.061466987100988746,0.0,70.0,255.0,255.0,255.0
198,9.9,-8.837438337267201,-12.86412353329732,-3.4155605903837705,-0.26140566743940497,0.12468380262749434,-0.6683350166947255,-0.024833884686259466,0.010640846947929106,-0.06141757073341303,0.0,70.0,255.0,255.0,255.0
199,9.950000000000001,-8.85053973132478,-12.857876084472332,-3.449054161180109,-0.26267639546221133,0.1251878972942677,-0.671402564742265,-0.025804842307053377,0.009662738264815118,-0.06121997484114239,0.0,70.0,255.0,255.0,255.0
200,10.0,-8.863705976813423,-12.851604743567894,-3.482700846857997,-0.2639861516701103,0.12565007645397586,-0.6744570141788397,-0.0262475499782866,0.009095150904059324,-0.060914292197322695,0.0,70.0,255.0,255.0,255.0
201,10.05,-8.87693834649179,-12.845311076826935,-3.516499862597993,-0.26530115046004,0.12609741238467365,-0.6774939939619973,-0.02600795114524601,0.009077616939734412,-0.060533100218140845,0.0,70.0,255.0,255.0,255.0
202,10.100000000000001,-8.890236091859427,-12.838995002329426,-3.5504502462541967,-0.2665869467846349,0.1265578381479493,-0.6805103242006538,-0.025205976121611684,0.00951514984528501,-0.060105463571158424,0.0,70.0,255.0,255.0,255.0
203,10.15,-8.903597041170254,-12.83265529301214,-3.5845508950180585,-0.26782174807220116,0.12704892736920215,-0.6835045403191131,-0.024100821295824915,0.010199242878705661,-0.05967735016967346,0.0,70.0,255.0,255.0,255.0
204,10.200000000000001,-8.917018266666647,-12.826290109592506,-3.618800700286108,-0.2689970289142174,0.12757776243581986,-0.6864780592176212,-0.022963482576976446,0.010913102808807196,-0.05930768153867838,0.0,70.0,255.0,255.0,255.0
205,10.25,-8.930496744061676,-12.819897516768558,-3.6531987009398206,-0.2701180963298988,0.12814023765008287,-0.689435308472981,-0.022056555064686734,0.011434604609839027,-0.059052460173747434,0.0,70.0,255.0,255.0,255.0
206,10.3,-8.944030076299637,-12.813476085827498,-3.687744231133406,-0.27120268442068607,0.12872122289680377,-0.6923833052349959,-0.02153006973841798,0.011640283941005691,-0.05893915726828958,0.0,70.0,255.0,255.0,255.0
207,10.350000000000001,-8.957617012503745,-12.807025394478877,-3.72243703146332,-0.2722711033037406,0.12930426604418344,-0.6953292241998099,-0.021367304431763046,0.011585190780927235,-0.058948454651730486,0.0,70.0,255.0,255.0,255.0
208,10.4,-8.97125718663001,-12.80054565922308,-3.757277153553387,-0.2733394148638624,0.1298797419748965,-0.698278150700169,-0.021491781180138503,0.011395934450852963,-0.05903573255077177,0.0,70.0,255.0,255.0,255.0
209,10.450000000000001,-8.98495095399013,-12.794037420281388,-3.792264846533337,-0.27442028142175445,0.13044385948926873,-0.7012327974548871,-0.021826915031297744,0.011192449568397933,-0.059149299004079836,0.0,70.0,255.0,255.0,255.0
210,10.5,-8.998699214772186,-12.787501273274152,-3.827400433298876,-0.27552210636699215,0.13099898693173628,-0.704193080600577,-0.022290239086508734,0.011106384036096983,-0.05923185778313744,0.0,70.0,255.0,255.0,255.0
211,10.55,-9.01250316462683,-12.780937521588214,-3.8626841545933948,-0.2766493053304053,0.13155449789287843,-0.7071559832332008,-0.022820021648506383,0.011207307902871833,-0.05925078352908564,0.0,70.0,255.0,255.0,255.0
212,10.600000000000001,-9.026364145305227,-12.774345823484865,-3.898116031622196,-0.2778041085318428,0.13211971772202347,-0.7101181589534855,-0.023364899391431493,0.011423154630918475,-0.059221650223229005,0.0,70.0,255.0,255.0,255.0
213,10.65,-9.040283575480014,-12.767725549816012,-3.9336959704887433,-0.2789857952695485,0.13269681335597028,-0.7130781482555237,-0.02384944326045968,0.011618790878564766,-0.059177948065691766,0.0,70.0,255.0,255.0,255.0
214,10.700000000000001,-9.054262724832181,-12.761076142149268,-3.9694238464477483,-0.28018905285788875,0.13328159680987994,-0.7160359537600547,-0.02418368247329994,0.011670012670528251,-0.05914892197860233,0.0,70.0,255.0,255.0,255.0
215,10.75,-9.068302480765803,-12.754397390135024,-4.005299565864749,-0.28140416351687847,0.1338638146230231,-0.718993040453384,-0.02428645129466389,0.011443915189879306,-0.05916808072155,0.0,70.0,255.0,255.0,255.0
216,10.8,-9.08240314118387,-12.747689760686965,-4.041323150493087,-0.28261769798735514,0.13442598832886787,-0.7219527618322097,-0.024122617559285686,0.010883398199368344,-0.059250995328863354,0.0,70.0,255.0,255.0,255.0
217,10.850000000000001,-9.096564250564539,-12.740954791302137,-4.07749484204797,-0.28381642527280704,0.13495215444295994,-0.7249181399862703,-0.023737573526894096,0.010123962257679864,-0.059364944455264634,0.0,70.0,255.0,255.0,255.0
218,10.9,-9.11078478371115,-12.73419454524267,-4.113814964491714,-0.28499145534004455,0.13543838455463586,-0.7278892562777362,-0.023226809414644833,0.009407969634089852,-0.05945247518628349,0.0,70.0,255.0,255.0,255.0
219,10.950000000000001,-9.125063396098543,-12.727410952846673,-4.150283767675743,-0.2861391062142715,0.13589295140636892,-0.7308633875048987,-0.022697842254082445,0.008973560355407528,-0.059461726368503776,0.0,70.0,255.0,255.0,255.0
220,11.0,-9.139398694332577,-12.720605250102032,-4.1869013032422036,-0.2872612395654528,0.1363357405901766,-0.7338354289145865,-0.022251974383280526,0.00905790858478639,-0.05934784730277087,0.0,70.0,255.0,255.0,255.0
221,11.05,-9.153789520055089,-12.713777378787656,-4.223667310567202,-0.2883643036525996,0.13679874226484756,-0.7367981722351757,-0.021948995294174267,0.009766698366497906,-0.05909143562110586,0.0,70.0,255.0,255.0,255.0
222,11.100000000000001,-9.168235124697837,-12.706925375875548,-4.260581120465721,-0.2894561390948702,0.1373124104268264,-0.7397445724766971,-0.021801170137791814,0.01091474925285496,-0.05872034351703803,0.0,70.0,255.0,255.0,255.0
223,11.15,-9.182735133964576,-12.700046137744973,-4.297641767814872,-0.29054442066637876,0.13789021719013306,-0.7426702065868795,-0.02180779460569937,0.012153899349343078,-0.058291218788752985,0.0,70.0,255.0,255.0,255.0
224,11.200000000000001,-9.197289566764475,-12.693136354156534,-4.334848141124409,-0.29163691855544016,0.1385278003617607,-0.7455736943555724,-0.021964435688559547,0.013130198121302783,-0.057863659727885874,0.0,70.0,255.0,255.0,255.0
225,11.25,-9.21189882582012,-12.686193357708797,-4.372199137250429,-0.2927408642352347,0.13920323700226334,-0.7484565725596681,-0.022261641848508873,0.013496478444174898,-0.057484539391605693,0.0,70.0,255.0,255.0,255.0
226,11.3,-9.226563653187998,-12.679216030456308,-4.409693798380376,-0.29386308274029105,0.1398774482061782,-0.751322148294733,-0.022682426905262787,0.013082722088064713,-0.05718326218602243,0.0,70.0,255.0,255.0,255.0
227,11.350000000000001,-9.241285134094149,-12.67220561288818,-4.447331352079902,-0.295009106925761,0.1405115092110698,-0.7541748987782704,-0.02317690676072459,0.01206692418183053,-0.05699097751321602,0.0,70.0,255.0,255.0,255.0
228,11.4,-9.256064563880575,-12.665164879535201,-4.485111288258203,-0.2961807734163635,0.14108414062436125,-0.7570212460460546,-0.023661173002231806,0.010807388678202301,-0.05694535362179565,0.0,70.0,255.0,255.0,255.0
229,11.450000000000001,-9.270903211435785,-12.658097198825743,-4.523033476684508,-0.29737522422598417,0.14159224807889004,-0.7598694341404499,-0.024045440632392,0.0096717077642694,-0.057076921433818484,0.0,70.0,255.0,255.0,255.0
230,11.5,-9.285802086303173,-12.651005654727312,-4.561098231672248,-0.2985853174796027,0.1420513114007882,-0.7627289381894364,-0.02425744889897885,0.009028158992308022,-0.05741795783409387,0.0,70.0,255.0,255.0,255.0
231,11.55,-9.300761743183745,-12.643892067685664,-4.599306370503451,-0.29980096911588205,0.14249506397812084,-0.7656112299238593,-0.024260784264384938,0.0090684738861313,-0.05796982798900174,0.0,70.0,255.0,255.0,255.0
232,11.600000000000001,-9.315782183214761,-12.6367561483295,-4.637659354664634,-0.3010113959060412,0.14295815878940132,-0.7685259209883366,-0.02405567834298239,0.00964850973019793,-0.05863490726971676,0.0,70.0,255.0,255.0,255.0
233,11.65,-9.33086288277435,-12.629596251806724,-4.676158962602285,-0.3022065369501803,0.14345991495114063,-0.771474720650831,-0.023663877022173097,0.010466429388422682,-0.05924652756297277,0.0,70.0,255.0,255.0,255.0
234,11.700000000000001,-9.34600283690978,-12.622410156834386,-4.714806826729717,-0.3033777836082585,0.1440048017282436,-0.7744505737446339,-0.023120002249577,0.011222597860260919,-0.05963639346422411,0.0,70.0,255.0,255.0,255.0
235,11.75,-9.361200661135175,-12.6151957716339,-4.753604019976748,-0.304518537175138,0.14458217473716672,-0.7774383599972534,-0.02244860917475222,0.011614941530524447,-0.05965164791970068,0.0,70.0,255.0,255.0,255.0
236,11.8,-9.376454690627293,-12.60795193936067,-4.792550662729442,-0.30562264452573373,0.14516629588129604,-0.780415738536604,-0.021680123680845043,0.011484035048603403,-0.059223113504458524,0.0,70.0,255.0,255.0,255.0
237,11.850000000000001,-9.391762925587749,-12.60067914204577,-4.831645593830409,-0.3066865495432225,0.14573057824202706,-0.7833606713476993,-0.02091851506609288,0.01094537722465816,-0.058435640494458596,0.0,70.0,255.0,255.0,255.0
238,11.9,-9.407123345581615,-12.593378881536466,-4.870886729864212,-0.307714496032343,0.14626083360376185,-0.7862593025860498,-0.020326862034281135,0.010239714280935175,-0.05746396736112658,0.0,70.0,255.0,255.0,255.0
239,11.950000000000001,-9.422534375190983,-12.586053058685394,-4.910271524089014,-0.3087192357466506,0.14675454967012058,-0.7891070680838119,-0.02006681144148814,0.009598273754996,-0.0564964790687128,0.0,70.0,255.0,255.0,255.0
240,12.0,-9.43799526915628,-12.578703426569454,-4.949797436672593,-0.30972117717649184,0.14722066097926145,-0.7919089504929211,-0.020296086429283378,0.009244009618569748,-0.05570747845888846,0.0,70.0,255.0,255.0,255.0
241,12.05,-9.453506492908632,-12.571330992587468,-4.989462419138306,-0.31074884438957895,0.14767895063197756,-0.7946778159297008,-0.021073546186656245,0.00929524605925991,-0.055197205172508035,0.0,70.0,255.0,255.0,255.0
242,12.100000000000001,-9.469070153595238,-12.563935531506257,-5.0292652182655635,-0.31182853179515746,0.14815018558518744,-0.7974286710101719,-0.022224946707716242,0.009684573445056799,-0.054976190426536675,0.0,70.0,255.0,255.0,255.0
243,12.15,-9.484689346088148,-12.55651597402895,-5.069205286239323,-0.3129713390603506,0.14864740797648324,-0.8001754349723544,-0.02343147204459939,0.010260121412208889,-0.055024782479584644,0.0,70.0,255.0,255.0,255.0
244,12.200000000000001,-9.500367287501273,-12.549070790708608,-5.109282761762799,-0.3141716789996174,0.14917619772640833,-0.8029311492581304,-0.02436100373142125,0.010871020406533205,-0.055317177440805665,0.0,70.0,255.0,255.0,255.0
245,12.25,-9.51610651398811,-12.541598354256308,-5.149498401165136,-0.3154074394334927,0.14973451001713656,-0.805707152716435,-0.024687045107718575,0.011373029320438377,-0.05583041959669188,0.0,70.0,255.0,255.0,255.0
246,12.3,-9.531908031444623,-12.534097339706895,-5.189853477034442,-0.31664038351038926,0.15031350065845217,-0.8085141912177995,-0.024251892040005885,0.011682206821284069,-0.056529604266231104,0.0,70.0,255.0,255.0,255.0
247,12.350000000000001,-9.547770552339149,-12.526567004190463,-5.230349820286916,-0.3178326286374933,0.15090273069926496,-0.8113601131430581,-0.02323158155217442,0.011799965357539577,-0.05729969103924759,0.0,70.0,255.0,255.0,255.0
248,12.4,-9.563691294308372,-12.519007066636968,-5.270989488348748,-0.3189635416656067,0.15149349719420613,-0.8142441603217243,-0.021978205497497072,0.01175532454453787,-0.0579542919987297,0.0,70.0,255.0,255.0,255.0
249,12.450000000000001,-9.57966690650571,-12.511417654471042,-5.3117742363190885,-0.320030449187243,0.15207826315371875,-0.8171555423429311,-0.020855234239469667,0.011578157440617076,-0.05829634963028241,0.0,70.0,255.0,255.0,255.0
250,12.5,-9.595694339227096,-12.503799240321596,-5.352705042583041,-0.32104906508955366,0.15265131293826784,-0.8200737952847525,-0.02022771449290417,0.01130788242491576,-0.05812683382977468,0.0,70.0,255.0,255.0,255.0
251,12.55,-9.611771813014665,-12.496152523177216,-5.393781615847564,-0.3220532206365334,0.15320905139621033,-0.8229682257259086,-0.020284946259430114,0.010974901013049987,-0.05736335212045418,0.0,70.0,255.0,255.0,255.0
252,12.600000000000001,-9.62789966129075,-12.488478335181975,-5.435001865155632,-0.3230775597154967,0.15374880303957283,-0.825810130496798,-0.020879682793761845,0.010596404285934113,-0.05619129250264976,0.0,70.0,255.0,255.0,255.0
253,12.65,-9.644079568986214,-12.480777642873258,-5.476362628897244,-0.3241411889159096,0.15426869182480374,-0.8285873549761735,-0.02170558941543277,0.010199419570966484,-0.054953480761987805,0.0,70.0,255.0,255.0,255.0
254,12.700000000000001,-9.66031378018234,-12.473051465999495,-5.51786060065325,-0.32524811865703995,0.15476874499666948,-0.8313054785729967,-0.022457686350385586,0.009822037476325818,-0.0540029718240298,0.0,70.0,255.0,255.0,255.0
255,12.75,-9.676604380851918,-12.465300768373591,-5.559493176754543,-0.32638695755094815,0.15525089557243632,-0.8339876521585765,-0.02282615286404166,0.009491478276757448,-0.05369021711150168,0.0,70.0,255.0,255.0,255.0
256,12.8,-9.692952475937435,-12.457526376442251,-5.601259365869107,-0.3275307339434441,0.15571789282434523,-0.8366745002841469,-0.022648975603445365,0.009224902413684788,-0.05418407349857546,0.0,70.0,255.0,255.0,255.0
257,12.850000000000001,-9.709357454246263,-12.449728979091157,-5.643160626782958,-0.3286518551112927,0.1561733858138048,-0.839406059508434,-0.022056027600036998,0.009051713535690453,-0.05528525550086982,0.0,70.0,255.0,255.0,255.0
258,12.9,-9.725817661448565,-12.44190903786087,-5.685199971819951,-0.3297363367034478,0.15662306417791427,-0.8422030258342339,-0.02131225735304554,0.009009701134488068,-0.05660082924263676,0.0,70.0,255.0,255.0,255.0
259,12.950000000000001,-9.742331087916607,-12.434066672673366,-5.727380929366381,-0.33078308084659724,0.1570743559272536,-0.8450661424326977,-0.020674393318032003,0.009126979368190291,-0.057732415753353195,0.0,70.0,255.0,255.0,255.0
260,13.0,-9.758895969533224,-12.426201602268145,-5.76970658606322,-0.331803776035251,0.1575357621147333,-0.8479762674095692,-0.020399608782817324,0.00943016717265266,-0.058292344344224034,0.0,70.0,255.0,255.0,255.0
261,13.05,-9.775511465520133,-12.418313096461892,-5.812178556107338,-0.332823041724879,0.15801737264451887,-0.8508953768671201,-0.02061901146799272,0.00991980168514317,-0.05808049374653734,0.0,70.0,255.0,255.0,255.0
262,13.100000000000001,-9.792178273705712,-12.410399865003694,-5.854796123749932,-0.3338656771820503,0.15852774228324762,-0.853784316784223,-0.021210798881377002,0.010515902408236855,-0.057238501345047155,0.0,70.0,255.0,255.0,255.0
263,13.15,-9.808898033238338,-12.402460322233567,-5.8975569877857605,-0.3349441216130167,0.15906896288534256,-0.8566192270016249,-0.0219307890965581,0.011080936730856195,-0.056072386416516906,0.0,70.0,255.0,255.0,255.0
264,13.200000000000001,-9.825672685867014,-12.39449296871516,-5.940458046450095,-0.3360587560917061,0.15963583595633324,-0.8593915554258746,-0.0225381669492819,0.011471070693147567,-0.05489393858821856,0.0,70.0,255.0,255.0,255.0
265,13.25,-9.842503908847508,-12.386496738637934,-5.983496143328348,-0.33719793830794487,0.16021606995465731,-0.8621086208604467,-0.022791449301706734,0.01154384370956052,-0.054012386862822837,0.0,70.0,255.0,255.0,255.0
266,13.3,-9.859392479697808,-12.378471361719694,-6.02666890853614,-0.3383379010218768,0.1607902203272893,-0.8647927941121569,-0.022568405099399058,0.01123537802474317,-0.053599499301792974,0.0,70.0,255.0,255.0,255.0
267,13.350000000000001,-9.876337698949696,-12.370417716605205,-6.069975422739564,-0.3394547788178848,0.16133960775713163,-0.867468570790626,-0.021986184798983288,0.010649152354069713,-0.05359346639224327,0.0,70.0,255.0,255.0,255.0
268,13.4,-9.893337957579597,-12.36233740094398,-6.113415765615202,-0.3405365195017751,0.16185513556269626,-0.8701521407513813,-0.021279178334765447,0.009982915579342944,-0.053838576140030625,0.0,70.0,255.0,255.0,255.0
269,13.450000000000001,-9.910391350899873,-12.354232203048936,-6.156990636814702,-0.3415826966513613,0.16233789931506593,-0.8728524284046291,-0.020679512311616577,0.00944151175250596,-0.05418423082570456,0.0,70.0,255.0,255.0,255.0
270,13.5,-9.927496227244733,-12.346103611012474,-6.200701008455665,-0.34260447073293676,0.16279928673794686,-0.8755705638339517,-0.02041855671439663,0.009230448663899438,-0.05447414550081575,0.0,70.0,255.0,255.0,255.0
271,13.55,-9.944651797973167,-12.33795227437514,-6.244547693198097,-0.343624552322801,0.16326094418145587,-0.8782998429547106,-0.020613941562608318,0.009451972929497288,-0.05461596126101753,0.0,70.0,255.0,255.0,255.0
272,13.600000000000001,-9.961858682477013,-12.329777516594328,-6.288530992751136,-0.3446658648891976,0.1637444840308966,-0.8810321599600535,-0.021159053997976685,0.010002080251680923,-0.054629497887326295,0.0,70.0,255.0,255.0,255.0
273,13.65,-9.979118384462087,-12.321577825972051,-6.332650909194102,-0.34574045772259865,0.16426115220662396,-0.8837627927434433,-0.021837905488020226,0.010672808878453566,-0.054569765899703526,0.0,70.0,255.0,255.0,255.0
274,13.700000000000001,-9.996432728249273,-12.313351401373666,-6.3769072720254805,-0.3468496554379996,0.16481176491874194,-0.8864891365500238,-0.022437210375869654,0.011256308869000975,-0.05447673717622337,0.0,70.0,255.0,255.0,255.0
275,13.75,-10.013803350005887,-12.305096649480177,-6.421299822849105,-0.3479841787601856,0.16538678309352406,-0.8892104664610656,-0.02275036113736917,0.011550398927440142,-0.054386975189757436,0.0,70.0,255.0,255.0,255.0
276,13.8,-10.031231146125291,-12.296812723064313,-6.465828318671587,-0.34912469155173653,0.16596680481148596,-0.8919278340689996,-0.022669255226581697,0.011450156830861147,-0.05432322908065501,0.0,70.0,255.0,255.0,255.0
277,13.850000000000001,-10.04871581916106,-12.288499968999028,-6.510492606256005,-0.3502511042828438,0.16653179877661017,-0.8946427893691311,-0.022263007134171175,0.011027934567842124,-0.05428854205877798,0.0,70.0,255.0,255.0,255.0
278,13.9,-10.066256256553576,-12.280159543186652,-6.5552925976085,-0.35135099226515365,0.16706959826827017,-0.8973566882748774,-0.021683791784887774,0.01044044098232888,-0.05428236026192579,0.0,70.0,255.0,255.0,255.0
279,13.950000000000001,-10.083850918387576,-12.271793009172201,-6.600228275083492,-0.35241948346133256,0.16757584287484306,-0.9000710253953237,-0.02108493289778579,0.009846539482794014,-0.05430882046892904,0.0,70.0,255.0,255.0,255.0
280,14.0,-10.101498204899709,-12.263401958899168,-6.6452997001480325,-0.35345948555493223,0.16805425221654957,-0.9027875703217703,-0.020615989413919067,0.009403946300423627,-0.05437795373950394,0.0,70.0,255.0,255.0,255.0
281,14.05,-10.119196866943069,-12.254987583950546,-6.690507032115669,-0.35448108240272447,0.16851623750488542,-0.9055088207692741,-0.02036181142521798,0.009200173640167009,-0.0544911224164224,0.0,70.0,255.0,255.0,255.0
282,14.100000000000001,-10.136946313139982,-12.24655033514868,-6.73585058222496,-0.355495666697454,0.16897426958056627,-0.9082366825634125,-0.02030528110097407,0.009202545115627458,-0.05461633387797704,0.0,70.0,255.0,255.0,255.0
283,14.15,-10.154746433612814,-12.23809015699249,-6.781330700372011,-0.3565116105128219,0.16943649201644817,-0.9109704541570718,-0.020391402896535737,0.009329902718668848,-0.0547007930531862,0.0,70.0,255.0,255.0,255.0
284,14.200000000000001,-10.172597474191264,-12.229606685947035,-6.826947627640667,-0.3575348069871076,0.16990725985243316,-0.9137067618687311,-0.020569258499847365,0.009503733664040226,-0.054694694234402874,0.0,70.0,255.0,255.0,255.0
285,14.25,-10.190499914311525,-12.221099431007246,-6.872701376558884,-0.3585685363628066,0.1703868653828522,-0.9164399235805121,-0.02079369985459323,0.00964183451674927,-0.054553237823817824,0.0,70.0,255.0,255.0,255.0
286,14.3,-10.208454327827544,-12.21256799940875,-6.918591619998718,-0.3596141769725669,0.17087144330410808,-0.9191620856511129,-0.021030725178405874,0.00969637471595064,-0.054258481720381724,0.0,70.0,255.0,255.0,255.0
287,14.350000000000001,-10.226461332008782,-12.204012286676836,-6.964617585123995,-0.3606716088806472,0.17135650285444726,-0.9218657717525502,-0.021236800862567407,0.009682817371015062,-0.0538478939909659,0.0,70.0,255.0,255.0,255.0
288,14.4,-10.244521488715609,-12.195432349123305,-7.010778197173973,-0.36173785705882366,0.1718397250412096,-0.9245468750502095,-0.021348825068834287,0.009638176583237623,-0.05339353512416878,0.0,70.0,255.0,255.0,255.0
289,14.450000000000001,-10.262635117714664,-12.186828314172715,-7.057072272629016,-0.3628064913875306,0.17232032051277102,-0.9272051252649671,-0.021298545924430812,0.009592325394081058,-0.05297188977300138,0.0,70.0,255.0,255.0,255.0
290,14.5,-10.280802137854362,-12.178200317072028,-7.10349870970047,-0.36386771165126675,0.1727989575806177,-0.9298440640275096,-0.021009211166322928,0.009576687658530147,-0.05265310428947956,0.0,70.0,255.0,255.0,255.0
291,14.55,-10.29902188887979,-12.169548418414653,-7.150056679031767,-0.3649074125041629,0.17327798927862403,-0.9324704356939151,-0.020454775038913908,0.009607614211404325,-0.05247495070275221,0.0,70.0,255.0,255.0,255.0
292,14.600000000000001,-10.317292879104778,-12.160872518144165,-7.1967457532698615,-0.36591318915515814,0.17375971900175813,-0.9350915590977849,-0.019749287010384364,0.009666185400014626,-0.05242938619485216,0.0,70.0,255.0,255.0,255.0
293,14.65,-10.335613207795307,-12.152172446514477,-7.2435658349415455,-0.36688234120520136,0.1742446078186255,-0.9377133743134003,-0.0190923644298735,0.009717390947727722,-0.05248777041249042,0.0,70.0,255.0,255.0,255.0
294,14.700000000000001,-10.353981113225299,-12.143448057362303,-7.290517090701202,-0.3678224255981455,0.1747314580965309,-0.9403403361390339,-0.018682618410181817,0.00972696476075896,-0.05261774667406627,0.0,70.0,255.0,255.0,255.0
295,14.75,-10.372395450355121,-12.134699300704824,-7.337599868555449,-0.36875060304621954,0.1752173042947014,-0.9429751489808069,-0.01870940885773109,0.00965141484776666,-0.05279033569394187,0.0,70.0,255.0,255.0,255.0
296,14.8,-10.39085617352992,-12.125926326932833,-7.384814605599282,-0.3696933664839186,0.17569659958130757,-0.9456193697084281,-0.01925777373212867,0.00947316843831203,-0.05298222828900023,0.0,70.0,255.0,255.0,255.0
297,14.850000000000001,-10.409364787003513,-12.117129640746693,-7.432161805526292,-0.3706763804194324,0.1761646211385326,-0.9482733718097069,-0.020199804009912725,0.009252441029339309,-0.05315549363054117,0.0,70.0,255.0,255.0,255.0
298,14.9,-10.427923811571864,-12.10830986481898,-7.479641942780253,-0.37171334688490987,0.1766218436842415,-0.9509349190714822,-0.0212862859775953,0.00909225962608673,-0.0532536116645943,0.0,70.0,255.0,255.0,255.0
299,14.950000000000001,-10.446536121692004,-12.09946745637827,-7.52725529743344,-0.37280500901719194,0.17707384710114127,-0.9535987329761664,-0.02225871936332169,0.009093102277368814,-0.05321763635111054,0.0,70.0,255.0,255.0,255.0
300,15.0,-10.465204312473583,-12.090602480108865,-7.57500181607787,-0.37393921882124204,0.17753115391197838,-0.9562566827065933,-0.022873153400659874,0.00936562497884097,-0.05298555293382634,0.0,70.0,255.0,255.0,255.0
301,15.05,-10.483930043574128,-12.081714340987071,-7.622880965704099,-0.3750923243572579,0.17801040959902537,-0.958897288269549,-0.023000843318499165,0.009953511568561169,-0.05253562332123707,0.0,70.0,255.0,255.0,255.0
302,15.100000000000001,-10.502713544909309,-12.072801439148963,-7.6708915449048245,-0.37623930315309195,0.1785265050688345,-0.961510245038717,-0.022699608839893415,0.010722278919317318,-0.05195041084551377,0.0,70.0,255.0,255.0,255.0
303,15.15,-10.521553973889437,-12.063861690480188,-7.719031990207971,-0.37736228524124726,0.1790826374909571,-0.9640923293541004,-0.022114379771487336,0.011434502948581837,-0.051376850528139784,0.0,70.0,255.0,255.0,255.0
304,15.200000000000001,-10.540449773433433,-12.054893175399867,-7.7673007778402345,-0.3784507411302407,0.17966995536369268,-0.9666479300915309,-0.021402504135537015,0.01185456552423858,-0.050964481813498,0.0,70.0,255.0,255.0,255.0
305,15.25,-10.559399048002462,-12.045894694943819,-7.815696783217124,-0.37950253565480097,0.18026809404338096,-0.9691887775354502,-0.020730005512703542,0.011746131858281217,-0.05085943392266756,0.0,70.0,255.0,255.0,255.0
306,15.3,-10.578400026998914,-12.036866365995529,-7.86421965559378,-0.38052374168151104,0.1808445685495208,-0.9717338734837977,-0.020197314531777977,0.011005186221346719,-0.05112907795998822,0.0,70.0,255.0,255.0,255.0
307,15.350000000000001,-10.597451422170613,-12.027810238088867,-7.912870170565504,-0.38152226710797876,0.18136861266551563,-0.974301685331449,-0.019798963426786997,0.009824690378223977,-0.05167838746249487,0.0,70.0,255.0,255.0,255.0
308,15.4,-10.616552253709711,-12.018729504728977,-7.9616498241269245,-0.38250363802418974,0.1818270375873432,-0.9769017122300472,-0.019501509622621427,0.00856515981375594,-0.052322622587208656,0.0,70.0,255.0,255.0,255.0
309,15.450000000000001,-10.635701785973032,-12.009627534330132,-8.010560341788509,-0.3834724180702409,0.18222512864689122,-0.9795339475901699,-0.019283152206384102,0.0075941834104753525,-0.052871662502784744,0.0,70.0,255.0,255.0,255.0
310,15.5,-10.654899495516736,-12.000506991864288,-8.059603218885941,-0.38443195324482815,0.18258645592839073,-0.9821888784803257,-0.019110880493755644,0.007277819615758574,-0.05314072069886322,0.0,70.0,255.0,255.0,255.0
311,15.55,-10.674144981297514,-11.991368888737293,-8.108779229636541,-0.38538350611961647,0.18295291060846708,-0.9848480196600562,-0.01896383794885992,0.007792829794439626,-0.053034778124327886,0.0,70.0,255.0,255.0,255.0
312,15.600000000000001,-10.693437846128697,-11.982211700803441,-8.158088020851947,-0.38632833703971414,0.1833657389078347,-0.9874923562927584,-0.01886276588916047,0.008929076118135981,-0.052621447229306284,0.0,70.0,255.0,255.0,255.0
313,15.65,-10.712777815001486,-11.97303231484651,-8.207528465265817,-0.3872697827085325,0.18384581822028068,-0.9901101643829868,-0.01884051414009491,0.010273902085344844,-0.0520472511997383,0.0,70.0,255.0,255.0,255.0
314,15.700000000000001,-10.73216482439955,-11.963827118981413,-8.257099037290246,-0.38821238845372363,0.18439312911636918,-0.9926970814127323,-0.018911973286428463,0.011409353513691656,-0.05146215489038042,0.0,70.0,255.0,255.0,255.0
315,15.75,-10.751599053846858,-11.954593001934873,-8.30679817340709,-0.38916098003717536,0.18498675357164984,-0.9952563798720249,-0.01907840724229004,0.01192263629814505,-0.05101367395639045,0.0,70.0,255.0,255.0,255.0
316,15.8,-10.771080922403268,-11.945328443624248,-8.356624675277448,-0.39012022917795264,0.18558539274618369,-0.9977984488083713,-0.01933493274108855,0.011603634462531431,-0.05078458343401593,0.0,70.0,255.0,255.0,255.0
317,15.850000000000001,-10.790611076764653,-11.936034462660254,-8.406578018287927,-0.3910944733112842,0.18614711701790299,-1.0003348382154265,-0.01966913385622604,0.010629821000485151,-0.05075218725689723,0.0,70.0,255.0,255.0,255.0
318,15.9,-10.810190369734396,-11.926713731922458,-8.45665815909899,-0.39208714256357524,0.1866483748462322,-1.002873667534061,-0.020055594656653852,0.009368415992661028,-0.050852848140614526,0.0,70.0,255.0,255.0,255.0
319,15.950000000000001,-10.829819791021011,-11.917369625175631,-8.506865385041333,-0.3931000327769496,0.1870839586171691,-1.005420123029488,-0.020463267003201224,0.008188262675545843,-0.051025918401848,0.0,70.0,255.0,255.0,255.0
320,16.0,-10.849500373012091,-11.908005336060741,-8.55720017140194,-0.39413346926389536,0.18746720111378679,-1.0079762593742458,-0.020879453239430745,0.007451588572671142,-0.05121260212135326,0.0,70.0,255.0,255.0,255.0
321,16.05,-10.8692331379474,-11.898622905064252,-8.607663010978758,-0.3951879781008927,0.1878291174744362,-1.0105413832416232,-0.021289717799177765,0.007351979672876041,-0.05137411424609439,0.0,70.0,255.0,255.0,255.0
322,16.1,-10.88901917082218,-11.889222424313298,-8.658254309726102,-0.39626244104381314,0.1882023990810744,-1.0131136707988553,-0.021623402650305934,0.007782595590200003,-0.05149073614436617,0.0,70.0,255.0,255.0,255.0
323,16.150000000000002,-10.908859382051782,-11.879802665156145,-8.708974378058643,-0.39735031836592327,0.1886073770334562,-1.0156904568560599,-0.021774403271379583,0.00850231739413232,-0.05153958467793984,0.0,70.0,255.0,255.0,255.0
324,16.2,-10.928754202658773,-11.870361686609952,-8.759823355411708,-0.3984398813709511,0.18905263082048762,-1.0182676292666493,-0.021648385274275483,0.009270509538517047,-0.05149468432268378,0.0,70.0,255.0,255.0,255.0
325,16.25,-10.948703370188877,-11.860897402074096,-8.810801140985308,-0.3995151568933508,0.1895344279873079,-1.0208399252883282,-0.021151845066391672,0.009843037384271724,-0.05133591755654976,0.0,70.0,255.0,255.0,255.0
326,16.3,-10.968705718348108,-11.851408243811221,-8.86190734794054,-0.40055506587759027,0.1900369345589148,-1.0234012210223042,-0.020258084171942414,0.010082899057550776,-0.051058446760876564,0.0,70.0,255.0,255.0,255.0
327,16.35,-10.988758876776636,-11.841893708618205,-8.913141263087539,-0.40154096531054506,0.19054271789306299,-1.0259457699644159,-0.019119866267125474,0.010044365401995492,-0.050686639728425575,0.0,70.0,255.0,255.0,255.0
328,16.400000000000002,-11.008859814879163,-11.832353972021915,-8.964501924936982,-0.4024670525043028,0.19104137109911434,-1.0284698849951468,-0.01800669902038976,0.009856067345737074,-0.05026788074733446,0.0,70.0,255.0,255.0,255.0
329,16.45,-11.029005582027066,-11.822789571508293,-9.015988251587054,-0.40334163521258404,0.1915283246276367,-1.0309725580391493,-0.017194940150133675,0.009637298239972836,-0.0498548314855185,0.0,70.0,255.0,255.0,255.0
330,16.5,-11.049193978400421,-11.813201139559151,-9.067599180740897,-0.4041865465193162,0.19200510092311163,-1.0334553681436986,-0.016949157168966167,0.009516215272142858,-0.049487736975883934,0.0,70.0,255.0,255.0,255.0
331,16.55,-11.069424236678998,-11.803589061415982,-9.119333788401423,-0.40503655092948065,0.19247994615485098,-1.0359213317367377,-0.017392257866966077,0.00956248470078691,-0.0491920987117922,0.0,70.0,255.0,255.0,255.0
332,16.6,-11.089697633493369,-11.793953144943666,-9.171191313914571,-0.4059257723060128,0.19296134939319032,-1.0383745780148779,-0.018368181233086034,0.00971901039932277,-0.04900000098118085,0.0,70.0,255.0,255.0,255.0
333,16.650000000000002,-11.1100168139096,-11.784292926476663,-9.223171246202911,-0.40687336905278926,0.19345184719478326,-1.0408213318348558,-0.019566073376076076,0.009875184786167779,-0.04895159629452195,0.0,70.0,255.0,255.0,255.0
334,16.7,-11.130384970398648,-11.774607960224188,-9.275273447098057,-0.4078823796436204,0.1939488678718071,-1.04326973764433,-0.02065959305195264,0.009933211254775642,-0.049079276445596065,0.0,70.0,255.0,255.0,255.0
335,16.75,-11.150805051873961,-11.764898039689482,-9.327498219967344,-0.4089393283579845,0.19444516832026082,-1.0457292594794154,-0.021327516932423407,0.00979615747116469,-0.049417097244131014,0.0,70.0,255.0,255.0,255.0
336,16.8,-11.171278903234446,-11.755163443392162,-9.379846373045998,-0.41001513133686274,0.19492848361892356,-1.0482114473687432,-0.021400110468583478,0.009420075890709256,-0.04996747074770269,0.0,70.0,255.0,255.0,255.0
337,16.85,-11.191806565007647,-11.74540519132759,-9.432319364704219,-0.41107933940484287,0.19538717590933175,-1.0507260065541857,-0.020976453090071345,0.008881364561297289,-0.05063251718677719,0.0,70.0,255.0,255.0,255.0
338,16.900000000000002,-11.21238683717493,-11.735624725801229,-9.484918973701417,-0.41211277664586987,0.1958166200750533,-1.0532746990874209,-0.020279124025357476,0.008322261111182172,-0.051244894913615724,0.0,70.0,255.0,255.0,255.0
339,16.95,-11.233017842672234,-11.725823529320085,-9.53764683461296,-0.4131072518073786,0.19621940202044996,-1.0558504960455473,-0.01953377388801414,0.007882630634625798,-0.05163580165845616,0.0,70.0,255.0,255.0,255.0
340,17.0,-11.253697562355669,-11.716002785599184,-9.590504023305972,-0.4140661540346713,0.19660488313851587,-1.0584382792532665,-0.018968747128589314,0.007691136194054593,-0.0516518926959364,0.0,70.0,255.0,255.0,255.0
341,17.05,-11.274424458075702,-11.706163041006233,-9.643490662538287,-0.41500412652023755,0.19698851563985542,-1.061015685315141,-0.01871284804586537,0.00781101126960948,-0.051223705944103415,0.0,70.0,255.0,255.0,255.0
342,17.1,-11.295197975007692,-11.696303934035198,-9.696605591837486,-0.4159374388392578,0.19738598426547682,-1.0635606498476768,-0.018721437641922023,0.008191055830053529,-0.05043617735811523,0.0,70.0,255.0,255.0,255.0
343,17.150000000000002,-11.316018201959627,-11.686424442579685,-9.749846727523055,-0.41687627028442975,0.19780762122286077,-1.0660593030509524,-0.018883677607561822,0.008719407134094581,-0.04946425528657983,0.0,70.0,255.0,255.0,255.0
344,17.2,-11.336885602036135,-11.676523171912912,-9.80321152214258,-0.417825806600014,0.19825792497888628,-1.0685070753763348,-0.01909771232959656,0.009276779028688509,-0.04849649127862676,0.0,70.0,255.0,255.0,255.0
345,17.25,-11.357800782619629,-11.666598650081797,-9.856697435060688,-0.4187860415173894,0.19873529912572963,-1.070908952178815,-0.019257541174333426,0.009751279103475952,-0.04770735994412689,0.0,70.0,255.0,255.0,255.0
346,17.3,-11.378764206187874,-11.656649642000339,-9.910302417360462,-0.41975156071744735,0.19923305288923387,-1.0732778113707475,-0.019302436741064355,0.010076391851221445,-0.04719719265615652,0.0,70.0,255.0,255.0,255.0
347,17.35,-11.399775938691374,-11.646675344792873,-9.964025216197763,-0.42071628519149584,0.19974293831085177,-1.0756286714444308,-0.01925872874153356,0.010238048482769102,-0.04697643305320298,0.0,70.0,255.0,255.0,255.0
348,17.400000000000002,-11.420835834707024,-11.636675348169254,-10.017865284504905,-0.4216774335916007,0.20025685773751079,-1.0779754546760678,-0.019184393982740744,0.010235634827004958,-0.04702526342690305,0.0,70.0,255.0,255.0,255.0
349,17.45,-11.441943682050534,-11.626649659019122,-10.07182276166537,-0.4226347245897699,0.20076650179355227,-1.080331197787121,-0.019129176329713005,0.010070766071024195,-0.04731772040713622,0.0,70.0,255.0,255.0,255.0
350,17.5,-11.463099307166,-11.616598697989899,-10.125898404283618,-0.423590351224572,0.2012639343446132,-1.0827072267167814,-0.019149060202394708,0.009747756716826927,-0.04783064887909916,0.0,70.0,255.0,255.0,255.0
351,17.55,-11.48430271717299,-11.606523265584661,-10.180093484337048,-0.4245496306100094,0.20174127746523496,-1.085114262675031,-0.0192706917022889,0.009282395683563038,-0.048529061893809455,0.0,70.0,255.0,255.0,255.0
352,17.6,-11.505554270227002,-11.596424570243375,-10.23440983055112,-0.4255174203948009,0.2021921739129695,-1.0875601329061624,-0.019443647390282592,0.008737589400276136,-0.049298183668966544,0.0,70.0,255.0,255.0,255.0
353,17.650000000000002,-11.52685445921247,-11.586304048193364,-10.288849497627664,-0.42649399534903765,0.20261503640526257,-1.0900440810419276,-0.01957874646123514,0.00821889271929166,-0.049952080281379097,0.0,70.0,255.0,255.0,255.0
354,17.7,-11.548203669761905,-11.576163066602849,-10.343414238655313,-0.4274752950409244,0.20301406318489867,-1.0925553409343003,-0.019592295640791235,0.007839131044917735,-0.05029416555597521,0.0,70.0,255.0,255.0,255.0
355,17.75,-11.569601988716563,-11.566002641874874,-10.398105031721094,-0.42845322491311677,0.20339894950975435,-1.0950734975975251,-0.01939824598711226,0.007701703352935851,-0.05012603521716841,0.0,70.0,255.0,255.0,255.0
356,17.8,-11.591048992253217,-11.555823171651873,-10.452921588415066,-0.42941511963963563,0.20378423352019226,-1.0975679444560171,-0.018960996915495798,0.007854538235463338,-0.04936553412591138,0.0,70.0,255.0,255.0,255.0
357,17.85,-11.612543500680527,-11.545624218522855,-10.507861826166696,-0.43034932460466635,0.20418440333330068,-1.1000100510101163,-0.018368453260109163,0.00824711839193526,-0.04819707935652673,0.0,70.0,255.0,255.0,255.0
358,17.900000000000002,-11.634083924713684,-11.535404731318543,-10.562922593516078,-0.43125196496564655,0.20460894535938579,-1.1023876523916698,-0.01777968777094685,0.008772430659398367,-0.04696184668411263,0.0,70.0,255.0,255.0,255.0
359,17.95,-11.655668697177092,-11.525163323986916,-10.618100591405863,-0.43212729338176104,0.20506164639924052,-1.1047062356785275,-0.01735441499928214,0.009313222569673485,-0.04601116515452475,0.0,70.0,255.0,255.0,255.0
360,18.0,-11.67729665405186,-11.51489856667862,-10.67339321708393,-0.43298740646557476,0.20554026761635313,-1.1069887689071223,-0.017249937199359522,0.009757411222821588,-0.045693182280537314,0.0,70.0,255.0,255.0,255.0
361,18.05,-11.698967437823649,-11.504609297225281,-10.728799468296575,-0.433852287101697,0.20603738752152267,-1.1092755539065813,-0.017539120171150557,0.010039964196550955,-0.04617588784991966,0.0,70.0,255.0,255.0,255.0
362,18.1,-11.72068188276203,-11.494294827926467,-10.784320772474588,-0.4347413184826898,0.20654426403600823,-1.1116063576921142,-0.018118064047634164,0.010157573397329145,-0.04726361545372981,0.0,70.0,255.0,255.0,255.0
363,18.150000000000002,-11.742441569671918,-11.48395487082168,-10.839960104065787,-0.4356640935064604,0.2070531448612556,-1.1140019154519543,-0.018786138817716846,0.010126909116259242,-0.04856957727081834,0.0,70.0,255.0,255.0,255.0
364,18.2,-11.764248292112676,-11.473589513440341,-10.895720964019784,-0.4366199323644615,0.20755695494763415,-1.116463315419196,-0.019337270467012502,0.009968491496259446,-0.04970182650758659,0.0,70.0,255.0,255.0,255.0
365,18.25,-11.786103562908364,-11.463199175326917,-10.951606435607706,-0.43759782055316165,0.20804999401088153,-1.118972098102713,-0.019566014537275578,0.00971266108109603,-0.0502812822812615,0.0,70.0,255.0,255.0,255.0
366,18.3,-11.808008074167992,-11.452784514039253,-11.007618173830055,-0.43857653381818906,0.20852822105574376,-1.1214914436473222,-0.019369235687882735,0.009384579336746413,-0.05011105433414542,0.0,70.0,255.0,255.0,255.0
367,18.35,-11.829961216290183,-11.442346353221343,-11.063755579972439,-0.4395347441219499,0.20898845194455618,-1.1239832035361275,-0.018844698478304167,0.00900342718068714,-0.0493192746780835,0.0,70.0,255.0,255.0,255.0
368,18.400000000000002,-11.851961548580187,-11.431885668844798,-11.120016494183668,-0.4404610036660195,0.20942856377381247,-1.1264233711151306,-0.018190349032920494,0.008600772036260196,-0.04818902838152894,0.0,70.0,255.0,255.0,255.0
369,18.45,-11.874007316656785,-11.421403496843961,-11.176397917083952,-0.441353779025242,0.2098485291481822,-1.1288021063742804,-0.0176030765567603,0.008218499089096554,-0.04700810224331775,0.0,70.0,255.0,255.0,255.0
370,18.5,-11.896096926482711,-11.41090081592998,-11.232896704821096,-0.4422213113216955,0.21025041368272213,-1.1311241813394624,-0.017269967353961135,0.007887981749377104,-0.04605366994674398,0.0,70.0,255.0,255.0,255.0
371,18.55,-11.918229447788955,-11.400378455475689,-11.289510335217898,-0.4430807757606381,0.2106373273231199,-1.1334074733689548,-0.017290510505318935,0.0076284317428232384,-0.04548544259765919,0.0,70.0,255.0,255.0,255.0
372,18.6,-11.940405004058775,-11.389837083197667,-11.346237452157991,-0.4439503623722274,0.21101325685700445,-1.1356727255992283,-0.017617734115660255,0.0074660139178561735,-0.04529201310639053,0.0,70.0,255.0,255.0,255.0
373,18.650000000000002,-11.962624484026177,-11.379277129789989,-11.40307760777782,-0.4448425491722041,0.21138392871490552,-1.1379366746795938,-0.01813787297546554,0.007432706703269787,-0.045403260253529254,0.0,70.0,255.0,255.0,255.0
374,18.7,-11.984889258975995,-11.368698690326177,-11.46003111962595,-0.44576414966977396,0.21175652752733143,-1.1402130516245812,-0.018737136592150705,0.007550798859057295,-0.045751452165987416,0.0,70.0,255.0,255.0,255.0
375,18.75,-12.007200898993155,-11.358101477037255,-11.517098912940279,-0.4467162628314192,0.21213900860081125,-1.1425118198961925,-0.019318125370837436,0.007839374623763717,-0.04626804725358369,0.0,70.0,255.0,255.0,255.0
376,18.8,-12.029560885259137,-11.347484789466096,-11.57428230161557,-0.4476959622068577,0.2125404649897078,-1.1448398563499396,-0.019815948397727823,0.008296006047459059,-0.046895427021809155,0.0,70.0,255.0,255.0,255.0
377,18.85,-12.05197049521384,-11.336847430538285,-11.631582898575273,-0.44869785767119197,0.21296860920555716,-1.1472013625983735,-0.020168001422149473,0.008851677988808149,-0.047552766138458935,0.0,70.0,255.0,255.0,255.0
378,18.900000000000002,-12.074430671026256,-11.32618792854554,-11.689002437875407,-0.44971276234907265,0.21342563278858862,-1.1495951329637855,-0.02029368354108385,0.009387561990159554,-0.04811531988266893,0.0,70.0,255.0,255.0,255.0
379,18.95,-12.096941771448748,-11.315504867259426,-11.746542411871651,-0.45072722602530035,0.2139073654045731,-1.1520128945866404,-0.02011560318297967,0.009779331113968226,-0.048447627554182304,0.0,70.0,255.0,255.0,255.0
380,19.0,-12.119503393628786,-11.304797192005083,-11.804203727334071,-0.4517243226673706,0.21440356589998544,-1.1544398957192037,-0.019553568457908455,0.009910510429733677,-0.04843013171438315,0.0,70.0,255.0,255.0,255.0
381,19.05,-12.142114203715485,-11.294064510669427,-11.861986401443572,-0.4526825828710912,0.21489841644754648,-1.1568559077580787,-0.018590870728196762,0.009727031247663831,-0.04801182367248913,0.0,70.0,255.0,255.0,255.0
382,19.1,-12.164771651915895,-11.283307350360328,-11.91988931810988,-0.4535834097401903,0.21537626902475182,-1.1592410780864526,-0.017392870918975234,0.009291749653783654,-0.04726316942722519,0.0,70.0,255.0,255.0,255.0
383,19.150000000000002,-12.187472544689504,-11.272526883766952,-11.977910509252217,-0.4544218699629887,0.21582759141292485,-1.1615822247008012,-0.01624729962106386,0.00873340897236119,-0.04633089145205105,0.0,70.0,255.0,255.0,255.0
384,19.200000000000003,-12.210213838912194,-11.261724591219036,-12.03604754057996,-0.4552081397022967,0.21624960992198794,-1.1638741672316577,-0.015452198927512484,0.008191363863296885,-0.04537701197584454,0.0,70.0,255.0,255.0,255.0
385,19.25,-12.232993358659733,-11.250901922774753,-12.094297925975383,-0.45596708985573997,0.21664672779925453,-1.1661199258983856,-0.015303591472459743,0.007806602305038268,-0.04454345386193381,0.0,70.0,255.0,255.0,255.0
386,19.3,-12.255810547897768,-11.24005991843911,-12.152659533169798,-0.45673849884954265,0.21703027015249177,-1.168328512617851,-0.01593488104330021,0.007655356140645608,-0.043916765465645824,0.0,70.0,255.0,255.0,255.0
387,19.35,-12.278667208544688,-11.229198895759504,-12.211130777237168,-0.45756057796007,0.2174122634133191,-1.1705116024449502,-0.01713156385392267,0.007697687033036971,-0.04354821582541746,0.0,70.0,255.0,255.0,255.0
388,19.400000000000002,-12.301566605693775,-11.218318692097778,-12.269710693414293,-0.4584516552349349,0.21780003885579546,-1.1726833342003928,-0.01848439070357699,0.00784327764602466,-0.04348829379949848,0.0,70.0,255.0,255.0,255.0
389,19.450000000000003,-12.324512374068181,-11.207418891873925,-12.328399110657207,-0.4594090170304277,0.21819659117792156,-1.1748604318249,-0.019570053320627778,0.008001413898917065,-0.04377709843623734,0.0,70.0,255.0,255.0,255.0
390,19.5,-12.347507507396818,-11.196499032979986,-12.387196736596783,-0.4604086605669977,0.21860018024568717,-1.1770610440440166,-0.019960084299519565,0.008071098996964565,-0.044456006216009314,0.0,70.0,255.0,255.0,255.0
391,19.55,-12.370553240124881,-11.185558873849356,-12.446105215061609,-0.46140502546037965,0.21900370107761802,-1.179306032446501,-0.019443031671251276,0.007998770295714053,-0.045516452457405876,0.0,70.0,255.0,255.0,255.0
392,19.6,-12.393648009942856,-11.174598662872224,-12.505127339841433,-0.4623529637341228,0.21940005727525858,-1.1816126892897572,-0.018251689516013414,0.007838434615159429,-0.04678228894938741,0.0,70.0,255.0,255.0,255.0
393,19.650000000000002,-12.416788536498293,-11.16361886812183,-12.564266483990584,-0.463230194411981,0.21978754453913396,-1.1839842613414397,-0.016844321715225874,0.007691708883861281,-0.04795425503196782,0.0,70.0,255.0,255.0,255.0
394,19.700000000000003,-12.439971029384054,-11.15261990841831,-12.623525765975577,-0.4640373959056454,0.2201692281636447,-1.186408114792954,-0.015680734642842253,0.007650066788578158,-0.04872335884815726,0.0,70.0,255.0,255.0,255.0
395,19.75,-12.463192276088858,-11.141601945305466,-12.68290729546988,-0.4647982678762652,0.22055255121799178,-1.1888565972262555,-0.015223996738100709,0.007804945761158422,-0.04879653059539635,0.0,70.0,255.0,255.0,255.0
396,19.8,-12.48645085617168,-11.130564653296512,-12.742411425698203,-0.4655597955794555,0.22094972273976055,-1.1912877678524936,-0.015706139124205265,0.008196648924041483,-0.04804259952990719,0.0,70.0,255.0,255.0,255.0
397,19.85,-12.509748255646803,-11.11950697303149,-12.80203607225513,-0.46636888178868574,0.22137221611039593,-1.1936608571792462,-0.016890862229956838,0.008746802944514798,-0.046653350988279385,0.0,70.0,255.0,255.0,255.0
398,19.900000000000002,-12.53308774435055,-11.108427431685472,-12.861777511416127,-0.46724888180245117,0.22182440303421203,-1.1959531029513215,-0.018309138286909388,0.009310819220509359,-0.04500648094492021,0.0,70.0,255.0,255.0,255.0
399,19.950000000000003,-12.556473143827048,-11.097324532728068,-12.921631382550261,-0.4681997956173767,0.22230329803244686,-1.1981615052737382,-0.019493861254993305,0.009745545056283333,-0.043501214423180556,0.0,70.0,255.0,255.0,255.0
400,20.0,-12.579907723912287,-11.086197101882227,-12.981593661943501,-0.4691982679279505,0.22279895753984036,-1.2003032243936396,-0.019976003341426463,0.009917136604364885,-0.04252589005062646,0.0,70.0,255.0,255.0,255.0
401,20.05,-12.603392970619844,-11.075044636974084,-13.041661704989625,-0.4701973959515193,0.22329501169288335,-1.2024140942788009,-0.01951926497856249,0.009760834471883584,-0.04228592331632086,0.0,70.0,255.0,255.0,255.0
402,20.1,-12.626927463507439,-11.063867600712939,-13.101835071371381,-0.47115019442580675,0.22377504098702872,-1.2045318167252717,-0.018355677413239846,0.009338829131522175,-0.042672558844714104,0.0,70.0,255.0,255.0,255.0
403,20.150000000000002,-12.650507990062424,-11.052667132875381,-13.162114886662152,-0.4720329636928433,0.22422889460603557,-1.2066813501632723,-0.016948309286135554,0.008781377873390284,-0.0434324085995641,0.0,70.0,255.0,255.0,255.0
404,20.200000000000003,-12.674130759876723,-11.041444711252336,-13.222503206387708,-0.4728450253544203,0.22465317877436775,-1.208875057585228,-0.015756967190760918,0.008227240166469585,-0.04430469721246055,0.0,70.0,255.0,255.0,255.0
405,20.25,-12.697792492597866,-11.030201814997945,-13.283002392420675,-0.4736086604119194,0.22505161862268253,-1.2111118198845183,-0.015239915304832152,0.007814526466098926,-0.04502792785174847,0.0,70.0,255.0,255.0,255.0
406,20.3,-12.721491625917915,-11.018939549390067,-13.34361438837616,-0.4743690168849035,0.22543463142097764,-1.213377850370403,-0.01562994781636462,0.0076195003670065375,-0.045448672239345456,0.0,70.0,255.0,255.0,255.0
407,20.35,-12.745229394286357,-11.007658351855847,-13.404340177457716,-0.47517165519355586,0.22581356865938318,-1.2156566871084529,-0.016715612266082758,0.007614244166376238,-0.04558191479713258,0.0,70.0,255.0,255.0,255.0
408,20.400000000000002,-12.76900879143727,-10.996358192524129,-13.465180057087005,-0.4760405781115118,0.22619605583761526,-1.2179360418501162,-0.0180684404170961,0.007728144812801929,-0.0454958660087712,0.0,70.0,255.0,255.0,255.0
409,20.450000000000003,-12.792833452097508,-10.985038746272085,-13.526133781642727,-0.4769784992352655,0.22658638314066337,-1.22020627370933,-0.019265123128064943,0.007891694745332245,-0.04524810861532558,0.0,70.0,255.0,255.0,255.0
410,20.5,-12.816706641360797,-10.973699554210063,-13.587200684457938,-0.4779670904243183,0.2269852253121485,-1.2224608527116487,-0.019896410031705614,0.008032776176314371,-0.044902351923781225,0.0,70.0,255.0,255.0,255.0
411,20.55,-12.84063016113994,-10.96234022374087,-13.648379866913892,-0.47896814023843604,0.2273896607582948,-1.2246965089017081,-0.01974779690492312,0.008108390166761126,-0.04450493551093615,0.0,70.0,255.0,255.0,255.0
412,20.6,-12.864603455384641,-10.950960588134233,-13.70967033534811,-0.4799418701148106,0.2277960643288246,-1.2269113462627423,-0.018952689373641363,0.008125126604419108,-0.04408062112535305,0.0,70.0,255.0,255.0,255.0
413,20.650000000000002,-12.88862434815142,-10.939560617307988,-13.771071001540166,-0.48086340917580017,0.22820217341873672,-1.2291045710142434,-0.017807113192525037,0.008104271313946754,-0.04366496652838947,0.0,70.0,255.0,255.0,255.0
414,20.700000000000003,-12.912689796302221,-10.92814037079236,-13.832580792449534,-0.4817225814340631,0.22860649146021927,-1.2312778429155813,-0.016609113723120572,0.008059780387625892,-0.04330855597380889,0.0,70.0,255.0,255.0,255.0
415,20.75,-12.936796606294827,-10.916699968161966,-13.894198785831724,-0.48252432054811223,0.2290081514574993,-1.2334354266116243,-0.01564642592040144,0.008002340856094747,-0.043058701747966666,0.0,70.0,255.0,255.0,255.0
416,20.8,-12.960942228357032,-10.90523955564661,-13.955924335110696,-0.48328722402610325,0.22940672554582875,-1.235583713090378,-0.015084412351029641,0.007940225677138812,-0.0429382990029481,0.0,70.0,255.0,255.0,255.0
417,20.85,-12.985125328697437,-10.893759295607383,-14.017757157140762,-0.4840327617832152,0.2298021740252132,-1.2377292565119191,-0.014906357512955992,0.0078852494148407,-0.042932896738356874,0.0,70.0,255.0,255.0,255.0
418,20.900000000000002,-13.009345504535354,-10.882259338244088,-14.079697260761888,-0.48477785977739885,0.23019525048731282,-1.2398770027642136,-0.015032057860508985,0.007854769932080785,-0.04300697184138613,0.0,70.0,255.0,255.0,255.0
419,20.950000000000003,-13.033603114675177,-10.870739770558652,-14.141744857417184,-0.4855359675692661,0.23058765101842127,-1.2420299536960577,-0.01538410962407255,0.007869183706787908,-0.04311766749118817,0.0,70.0,255.0,255.0,255.0
420,21.0,-13.05789910129228,-10.859200573142246,-14.203900256131494,-0.4863162707398061,0.2309821688579916,-1.2441887695133325,-0.01588189561001485,0.00795786040033164,-0.04321883175926189,0.0,70.0,255.0,255.0,255.0
421,21.05,-13.082234741749158,-10.847641553672853,-14.266163734368517,-0.4871241571302676,0.23138343705845443,-1.246351836871984,-0.01646280544029821,0.008130707122866454,-0.04328238129573947,0.0,70.0,255.0,255.0,255.0
422,21.1,-13.106611517005307,-10.8360622294364,-14.328535439818692,-0.4879625512838359,0.23179523957027826,-1.2485170076429064,-0.01706197381636798,0.00833387573599964,-0.04330872432252164,0.0,70.0,255.0,255.0,255.0
423,21.150000000000002,-13.131030996877541,-10.824462029715825,-14.391015435132807,-0.4888303545119044,0.2322168246320544,-1.250682709304236,-0.01758204464241686,0.00847664895857747,-0.04330537454624306,0.0,70.0,255.0,255.0,255.0
424,21.200000000000003,-13.155494552456497,-10.812840546973195,-14.453603710749116,-0.4897207557480776,0.232642904466136,-1.2528475450975307,-0.017909272953531286,0.00847019807252991,-0.04327457359494247,0.0,70.0,255.0,255.0,255.0
425,21.25,-13.18000307245235,-10.801197739269211,-14.51630018964256,-0.4906212818072575,0.2330638444393074,-1.2550101666637303,-0.017929954342221777,0.008218245514690636,-0.04321394324016126,0.0,70.0,255.0,255.0,255.0
426,21.3,-13.204556680637223,-10.789534162529264,-14.579104727415489,-0.4915137511822998,0.23346472901760507,-1.2571689394215468,-0.017597139781067028,0.007683146295889287,-0.04312546252744909,0.0,70.0,255.0,255.0,255.0
427,21.35,-13.22915444757058,-10.77785126636745,-14.642017083584715,-0.4923809957853642,0.23383215906889632,-1.2593227129164752,-0.017010222749114234,0.006981019202179084,-0.04303220597368096,0.0,70.0,255.0,255.0,255.0
428,21.400000000000002,-13.25379478021576,-10.766150946622375,-14.705036998707136,-0.4932147734572112,0.23416283093782297,-1.261472160018915,-0.016356127207473037,0.006317701832259104,-0.04297152997381204,0.0,70.0,255.0,255.0,255.0
429,21.450000000000003,-13.2784759249163,-10.754434983273669,-14.768164299586607,-0.4940166085061115,0.23446392925212223,-1.2636198659138564,-0.015831572451929787,0.005896084609524621,-0.042984038127613644,0.0,70.0,255.0,255.0,255.0
430,21.5,-13.30319644106637,-10.742704553697163,-14.831398985298522,-0.4947979307024042,0.23475243939877544,-1.2657705638316763,-0.015634277695042442,0.005909110923241201,-0.043125395278842404,0.0,70.0,255.0,255.0,255.0
431,21.55,-13.32795571798654,-10.730959739333791,-14.894741355969774,-0.49558003627561575,0.23505484034444635,-1.2679324054417407,-0.015861922149973395,0.00644430676075558,-0.0434157685957004,0.0,70.0,255.0,255.0,255.0
432,21.6,-13.352754444693932,-10.719199069662718,-14.958192225842696,-0.4963841229174015,0.235396870074851,-1.2701121406912463,-0.016411727263765385,0.00737580036780372,-0.043762451783457834,0.0,70.0,255.0,255.0,255.0
433,21.650000000000002,-13.37759413027828,-10.707420052326306,-15.021752570038899,-0.4972212090019923,0.23579242038122672,-1.2723086506200865,-0.01707885445316748,0.008457112476634165,-0.04400850555867919,0.0,70.0,255.0,255.0,255.0
434,21.700000000000003,-13.402476565594132,-10.695619827624595,-15.085423090904705,-0.4980920083627183,0.2362425813225144,-1.2745129912471143,-0.0176578638122038,0.009433202417774567,-0.044002700470002765,0.0,70.0,255.0,255.0,255.0
435,21.75,-13.427403331114553,-10.683795794194054,-15.14920386916361,-0.4989869953832127,0.23673574062300418,-1.2767089206670867,-0.017948972173442712,0.010065310793549997,-0.043588531588589774,0.0,70.0,255.0,255.0,255.0
436,21.8,-13.452375265132453,-10.671946253562295,-15.213093982971413,-0.49988690558006255,0.2372491124018694,-1.2788718444059732,-0.017848598191783083,0.010226339946761698,-0.042703864019166815,0.0,70.0,255.0,255.0,255.0
437,21.85,-13.477392021672559,-10.660070882953868,-15.277091053604208,-0.500771855202391,0.23775837461768035,-1.2809793070690034,-0.017428276120767805,0.009963891214326281,-0.04152153001530934,0.0,70.0,255.0,255.0,255.0
438,21.900000000000002,-13.502452450652692,-10.648170416100527,-15.341191913678314,-0.5016297331921393,0.23824550152330204,-1.2830239974075042,-0.016843047053960447,0.009405736372336548,-0.040352582992397856,0.0,70.0,255.0,255.0,255.0
439,21.950000000000003,-13.527554994991773,-10.636246332801537,-15.405393453344958,-0.502456159907787,0.238698948254914,-1.2850145653682432,-0.016250259012728918,0.008691105719726977,-0.03951070777841181,0.0,70.0,255.0,255.0,255.0
440,22.0,-13.55269806664347,-10.624300521275035,-15.469693370215138,-0.5032547590934122,0.23911461209527474,-1.2869750681853454,-0.01580582428761801,0.00796167387555613,-0.03930444106927666,0.0,70.0,255.0,255.0,255.0
441,22.05,-13.577880470901114,-10.61233487159201,-15.534090960163493,-0.5040367423365488,0.2394951156424696,-1.2889450094751709,-0.015596458976219196,0.0073087949894912185,-0.03987637439362146,0.0,70.0,255.0,255.0,255.0
442,22.1,-13.603101740877126,-10.600351009710788,-15.598587871162655,-0.5048144049910341,0.23984549159422386,-1.2909627056247075,-0.015591531889214139,0.006765837573396993,-0.04102247710680018,0.0,70.0,255.0,255.0,255.0
443,22.150000000000002,-13.628361911400217,-10.588350322432587,-15.663187230725963,-0.5055958955254702,0.2401716993998093,-1.293047257185851,-0.015713432855513076,0.006365256719931267,-0.0423484352008785,0.0,70.0,255.0,255.0,255.0
444,22.200000000000003,-13.653661330429673,-10.576333839770808,-15.72789259688124,-0.5063857482765854,0.24048201726621699,-1.2951975491447953,-0.015887300602912546,0.006147549526502871,-0.04344892063006256,0.0,70.0,255.0,255.0,255.0
445,22.25,-13.679000486227876,-10.564302120705966,-15.792706985640443,-0.5071846255857615,0.2407864543524596,-1.2973921492488572,-0.016035749322895754,0.006140021676337426,-0.043921722781448125,0.0,70.0,255.0,255.0,255.0
446,22.3,-13.704379792988249,-10.552255194335562,-15.857631811806126,-0.507989323208875,0.24109601943385073,-1.2995897214229402,-0.0161127920115689,0.006346219024067068,-0.04356406497993959,0.0,70.0,255.0,255.0,255.0
447,22.35,-13.729799418548764,-10.54019251876258,-15.922665957782737,-0.5087959047869184,0.2414210762548663,-1.301748555746851,-0.01612652872431397,0.006729215368750374,-0.042559377408224464,0.0,70.0,255.0,255.0,255.0
448,22.400000000000002,-13.75525938346694,-10.528113086710075,-15.987806667380811,-0.5096019760813064,0.24176894097072577,-1.3038456591637626,-0.016101449961780645,0.007215101549640224,-0.041282860354385775,0.0,70.0,255.0,255.0,255.0
449,22.450000000000003,-13.780759616156894,-10.516015624665508,-16.053050523699113,-0.5104060497830964,0.24214258640983033,-1.3058768417822897,-0.01605433810976109,0.007713008527865384,-0.04011346984285069,0.0,70.0,255.0,255.0,255.0
450,22.5,-13.80629998844525,-10.503898828069092,-16.11839435155904,-0.5112074098922825,0.2425402418235123,-1.3078570061480477,-0.01599915044820932,0.008138192798945454,-0.039428621182757695,0.0,70.0,255.0,255.0,255.0
451,22.55,-13.831880357146122,-10.491761600483157,-16.183836224313918,-0.5120059648279174,0.24295640568972487,-1.3098197039005655,-0.015945659689187153,0.008440128450004636,-0.039426713004431235,0.0,70.0,255.0,255.0,255.0
452,22.6,-13.857500584928042,-10.47960318750012,-16.249376321949097,-0.5128019758612012,0.24338425466851277,-1.3117996774484908,-0.015902353213625986,0.008600937315783597,-0.03997096897272456,0.0,70.0,255.0,255.0,255.0
453,22.650000000000002,-13.883160554732243,-10.467423175016306,-16.315016192058767,-0.51359620014928,0.24381649942130323,-1.313816800797838,-0.015880767298170895,0.00860986155490906,-0.04077000683224696,0.0,70.0,255.0,255.0,255.0
454,22.700000000000003,-13.90886020494297,-10.455221537557989,-16.38075800202888,-0.5143900525910183,0.24424524082400367,-1.3158766781317155,-0.015895346959560186,0.00846092918127539,-0.04153682703922357,0.0,70.0,255.0,255.0,255.0
455,22.75,-13.934599559991344,-10.442998650933905,-16.44660385987194,-0.515185734845236,0.24466259233943077,-1.3179704835017603,-0.015967648884718244,0.008151216452567667,-0.04198784843012504,0.0,70.0,255.0,255.0,255.0
456,22.8,-13.960378778427494,-10.430755278324046,-16.512555050379056,-0.5159868174794902,0.24506036246926044,-1.320075462974728,-0.016104569229469234,0.007692241536538802,-0.041969735680069675,0.0,70.0,255.0,255.0,255.0
457,22.85,-13.986198241739293,-10.41849261468698,-16.57861140616941,-0.5167961917681829,0.24543181649308465,-1.3221674570697672,-0.01626405842056755,0.0071478745290676216,-0.04156308702825129,0.0,70.0,255.0,255.0,255.0
458,22.900000000000002,-14.012058397604312,-10.406212096674738,-16.644771796086033,-0.5176132233215469,0.2457751499221672,-1.3242317716775531,-0.016375480846875234,0.006626291390077199,-0.04094993283096926,0.0,70.0,255.0,255.0,255.0
459,22.950000000000003,-14.037959564071448,-10.393915099694762,-16.711034583337167,-0.5184337398528704,0.24609444563209237,-1.3262624503528642,-0.01637098733908715,0.006242249104637665,-0.04030630824765069,0.0,70.0,255.0,255.0,255.0
460,23.0,-14.063901771589599,-10.381602652111528,-16.77739804112132,-0.5192503220554556,0.24639937483263097,-1.3282624025023182,-0.01618228198516647,0.006100950715648423,-0.03980394780178642,0.0,70.0,255.0,255.0,255.0
461,23.05,-14.089884596276994,-10.3692751622115,-16.8438608235874,-0.5200519680513871,0.24670454070365722,-1.3302428451330428,-0.015782263859343004,0.006251418225744487,-0.03954040488025612,0.0,70.0,255.0,255.0,255.0
462,23.1,-14.115906968394738,-10.356932198041163,-16.910422325634624,-0.5208285484413899,0.24702451665520542,-1.3322164429903438,-0.015243184665614251,0.006643089042235317,-0.03949304654824459,0.0,70.0,255.0,255.0,255.0
463,23.150000000000002,-14.141967451121133,-10.344572710545979,-16.977082467886433,-0.5215762865179485,0.24736884960788075,-1.3341921497878673,-0.014696376914180576,0.007168609247543145,-0.03959473736863117,0.0,70.0,255.0,255.0,255.0
464,23.200000000000003,-14.168064597046532,-10.332195313080375,-17.04384154061341,-0.522298186132808,0.24774137757995973,-1.336175916727207,-0.014273477575876825,0.007710587221865239,-0.03978414043821488,0.0,70.0,255.0,255.0,255.0
465,23.25,-14.194197269734413,-10.319798572787983,-17.110700059559154,-0.5230036342755362,0.24813990833006727,-1.3381705638316888,-0.014095204525688132,0.00815696203826377,-0.04000437901261478,0.0,70.0,255.0,255.0,255.0
466,23.3,-14.220364960474086,-10.307381322247368,-17.17765859699658,-0.5237077065853768,0.2485570737837861,-1.3401763546284684,-0.014220174867851654,0.008442598381108724,-0.04021587090647927,0.0,70.0,255.0,255.0,255.0
467,23.35,-14.246568040392951,-10.294942865409604,-17.244717695022,-0.5244256517623214,0.24898416816817814,-1.3421921509223367,-0.014598727391934574,0.00856340566475211,-0.040385659176678246,0.0,70.0,255.0,255.0,255.0
468,23.400000000000002,-14.272807525650318,-10.28248290543055,-17.311877812088813,-0.5251675793245703,0.24941341435026132,-1.3442149205461362,-0.015122647860543736,0.008534796094750163,-0.0404693461316441,0.0,70.0,255.0,255.0,255.0
469,23.450000000000003,-14.299084798325408,-10.270001523974578,-17.379139187076614,-0.5259379165483757,0.24983764777765316,-1.346239085535501,-0.01567561517799021,0.008375914828384623,-0.04041764282227689,0.0,70.0,255.0,255.0,255.0
470,23.5,-14.325401317305156,-10.257499140652785,-17.446501720642363,-0.5267351408423693,0.2502510058330998,-1.348256684828364,-0.016148881262445514,0.008115210454739952,-0.0401785361500373,0.0,70.0,255.0,255.0,255.0
471,23.55,-14.351758312409645,-10.244976423391268,-17.51396485555945,-0.5275528046746203,0.25064916882312716,-1.3502569391505048,-0.01647754948983504,0.007777162609734489,-0.039735598672407946,0.0,70.0,255.0,255.0,255.0
472,23.6,-14.378156597772618,-10.232434223770472,-17.581527414557414,-0.5283828957913528,0.25102872209407323,-1.3522302446956047,-0.016645542131321633,0.007384127460774437,-0.03916608830252244,0.0,70.0,255.0,255.0,255.0
473,23.650000000000002,-14.40459660198878,-10.21987355118186,-17.64918788002901,-0.5292173588877525,0.2513875815692046,-1.354173547980757,-0.016648556120024693,0.006973045533520406,-0.03860694570398948,0.0,70.0,255.0,255.0,255.0
474,23.700000000000003,-14.431078333661393,-10.207295465613551,-17.71694476935549,-0.5300477514033552,0.25172602664742527,-1.3560909392660037,-0.01648457453207186,0.006591441110614937,-0.038198062167893454,0.0,70.0,255.0,255.0,255.0
475,23.75,-14.457601377129116,-10.194700948517118,-17.78479697395561,-0.5308658163409596,0.2520467256802661,-1.3579933541975464,-0.01615327974739955,0.006278233438195002,-0.038073457740139816,0.0,70.0,255.0,255.0,255.0
476,23.8,-14.484164915295489,-10.182090793045525,-17.852744104775244,-0.5316630793780952,0.25235384999124477,-1.3598982850400176,-0.015668601531437787,0.006055464466747651,-0.03829553393686069,0.0,70.0,255.0,255.0,255.0
477,23.85,-14.510767685066925,-10.169465563517994,-17.920786802459613,-0.5324326764941034,0.25265227212694086,-1.3618229075912325,-0.015099943243690461,0.005937380529985603,-0.0387855120866476,0.0,70.0,255.0,255.0,255.0
478,23.900000000000002,-14.5374081829449,-10.15682556583283,-17.988926395534367,-0.5331730737024643,0.25294758804424333,-1.3637768362486824,-0.014563966822578323,0.005935725731909258,-0.03938650741872607,0.0,70.0,255.0,255.0,255.0
479,23.950000000000003,-14.564084992437172,-10.14417080471357,-18.05716448608448,-0.5338890731763613,0.2532458447001318,-1.365761558333105,-0.014185061053240133,0.0060516074434247,-0.03993733461520321,0.0,70.0,255.0,255.0,255.0
480,24.0,-14.590797090262535,-10.131500981362818,-18.125502551367678,-0.5345915798077883,0.2535527487885858,-1.3677705697102027,-0.014082009070470747,0.006275818497591956,-0.04029164221073245,0.0,70.0,255.0,255.0,255.0
481,24.05,-14.61754415041795,-10.11881552983471,-18.1939415430555,-0.5352972740834083,0.253873426549891,-1.3697907225541783,-0.01430855720538915,0.006595291877431464,-0.040368978865501504,0.0,70.0,255.0,255.0,255.0
482,24.1,-14.644326817670876,-10.106113638707829,-18.262481623623096,-0.5360224355283272,0.25421227797632895,-1.3718074675967529,-0.014790209368165108,0.006985511258505994,-0.040177271275965154,0.0,70.0,255.0,255.0,255.0
483,24.150000000000002,-14.671146393970783,-10.093394302037078,-18.331122289815177,-0.5367762950202248,0.2545719776757416,-1.3738084496817748,-0.015379212952737475,0.007403212375756141,-0.03976161669783096,0.0,70.0,255.0,255.0,255.0
484,24.200000000000003,-14.698004447172899,-10.080656440940254,-18.399862468591273,-0.5375603568236009,0.25495259921390456,-1.375783629266536,-0.015922407364143965,0.00779644147019809,-0.03917259937189499,0.0,70.0,255.0,255.0,255.0
485,24.25,-14.724902429653143,-10.067899042115688,-18.46870065274183,-0.5383685357566392,0.2553516218227614,-1.3777257096189643,-0.016282693295899264,0.008122455276904361,-0.038447992062273784,0.0,70.0,255.0,255.0,255.0
486,24.3,-14.751841300748563,-10.055121278757978,-18.53763503955317,-0.5391886261531909,0.255764844741595,-1.3796284284727633,-0.016383882932835547,0.008356654736729752,-0.037627524960015535,0.0,70.0,255.0,255.0,255.0
487,24.35,-14.778821292268463,-10.042322557641528,-18.606663495589107,-0.5400069240499228,0.25618728729643436,-1.381488462114966,-0.016224627206717912,0.008483278399573635,-0.03682353800797955,0.0,70.0,255.0,255.0,255.0
488,24.400000000000002,-14.805841993153555,-10.029502550028335,-18.675783885764666,-0.5408110888738626,0.25661317258155236,-1.3833107822735613,-0.01583377344136494,0.00848872080290164,-0.036210568914540886,0.0,70.0,255.0,255.0,255.0
489,24.450000000000003,-14.832902401155849,-10.016661240383373,-18.744994573816463,-0.5415903013940593,0.2570361593767245,-1.38510951900642,-0.015245309492506465,0.008369339961333822,-0.03596452897092206,0.0,70.0,255.0,255.0,255.0
490,24.5,-14.860001023292961,-10.003798934090662,-18.814294837665308,-0.5423356198231133,0.25745010657768574,-1.3869072351706535,-0.014475236393707291,0.008130397689143365,-0.0362643615673619,0.0,70.0,255.0,255.0,255.0
491,24.55,-14.88713596313816,-9.990916229725604,-18.88368529733353,-0.54303782503343,0.25784919914563886,-1.3887359551631562,-0.013554885420496987,0.007783776821845834,-0.03717574646806554,0.0,70.0,255.0,255.0,255.0
492,24.6,-14.914304805796304,-9.978014014176098,-18.953168433181624,-0.543691108365163,0.25822848425987033,-1.39062480981746,-0.012629417003573451,0.007362214305572934,-0.03848326200781571,0.0,70.0,255.0,255.0,255.0
493,24.650000000000002,-14.941505073974676,-9.965093381299617,-19.022747778315274,-0.5443007667337874,0.25858542057619616,-1.3925842813639377,-0.011929236406515997,0.006922743573412049,-0.03979890484799853,0.0,70.0,255.0,255.0,255.0
494,24.700000000000003,-14.968734882469683,-9.952155472118479,-19.092426861318017,-0.5448840320058146,0.25892075861721153,-1.39460470030226,-0.011681902450888515,0.00653188632977475,-0.0407242497786342,0.0,70.0,255.0,255.0,255.0
495,24.75,-14.995993477175258,-9.939201305437896,-19.1622082483455,-0.5454689569788762,0.25923860920917363,-1.3966567063418012,-0.012112305184253103,0.006251991261940759,-0.04086658963977641,0.0,70.0,255.0,255.0,255.0
496,24.8,-15.02328177816757,-9.926231611197561,-19.232092531952198,-0.5460952625242399,0.2595459577434056,-1.3986913592662376,-0.013305200094215763,0.006114951262148338,-0.04004189009876313,0.0,70.0,255.0,255.0,255.0
497,24.85,-15.050603003427682,-9.913246709663555,-19.302077384272124,-0.5467994769882978,0.25985010433538847,-1.4006608953516775,-0.01501061853375063,0.0061051604168582685,-0.03849506897353194,0.0,70.0,255.0,255.0,255.0
498,24.900000000000002,-15.0779617258664,-9.900246600764023,-19.372158621487365,-0.547596324377615,0.26015647378509144,-1.4025408661635907,-0.01677301053710778,0.006183008867388651,-0.036703835005624796,0.0,70.0,255.0,255.0,255.0
499,24.950000000000003,-15.105362635865443,-9.887231062285046,-19.442331470888483,-0.5484767780420086,0.26046840522212733,-1.40433127885224,-0.01812255855710987,0.006303114718164693,-0.035157306412614275,0.0,70.0,255.0,255.0,255.0
500,25.0,-15.132809403670601,-9.87419976024181,-19.51259174937259,-0.549408580233326,0.2607867852569079,-1.4060565968048522,-0.018603561515462275,0.00641762793716083,-0.03433324257642312,0.0,70.0,255.0,255.0,255.0
501,25.05,-15.160303493888776,-9.861152383759356,-19.58293713056897,-0.5503371341935548,0.2611101680158434,-1.4077646031098823,-0.017996715135915053,0.006496930949850821,-0.034476553274132016,0.0,70.0,255.0,255.0,255.0
502,25.1,-15.187843117089956,-9.848088743440226,-19.653368209683578,-0.5512082517469175,0.261436478351893,-1.4095042521322654,-0.01654246783733271,0.006538076429229989,-0.0354029422851454,0.0,70.0,255.0,255.0,255.0
503,25.150000000000002,-15.215424319063468,-9.835008735924166,-19.723887555782195,-0.5519913809772881,0.2617639756587664,-1.4113048973383968,-0.014726040792290007,0.006543449396545498,-0.03671927494828253,0.0,70.0,255.0,255.0,255.0
504,25.200000000000003,-15.243042255187685,-9.821912345874349,-19.794498699417417,-0.5526808558261465,0.26209082329154754,-1.4131761796270936,-0.01305341110331426,0.00650945433111616,-0.03802666443348812,0.0,70.0,255.0,255.0,255.0
505,25.25,-15.270692404646082,-9.808799653595011,-19.865205173744904,-0.5532967220876195,0.26241492109187803,-1.4151075637817456,-0.012033448754422693,0.006425469016413388,-0.038936477347562004,0.0,70.0,255.0,255.0,255.0
506,25.3,-15.298371927396447,-9.795670853765161,-19.936009455795592,-0.5538842007015887,0.2627333701931889,-1.4170698273618498,-0.011933487150983524,0.0062906116506056264,-0.03923306230042556,0.0,70.0,255.0,255.0,255.0
507,25.35,-15.326080824716241,-9.782526316575693,-20.00691215648109,-0.5544900708027178,0.2630439822569386,-1.4190308700117882,-0.01256682946291221,0.00614253386750363,-0.03898313857462199,0.0,70.0,255.0,255.0,255.0
508,25.400000000000002,-15.353820934476719,-9.769366455539467,-20.07791254279677,-0.55514088364788,0.26334762357993924,-1.420968141219312,-0.013537185266265794,0.006043193547711212,-0.03836741019220824,0.0,70.0,255.0,255.0,255.0
509,25.450000000000003,-15.38159491308103,-9.756191554217699,-20.14900897060302,-0.5558437893293444,0.2636483016117097,-1.422867611031009,-0.014449624536894135,0.006052354668995008,-0.03756363492435355,0.0,70.0,255.0,255.0,255.0
510,25.5,-15.409405313409653,-9.743001625378296,-20.22019930389987,-0.5565858461015694,0.26395285904683874,-1.4247245047117474,-0.01489471805999898,0.0062284680256041725,-0.036748820062371124,0.0,70.0,255.0,255.0,255.0
511,25.55,-15.437253497691186,-9.729796268313015,-20.291481421074195,-0.5573332611353443,0.26427114841427013,-1.4265424930372461,-0.014657215047186867,0.006594421982342169,-0.03603623248444876,0.0,70.0,255.0,255.0,255.0
512,25.6,-15.465138639523188,-9.71657451053687,-20.362853553203596,-0.558051567606288,0.26461230124507296,-1.4283281279601923,-0.013917487037140575,0.0070900165386689196,-0.035461706212203126,0.0,70.0,255.0,255.0,255.0
513,25.650000000000002,-15.493058654451815,-9.703335038188508,-20.434314233870214,-0.5587250098390584,0.264980150068137,-1.4300886636584664,-0.013036267094257425,0.00760470881324693,-0.03505639897127821,0.0,70.0,255.0,255.0,255.0
514,25.700000000000003,-15.521011140507094,-9.690076495530056,-20.505862419569443,-0.5593551943157138,0.26537277212639765,-1.43183376785732,-0.012355549957376866,0.008028353098943342,-0.034863970697074365,0.0,70.0,255.0,255.0,255.0
515,25.75,-15.548994173883386,-9.676797760975868,-20.577497610655946,-0.5599605648347961,0.26578298537803136,-1.4335750607281739,-0.012215557792671916,0.008268677530054447,-0.034920270374172446,0.0,70.0,255.0,255.0,255.0
516,25.8,-15.577007196990573,-9.663498196992252,-20.64921992564226,-0.560576750094981,0.2661996398794031,-1.4353257948947373,-0.012784599047321876,0.008277900887954104,-0.03522974668364043,0.0,70.0,255.0,255.0,255.0
517,25.85,-15.605051848892884,-9.650177796987927,-20.72103019014542,-0.5612390247395282,0.26661077546682677,-1.437098035396538,-0.013876042902616348,0.008061875501574889,-0.03572649345429113,0.0,70.0,255.0,255.0,255.0
518,25.900000000000002,-15.633131099464526,-9.63683711944557,-20.792929729181914,-0.5619643543852426,0.2670058274295606,-1.4388984442401664,-0.015124086682583027,0.007654334833873122,-0.03628885872934973,0.0,70.0,255.0,255.0,255.0
519,25.950000000000003,-15.661248284331409,-9.623477214244971,-20.864920034569437,-0.5627514334077865,0.2673762089502141,-1.4407269212694729,-0.016168828313034567,0.007100433400886175,-0.03678150792971735,0.0,70.0,255.0,255.0,255.0
520,26.0,-15.689406242805305,-9.610099498550548,-20.93700242130886,-0.5635812372165461,0.2677158707696492,-1.4425765950331382,-0.016667106713086355,0.006436868475034885,-0.03708207979080669,0.0,70.0,255.0,255.0,255.0
521,26.05,-15.717606408053063,-9.596705627168006,-21.00917769407275,-0.5644181440790952,0.26801989579771757,-1.4444351292485536,-0.016444015804495393,0.005699662113123338,-0.03712478077737558,0.0,70.0,255.0,255.0,255.0
522,26.1,-15.745848057213214,-9.583297508970777,-21.081445934233717,-0.5652256387969956,0.26828583698096153,-1.4462890731108757,-0.015628224803876378,0.0049806166543930885,-0.03691772789835568,0.0,70.0,255.0,255.0,255.0
523,26.150000000000002,-15.774128971932763,-9.56987704346991,-21.153806601383838,-0.5659809665594828,0.2685179574631569,-1.4481269020383891,-0.01449834188527177,0.004421494973883,-0.03650275818785076,0.0,70.0,255.0,255.0,255.0
524,26.200000000000003,-15.802446153869163,-9.556445713224461,-21.226258624437556,-0.5666754729855228,0.26872798647834983,-1.4499393489296608,-0.013341910680608748,0.004162174367827731,-0.035929997581973794,0.0,70.0,255.0,255.0,255.0
525,26.25,-15.830796519231315,-9.543004244822075,-21.298800536276804,-0.5673151576275437,0.26893417489993965,-1.4517199017965865,-0.012440024678994632,0.00433182059644821,-0.03523942910881317,0.0,70.0,255.0,255.0,255.0
526,26.3,-15.859177669631917,-9.529552295734467,-21.371430614617214,-0.5679194754534223,0.26916116853799466,-1.4534632918405421,-0.011951598810000519,0.0049782758356542445,-0.03447010456554267,0.0,70.0,255.0,255.0,255.0
527,26.35,-15.887588466776657,-9.516088127968276,-21.44414686546086,-0.5685103175085437,0.2694320024835051,-1.4551669122531408,-0.011843785155107867,0.0059703431979585275,-0.03372073015306398,0.0,70.0,255.0,255.0,255.0
528,26.400000000000002,-15.916028701382771,-9.502609095486116,-21.51694730584253,-0.569103853968933,0.2697582028577905,-1.4568353648558485,-0.012011496824015921,0.007062482472264264,-0.033143651644351735,0.0,70.0,255.0,255.0,255.0
529,26.450000000000003,-15.94449885217355,-9.489112307682497,-21.589830401946443,-0.5697114671909453,0.2701382507307315,-1.458481277417576,-0.012349216609841562,0.00799240758766473,-0.032890762812698426,0.0,70.0,255.0,255.0,255.0
530,26.5,-15.972999848101866,-9.475595270413043,-21.662795433584286,-0.5703387756299172,0.270557443616557,-1.4601244411371184,-0.012736803894597415,0.0085038211679489,-0.03310817580057801,0.0,70.0,255.0,255.0,255.0
531,26.55,-16.001532729736542,-9.462056563320841,-21.735842846060155,-0.5709851475804051,0.2709886328475264,-1.4617920949976337,-0.013097840704112684,0.008467234544617952,-0.033849626135307176,0.0,70.0,255.0,255.0,255.0
532,26.6,-16.030098362859906,-9.44849640712829,-21.80897464308405,-0.5716485597003285,0.2714041670710188,-1.463509403750649,-0.013436727815907545,0.007986122441927535,-0.03495403680489062,0.0,70.0,255.0,255.0,255.0
533,26.650000000000002,-16.058697585706575,-9.43491614661374,-21.88219378643522,-0.5723288203619958,0.27178724509171914,-1.4652874986781228,-0.0137730600972219,0.0072804632495149235,-0.036125432438538496,0.0,70.0,255.0,255.0,255.0
534,26.700000000000003,-16.087331244896106,-9.421317682619119,-21.95550339295186,-0.5730258657100507,0.27213221339597027,-1.467121946994503,-0.01410933476861942,0.006581481995127092,-0.03705520291568121,0.0,70.0,255.0,255.0,255.0
535,26.75,-16.11600017227758,-9.407702925274142,-22.02890598113467,-0.5737397538388578,0.27244539329123185,-1.468993018969691,-0.014464694472238193,0.006132894730903615,-0.037447867689266445,0.0,70.0,255.0,255.0,255.0
