idx,t,px,py,pz,vx,vy,vz,ax,ay,az,yaw,mode,ledr,ledg,ledb
0,0.0,-4.500000000000002,-13.500000000000007,2.6151940385618946e-18,0.00010651429898089759,7.515373095401401e-05,0.0010416770980660349,-0.010576761993164041,0.005365641793630971,-0.03921118065377363,0.0,70.0,255.0,255.0,255.0
1,0.05,-4.499994674285053,-13.49999624231346,5.208385490330437e-05,-0.00042232380067730446,0.00034343582063556255,-0.0009188819346226469,-0.01584304774064904,0.00817775746622118,-0.05881537339893873,0.0,70.0,255.0,255.0,255.0
2,0.1,-4.5000422323800695,-13.499965656417944,-9.188819346226208e-05,-0.0014777904750840065,0.0008929294775761321,-0.004839860241827839,-0.021065142989851182,0.011248462690360839,-0.07841677098066044,0.0,70.0,255.0,255.0,255.0
3,0.15000000000000002,-4.500142453332561,-13.499906949365702,-0.00043190216927947955,-0.0025288380996624227,0.0014682820896716464,-0.008760559032688691,-0.020976761994173643,0.011765641790617565,-0.0784111806537778,0.0,70.0,255.0,255.0,255.0
4,0.2,-4.500295116190036,-13.499818828208976,-0.0009679440967311312,-0.003575466674501371,0.0020694936566378885,-0.01268097830720562,-0.020886526850816267,0.01228695751862574,-0.078405473047307,0.0,70.0,255.0,255.0,255.0
5,0.25,-4.500500000000011,-13.499700000000038,-0.0017000000000000415,-0.004617490784744049,0.0026969778415342205,-0.016601106337419392,-0.020785630361608298,0.012832058843414984,-0.07839909108321397,0.0,70.0,255.0,255.0,255.0
6,0.30000000000000004,-4.50075686526851,-13.499549130424823,-0.0026280547304730704,-0.005654029710662201,0.003352699540979387,-0.020520887415527017,-0.020671239805736263,0.013407265596043771,-0.07839185558436937,0.0,70.0,255.0,255.0,255.0
7,0.35000000000000003,-4.5010654029710775,-13.49936473004594,-0.003752088741552743,-0.006684614765317676,0.004037704401138598,-0.02444029189585633,-0.02056751059491546,0.01395868675526657,-0.0783852944431428,0.0,70.0,255.0,255.0,255.0
8,0.4,-4.501425326745042,-13.499145359984709,-0.0050720839200587035,-0.007710780770153747,0.004748568216506044,-0.028359416859841297,-0.0205130192814984,0.014400257554392226,-0.07838184772644918,0.0,70.0,255.0,255.0,255.0
9,0.45,-4.501836481048093,-13.49888987322429,-0.006588030427536873,-0.008735916693467516,0.00547773015657782,-0.03227847666850125,-0.02053937161239361,0.014659914322834311,-0.07838393921238254,0.0,70.0,255.0,255.0,255.0
10,0.5,-4.502298918414389,-13.498597586969051,-0.008299931586908829,-0.009764717931393108,0.006214559648789475,-0.03619781078107955,-0.02066844973258597,0.014681471174071703,-0.07839497000890858,0.0,70.0,255.0,255.0,255.0
11,0.55,-4.502812952841232,-13.49826841725941,-0.010207811505644829,-0.010802761666726113,0.0069458772739849906,-0.040117973669392105,-0.02090750861860613,0.014446372807341845,-0.07841604775655292,0.0,70.0,255.0,255.0,255.0
12,0.6000000000000001,-4.503379194581061,-13.497902999241653,-0.01231172895384804,-0.01185546879325372,0.0076591969295236595,-0.044039415556734844,-0.021241205339084246,0.014009053657559889,-0.07844066995387845,0.0,70.0,255.0,255.0,255.0
13,0.65,-4.5039984997205575,-13.497502497566458,-0.014611753061318313,-0.012926882200634537,0.00834678263974098,-0.04796204066477995,-0.021636365870492114,0.013475791736894394,-0.0784579035373472,0.0,70.0,255.0,255.0,255.0
14,0.7000000000000001,-4.504671882801125,-13.497068320977679,-0.017107933020326035,-0.014019105380302932,0.009006776103213099,-0.051885205910469565,-0.022056120325064654,0.012969159320874724,-0.07845621601442997,0.0,70.0,255.0,255.0,255.0
15,0.75,-4.505400410258588,-13.496601819956137,-0.01980027365236527,-0.015132494233141003,0.009643698571828452,-0.05580766226622295,-0.02248219174543209,0.012614161922286371,-0.07842011996436644,0.0,70.0,255.0,255.0,255.0
16,0.8,-4.506185132224439,-13.496103951120496,-0.02268869924694833,-0.01626732455484614,0.010268192295441736,-0.05972721790690621,-0.022896871572264388,0.012477580267855615,-0.07834383610983077,0.0,70.0,255.0,255.0,255.0
17,0.8500000000000001,-4.5070271427140725,-13.495575000726593,-0.02577299544305589,-0.01742218139036744,0.010891456598614013,-0.06364204587720602,-0.023230372011351363,0.01252146225247941,-0.07825202574134431,0.0,70.0,255.0,255.0,255.0
18,0.9,-4.507927350363476,-13.495014805460634,-0.029052903834668933,-0.018590361755981277,0.011520338520689677,-0.06755242048104064,-0.0233788132733892,0.012661051023954428,-0.0781865381241642,0.0,70.0,255.0,255.0,255.0
19,0.9500000000000001,-4.508886178889671,-13.494422966874524,-0.032528237491159954,-0.01976006271770636,0.012157561701009456,-0.07146069968962245,-0.02324957366086622,0.012809648857370348,-0.07819119672990218,0.0,70.0,255.0,255.0,255.0
20,1.0,-4.509903356635246,-13.493799049290534,-0.03619897380363118,-0.0209153191220679,0.012801303406426712,-0.07537154015403086,-0.022750848553787506,0.012869899784284655,-0.07832455013362494,0.0,70.0,255.0,255.0,255.0
21,1.05,-4.510977710801877,-13.493142836533881,-0.04006539150656304,-0.022035147573085112,0.013444551679437922,-0.07929315470298494,-0.02185689320404194,0.012790532230155804,-0.07860860780412246,0.0,70.0,255.0,255.0,255.0
22,1.1,-4.512106871392555,-13.49245459412259,-0.04412828927392967,-0.023101008442472093,0.014080356629442292,-0.0832324009344431,-0.02071991733849643,0.012626029734263966,-0.07895122708074867,0.0,70.0,255.0,255.0,255.0
23,1.1500000000000001,-4.513287811646125,-13.491734800870937,-0.04838863160000735,-0.024107139306934755,0.014707154652864318,-0.0871882774110598,-0.01960828779559165,0.012478232605417361,-0.07919594396599908,0.0,70.0,255.0,255.0,255.0
24,1.2000000000000002,-4.514517585323248,-13.490983878657303,-0.05284711701503565,-0.025061837222031258,0.015328179889984028,-0.09115199533104301,-0.018797333282716266,0.01243933149552845,-0.07919242363938692,0.0,70.0,255.0,255.0,255.0
25,1.25,-4.515793995368328,-13.490201982881938,-0.05750383113311165,-0.02598687263520638,0.015951087802417163,-0.0951075197749985,-0.01855040471578917,0.0126021829963463,-0.07878573544518874,0.0,70.0,255.0,255.0,255.0
26,1.3,-4.517116272586769,-13.489388769877062,-0.0623578689925355,-0.026916877693610175,0.01658839818961866,-0.09903056887556189,-0.0189898679662015,0.013007377059892633,-0.0779141336060829,0.0,70.0,255.0,255.0,255.0
27,1.35,-4.518485683137689,-13.488543143062977,-0.06740688802066784,-0.027885859431826532,0.017251825508406426,-0.10289893313560679,-0.019961007585678203,0.013572647248238923,-0.0767466090592056,0.0,70.0,255.0,255.0,255.0
28,1.4000000000000001,-4.5199048585299515,-13.487663587326221,-0.07264776230609618,-0.028912978452177995,0.01794566291444255,-0.10670522978148245,-0.02115530827131451,0.014146950954874171,-0.07558782120997629,0.0,70.0,255.0,255.0,255.0
29,1.4500000000000002,-4.5213769809829065,-13.486748576771532,-0.07807741099881609,-0.030001390258957983,0.018666520603893844,-0.11045771525660442,-0.022248832136195773,0.01458025126872542,-0.07474465649809636,0.0,70.0,255.0,255.0,255.0
30,1.5,-4.522904997555847,-13.485796935265832,-0.08369353383175662,-0.031137861665797573,0.019403688041315093,-0.11417969543129208,-0.02292352325934388,0.014729386877476713,-0.07451647078957624,0.0,70.0,255.0,255.0,255.0
31,1.55,-4.524490767149486,-13.4848082079674,-0.0894953805419453,-0.03229374258489237,0.020139459291641515,-0.11790936233556204,-0.023010861037953134,0.01452615999593121,-0.07504245683915417,0.0,70.0,255.0,255.0,255.0
32,1.6,-4.5261343718143365,-13.483782989336667,-0.09548447006531283,-0.033438947769592886,0.020856304040908213,-0.1216839411152075,-0.022605096607719588,0.014047856797461122,-0.07613338563348948,0.0,70.0,255.0,255.0,255.0
33,1.6500000000000001,-4.527834661926446,-13.48272257756331,-0.10166377465346604,-0.03455425224566433,0.021544244971387627,-0.125522700898911,-0.021920595669744358,0.013450327211650404,-0.07742004392136126,0.0,70.0,255.0,255.0,255.0
34,1.7000000000000002,-4.529589797038903,-13.481628564839529,-0.10803674015520393,-0.03563100733656732,0.022201336762073254,-0.12942594550734363,-0.02117442441926798,0.012899150609690935,-0.07852340258266977,0.0,70.0,255.0,255.0,255.0
35,1.75,-4.531397762660102,-13.480502443887103,-0.1146063692042004,-0.03667169468759113,0.02283416003235672,-0.13337504115717796,-0.02058347427471574,0.01256828814071298,-0.07907640004451988,0.0,70.0,255.0,255.0,255.0
36,1.8,-4.533256966507662,-13.479345148836293,-0.12137424427092172,-0.037689354764038896,0.023458165576144552,-0.13733358551179561,-0.02027223566791747,0.012547470135437777,-0.07888946561073751,0.0,70.0,255.0,255.0,255.0
37,1.85,-4.535166698136506,-13.478156627329488,-0.12833972775537997,-0.038698918254382875,0.0240889070459005,-0.14126398771825172,-0.02021403721848003,0.012752289198481037,-0.07809066425767258,0.0,70.0,255.0,255.0,255.0
38,1.9000000000000001,-4.5371268583331,-13.476936258131703,-0.1355006430427469,-0.0397107584858869,0.024733394495992655,-0.14514265193756287,-0.020328556135762454,0.01301621572338263,-0.07696118725376566,0.0,70.0,255.0,255.0,255.0
39,1.9500000000000002,-4.539137773985095,-13.475683287879889,-0.14285399294913625,-0.04073177386795912,0.02539052861823876,-0.14896010644362828,-0.020545871118926584,0.013176060045694271,-0.07578830659778213,0.0,70.0,255.0,255.0,255.0
40,2.0,-4.541200035719896,-13.474397205269879,-0.15039665368710972,-0.04176534559777956,0.026051000500562083,-0.15272148259734108,-0.020802626262028667,0.013057507179681238,-0.07484991038433086,0.0,70.0,255.0,255.0,255.0
41,2.0500000000000003,-4.543314308544873,-13.473078187829833,-0.15812614120887036,-0.04281203649416199,0.026696279336206885,-0.15644509748206137,-0.021054135684828168,0.01257738603701597,-0.07430522850345456,0.0,70.0,255.0,255.0,255.0
42,2.1,-4.5454812393693125,-13.471727577336258,-0.16604116343531586,-0.043870759166262374,0.02730873910426368,-0.16015200544768654,-0.021259686919172793,0.011865690369639026,-0.07413668460854728,0.0,70.0,255.0,255.0,255.0
43,2.15,-4.547701384461499,-13.470347313919406,-0.17414134175363902,-0.044938005186079266,0.027882848373170788,-0.1638587659429161,-0.021363408225383296,0.011162105931106225,-0.07426415811254139,0.0,70.0,255.0,255.0,255.0
44,2.2,-4.54997503988792,-13.468939292498941,-0.18242704002960747,-0.046007099988800704,0.028424949697374302,-0.16757842125894068,-0.021302603925388297,0.010696469349191773,-0.07460905867186507,0.0,70.0,255.0,255.0,255.0
45,2.25,-4.552302094460379,-13.467504818949669,-0.19089918387953309,-0.047068265578618096,0.028952495308089965,-0.1713196718101026,-0.0210060206772944,0.010689608548197782,-0.07508796774214899,0.0,70.0,255.0,255.0,255.0
46,2.3000000000000003,-4.554681866445782,-13.466044042968132,-0.19955900721061773,-0.048107702056530144,0.02949391055219408,-0.17508721803315558,-0.020450708772390414,0.011243871497335078,-0.07563787212370998,0.0,70.0,255.0,255.0,255.0
47,2.35,-4.557112864666032,-13.46455542789445,-0.20840790568284864,-0.04911333645585714,0.030076882457823473,-0.1788834590224736,-0.019748986666634494,0.012218702235955448,-0.0762026905482327,0.0,70.0,255.0,255.0,255.0
48,2.4000000000000004,-4.559593200091368,-13.46303635472235,-0.2174473531128651,-0.05008260072319359,0.030715780775789625,-0.18270748708797885,-0.019096878561786212,0.013339929317268684,-0.07669956957347956,0.0,70.0,255.0,255.0,255.0
49,2.45,-4.5621211247383515,-13.46148384981687,-0.22667865439164653,-0.05102302431203576,0.03141087538955034,-0.18655341597982156,-0.018689773785673935,0.014325801485881584,-0.07703028388957034,0.0,70.0,255.0,255.0,255.0
50,2.5,-4.5646955025225715,-13.459895267183395,-0.23610269471084724,-0.05195157810176099,0.032148360924377783,-0.19041051547693588,-0.01871324440916311,0.014904058625830885,-0.07710218135102698,0.0,70.0,255.0,255.0,255.0
51,2.5500000000000003,-4.567316282548528,-13.458269013724433,-0.24571970593934012,-0.05289434875295207,0.03290128125213343,-0.19426363411492426,-0.01925062829313262,0.014933841261743908,-0.07687605689452037,0.0,70.0,255.0,255.0,255.0
52,2.6,-4.569984937397867,-13.456605139058182,-0.25552905812233967,-0.05387664093107425,0.033641745050552174,-0.19809812116638792,-0.02017811932786273,0.014507612575442863,-0.07641702872297762,0.0,70.0,255.0,255.0,255.0
53,2.6500000000000004,-4.572703946641635,-13.454904839219378,-0.2655295180559789,-0.05491216068573834,0.034352042509677716,-0.20190533698722202,-0.021253646291707895,0.01383006491035843,-0.07585392722989082,0.0,70.0,255.0,255.0,255.0
54,2.7,-4.5754761534664405,-13.453169934807214,-0.27571959182106187,-0.05600200556024504,0.03502475154158802,-0.205683513889377,-0.02222603985915228,0.013113611420401128,-0.07532929294936652,0.0,70.0,255.0,255.0,255.0
55,2.75,-4.5783041471976595,-13.451402364065219,-0.2860978694449166,-0.05713476467165357,0.03566340365171783,-0.20943826628215867,-0.0228610016858255,0.012574156949618498,-0.0749913255017276,0.0,70.0,255.0,255.0,255.0
56,2.8000000000000003,-4.581189629933606,-13.449603594442042,-0.29666341844927774,-0.05828810572882759,0.03628216723654987,-0.21318264643954976,-0.02303349134189503,0.012333024528565772,-0.07491738747770205,0.0,70.0,255.0,255.0,255.0
57,2.85,-4.584132957770542,-13.447774147341564,-0.3074161340888716,-0.059438113805843074,0.036896706104574406,-0.21693000502992887,-0.022786647911132718,0.012346278696995228,-0.07504555819623504,0.0,70.0,255.0,255.0,255.0
58,2.9000000000000004,-4.58713344131419,-13.445913923831585,-0.3183564189522706,-0.06056677051994086,0.03751679510624939,-0.22068720225917327,-0.022240424383834778,0.012506058127037534,-0.07524919703144617,0.0,70.0,255.0,255.0,255.0
59,2.95,-4.590189634822536,-13.444022467830939,-0.3294848543147889,-0.06166215624422655,0.03814731191727816,-0.2244549247330735,-0.021526066776100805,0.012712153764837808,-0.07540545806593024,0.0,70.0,255.0,255.0,255.0
60,3.0,-4.593299656938613,-13.442099192639857,-0.340801911425578,-0.06271937719755094,0.03878801048273317,-0.2282277480657663,-0.020774776818832663,0.01285936019588263,-0.07539256326203336,0.0,70.0,255.0,255.0,255.0
61,3.0500000000000003,-4.5964615725422915,-13.440143666782665,-0.35230762912136554,-0.06373963392610982,0.03943324793686642,-0.23199418105927683,-0.020073867878878104,0.01288800001812973,-0.07514781976803997,0.0,70.0,255.0,255.0,255.0
62,3.1,-4.599673620331224,-13.43815586784617,-0.36400132953150566,-0.06472676398543875,0.040076810484546144,-0.2357425300425703,-0.019472491825656135,0.012828205037251905,-0.0747234424548493,0.0,70.0,255.0,255.0,255.0
63,3.1500000000000004,-4.602934248940835,-13.43613598573421,-0.37588188212562257,-0.06568688310867543,0.04071606844059161,-0.23946652530476176,-0.01902997085867497,0.012743931019620902,-0.07422658068166332,0.0,70.0,255.0,255.0,255.0
64,3.2,-4.606242308642091,-13.434084261002111,-0.38794798206198183,-0.06662976107130625,0.041351203586508234,-0.24316518811073662,-0.01881486786068365,0.012691573054368632,-0.07376216150020709,0.0,70.0,255.0,255.0,255.0
65,3.25,-4.609597225047966,-13.43200086537556,-0.40019840093669623,-0.0675683698947438,0.041985225746028476,-0.24684274145478247,-0.01889191901014442,0.012736374294597397,-0.07343040280209379,0.0,70.0,255.0,255.0,255.0
66,3.3000000000000003,-4.612999145631566,-13.429885738427508,-0.4126322562074601,-0.06851895297232069,0.042624841015967974,-0.250508228390946,-0.01927877607110773,0.012908262112176772,-0.07328462016339965,0.0,70.0,255.0,255.0,255.0
67,3.35,-4.616449120345198,-13.427738381273963,-0.42524922377579083,-0.06949624750185457,0.04327605195724615,-0.25417120347112243,-0.01987984166289536,0.013140901153541051,-0.07329796802164612,0.0,70.0,255.0,255.0,255.0
68,3.4000000000000004,-4.619948770381751,-13.425558133231783,-0.4380493765545723,-0.07050693713861023,0.04393893113132208,-0.2578380251931106,-0.020521556983243983,0.013318217795088572,-0.07340718420462133,0.0,70.0,255.0,255.0,255.0
69,3.45,-4.623499814059059,-13.423344488160831,-0.4510330262951019,-0.07154840320017897,0.04460787373675501,-0.26151192189158456,-0.02101548742183823,0.013328267305645625,-0.0735458959332913,0.0,70.0,255.0,255.0,255.0
70,3.5,-4.627103610701769,-13.421097345858108,-0.4642005687437308,-0.07260848588079405,0.04527175786188664,-0.26519261478643974,-0.0211695284921376,0.013047170597602076,-0.07364181620558297,0.0,70.0,255.0,255.0,255.0
71,3.5500000000000003,-4.6307606626471385,-13.418817312374642,-0.47755228777374586,-0.07366535604939273,0.04591259079651522,-0.26887610351214286,-0.02089102783688901,0.012425151998307626,-0.07365421239885483,0.0,70.0,255.0,255.0,255.0
72,3.6,-4.634470146306708,-13.416506086778456,-0.49108817909494507,-0.07469758866448295,0.046514273061717404,-0.2725580360263252,-0.020293549448080483,0.011609961909719857,-0.07360561785947906,0.0,70.0,255.0,255.0,255.0
73,3.6500000000000004,-4.638230421513587,-13.41416588506847,-0.5048080913763784,-0.07569471099420078,0.047073586987487204,-0.27623666529809077,-0.01959839328309343,0.010862265399858018,-0.07354291093810139,0.0,70.0,255.0,255.0,255.0
74,3.7,-4.6420396174061285,-13.411798728079708,-0.5187118456247541,-0.07665742799279229,0.047600499601703206,-0.27991232712013536,-0.019029755878730015,0.010441418328177576,-0.07350805430047513,0.0,70.0,255.0,255.0,255.0
75,3.75,-4.645896164312866,-13.4094058351083,-0.5327993240883919,-0.07759768658207378,0.04811772882030496,-0.2835874707281383,-0.018813929724892375,0.010614896695493314,-0.07355030440353572,0.0,70.0,255.0,255.0,255.0
76,3.8000000000000003,-4.649799386064336,-13.406986955197677,-0.547070592697568,-0.07853882096528153,0.04866198927125254,-0.28726735756048893,-0.019063686008369274,0.011498728963843519,-0.07369181695445759,0.0,70.0,255.0,255.0,255.0
77,3.85,-4.653750046409394,-13.404539636181175,-0.5615260598444408,-0.0795040551829107,0.04926760171668931,-0.29095665242358404,-0.019660552619704674,0.012853004120572109,-0.073879560540413,0.0,70.0,255.0,255.0,255.0
78,3.9000000000000004,-4.657749791582627,-13.402060195026008,-0.5761662579399264,-0.080504876227252,0.04994728968330975,-0.29465531361453023,-0.02037027780907863,0.014237289369134487,-0.07402117204291514,0.0,70.0,255.0,255.0,255.0
79,3.95,-4.661800534032119,-13.399544907212844,-0.5909915912058938,-0.08154108296381857,0.05069133065360276,-0.29835876962787555,-0.020958915636448694,0.015207224881663706,-0.07402860015152113,0.0,70.0,255.0,255.0,255.0
80,4.0,-4.665903899879009,-13.396991061960648,-0.6060021349027139,-0.08260076779089687,0.05146801217147612,-0.30205817362968235,-0.021190789904679264,0.015317298565697968,-0.07380899415234676,0.0,70.0,255.0,255.0,255.0
81,4.05,-4.670060610811209,-13.394398105995696,-0.6211974085688621,-0.0836601619542865,0.05222306051017256,-0.30573966904311023,-0.020947654703373786,0.014359046366863026,-0.07332472024953463,0.0,70.0,255.0,255.0,255.0
82,4.1000000000000005,-4.674269916074437,-13.39176875590963,-0.636576101807025,-0.08469553326123425,0.05290391680816242,-0.3093906456546358,-0.020349647998774145,0.0126296766184808,-0.07267791154063064,0.0,70.0,255.0,255.0,255.0
83,4.15,-4.6785301641373325,-13.38910771431488,-0.6521364731343257,-0.08569512675416391,0.05348602817202064,-0.3130074601971733,-0.01963508755462584,0.010698600432945682,-0.07205146848929811,0.0,70.0,255.0,255.0,255.0
84,4.2,-4.682839428749854,-13.386420153092429,-0.6678768478267423,-0.08665904201669683,0.05397377685145699,-0.3165957925035656,-0.019041155001353616,0.009141803356982336,-0.07163031898620442,0.0,70.0,255.0,255.0,255.0
85,4.25,-4.687196068339002,-13.383710336629735,-0.6837960523846822,-0.08759924225429927,0.05440020850771887,-0.32017049209579374,-0.018806873360688314,0.008527843774430721,-0.07160570033906133,0.0,70.0,255.0,255.0,255.0
86,4.3,-4.691599352975284,-13.380980132241657,-0.6998938970363217,-0.08853972935276566,0.05482656122890006,-0.32375636253747175,-0.019052268604990985,0.009138745243753021,-0.0720631015812323,0.0,70.0,255.0,255.0,255.0
87,4.3500000000000005,-4.696050041274279,-13.378227680506845,-0.7161716886384294,-0.08950446911479837,0.055314083032094175,-0.32737680225391697,-0.019655447460031894,0.010692998029782075,-0.07284431777259126,0.0,70.0,255.0,255.0,255.0
88,4.4,-4.700549799886764,-13.375448723938447,-0.7326315772617134,-0.09050527409876885,0.05589586103187827,-0.3310407943147309,-0.020374779898002515,0.012622761112801584,-0.07365659036352445,0.0,70.0,255.0,255.0,255.0
89,4.45,-4.705100568684156,-13.372638094403657,-0.7492757680699025,-0.09154194710459862,0.05657635914337433,-0.3347424612902694,-0.020969890931699098,0.014352927657768078,-0.07420406329760043,0.0,70.0,255.0,255.0,255.0
90,4.5,-4.709703994597223,-13.36979108802411,-0.7661058233907403,-0.09260226319193876,0.05733115379765508,-0.3384612006444909,-0.021197753948598574,0.015315382280256529,-0.07418424178745608,0.0,70.0,255.0,255.0,255.0
91,4.55,-4.7143607950033495,-13.366904979023891,-0.7831218881343516,-0.09366172249945848,0.058107897371399986,-0.342160885469015,-0.02093669744978044,0.015213338625663653,-0.0734557871784336,0.0,70.0,255.0,255.0,255.0
92,4.6000000000000005,-4.719070166847169,-13.36398029828697,-0.8003219119376418,-0.0946959329369168,0.05885248766022144,-0.3458067793623343,-0.020313970086327515,0.01425278347806369,-0.07223199685617576,0.0,70.0,255.0,255.0,255.0
93,4.65,-4.723830388297041,-13.361019730257869,-0.817702566070585,-0.09569311950809123,0.059533175719206355,-0.3493840851546326,-0.019580384927841976,0.01287506374012537,-0.0709158297303003,0.0,70.0,255.0,255.0,255.0
94,4.7,-4.728639478797978,-13.35802698071505,-0.835260320453105,-0.096653971429701,0.06013999403423398,-0.3528983623353643,-0.01898585469888303,0.0115201456845071,-0.06991277514272198,0.0,70.0,255.0,255.0,255.0
95,4.75,-4.733495785440011,-13.355005730854446,-0.8529924023041214,-0.09759170497797953,0.060685190287657065,-0.3563753626689048,-0.018786073549037496,0.010622561836193256,-0.06963327656706042,0.0,70.0,255.0,255.0,255.0
96,4.800000000000001,-4.738398649295776,-13.351958461686284,-0.8708978567199955,-0.09853257878460475,0.061202250217853305,-0.35986168999207035,-0.019107515021854482,0.010420021465051832,-0.07027412266544797,0.0,70.0,255.0,255.0,255.0
97,4.8500000000000005,-4.743349043318472,-13.34888550583266,-0.8889785713033285,-0.09950245648016498,0.06172719243416225,-0.3634027749354496,-0.01980326426931356,0.010805891368725895,-0.07157781135280761,0.0,70.0,255.0,255.0,255.0
98,4.9,-4.748348894943793,-13.345785742442867,-0.9072381342135405,-0.10051290521153611,0.062282839354725894,-0.3670194711273511,-0.02058908831656936,0.011528638938607116,-0.07304913500428833,0.0,70.0,255.0,255.0,255.0
99,4.95,-4.753400333839625,-13.342657221897188,-0.9256805184160636,-0.10156136531182192,0.06288005632802296,-0.3707076884358784,-0.021186830132613466,0.012345603824215345,-0.07419220209896604,0.0,70.0,255.0,255.0,255.0
100,5.0,-4.758505031474975,-13.339497736810065,-0.9443089030571283,-0.10263158822479745,0.06351739973714743,-0.3744386913372477,-0.021326017122991203,0.013018426320066112,-0.0745147265363677,0.0,70.0,255.0,255.0,255.0
101,5.050000000000001,-4.763663492662105,-13.336305481923473,-0.9631243875497884,-0.10369396702412104,0.06418189896002957,-0.3781591610895152,-0.020872869502319702,0.013407741012372298,-0.07377406248602059,0.0,70.0,255.0,255.0,255.0
102,5.1000000000000005,-4.768874428177387,-13.333079546914062,-0.9821248191660799,-0.10471887517502942,0.06485817383838466,-0.3818160975858498,-0.019960152323594826,0.01352821981104313,-0.07222934514519164,0.0,70.0,255.0,255.0,255.0
103,5.15,-4.774135380179608,-13.329819664539635,-1.0013059973083733,-0.10568998225648052,0.06553472094113388,-0.38538209560403436,-0.01885692147984841,0.013444133421103288,-0.0703958820007955,0.0,70.0,255.0,255.0,255.0
104,5.2,-4.779443426403035,-13.326526074819949,-1.0206630287264833,-0.10660456732301427,0.06620258718049499,-0.38885568578592933,-0.017832885376556362,0.013211751374342384,-0.06879105049411027,0.0,70.0,255.0,255.0,255.0
105,5.25,-4.7847958369119095,-13.323199405821585,-1.0401915658869663,-0.10747327079413616,0.06685589607856812,-0.3922612006534454,-0.017137829987312614,0.012895714235128253,-0.06791975201940748,0.0,70.0,255.0,255.0,255.0
106,5.300000000000001,-4.790190753482449,-13.319840485212092,-1.0598891487918278,-0.10831835032174553,0.06749215860400781,-0.3956476609878701,-0.01690758039556428,0.012541275555300047,-0.06804277424361516,0.0,70.0,255.0,255.0,255.0
107,5.3500000000000005,-4.795627671944084,-13.316450189961184,-1.0797563319857533,-0.10916402883369258,0.06811002363409813,-0.3990654780778069,-0.017108014547240202,0.012162068548526861,-0.06897128825293919,0.0,70.0,255.0,255.0,255.0
108,5.4,-4.801107156365818,-13.313029482848682,-1.0997956965996085,-0.11002915177646955,0.0687083654588605,-0.402544789813164,-0.01763133765226854,0.011775666538582641,-0.07030085680594933,0.0,70.0,255.0,255.0,255.0
109,5.45,-4.806630587121731,-13.309579353415298,-1.1200108109670697,-0.11092716259891944,0.06928759028795639,-0.40609556375840183,-0.018361628362129068,0.0114130783240185,-0.07162373578470937,0.0,70.0,255.0,255.0,255.0
110,5.5,-4.81219987262571,-13.306100723819887,-1.1404052529754487,-0.11186531461268245,0.06984967329126235,-0.40970716339163493,-0.01919063495590123,0.011094754035134713,-0.07254230268205486,0.0,70.0,255.0,255.0,255.0
111,5.550000000000001,-4.817817118582999,-13.302594386086172,-1.1609815273062332,-0.11284622609450956,0.07039706569146986,-0.4133497940266073,-0.020038347376249988,0.010833870052451289,-0.07283600604077733,0.0,70.0,255.0,255.0,255.0
112,5.6000000000000005,-4.823484495235161,-13.29906101725074,-1.1817402323781094,-0.11386914935030745,0.07093306029650748,-0.41699076399571267,-0.020810586689812283,0.010660802033690686,-0.07257547853312118,0.0,70.0,255.0,255.0,255.0
113,5.65,-4.82920403351803,-13.295501080056521,-1.2026806037058044,-0.11492728476349079,0.07146314589483893,-0.42060734187991944,-0.021372413226394826,0.010615904387911712,-0.07194903576368539,0.0,70.0,255.0,255.0,255.0
114,5.7,-4.83497722371151,-13.291914702661256,-1.2238009665661014,-0.11600639067294694,0.07199465073529865,-0.4241856675720812,-0.02158213963694422,0.010729222041838682,-0.07114160543453263,0.0,70.0,255.0,255.0,255.0
115,5.75,-4.840804672585325,-13.288301614982991,-1.2450991704630126,-0.11708549872718521,0.0725360680990228,-0.4277215024233727,-0.021299630188753582,0.011029232328496619,-0.07033900928024028,0.0,70.0,255.0,255.0,255.0
116,5.800000000000001,-4.846685773584229,-13.284661095851353,-1.2665731168084386,-0.1181363536918223,0.07309757396814831,-0.43121956850010523,-0.020477491638093426,0.011517556589346611,-0.06965823655844527,0.0,70.0,255.0,255.0,255.0
117,5.8500000000000005,-4.852618307954507,-13.280991857586177,-1.288221127313023,-0.11913324789099455,0.07368782375795746,-0.43468732607921723,-0.01929495337860132,0.012113884155340315,-0.06912400041187983,0.0,70.0,255.0,255.0,255.0
118,5.9,-4.858599098373328,-13.277292313475558,-1.3100418494163604,-0.12006584902968243,0.07430896238368234,-0.4381319685412932,-0.018076212238682388,0.012679876749821517,-0.06874831482455157,0.0,70.0,255.0,255.0,255.0
119,5.95,-4.864624892857475,-13.273560961347808,-1.3320343241671524,-0.12094086911486279,0.07495581143293961,-0.4415621575616724,-0.0171615613425935,0.013071059149716291,-0.06855501730222979,0.0,70.0,255.0,255.0,255.0
120,6.0,-4.870693185284814,-13.269796732332264,-1.3541980651725276,-0.12178200516394178,0.07561606829865397,-0.4449874702715162,-0.016890844289463303,0.013144307327017657,-0.06855368816900409,0.0,70.0,255.0,255.0,255.0
121,6.050000000000001,-4.876803093373869,-13.265999354517943,-1.376533071194304,-0.12262995354380912,0.07627024216564138,-0.4484175263785728,-0.01742548560477175,0.012835390769438959,-0.06873878665334399,0.0,70.0,255.0,255.0,255.0
122,6.1000000000000005,-4.882956180639195,-13.2621697081157,-1.399039817810385,-0.12352455372441895,0.07689960737559787,-0.4518613489368506,-0.01855971634574516,0.012248136867043513,-0.06908497669591007,0.0,70.0,255.0,255.0,255.0
123,6.15,-4.889155548746311,-13.258309393780383,-1.421719206087989,-0.12448592517838364,0.07749505585234573,-0.4553260240481638,-0.01989178210797249,0.011580952249445886,-0.06953956973998476,0.0,70.0,255.0,255.0,255.0
124,6.2,-4.895404773157034,-13.254420202530465,-1.4445724202152013,-0.1255137319352162,0.07805770260054246,-0.45881530591084907,-0.021012267673548024,0.011039315252681092,-0.07003263771068191,0.0,70.0,255.0,255.0,255.0
125,6.25,-4.901706921939833,-13.250503623520329,-1.467600736679074,-0.12658715194573844,0.07859898737761384,-0.462329287819232,-0.02151703927308901,0.010829529040101704,-0.07050619142350278,0.0,70.0,255.0,255.0,255.0
126,6.300000000000001,-4.908063488351607,-13.246560303792704,-1.4908053489971245,-0.1276654358625251,0.07914065550455263,-0.46586592505319935,-0.021200705802826292,0.011054167047142016,-0.07092041636200808,0.0,70.0,255.0,255.0,255.0
127,6.3500000000000005,-4.914473465526085,-13.242589557969874,-1.514187329184394,-0.12870722252602107,0.07970440408232804,-0.4694213294554328,-0.020236997089639885,0.011608160449405602,-0.07121972916837027,0.0,70.0,255.0,255.0,255.0
128,6.4,-4.9209342106042095,-13.23858986338447,-1.5377474819426677,-0.1296891355714891,0.08030147154949319,-0.4729878979700364,-0.018985843478525055,0.012281722177576171,-0.07132893069128343,0.0,70.0,255.0,255.0,255.0
129,6.45,-4.927442379083234,-13.234559410814924,-1.5614861189813976,-0.13060580687387358,0.08093257630008566,-0.47655422252456114,-0.017809228102816377,0.012865106414494676,-0.07118165796196063,0.0,70.0,255.0,255.0,255.0
130,6.5,-4.933994791291597,-13.230496605754462,-1.5854029041951239,-0.13147005838177073,0.08158798219094265,-0.48010606376623244,-0.017060951998359997,0.013153613808825071,-0.07071758343273338,0.0,70.0,255.0,255.0,255.0
131,6.550000000000001,-4.940589384921411,-13.22640061259583,-1.6094967253580208,-0.13231190207370958,0.08224793768096816,-0.4836259808678345,-0.016931038503642526,0.013041367614263777,-0.06992472272389083,0.0,70.0,255.0,255.0,255.0
132,6.6000000000000005,-4.947225981498968,-13.222271811986365,-1.6337655022819073,-0.13316316223213498,0.08289211895236903,-0.4870985360386215,-0.017323251006473583,0.012604629260870581,-0.06891871735328348,0.0,70.0,255.0,255.0,255.0
133,6.65,-4.953905701144625,-13.218111400700593,-1.658206578961883,-0.13404422717435693,0.08350840060705522,-0.49051785260316283,-0.01801472742730681,0.012006751116189207,-0.06790461425503214,0.0,70.0,255.0,255.0,255.0
134,6.7,-4.9606304042164036,-13.21392097192566,-1.6828172875422236,-0.13496463497486566,0.08409279406398795,-0.49388899746412473,-0.018783733667770974,0.01141354580269649,-0.06709919197991354,0.0,70.0,255.0,255.0,255.0
135,6.75,-4.967402164642111,-13.209702121294194,-1.7075954787082954,-0.13592260054113403,0.08464975518732487,-0.4972277718011542,-0.01941118070529768,0.010992006400023513,-0.06671149349335437,0.0,70.0,255.0,255.0,255.0
136,6.800000000000001,-4.974222664270517,-13.205455996406927,-1.732540064722339,-0.13690575304539543,0.0851919947039903,-0.5005601468134602,-0.01976959239797793,0.010833136388654907,-0.06684120556299522,0.0,70.0,255.0,255.0,255.0
137,6.8500000000000005,-4.981092739946651,-13.201182921823795,-1.7576514933896414,-0.13789955978093182,0.08573306882619036,-0.5039118923574537,-0.019874567649669217,0.010889686143222832,-0.06737822193125798,0.0,70.0,255.0,255.0,255.0
138,6.9,-4.98801262024861,-13.196882689524308,-1.7829312539580844,-0.13889320981036235,0.08628096331831259,-0.507297969006586,-0.019788999725012246,0.011055748881361183,-0.06809895261512544,0.0,70.0,255.0,255.0,255.0
139,6.95,-4.994982060927687,-13.192554825491964,-1.8083812902903,-0.13987845975343305,0.08683864371432648,-0.5107217876189662,-0.019570149579806184,0.011226910841344306,-0.06876880022581577,0.0,70.0,255.0,255.0,255.0
140,7.0,-5.0020004662239534,-13.188198825152876,-1.834003432719981,-0.14085022476834297,0.08740365440244702,-0.5141748490291675,-0.019286306532251274,0.011286379238484301,-0.06915644259362086,0.0,70.0,255.0,255.0,255.0
141,7.050000000000001,-5.0090670834045214,-13.18381446005172,-1.8597987751932168,-0.14180709040665818,0.08796728163817491,-0.5176374318783283,-0.01898285297752267,0.01117331293887247,-0.06913768113141483,0.0,70.0,255.0,255.0,255.0
142,7.1000000000000005,-5.016181175264619,-13.179402096989058,-1.8857671759078138,-0.14274851006609524,0.08852098569633426,-0.521088617142309,-0.018659317556757316,0.010957558568591708,-0.06877473524811162,0.0,70.0,255.0,255.0,255.0
143,7.15,-5.023341934411131,-13.174962361482086,-1.9119076369074477,-0.1436730221623339,0.08906303749503408,-0.5245149054031395,-0.018310112832864434,0.010768481795153662,-0.06821239579712923,0.0,70.0,255.0,255.0,255.0
144,7.2,-5.030548477480853,-13.170495793239555,-1.9382186664481278,-0.14457952134938168,0.08959783387584963,-0.527909856722022,-0.01794135565837962,0.010725897078955882,-0.06759269336378271,0.0,70.0,255.0,255.0,255.0
145,7.25,-5.037799886546069,-13.166002578094501,-1.96469862257965,-0.14546715772817187,0.09013562720292967,-0.5312741747395178,-0.01753963046189355,0.010958420701712157,-0.06704669883601522,0.0,70.0,255.0,255.0,255.0
146,7.300000000000001,-5.04509519325367,-13.161482230519262,-1.9913460839220796,-0.14633348439557103,0.09069367594602085,-0.5346145266056235,-0.01710570897852648,0.0115206981023519,-0.06665413051751834,0.0,70.0,255.0,255.0,255.0
147,7.3500000000000005,-5.052433234985626,-13.156933210499899,-2.0181600752402122,-0.14717772862602452,0.09128769701316486,-0.5379395877912696,-0.01672545816067128,0.0122783080215072,-0.06643920071285336,0.0,70.0,255.0,255.0,255.0
148,7.4,-5.059812966116272,-13.152353460817945,-2.0451400427012065,-0.14800603021163816,0.09192150674817157,-0.5412584466769088,-0.016533252905848173,0.012991256338601431,-0.06641593972087634,0.0,70.0,255.0,255.0,255.0
149,7.45,-5.06723383800679,-13.147741059825082,-2.072285919907903,-0.14883105391660933,0.092586822647025,-0.5445811817633572,-0.016651001213308092,0.013423440237048112,-0.06659991349846628,0.0,70.0,255.0,255.0,255.0
150,7.5,-5.074696071507933,-13.143094778553243,-2.0995981608775423,-0.14967113033296897,0.09326385077187638,-0.5479184380267554,-0.017207106352490342,0.013339984574933794,-0.06701275273819363,0.0,70.0,255.0,255.0,255.0
151,7.550000000000001,-5.082200951040087,-13.138414674747894,-2.1270777637105787,-0.15055176455185837,0.09392082110451838,-0.5512824570371766,-0.018242422996550545,0.012636295582879598,-0.06764682243947107,0.0,70.0,255.0,255.0,255.0
152,7.6000000000000005,-5.089751247963119,-13.133702696442791,-2.15472640658126,-0.15149537263262403,0.09452748033016434,-0.5546831202707025,-0.019556239078255544,0.011495456432442097,-0.06838762273999599,0.0,70.0,255.0,255.0,255.0
153,7.65,-5.097350488303349,-13.128961926714878,-2.182546075737649,-0.15250738845968392,0.09507036674776259,-0.5581212193111762,-0.020796968783631797,0.010261924087551222,-0.06904300615868664,0.0,70.0,255.0,255.0,255.0
154,7.7,-5.1050019868090875,-13.124195659768015,-2.2105385285123775,-0.1535750695109872,0.09555367273891946,-0.5615874208865712,-0.021609604522598858,0.009285889757393306,-0.06941539156968268,0.0,70.0,255.0,255.0,255.0
155,7.75,-5.112707995254448,-13.119406559440986,-2.238704817826306,-0.1546683489119438,0.09599895572350192,-0.5650627584681445,-0.021647981424166574,0.008909613024599139,-0.06931030885923839,0.0,70.0,255.0,255.0,255.0
156,7.800000000000001,-5.120468821700282,-13.114595764195665,-2.267044804359192,-0.15573986765340386,0.09644463404137937,-0.568518451772495,-0.020756487147632896,0.009301205813372349,-0.06864426737025475,0.0,70.0,255.0,255.0,255.0
157,7.8500000000000005,-5.1282819820197885,-13.109762096036848,-2.2955566630035555,-0.1567439976267071,0.09692907630483916,-0.5719271852051699,-0.019180308137300983,0.010289982801481301,-0.06757655541336227,0.0,70.0,255.0,255.0,255.0
158,7.9,-5.1361432214629525,-13.10490285656518,-2.324237522879709,-0.15765789846713396,0.0974736323215275,-0.5752761073138313,-0.017390666831573753,0.01153009160113072,-0.06640746687986976,0.0,70.0,255.0,255.0,255.0
159,7.95,-5.144047771866502,-13.100014732804695,-2.3530842737349387,-0.15848306430986447,0.09808208546495223,-0.5785679318931569,-0.0158756156605655,0.012666940124894666,-0.0654507812949845,0.0,70.0,255.0,255.0,255.0
160,8.0,-5.151991527893939,-13.095094648018685,-2.3820943160690247,-0.1592454600331905,0.09874032633401697,-0.5818211854433297,-0.01511695862657092,0.013349581973365332,-0.06502601182512002,0.0,70.0,255.0,255.0,255.0
161,8.05,-5.159972317869821,-13.090140700171293,-2.4112663922792716,-0.15999476017252157,0.09941704366228876,-0.5850705330756689,-0.015358201840420804,0.01339282055887736,-0.06528939479277795,0.0,70.0,255.0,255.0,255.0
162,8.1,-5.167991003911191,-13.085152943652457,-2.4406013693765916,-0.1607812802172326,0.1000796083899047,-0.5883501249226075,-0.01638900855898129,0.012913656651569738,-0.06605804371813129,0.0,70.0,255.0,255.0,255.0
163,8.15,-5.176050445891544,-13.080132739332303,-2.4701014047715324,-0.1616336610284197,0.10070840932744574,-0.591676337447482,-0.01777388370323152,0.012167826057840614,-0.06697523820977658,0.0,70.0,255.0,255.0,255.0
164,8.200000000000001,-5.184154370014033,-13.075082102719712,-2.4997690031213398,-0.16255866858755574,0.10129639099568877,-0.5950476487435852,-0.019068072695116456,0.011413435990448306,-0.06768162311061587,0.0,70.0,255.0,255.0,255.0
165,8.25,-5.1923063127503,-13.070003100232734,-2.529606169645891,-0.16354046829793134,0.10184975292649057,-0.5984444997585436,-0.019820221365485224,0.010920031109229456,-0.06780969978477103,0.0,70.0,255.0,255.0,255.0
166,8.3,-5.200508416843826,-13.064897127427063,-2.559613453097194,-0.16454069072410427,0.10238839410661171,-0.6018286187220623,-0.019791870992236227,0.01083305973583748,-0.06717829331868153,0.0,70.0,255.0,255.0,255.0
167,8.35,-5.20876038182271,-13.059764260822073,-2.589789031518097,-0.16551965539715496,0.10293305890007431,-0.6051623290904118,-0.01915363431690409,0.01105082182952799,-0.06599938160212204,0.0,70.0,255.0,255.0,255.0
168,8.4,-5.217060382383542,-13.054603821537055,-2.6201296860062353,-0.16645605415579467,0.10349347628956451,-0.6084285568822745,-0.018262143343861226,0.011364851254924702,-0.0646834683931452,0.0,70.0,255.0,255.0,255.0
169,8.450000000000001,-5.22540598723829,-13.049414913193116,-2.6506318872063246,-0.16734586973154109,0.10406954402556678,-0.6116306759297263,-0.017466266052501567,0.011578430130043671,-0.06363587311555285,0.0,70.0,255.0,255.0,255.0
170,8.5,-5.233794969356696,-13.044196867134499,-2.681292753599208,-0.16820268076104483,0.10465131930256888,-0.6147921441938298,-0.017126071994777448,0.011482368180537605,-0.06325910511968402,0.0,70.0,255.0,255.0,255.0
171,8.55,-5.242226255314394,-13.03894978126286,-2.7121111016257076,-0.16905847693101883,0.10521778084362055,-0.6179565864416947,-0.017426948223864258,0.010975080359365563,-0.06375109160599024,0.0,70.0,255.0,255.0,255.0
172,8.6,-5.250700817049798,-13.033675089050137,-2.7430884122433774,-0.16994537558343126,0.10574882733850544,-0.6211672533544288,-0.018190113847627032,0.010205759993908714,-0.06489454642326642,0.0,70.0,255.0,255.0,255.0
173,8.65,-5.259220792872737,-13.028374898529009,-2.7742278269611504,-0.17087748831578153,0.10623835684301142,-0.6244460410840214,-0.019064722408845824,0.009450064960425664,-0.0662599325070623,0.0,70.0,255.0,255.0,255.0
174,8.700000000000001,-5.267788565881376,-13.023051253365836,-2.8055330163517795,-0.17185184782431584,0.106693833834548,-0.627793246605135,-0.019713203420845815,0.008972703628984391,-0.06741553710827297,0.0,70.0,255.0,255.0,255.0
175,8.75,-5.276405977655169,-13.017705515145554,-2.837007151621664,-0.17284880865786612,0.10713562720590986,-0.6311875947948486,-0.01979558389502145,0.009038421575624511,-0.0679339263564227,0.0,70.0,255.0,255.0,255.0
176,8.8,-5.2850734467471625,-13.012337690645245,-2.8686517758312644,-0.17383140621381798,0.10759767599211045,-0.6345866392407773,-0.01914667643907464,0.009767504608682032,-0.06759748011702094,0.0,70.0,255.0,255.0,255.0
177,8.85,-5.293789118276551,-13.006945747546343,-2.9004658155457417,-0.17476347630177358,0.10811237766677806,-0.6379473428065507,-0.017973089779932394,0.010959891107553688,-0.06659324855533555,0.0,70.0,255.0,255.0,255.0
178,8.9,-5.30254979437734,-13.001526452878567,-2.9324465101119195,-0.17562871519181122,0.10869366510286582,-0.6412459640963108,-0.016672626694447246,0.012239457665508269,-0.06530598572798141,0.0,70.0,255.0,255.0,255.0
179,8.950000000000001,-5.311351989795732,-12.996076381036056,-2.9645904119553728,-0.1764307389712183,0.10933632343332889,-0.6444779413793489,-0.015640267582917033,0.013225207570144448,-0.06412183859199061,0.0,70.0,255.0,255.0,255.0
180,9.0,-5.320192868274462,-12.990592820535234,-2.9968943042498544,-0.17719274195010293,0.11001618585988027,-0.6476581479555099,-0.015267536480845223,0.013535973489986475,-0.0634251428343724,0.0,70.0,255.0,255.0,255.0
181,9.05,-5.329071263990742,-12.985074762450068,-3.0293562267509238,-0.17795749261930283,0.11068992078232753,-0.6508204556627861,-0.01574671898145752,0.012987814958798083,-0.06341833524454721,0.0,70.0,255.0,255.0,255.0
182,9.1,-5.337988617536392,-12.979523828457001,-3.061976349816133,-0.17876741384824868,0.11131496735576007,-0.6539999814799646,-0.016867643582862968,0.011804559025740957,-0.0639634150664925,0.0,70.0,255.0,255.0,255.0
183,9.15,-5.346948005375567,-12.973943265714492,-3.09475622489892,-0.17964425697758912,0.11187037668490163,-0.6572167971694354,-0.01821381510147546,0.01042306008791627,-0.06476600803106969,0.0,70.0,255.0,255.0,255.0
184,9.200000000000001,-5.355953043234151,-12.968336790788511,-3.1276980295330765,-0.18058879535839623,0.1123572733645517,-0.6604765822830716,-0.019366378927987427,0.009285813409576349,-0.06553673556379813,0.0,70.0,255.0,255.0,255.0
185,9.25,-5.3650068849114065,-12.962707538378037,-3.1608038831272274,-0.18158089487038787,0.11279895802585926,-0.6637704707258152,-0.01991431680172795,0.008837637842873391,-0.06598955824990149,0.0,70.0,255.0,255.0,255.0
186,9.3,-5.37411113272119,-12.957056894985925,-3.194075076605658,-0.18258022703856902,0.11324103714883904,-0.6670755381080617,-0.019646587495447676,0.009301095697544781,-0.06596983158519976,0.0,70.0,255.0,255.0,255.0
187,9.35,-5.383264907615263,-12.951383434663153,-3.2275114369380336,-0.18354555361993263,0.11372906759561374,-0.6703674538843352,-0.01872715173911743,0.010451056940397052,-0.06555943150554633,0.0,70.0,255.0,255.0,255.0
188,9.4,-5.392465688083183,-12.945683988226364,-3.2611118219940916,-0.18445294221248076,0.11428614284287875,-0.6736314812586164,-0.01750129704864989,0.011839117833112311,-0.06494280266040597,0.0,70.0,255.0,255.0,255.0
189,9.450000000000001,-5.4017102018365115,-12.939954820378865,-3.294874585063895,-0.18529568332479762,0.11491297937892497,-0.6768617341503758,-0.016314076845613812,0.013018391936903129,-0.06429830539986803,0.0,70.0,255.0,255.0,255.0
190,9.5,-5.410995256415663,-12.934192690288471,-3.328797995409129,-0.18608434989704215,0.11558798203656906,-0.6800613117986032,-0.015495149691791,0.013545549728455342,-0.06380058686978884,0.0,70.0,255.0,255.0,255.0
191,9.55,-5.420318636826216,-12.928396022175209,-3.3628807162437555,-0.18684519829397672,0.11626753435177051,-0.6832417928373546,-0.015226278355751077,0.013194655400639022,-0.06354839902029674,0.0,70.0,255.0,255.0,255.0
192,9.600000000000001,-5.42967977624506,-12.922565936853294,-3.3971221746928646,-0.18760697773261725,0.11690744757663296,-0.6864161517006329,-0.015454705172146532,0.012162029065798663,-0.06351522254801623,0.0,70.0,255.0,255.0,255.0
193,9.65,-5.4390793345994775,-12.916705277417545,-3.431522331413819,-0.18839066881119138,0.11748373725835037,-0.6895933150921563,-0.016030880153916627,0.01084965272735161,-0.0636272568522056,0.0,70.0,255.0,255.0,255.0
194,9.700000000000001,-5.4485188431261795,-12.910817563127459,-3.46608150620208,-0.18921006574800892,0.11799241284936812,-0.6927788773858534,-0.016803514156027433,0.00966047898138811,-0.06381624330309421,0.0,70.0,255.0,255.0,255.0
195,9.75,-5.458000341174278,-12.904906036132608,-3.500800219152404,-0.19007102022679412,0.11844978515648918,-0.6959749394224657,-0.017625084431216465,0.00900011662192668,-0.06401611291866338,0.0,70.0,255.0,255.0,255.0
196,9.8,-5.467525945148859,-12.89897258461181,-3.535679000144327,-0.19097257419113056,0.11889242451156079,-0.6991804886777198,-0.018396550829624658,0.00907963002010348,-0.0641837984402649,0.0,70.0,255.0,255.0,255.0
197,9.850000000000001,-5.477097598593391,-12.893016793681452,-3.570718268020176,-0.19191067530975658,0.11935774815849953,-0.7023933192664922,-0.019056824774832393,0.00973178250980311,-0.06430061070332727,0.0,70.0,255.0,255.0,255.0
198,9.9,-5.486717012679835,-12.88703680979596,-3.605918332070976,-0.1928782566686138,0.1198656027625411,-0.7056105497480525,-0.019529867650636135,0.010612154707523302,-0.06434639836974121,0.0,70.0,255.0,255.0,255.0
199,9.950000000000001,-5.496385424260253,-12.881030233405198,-3.6412793229949814,-0.1938636620748202,0.12041896362925186,-0.7088279591034663,-0.019733404992461345,0.011379319175297553,-0.06429723420846578,0.0,70.0,255.0,255.0,255.0
200,10.0,-5.506103378887317,-12.874994913433035,-3.6768011279813226,-0.19485159716785994,0.12100353468007086,-0.7120402731688991,-0.019604512582471756,0.011678039727236467,-0.06413496145505349,0.0,70.0,255.0,255.0,255.0
201,10.05,-5.515870583977039,-12.868929879937191,-3.7124833503118713,-0.19582411333306737,0.12158676760197551,-0.7152414552489716,-0.01912597986386544,0.011327477200318015,-0.06385589439799055,0.0,70.0,255.0,255.0,255.0
202,10.100000000000001,-5.525685790220623,-12.862836236672837,-3.74832527350622,-0.19676419515424648,0.12213628240010266,-0.7184258626086981,-0.018363310414137857,0.010517181220848215,-0.063484106200562,0.0,70.0,255.0,255.0,255.0
203,10.15,-5.535547003492463,-12.856716251697181,-3.784325936572741,-0.19766044437448116,0.12263848572406033,-0.7215898658690278,-0.017446852040681193,0.009614548955205748,-0.06306621726808181,0.0,70.0,255.0,255.0,255.0
204,10.200000000000001,-5.5454518346580715,-12.850572388100431,-3.8204842600931226,-0.1985088803583146,0.12309773729562323,-0.7247324843355063,-0.016528040699448354,0.008975903991981227,-0.06265430704242014,0.0,70.0,255.0,255.0,255.0
205,10.25,-5.555397891528295,-12.844406477967619,-3.8567991850062917,-0.199313248444426,0.12353607612325845,-0.7278552965732699,-0.015740921182594292,0.00896763122941735,-0.06228805058503539,0.0,70.0,255.0,255.0,255.0
206,10.3,-5.565383159502514,-12.838218780488106,-3.8932697897504496,-0.20008297247657403,0.12399450041856497,-0.7309612893940098,-0.015165730181188053,0.009764120851052382,-0.06199262396777705,0.0,70.0,255.0,255.0,255.0
207,10.350000000000001,-5.575406188775952,-12.832007027925762,-3.9298953139456927,-0.2008298214625448,0.12451248820836369,-0.7340545589700476,-0.014843593242286346,0.01111231311856642,-0.061800260531619244,0.0,70.0,255.0,255.0,255.0
208,10.4,-5.5854661416487685,-12.82576753166727,-3.9666752456474543,-0.20156733180080266,0.1251057317304216,-0.7371413154471718,-0.014809903673995706,0.01253598979893411,-0.06175143652060733,0.0,70.0,255.0,255.0,255.0
209,10.450000000000001,-5.5955629219560326,-12.81949645475272,-4.00360944549041,-0.20231081182994437,0.1257660871882571,-0.7402297026221083,-0.015087206102837314,0.0135644308247862,-0.06187882433525971,0.0,70.0,255.0,255.0,255.0
210,10.5,-5.605697222831763,-12.813190922948444,-4.040698215909665,-0.2030760524110864,0.12646217481290023,-0.7433291978806977,-0.01569175606661588,0.013727519272777045,-0.06221679890905385,0.0,70.0,255.0,255.0,255.0
211,10.55,-5.615870527197141,-12.80685023727143,-4.07794236527848,-0.20387998743660596,0.1271388391155348,-0.7464513825130137,-0.016606437406885277,0.012801866902023562,-0.06276792208508297,0.0,70.0,255.0,255.0,255.0
212,10.600000000000001,-5.626085221575424,-12.80047703903689,-4.1153433541609665,-0.20473669615177492,0.12774236150310259,-0.749605990089206,-0.017700638295181648,0.011085221314033333,-0.06343401251207581,0.0,70.0,255.0,255.0,255.0
213,10.65,-5.636344196812319,-12.79407600112112,-4.1529029642874,-0.20565005126612412,0.12824736124693814,-0.7527947837642213,-0.018751854941179147,0.00915151515776813,-0.06404719748855925,0.0,70.0,255.0,255.0,255.0
214,10.700000000000001,-5.646650226702036,-12.787652302912196,-4.190622832537389,-0.20661188164589284,0.1286575130188794,-0.756010709838062,-0.01952518617143184,0.0075784939214784686,-0.06443813454426461,0.0,70.0,255.0,255.0,255.0
215,10.75,-5.657005384976908,-12.781210249819232,-4.228504035271206,-0.2076025698832673,0.129005210639086,-0.7592385972186477,-0.019804035903536743,0.006934226413335409,-0.06445277242672631,0.0,70.0,255.0,255.0,255.0
216,10.8,-5.667410483690363,-12.774751781848288,-4.266546692259253,-0.2085922852362465,0.12935093566021294,-0.7624559870807346,-0.019487494550052276,0.007502071214737782,-0.06402137533756402,0.0,70.0,255.0,255.0,255.0
217,10.850000000000001,-5.677864613500533,-12.76827515625321,-4.30474963397928,-0.20955131933827253,0.12975541776055977,-0.7656407347524041,-0.01868280462566929,0.009011510247880494,-0.06322993650682562,0.0,70.0,255.0,255.0,255.0
218,10.9,-5.68836561562419,-12.761776240072232,-4.343110765734494,-0.21046056569881344,0.130252086685001,-0.7687789807314171,-0.01761540383400373,0.010912401784857195,-0.062255204760042204,0.0,70.0,255.0,255.0,255.0
219,10.950000000000001,-5.698910670070414,-12.75524994758471,-4.381627532052422,-0.2113128597216729,0.13084665793904549,-0.7718662552284083,-0.016531023570642844,0.012648959457983722,-0.0612876118462502,0.0,70.0,255.0,255.0,255.0
220,11.0,-5.709496901596357,-12.748691574278327,-4.420297391257335,-0.21211366805587772,0.13151698263079936,-0.7749077419160422,-0.015668137615421074,0.01367963101834846,-0.060504139356343245,0.0,70.0,255.0,255.0,255.0
221,11.05,-5.720122036876002,-12.74209824932163,-4.459118306244026,-0.21287967348321502,0.13221462104088033,-0.7779166691640427,-0.015162558751313782,0.013717214205932748,-0.0600060637444777,0.0,70.0,255.0,255.0,255.0
222,11.100000000000001,-5.730784868944679,-12.735470112174239,-4.498089058173739,-0.2136299239310091,0.13288870405139264,-0.7809083482904899,-0.015000870475478933,0.012923189907709798,-0.05979990113482714,0.0,70.0,255.0,255.0,255.0
223,11.15,-5.741485029269103,-12.728809378916491,-4.537209141073075,-0.2143797605307629,0.1335069400316513,-0.7838966592775254,-0.015115480772021073,0.011663586327159692,-0.05985916295774274,0.0,70.0,255.0,255.0,255.0
224,11.200000000000001,-5.752222844997755,-12.722119418171074,-4.5764787241014915,-0.2151414720082112,0.1340550626841086,-0.7868942645862642,-0.015436407190883017,0.010306041207819305,-0.060150905249667375,0.0,70.0,255.0,255.0,255.0
225,11.25,-5.762999176469924,-12.71540387264808,-4.615898567531701,-0.2159234012498512,0.13453754415243324,-0.7899117498024921,-0.015887422958371644,0.00921121221839627,-0.06064265150067527,0.0,70.0,255.0,255.0,255.0
226,11.3,-5.77381518512274,-12.70866566375583,-4.655469899081741,-0.21673021430404837,0.13497618390594823,-0.7929585297363317,-0.016410522193233135,0.008587393638848084,-0.06129590814634156,0.0,70.0,255.0,255.0,255.0
227,11.350000000000001,-5.784672197900329,-12.701906254257485,-4.695194420505334,-0.21756445346917452,0.13539628351631805,-0.7960413406171263,-0.016953806713537745,0.008407524992648518,-0.06201055219356988,0.0,70.0,255.0,255.0,255.0
228,11.4,-5.795571630469658,-12.695126035404199,-4.735074033143453,-0.21842559497540215,0.13581693640521308,-0.7991595849556887,-0.017440062355067454,0.008563975518605105,-0.06262553268596704,0.0,70.0,255.0,255.0,255.0
229,11.450000000000001,-5.806514757397869,-12.688324560616964,-4.775110379000903,-0.21930845970468127,0.13625268106817856,-0.802303893885723,-0.01777817283992178,0.008958763821809157,-0.06297030561688288,0.0,70.0,255.0,255.0,255.0
230,11.5,-5.817502476440126,-12.681500767297381,-4.815304422532026,-0.22020341225939433,0.136712812787394,-0.805456615517377,-0.01788613325501842,0.009491557403507045,-0.06288124531721451,0.0,70.0,255.0,255.0,255.0
231,11.55,-5.828535098623808,-12.674653279338225,-4.855656040552641,-0.2210970730301831,0.13720183680852926,-0.8085920184174444,-0.017728126368776742,0.0100881762735483,-0.062289278028870854,0.0,70.0,255.0,255.0,255.0
232,11.600000000000001,-5.839612183743144,-12.667780583616528,-4.89616362437377,-0.221976224896272,0.13772163041474883,-0.8116855433202641,-0.01734837819507007,0.01068680336171468,-0.061324137177631854,0.0,70.0,255.0,255.0,255.0
233,11.65,-5.8507327211134355,-12.66088111629675,-4.936824594884667,-0.22283191084969012,0.13827051714470073,-0.8147244321352076,-0.016840633443848674,0.011197900876958045,-0.060234137533754506,0.0,70.0,255.0,255.0,255.0
234,11.700000000000001,-5.861895374828113,-12.653953531902058,-4.977636067587291,-0.22366028824065687,0.13884142050244463,-0.8177089570736396,-0.01631038862903722,0.011513728679268809,-0.05928013335472215,0.0,70.0,255.0,255.0,255.0
235,11.75,-5.873098749937501,-12.646996974246505,-5.018595490592031,-0.22446294971259384,0.13942189001262761,-0.8206524454706798,-0.015856062669517,0.011526520870042134,-0.05871236723038464,0.0,70.0,255.0,255.0,255.0
236,11.8,-5.8843416697993725,-12.640011342900795,-5.059701312134359,-0.22524589450760857,0.13999407258944885,-0.823580193796678,-0.015536459510911982,0.011192675160920373,-0.05866026645158229,0.0,70.0,255.0,255.0,255.0
237,11.850000000000001,-5.895623339388262,-12.63299756698756,-5.100953509971699,-0.22601659566368504,0.14054115752871965,-0.8265184721158381,-0.015369044142587995,0.010609737085509607,-0.05904478720850648,0.0,70.0,255.0,255.0,255.0
238,11.9,-5.906943329365741,-12.625957227147923,-5.142353159345943,-0.22678279892186737,0.1410550462979998,-0.8294846725175287,-0.015361879394415467,0.00996078460904215,-0.0596860290665191,0.0,70.0,255.0,255.0,255.0
239,11.950000000000001,-5.918301619280449,-12.61889206235776,-5.183901977223452,-0.22755278360312658,0.14153723598962387,-0.83248707502249,-0.015519759823767743,0.009439095354402127,-0.06039587425048509,0.0,70.0,255.0,255.0,255.0
240,12.0,-5.929698607726054,-12.61180350354896,-5.225601866848192,-0.22833477490424414,0.14199895583344002,-0.8355242599425772,-0.015845606742104223,0.009238349792362044,-0.06098928576188101,0.0,70.0,255.0,255.0,255.0
241,12.05,-5.941135096770873,-12.604692166774417,-5.26745440321771,-0.229137344277337,0.14246107096886007,-0.8385860035986781,-0.016327061228249562,0.009454409797093888,-0.061357395092631606,0.0,70.0,255.0,255.0,255.0
242,12.100000000000001,-5.952612342153787,-12.597557396452075,-5.309460467208059,-0.2299674810270691,0.1429443968131494,-0.8416599994518403,-0.01689460607421367,0.009988840370667162,-0.06150128275246303,0.0,70.0,255.0,255.0,255.0
243,12.15,-5.96413184487358,-12.590397727093102,-5.351620403162894,-0.23082680488475837,0.1434599550059268,-0.8447361318739244,-0.01743100981839163,0.010644368610357446,-0.0614554991133609,0.0,70.0,255.0,255.0,255.0
244,12.200000000000001,-5.975695022642263,-12.583211400951482,-5.393934080395452,-0.23171058200890826,0.14400883367418515,-0.8478055493631764,-0.01781159771701013,0.011223316477604328,-0.06125068199791528,0.0,70.0,255.0,255.0,255.0
245,12.25,-5.987302903074471,-12.575996843725683,-5.436400958099211,-0.2326079646564594,0.14458228665368722,-0.8508612000737159,-0.017917501037167938,0.011536117257904266,-0.06092247107449822,0.0,70.0,255.0,255.0,255.0
246,12.3,-5.998955819107909,-12.568753172286113,-5.4790202004028234,-0.23350233211262506,0.14516244539997558,-0.8538977964706262,-0.017694782755395266,0.011483112223409364,-0.060502414250152015,0.0,70.0,255.0,255.0,255.0
247,12.350000000000001,-6.010653136285733,-12.561480599185685,-5.521790737746274,-0.2343774429319989,0.14573059787602816,-0.8569114414987311,-0.017217007084902036,0.01112030935637165,-0.06003092094246654,0.0,70.0,255.0,255.0,255.0
248,12.4,-6.022393563401109,-12.55418011249851,-5.564711344552697,-0.23522403282111526,0.14627447633561275,-0.8599008885648729,-0.016630444968690483,0.010576333024125972,-0.05957281364095124,0.0,70.0,255.0,255.0,255.0
249,12.450000000000001,-6.034175539567845,-12.546853151552124,-5.607780826602761,-0.23604048742886796,0.14678823117844075,-0.8628687228628262,-0.016093336488243182,0.009980925449681877,-0.05920708540347874,0.0,70.0,255.0,255.0,255.0
250,12.5,-6.045997612143996,-12.539501289380667,-5.650998216838979,-0.23683336646993958,0.14727256888058093,-0.8658215971052208,-0.015772407756831086,0.009453171851703246,-0.05901686723532862,0.0,70.0,255.0,255.0,255.0
251,12.55,-6.057858876214839,-12.532125894664066,-5.694362986313283,-0.23761772820455107,0.14773354836361108,-0.8687704095863591,-0.015753294929155004,0.00906591520113409,-0.05903966119378268,0.0,70.0,255.0,255.0,255.0
252,12.600000000000001,-6.069759384964451,-12.524727934544305,-5.737875257797615,-0.23840869596285508,0.14817916040069434,-0.871725563224599,-0.015953729222406565,0.008846285840569124,-0.05921232951608957,0.0,70.0,255.0,255.0,255.0
253,12.65,-6.081699745811124,-12.517307978623997,-5.781535542635743,-0.23921310112679173,0.148618176947668,-0.874691642537968,-0.016211685831724054,0.008814774817267335,-0.05941595028575719,0.0,70.0,255.0,255.0,255.0
254,12.700000000000001,-6.09368069507713,-12.509866116849539,-5.825344422051412,-0.24002986454602748,0.14906063788242108,-0.8776671582531748,-0.016367970083042138,0.008992468903912254,-0.059527689674609974,0.0,70.0,255.0,255.0,255.0
255,12.75,-6.105702732265727,-12.502401914835755,-5.869302258461061,-0.24084989813509594,0.14951742383805922,-0.880644411505429,-0.016252914555714426,0.009407186011323176,-0.05941807863143467,0.0,70.0,255.0,255.0,255.0
256,12.8,-6.11776568489064,-12.494914374465733,-5.913408863201955,-0.24165515600159893,0.1500013564835534,-0.8836089661163182,-0.015785464101636393,0.010054252612334835,-0.05902565426154638,0.0,70.0,255.0,255.0,255.0
257,12.850000000000001,-6.129868247865887,-12.4874017791874,-5.957663155072693,-0.24242844454525958,0.1505228490992927,-0.8865469769315837,-0.015090779987581016,0.010813708121126808,-0.058442464955899,0.0,70.0,255.0,255.0,255.0
258,12.9,-6.142008529345166,-12.479862089555803,-6.002063560895113,-0.24316423400035703,0.15108272729566607,-0.8894532126119081,-0.01440010774187428,0.011483728544803284,-0.05784068125320729,0.0,70.0,255.0,255.0,255.0
259,12.950000000000001,-6.154184671265923,-12.472293506457833,-6.046608476333883,-0.243868455319447,0.15167122195377303,-0.8923310450569044,-0.01393464331957972,0.011856937862475547,-0.05738872932559147,0.0,70.0,255.0,255.0,255.0
260,13.0,-6.16639537487711,-12.464694967360426,-6.091296665400804,-0.244557698332315,0.15226842108191363,-0.8951920855444673,-0.013903859427966125,0.011726102752263046,-0.05725077161855552,0.0,70.0,255.0,255.0,255.0
261,13.05,-6.178640441099154,-12.457066664349641,-6.13612768488833,-0.24525884126224362,0.15284383222899933,-0.89805612221876,-0.01440573444559945,0.011002761994127752,-0.05750480800674751,0.0,70.0,255.0,255.0,255.0
262,13.100000000000001,-6.190921259003335,-12.449410584137526,-6.18110227762268,-0.24599827177687494,0.1533686972813264,-0.900942566345142,-0.015316903741435794,0.00986512876153256,-0.0580533351360657,0.0,70.0,255.0,255.0,255.0
263,13.15,-6.203240268276842,-12.441729794621509,-6.226221941522844,-0.2467905316363872,0.1538303451051526,-0.9038614557323665,-0.016392451965874244,0.008645742238577725,-0.05870496106457068,0.0,70.0,255.0,255.0,255.0
264,13.200000000000001,-6.215600312166973,-12.434027549627011,-6.271488423195916,-0.24763751697346237,0.15423327150518418,-0.9068130624515991,-0.01738119556575768,0.0076853274316945885,-0.059264619130505736,0.0,70.0,255.0,255.0,255.0
265,13.25,-6.228004019974188,-12.42630646747099,-6.316903247768004,-0.24852865119296297,0.15459887784832205,-0.9097879176454171,-0.018051647731276432,0.007316375009125409,-0.05954284421871847,0.0,70.0,255.0,255.0,255.0
266,13.3,-6.24045317728627,-12.418567661842179,-6.362467214960458,-0.24944268174659,0.15496490900609672,-0.9127673468734709,-0.018278311402397662,0.007701785656877291,-0.059441826997730374,0.0,70.0,255.0,255.0,255.0
267,13.350000000000001,-6.252948288148847,-12.41080997657038,-6.408179982455351,-0.25035648233320273,0.15536905641400978,-0.9157321003451901,-0.018089716935332234,0.008675893384335609,-0.05902960242512023,0.0,70.0,255.0,255.0,255.0
268,13.4,-6.26548882551959,-12.403030756200778,-6.454040424994977,-0.25125165344012323,0.15583249834453028,-0.918670307115983,-0.017581972507851873,0.009902346791079708,-0.05845406656321828,0.0,70.0,255.0,255.0,255.0
269,13.450000000000001,-6.278073453492859,-12.395226726735928,-6.50004701316695,-0.2521146795839879,0.15635929109311775,-0.921577507001512,-0.016860574416810437,0.011035691801097869,-0.057866080865753844,0.0,70.0,255.0,255.0,255.0
270,13.5,-6.290700293477989,-12.387394827091466,-6.546198175695128,-0.2529377108818043,0.15693606752464007,-0.9244569152025583,-0.016021577618197114,0.011736415859431304,-0.05741384218245216,0.0,70.0,255.0,255.0,255.0
271,13.55,-6.30336722458104,-12.379533119983464,-6.5924927046872055,-0.25371683734580763,0.15753293267906088,-0.9273188912197572,-0.015139481483750217,0.011824034773511016,-0.05718065789466209,0.0,70.0,255.0,255.0,255.0
272,13.600000000000001,-6.3160719772125695,-12.37164153382356,-6.638930064817104,-0.2544516590301793,0.15811847100199117,-0.9301749809920246,-0.014321431314368027,0.011400341990430718,-0.057144618799664926,0.0,70.0,255.0,255.0,255.0
273,13.65,-6.328812390484058,-12.363721272883264,-6.685510202786408,-0.25514898047724444,0.15867296687810395,-0.9330333530997237,-0.013724972688677894,0.010694987149051371,-0.05724324820759463,0.0,70.0,255.0,255.0,255.0
274,13.700000000000001,-6.341586875260294,-12.35577423713575,-6.732233400127076,-0.2558241562990471,0.1591879697168963,-0.935899305812784,-0.013514968305372577,0.009938991608571257,-0.057417257873382255,0.0,70.0,255.0,255.0,255.0
275,13.75,-6.354394806113962,-12.347802475911575,-6.779100133367686,-0.2565004773077817,0.15966686603896107,-0.9387750788870619,-0.01386204179487649,0.00936593357909743,-0.057609805698888295,0.0,70.0,255.0,255.0,255.0
276,13.8,-6.367236922991072,-12.339807550531853,-6.8261109080157825,-0.25721036047853474,0.16012456307480605,-0.9416602863826729,-0.01482530112424385,0.009107623036364032,-0.05778276752996803,0.0,70.0,255.0,255.0,255.0
277,13.850000000000001,-6.380115842161816,-12.331790019604094,-6.873266162005954,-0.2579830074202061,0.16057762834259748,-0.9445533556400587,-0.016179243121694498,0.00911816988882208,-0.05791285477778629,0.0,70.0,255.0,255.0,255.0
278,13.9,-6.393035223733093,-12.323749787697594,-6.920566243579788,-0.2588282847907042,0.16103638006368826,-0.9474515718604515,-0.017520933940318173,0.009283951699678994,-0.05797116904533439,0.0,70.0,255.0,255.0,255.0
279,13.950000000000001,-6.405998670640886,-12.315686381597725,-6.968011319191999,-0.2597351008142379,0.16150602351256538,-0.9503504725445922,-0.018434517398002725,0.009500742698520526,-0.05792540046130057,0.0,70.0,255.0,255.0,255.0
280,14.0,-6.4190087338145165,-12.307599185346337,-7.0156012908342475,-0.26067173653050446,0.1619864543335403,-0.9532441119065815,-0.01850228317392677,0.009659896442926197,-0.05774693502171857,0.0,70.0,255.0,255.0,255.0
281,14.05,-6.432065844293937,-12.299487736164371,-7.063335730382657,-0.2615853291316306,0.162472013156858,-0.956125166046764,-0.017531714950447252,0.009699412473374025,-0.057427759164685455,0.0,70.0,255.0,255.0,255.0
282,14.100000000000001,-6.44516726672768,-12.291351984030651,-7.111213807438924,-0.2624249080255492,0.1629563955808777,-0.9589868878230501,-0.015813251210339274,0.00964791085600325,-0.057005733651305235,0.0,70.0,255.0,255.0,255.0
283,14.15,-6.458308335096492,-12.283192096606284,-7.159234419164962,-0.2631666542526645,0.16343680424245832,-0.9618257394118945,-0.013901314860476077,0.009567434492652183,-0.0565511432100152,0.0,70.0,255.0,255.0,255.0
284,14.200000000000001,-6.471483932152946,-12.275008303606405,-7.207396381380113,-0.2638150395115968,0.16391313903014293,-0.9646420021440516,-0.012359083315871544,0.009511837130915524,-0.05614062746097659,0.0,70.0,255.0,255.0,255.0
285,14.25,-6.484689839047651,-12.26680078270327,-7.255698619379367,-0.26440256258425165,0.16438798795554987,-0.9674398021579922,-0.01174076024126336,0.009542452676569724,-0.05584646353788969,0.0,70.0,255.0,255.0,255.0
286,14.3,-6.497924188411371,-12.25856950481085,-7.304140361595913,-0.26498911553572313,0.1648673842977999,-0.9702266484978406,-0.012321498746903359,0.009688013782849225,-0.055706195810678594,0.0,70.0,255.0,255.0,255.0
287,14.350000000000001,-6.511188750601224,-12.25031404427349,-7.352721284229151,-0.265634712458942,0.1653567893338348,-0.97301042173906,-0.01383246066222199,0.009890186686689617,-0.05570150665539231,0.0,70.0,255.0,255.0,255.0
288,14.4,-6.524487659657265,-12.242033825877467,-7.401441403769819,-0.26637236160194533,0.16585640296646886,-0.9757967991633798,-0.015728258832758968,0.010046310330125152,-0.05578696207724221,0.0,70.0,255.0,255.0,255.0
289,14.450000000000001,-6.537825986761418,-12.233728403976842,-7.450300964145489,-0.2672075383422179,0.1663614203668473,-0.9785891179467843,-0.017456515305713793,0.010058622064690326,-0.05591208969351058,0.0,70.0,255.0,255.0,255.0
290,14.5,-6.551208413491487,-12.225397683840782,-7.499300315564497,-0.2681180131325167,0.1668622651729379,-0.9813880081327309,-0.018478731804272286,0.009822320823715813,-0.05602320150259743,0.0,70.0,255.0,255.0,255.0
291,14.55,-6.56463778807467,-12.217042177459549,-7.548439764958762,-0.2690554115226451,0.1673436524492189,-0.984191438097044,-0.018509656028875554,0.009294732861242494,-0.056087970413987165,0.0,70.0,255.0,255.0,255.0
292,14.600000000000001,-6.578113954643752,-12.20866331859586,-7.5977194593742015,-0.26996897873540426,0.16779173845906215,-0.9869968051741296,-0.017711358355665396,0.008593113958355048,-0.056109172129303886,0.0,70.0,255.0,255.0,255.0
293,14.65,-6.59163468594821,-12.200263003613642,-7.647139445476175,-0.27082654735821166,0.1682029638450544,-0.9898023553099744,-0.016450358433672818,0.007926391785062492,-0.05609923691869412,0.0,70.0,255.0,255.0,255.0
294,14.700000000000001,-6.605196609379573,-12.191843022211355,-7.696699694905199,-0.27161401457877155,0.1685843776375684,-0.992606728865999,-0.015095228421646567,0.007499735216676129,-0.05606481329714086,0.0,70.0,255.0,255.0,255.0
295,14.75,-6.618796087406087,-12.183404565849886,-7.746400118362775,-0.2723360702003763,0.168952937366722,-0.9954088366396885,-0.014008275245114277,0.007508217409224471,-0.056008702480525585,0.0,70.0,255.0,255.0,255.0
296,14.8,-6.6324302163996105,-12.174947728474683,-7.796240578569168,-0.273014842103283,0.16933519937849084,-0.9982075991140515,-0.013398198816449991,0.008040653838392586,-0.05593520924831452,0.0,70.0,255.0,255.0,255.0
297,14.850000000000001,-6.646097571616416,-12.166471045912036,-7.84622087827418,-0.2736758900820213,0.16975700275056127,-1.00100235756452,-0.01323390078775688,0.008971110395528115,-0.055861804826662365,0.0,70.0,255.0,255.0,255.0
298,14.9,-6.659797805407813,-12.157972028199627,-7.89634081432562,-0.27433823218205866,0.17023231041804365,-1.0037937795967178,-0.013401030042370365,0.0100526912952148,-0.05581609024680745,0.0,70.0,255.0,255.0,255.0
299,14.950000000000001,-6.6735313948346215,-12.149447814870232,-7.946600256233852,-0.27501599308625835,0.17076227188008275,-1.0065839665892007,-0.013794459118354752,0.011030175994974911,-0.05582865711799556,0.0,70.0,255.0,255.0,255.0
300,15.0,-6.6872994047164385,-12.140895801011618,-7.99699921098454,-0.27571767809389414,0.17133532801754114,-1.0093766453085173,-0.014304204511628171,0.011664809539979615,-0.05594198857545862,0.0,70.0,255.0,255.0,255.0
301,15.05,-6.701103162644011,-12.132314282068478,-8.047537920764704,-0.27644641353742117,0.1719287528340807,-1.0121781654467465,-0.01485251374147012,0.011829365071136522,-0.056171192593268415,0.0,70.0,255.0,255.0,255.0
302,15.100000000000001,-6.714944046070181,-12.12370292572821,-8.098217027529214,-0.27720292946804115,0.1725182645246548,-1.0149937645678442,-0.015393131733798526,0.011570556347351157,-0.05644360856456032,0.0,70.0,255.0,255.0,255.0
303,15.15,-6.728823455590815,-12.115062455616012,-8.149037297221488,-0.277985726710801,0.17308580846881583,-1.0178225263032026,-0.015862910673103414,0.0110147311470854,-0.05663640209387921,0.0,70.0,255.0,255.0,255.0
304,15.200000000000001,-6.742742618741261,-12.106394344881329,-8.199999280159535,-0.2787892205353515,0.17361973763936334,-1.020657404777232,-0.016181760278755064,0.010299560803339602,-0.05663398480386661,0.0,70.0,255.0,255.0,255.0
305,15.25,-6.75670237764435,-12.097700481852076,-8.251103037699211,-0.2796039027386765,0.1741157645491498,-1.0234859247835892,-0.016278869412911234,0.009564572401998817,-0.05632739916059393,0.0,70.0,255.0,255.0,255.0
306,15.3,-6.770703009015128,-12.088982768426414,-8.302347872637894,-0.2804171074766426,0.17457619487956322,-1.0262901446932915,-0.016124520111482354,0.008900347415341514,-0.055672421311392384,0.0,70.0,255.0,255.0,255.0
307,15.350000000000001,-6.7847440883920145,-12.08024286236412,-8.35373205216854,-0.28121635474982476,0.17500579929068394,-1.0290531669147285,-0.01575804780191703,0.008343867011895156,-0.05476730403977115,0.0,70.0,255.0,255.0,255.0
308,15.4,-6.798824644490111,-12.071482188497345,-8.405253189329366,-0.2819929122568343,0.17541058158075273,-1.0317668750972686,-0.015263690901168303,0.007933698801743105,-0.053796436575304085,0.0,70.0,255.0,255.0,255.0
309,15.450000000000001,-6.812943379617698,-12.062701804206045,-8.456908739678267,-0.2827427238399416,0.17579916917085825,-1.0344328105722589,-0.014737986945601023,0.007716755618503157,-0.0529476647386673,0.0,70.0,255.0,255.0,255.0
310,15.5,-6.827098916874105,-12.05390227158026,-8.508696470386592,-0.2834667109513944,0.17618225714260305,-1.0370616415711353,-0.014268336484590805,0.00772892882388021,-0.05238440545802803,0.0,70.0,255.0,255.0,255.0
311,15.55,-6.841290050712837,-12.045083578491784,-8.560614903835381,-0.28416955748840067,0.17657206205324627,-1.0396712511180617,-0.01390889299175413,0.007976984193902581,-0.05219292169531542,0.0,70.0,255.0,255.0,255.0
312,15.600000000000001,-6.855515872622945,-12.036245065374935,-8.612663595498399,-0.28485760025056983,0.1769799555619933,-1.0422809337406669,-0.013691040695018586,0.008410432481475993,-0.05235999578943051,0.0,70.0,255.0,255.0,255.0
313,15.65,-6.869775810737894,-12.027385582935585,-8.664842997209448,-0.28553866155790253,0.17741310530139387,-1.0449072506970047,-0.013646801247357843,0.00893233844809771,-0.052824191930689324,0.0,70.0,255.0,255.0,255.0
314,15.700000000000001,-6.884069738778735,-12.018503754844795,-8.717154320568099,-0.2862222803753056,0.17787318940680308,-1.0475633529337358,-0.01380577911813674,0.009427729076527669,-0.053509155775621764,0.0,70.0,255.0,255.0,255.0
315,15.75,-6.898398038775425,-12.009598263994905,-8.769599332502821,-0.2869192394697162,0.17835587820904664,-1.050258166274567,-0.014203775324439505,0.009779665682252414,-0.054350923063140044,0.0,70.0,255.0,255.0,255.0
316,15.8,-6.912761662725707,-12.00066816702389,-8.822180137195556,-0.28764265790774957,0.17885115597502832,-1.0529984452400498,-0.014840933562343395,0.009925515344200164,-0.0552907170819239,0.0,70.0,255.0,255.0,255.0
317,15.850000000000001,-6.9271623045662,-11.991713148397402,-8.874899177026826,-0.28840333282595054,0.17934842974346665,-1.0557872379827593,-0.015596950257279474,0.009898039426126104,-0.05619551000535239,0.0,70.0,255.0,255.0,255.0
318,15.9,-6.941601996008302,-11.982733324049544,-8.927758860993832,-0.2892023529334775,0.17984095991764093,-1.058617996240585,-0.016268264949381717,0.009772471880786782,-0.056861481016490245,0.0,70.0,255.0,255.0,255.0
319,15.950000000000001,-6.956082539859548,-11.973729052405638,-8.980760976650885,-0.2900301593208887,0.18032567693154533,-1.0614733860844083,-0.016646635509509622,0.009626127608619583,-0.05708396390726733,0.0,70.0,255.0,255.0,255.0
320,16.0,-6.970605011940391,-11.96470075635639,-9.033906199602272,-0.2908670164844285,0.1808035726785029,-1.0643263926313118,-0.016524580865429073,0.00954438979903216,-0.05666393026242389,0.0,70.0,255.0,255.0,255.0
321,16.05,-6.9851692415079905,-11.955648695137787,-9.087193615914016,-0.2916826174074316,0.18128011591144855,-1.0671397791106507,-0.015813060404479273,0.009573728323886144,-0.05552887198110312,0.0,70.0,255.0,255.0,255.0
322,16.1,-6.999773273681134,-11.946572744765245,-9.140620177513338,-0.2924483225248764,0.1817609455108915,-1.069879279829422,-0.014687405361879513,0.009676477412234874,-0.05390505043489924,0.0,70.0,255.0,255.0,255.0
323,16.150000000000002,-7.014414073760478,-11.937472600586698,-9.194181543896958,-0.2931513579436196,0.18224776365267203,-1.0725302841541406,-0.01347557019064638,0.009779545589339023,-0.052206154401091,0.0,70.0,255.0,255.0,255.0
324,16.2,-7.029088409475496,-11.928347968399978,-9.247873205928752,-0.29379587954394104,0.1827389000698254,-1.0750998952695312,-0.01251322662962906,0.009820674242888572,-0.05086622402732388,0.0,70.0,255.0,255.0,255.0
325,16.25,-7.043793661714872,-11.919198710579716,-9.301691533423911,-0.2944026806065825,0.1832298310769609,-1.077616906556873,-0.012125873242130325,0.009746831065449157,-0.05031736521008412,0.0,70.0,255.0,255.0,255.0
326,16.3,-7.058528677536154,-11.910024985292281,-9.355634896584439,-0.2950084668681541,0.18371358317637032,-1.0801316317905396,-0.012473911066468446,0.0095324851139722,-0.05076759452666835,0.0,70.0,255.0,255.0,255.0
327,16.35,-7.073294508401688,-11.900827352262079,-9.409704696602965,-0.2956500717132293,0.1841830795883581,-1.0826936660095399,-0.013403544844869941,0.009197822486051166,-0.051971700843189694,0.0,70.0,255.0,255.0,255.0
328,16.400000000000002,-7.088093684707477,-11.891606677333446,-9.463904263185393,-0.29634882135264107,0.18463336542497544,-1.0853288018748586,-0.014598498577012009,0.008788413360072411,-0.05344564963181142,0.0,70.0,255.0,255.0,255.0
329,16.45,-7.102929390536952,-11.882364015719581,-9.518237576790451,-0.2971099215709305,0.18506192092436535,-1.088038230972721,-0.015734397366262698,0.008350662600342673,-0.05469179266359703,0.0,70.0,255.0,255.0,255.0
330,16.5,-7.11780467686457,-11.87310048524101,-9.572708086282665,-0.29792226108926734,0.1854684316850097,-1.0907979811412183,-0.016499944814274414,0.007912295262713087,-0.055202646192320515,0.0,70.0,255.0,255.0,255.0
331,16.55,-7.1327216166458784,-11.86381717255108,-9.627317374904573,-0.29875991605235797,0.18585315045063666,-1.093558495591953,-0.016725234723669047,0.00749633122012483,-0.05472140259232816,0.0,70.0,255.0,255.0,255.0
332,16.6,-7.147680668469806,-11.854515170195945,-9.68206393584186,-0.29959478456163424,0.1862180648070222,-1.096270121400451,-0.016467459548064056,0.007169528680428527,-0.05349989444489722,0.0,70.0,255.0,255.0,255.0
333,16.650000000000002,-7.162681095102042,-11.845195366070378,-9.736944387044618,-0.30040666200716437,0.18657010331867951,-1.0989084850364428,-0.01588055205097305,0.007029504933342423,-0.05203865965999199,0.0,70.0,255.0,255.0,255.0
334,16.7,-7.177721334670522,-11.835858159864078,-9.791954784345505,-0.30118283976673155,0.18692101530035643,-1.1014739873664503,-0.015122983438864424,0.007163248782937615,-0.05083355170505399,0.0,70.0,255.0,255.0,255.0
335,16.75,-7.192799379078715,-11.826503264540342,-9.847091785781263,-0.3019189603510508,0.18728642819697328,-1.1039918402069482,-0.014354347500411535,0.007655922615334987,-0.050387947455732274,0.0,70.0,255.0,255.0,255.0
336,16.8,-7.2079132307056275,-11.81712951704438,-9.9023539683662,-0.3026182745167727,0.18768660756188993,-1.1065127821120235,-0.013676898290260198,0.008530301893827641,-0.05095322867028074,0.0,70.0,255.0,255.0,255.0
337,16.85,-7.223061206530392,-11.807734603784153,-9.957743063992465,-0.30328665018007683,0.18813945838635604,-1.1090871630739763,-0.013123819761151623,0.009641452069431011,-0.05225790552731979,0.0,70.0,255.0,255.0,255.0
338,16.900000000000002,-7.238241895723635,-11.798315571205745,-10.013262684673597,-0.30393065649288786,0.18865075276883303,-1.1117385726647555,-0.01272460790442409,0.01073366014772148,-0.05377052757999934,0.0,70.0,255.0,255.0,255.0
339,16.95,-7.253454272179681,-11.78886952850727,-10.068916921258941,-0.30455911097051924,0.1892128244011282,-1.1144642158319762,-0.012518843702569171,0.011544594016221765,-0.05496756694807203,0.0,70.0,255.0,255.0,255.0
340,17.0,-7.268697806820687,-11.779394288765632,-10.124709106256795,-0.3051825408631448,0.1898052121704552,-1.1172353293595627,-0.012534693156407428,0.011828023598070558,-0.055329666547798695,0.0,70.0,255.0,255.0,255.0
341,17.05,-7.283972526265996,-11.769889007290224,-10.180640454194897,-0.30581258028616,0.19039562676093524,-1.119997182486756,-0.01277491104314521,0.011468148849402837,-0.05459873634148238,0.0,70.0,255.0,255.0,255.0
342,17.1,-7.299279064849303,-11.760354726089538,-10.23670882450547,-0.3064600319674593,0.1909520270553955,-1.122695202993711,-0.01319371828385485,0.010593614091902737,-0.05304107085937204,0.0,70.0,255.0,255.0,255.0
343,17.150000000000002,-7.3146185294627415,-11.750793804584685,-10.292909974494268,-0.30713195211454547,0.19145498817012552,-1.1253012895726933,-0.013702881133426104,0.009468581749949578,-0.0511874817677338,0.0,70.0,255.0,255.0,255.0
344,17.2,-7.329992260060758,-11.741209227272526,-10.34923895346274,-0.3078303200808019,0.19189888523039045,-1.1278139511704843,-0.014195954104589958,0.008377349511512477,-0.049568814533706984,0.0,70.0,255.0,255.0,255.0
345,17.25,-7.345401561470822,-11.731603916061646,-10.405691369611317,-0.30855154752500447,0.19229272312127677,-1.130258171026064,-0.014566833253759626,0.007608020287008799,-0.0487053210841637,0.0,70.0,255.0,255.0,255.0
346,17.3,-7.360847414813258,-11.721979954960398,-10.462264770565346,-0.3092870034061779,0.19265968725909133,-1.1326844832789007,-0.014757257071273955,0.007316077065944171,-0.04886497281813007,0.0,70.0,255.0,255.0,255.0
347,17.35,-7.3763302618114395,-11.712337947335737,-10.518959817939207,-0.31002727323213186,0.19302433082787118,-1.135144668307877,-0.014784943467471834,0.007416818836958328,-0.049844291222633785,0.0,70.0,255.0,255.0,255.0
348,17.400000000000002,-7.391850142136471,-11.702677521877611,-10.575779237396134,-0.31076549775292506,0.19340136914278716,-1.137668912401164,-0.01469939203779802,0.007720963903423694,-0.051213065161803684,0.0,70.0,255.0,255.0,255.0
349,17.45,-7.407406811586732,-11.692997810421458,-10.632726709179323,-0.31149721243591166,0.19379642721821355,-1.1402659748240573,-0.014551139412688485,0.00803840887044771,-0.052537314776834876,0.0,70.0,255.0,255.0,255.0
350,17.5,-7.4229998633800625,-11.68329787915579,-10.68980583487854,-0.3122206116941939,0.19420521002983193,-1.1429226438788476,-0.014389955180327263,0.008155932548348233,-0.053385086411950056,0.0,70.0,255.0,255.0,255.0
351,17.55,-7.438628872756151,-11.673577289418475,-10.747018973567208,-0.3129362079539444,0.19461202047304837,-1.1456044834652523,-0.014248834564334345,0.00796199509984774,-0.05352253788739603,0.0,70.0,255.0,255.0,255.0
352,17.6,-7.454293484175457,-11.663836677108485,-10.804366283225065,-0.31364549515062734,0.1950014095398167,-1.1482748976675872,-0.014145575445212444,0.007580975363019604,-0.05307174094042466,0.0,70.0,255.0,255.0,255.0
353,17.650000000000002,-7.469993422271214,-11.654077148464493,-10.861846463333967,-0.31435076549846563,0.19537011800935034,-1.1509116575592948,-0.014101322277237927,0.007244019513308331,-0.05230860257352532,0.0,70.0,255.0,255.0,255.0
354,17.7,-7.4857285607253035,-11.64429966530755,-10.919457448980994,-0.31505562737835113,0.19572581149114754,-1.1535057579249397,-0.014145688711497684,0.007163187500580648,-0.051502812138615184,0.0,70.0,255.0,255.0,255.0
355,17.75,-7.501498985009049,-11.634504567315378,-10.97719703912646,-0.3157653343696154,0.1960864367594084,-1.1560619387731563,-0.014325373997170487,0.00756013763254515,-0.05093027732314681,0.0,70.0,255.0,255.0,255.0
356,17.8,-7.517305094162265,-11.624691021631609,-11.03506364285831,-0.3164881647780682,0.19648182525440205,-1.1585987856572544,-0.014654117956958146,0.008530115028904106,-0.05074371013265022,0.0,70.0,255.0,255.0,255.0
357,17.85,-7.533147801486856,-11.614856384789938,-11.093056917692186,-0.3172307461653112,0.1969394482622988,-1.1611363097864214,-0.015032754751143074,0.00985573658596195,-0.050864176252041204,0.0,70.0,255.0,255.0,255.0
358,17.900000000000002,-7.549028168778796,-11.604997076805379,-11.151177273836952,-0.3179914402531825,0.19746739891299825,-1.1636852032824585,-0.015295318853425499,0.01114482284378937,-0.051118771630065396,0.0,70.0,255.0,255.0,255.0
359,17.95,-7.564946945512174,-11.595109644898638,-11.209425438020432,-0.31876027805065377,0.19805393054667775,-1.166248186949428,-0.015279532315570776,0.012010006629736836,-0.05135055088665297,0.0,70.0,255.0,255.0,255.0
360,18.0,-7.5809041965838615,-11.585191683750711,-11.267802092531895,-0.31951939348473957,0.19866839957597193,-1.1688202583711238,-0.014812604775027438,0.012071582190920083,-0.05140587888625703,0.0,70.0,255.0,255.0,255.0
361,18.05,-7.596898884860648,-11.575242804941041,-11.326307463857544,-0.3202415385281565,0.19926108876576976,-1.1713887748380536,-0.01382709453938702,0.011156146181967586,-0.05120276144410241,0.0,70.0,255.0,255.0,255.0
362,18.1,-7.612928350436677,-11.565265574874134,-11.3849409700157,-0.32090210293867827,0.1997840141941687,-1.173940534515534,-0.012526948674462801,0.009526800904069432,-0.05079425801550741,0.0,70.0,255.0,255.0,255.0
363,18.150000000000002,-7.628989095154516,-11.555264403521624,-11.443701517309098,-0.3214942333956028,0.2002137688561767,-1.1764682006396043,-0.011275537507415834,0.007688483983514516,-0.050293606941842484,0.0,70.0,255.0,255.0,255.0
364,18.2,-7.645077773776237,-11.545244197988517,-11.50258779007966,-0.32202965668941985,0.20055286259252014,-1.1789698952097183,-0.010435016525089935,0.0061618209455716055,-0.049808271026741124,0.0,70.0,255.0,255.0,255.0
365,18.25,-7.661192060823458,-11.535209117262372,-11.56159850683007,-0.3225377350481118,0.20082995095073386,-1.1814490277422784,-0.010356141634293436,0.005469524279355653,-0.04943818848381909,0.0,70.0,255.0,255.0,255.0
366,18.3,-7.677331547281049,-11.525161202893443,-11.620732692853888,-0.3230652708528492,0.2010998150204557,-1.1839137140581002,-0.011198902485975992,0.005871873668006344,-0.049238530806761105,0.0,70.0,255.0,255.0,255.0
367,18.35,-7.693498587908743,-11.515099135760327,-11.67998987823588,-0.3236576252967094,0.2014171383175345,-1.1863728808229546,-0.012728727941357931,0.007103539985742202,-0.049196087724290294,0.0,70.0,255.0,255.0,255.0
368,18.400000000000002,-7.7096973098107195,-11.50501948906169,-11.739369980936184,-0.324338143646985,0.20181016901902993,-1.1888333228305292,-0.014490736246131064,0.008634761038450733,-0.04926950456329848,0.0,70.0,255.0,255.0,255.0
369,18.45,-7.7259324022734415,-11.494918118858424,-11.798873210518932,-0.3251066989213225,0.20228061442137957,-1.1912998312792844,-0.0160153666191043,0.009929562734711794,-0.049416365005505725,0.0,70.0,255.0,255.0,255.0
370,18.5,-7.742207979702852,-11.484791427619552,-11.858499964064112,-0.3259396803088954,0.2028031252925011,-1.1937749593310798,-0.016846838010753373,0.010438385957911578,-0.0495973578539477,0.0,70.0,255.0,255.0,255.0
371,18.55,-7.758526370304331,-11.474637806329174,-11.91825070645204,-0.3267913827223978,0.20332445301717073,-1.1962595670646792,-0.016750722088687553,0.009883725111414776,-0.04978362814966886,0.0,70.0,255.0,255.0,255.0
372,18.6,-7.774887117975092,-11.464458982317835,-11.97812592077058,-0.3276147525177642,0.20379149780364259,-1.1987533221460467,-0.015891659374744904,0.008550787405248172,-0.049942323489027274,0.0,70.0,255.0,255.0,255.0
373,18.650000000000002,-7.791287845556107,-11.45425865654881,-12.038126038666645,-0.3283805486598723,0.20417953175769554,-1.201253799413582,-0.01462799769624823,0.006999884450920035,-0.0500266032439356,0.0,70.0,255.0,255.0,255.0
374,18.7,-7.807725172841079,-11.444041029142065,-12.098251300711938,-0.329077552287389,0.2044914862487346,-1.2037559824704402,-0.013330090424812369,0.005780161216151214,-0.04998678177230431,0.0,70.0,255.0,255.0,255.0
375,18.75,-7.824195600784846,-11.433809507923936,-12.15850163691369,-0.32971355770235355,0.20475754787931066,-1.2062524775908123,-0.012372496997503646,0.005440801353628899,-0.04977238009935547,0.0,70.0,255.0,255.0,255.0
376,18.8,-7.840696528611314,-11.423565274354134,-12.21887654847102,-0.33031480198713936,0.20503556638409748,-1.2087332204803758,-0.01196324412333638,0.006253458986194005,-0.04936644377391275,0.0,70.0,255.0,255.0,255.0
377,18.85,-7.85722708098356,-11.413305951285526,-12.279374958961727,-0.3309098821146872,0.20538289377793006,-1.2111891219682036,-0.012016429431849218,0.007920722980259143,-0.04883638988175676,0.0,70.0,255.0,255.0,255.0
378,18.900000000000002,-7.873787516822783,-11.403026984976341,-12.33999546066784,-0.3315164449303243,0.2058276386821234,-1.2136168594685515,-0.012327995580729834,0.009857449408556818,-0.048303150060213795,0.0,70.0,255.0,255.0,255.0
379,18.95,-7.890378725476593,-11.392723187417314,-12.400736644908582,-0.3321426816727602,0.20636863871878575,-1.216019436974225,-0.012702873080616683,0.011483871655215694,-0.047889281797885985,0.0,70.0,255.0,255.0,255.0
380,19.0,-7.907001784990059,-11.382390121104462,-12.461597404365262,-0.33278673223838595,0.20697602584764496,-1.21840578764834,-0.012931239267111039,0.01223850186828912,-0.04770510309946019,0.0,70.0,255.0,255.0,255.0
381,19.05,-7.923657398700431,-11.37202558483255,-12.522577223673416,-0.3334358055994713,0.20759248890561466,-1.220789947284171,-0.012897466917483058,0.011835492556677707,-0.047804396289308215,0.0,70.0,255.0,255.0,255.0
382,19.1,-7.940345365550006,-11.361630872213901,-12.58367639909368,-0.33407647893013426,0.20815957510331273,-1.2231862272772709,-0.01268448769931041,0.010501612049651499,-0.048147641461326884,0.0,70.0,255.0,255.0,255.0
383,19.150000000000002,-7.957065046593445,-11.351209627322218,-12.644895846401143,-0.3347042543694023,0.2086426501105798,-1.2256047114303037,-0.01245647685923501,0.008715865699748804,-0.0486444328775093,0.0,70.0,255.0,255.0,255.0
384,19.200000000000003,-7.973815790986946,-11.340766607202843,-12.70623687023671,-0.33532212661605776,0.2090311616732876,-1.2280506705650218,-0.012359303034070734,0.0069636994819433085,-0.049196603854895216,0.0,70.0,255.0,255.0,255.0
385,19.25,-7.9905972592550505,-11.33030651115489,-12.767700913457645,-0.3359401846728094,0.20933902005877414,-1.2305243718157932,-0.01254646201660492,0.00571316320172599,-0.049719188855235075,0.0,70.0,255.0,255.0,255.0
386,19.3,-8.007409809454227,-11.319832705196966,-12.82928930741829,-0.33657677281771825,0.2096024779934602,-1.2330225894505453,-0.013087261166244701,0.00522340528679166,-0.05015648388955185,0.0,70.0,255.0,255.0,255.0
387,19.35,-8.024254936536822,-11.309346263355543,-12.8910031724027,-0.33724891078943386,0.2098613605874533,-1.2355400202047484,-0.013843848209837972,0.0054201481679783114,-0.05045668063754505,0.0,70.0,255.0,255.0,255.0
388,19.400000000000002,-8.04113470053317,-11.29884656913822,-12.952843309438764,-0.33796115763870205,0.21014449281025804,-1.2380682575142998,-0.01456702938433807,0.006093446766541888,-0.050554642905531466,0.0,70.0,255.0,255.0,255.0
389,19.450000000000003,-8.058051052300693,-11.288331814074517,-13.01480999815413,-0.33870561372786767,0.2104707052641075,-1.2405954844953015,-0.015013854176970653,0.007033731349714856,-0.050391528889548454,0.0,70.0,255.0,255.0,255.0
390,19.5,-8.075005261905957,-11.27779949861181,-13.076902857888294,-0.3394625430563991,0.21084786594522953,-1.2431074104032547,-0.014942959285590973,0.008036863972193942,-0.04991417877580062,0.0,70.0,255.0,255.0,255.0
391,19.55,-8.091997306606332,-11.267247027479995,-13.139120739194455,-0.34019990965642677,0.2112743916613269,-1.2455869023728816,-0.014245889349595586,0.00896636415266272,-0.04911484297558388,0.0,70.0,255.0,255.0,255.0
392,19.6,-8.1090252528716,-11.256672059445677,-13.201461548125582,-0.34088713199135867,0.2117445023604958,-1.248018894700813,-0.013106366547788184,0.009741524882045383,-0.04810824671235281,0.0,70.0,255.0,255.0,255.0
393,19.650000000000002,-8.126086019805468,-11.246072577243945,-13.263922628664536,-0.3415105463112056,0.21224854414953143,-1.250397727044117,-0.011870836839733556,0.010263260985254874,-0.047096902262211415,0.0,70.0,255.0,255.0,255.0
394,19.700000000000003,-8.14317630750272,-11.235447205030724,-13.326501320829994,-0.342074215675332,0.2127708284590213,-1.2527285849270342,-0.010890828043841339,0.010416713115013465,-0.04629574212344778,0.0,70.0,255.0,255.0,255.0
395,19.75,-8.160293441373001,-11.224795494398043,-13.38919548715724,-0.3425996291155897,0.21329021546103277,-1.2550273012564617,-0.01050967286797544,0.010087352938015215,-0.0459121146892727,0.0,70.0,255.0,255.0,255.0
396,19.8,-8.17743627041428,-11.21411818348462,-13.45200405095564,-0.34312518296212957,0.2137795637528228,-1.2573197963959615,-0.010896267682092287,0.009242886353533208,-0.04604465702868765,0.0,70.0,255.0,255.0,255.0
397,19.85,-8.194605959669214,-11.20341753802276,-13.514927466796836,-0.34368925588379895,0.2142145040963861,-1.2596317669593304,-0.011880802149910608,0.008059066990107056,-0.04658315302581428,0.0,70.0,255.0,255.0,255.0
398,19.900000000000002,-8.21180519600266,-11.192696733074982,-13.577967227651573,-0.34431326317712063,0.21458547045183352,-1.261978111698543,-0.013118667546763163,0.006850712090056277,-0.047304088373500974,0.0,70.0,255.0,255.0,255.0
399,19.950000000000003,-8.229037285986927,-11.181958990977577,-13.64112527796669,-0.34500112263847527,0.21489957530539172,-1.2643621757966805,-0.014256773040877135,0.0059511644399989905,-0.047972728723522096,0.0,70.0,255.0,255.0,255.0
400,20.0,-8.246305308266507,-11.171206775544443,-13.704403445231241,-0.34573894048120835,0.21518058689583341,-1.2667753845708951,-0.01494636789018955,0.005693724274991041,-0.04835736246615596,0.0,70.0,255.0,255.0,255.0
401,20.05,-8.263611180035047,-11.160440932287994,-13.76780281642378,-0.3464957594274942,0.21546894773289083,-1.2691979120432961,-0.015002979316136589,0.0062358899683090385,-0.04833375501718251,0.0,70.0,255.0,255.0,255.0
402,20.1,-8.280954884209256,-11.149659880771154,-13.831323236435571,-0.347239238412822,0.21580417589266432,-1.2716087600726134,-0.014539469140828487,0.007372323709908812,-0.04796548151002611,0.0,70.0,255.0,255.0,255.0
403,20.150000000000002,-8.29833510387633,-11.138860514698727,-13.894963692431041,-0.34794970634157707,0.2162061801038817,-1.2739944601942987,-0.013804609523937472,0.008702934943727314,-0.0473995647572778,0.0,70.0,255.0,255.0,255.0
404,20.200000000000003,-8.315749854843414,-11.128039262760765,-13.958722682455,-0.34861969936521575,0.21667446938703705,-1.2763487165483411,-0.01304916604034645,0.00981928180312508,-0.04678042922954262,0.0,70.0,255.0,255.0,255.0
405,20.25,-8.333197073812851,-11.117193067760024,-14.022598564085875,-0.3492546229456117,0.21718810828419421,-1.278672503117253,-0.012532827599542884,0.010317796581738037,-0.04624239814887687,0.0,70.0,255.0,255.0,255.0
406,20.3,-8.350675317137975,-11.106320451932346,-14.086589932766726,-0.34987298212517004,0.21770624904521085,-1.2809729563632288,-0.012397362837823778,0.009993693635124146,-0.04586638351007366,0.0,70.0,255.0,255.0,255.0
407,20.35,-8.368184372025368,-11.095422442855503,-14.150695859722198,-0.3504943592293941,0.21818747764770663,-1.2832591414682604,-0.012556752520964665,0.0090224540217676,-0.045671284570936166,0.0,70.0,255.0,255.0,255.0
408,20.400000000000002,-8.385724753060915,-11.084501704167575,-14.214915846913552,-0.3511286573772665,0.2186084944473876,-1.2855400848203224,-0.012829141445358516,0.00776673228362057,-0.04566212812093795,0.0,70.0,255.0,255.0,255.0
409,20.450000000000003,-8.403297237763095,-11.073561593410764,-14.27924986820423,-0.35177727337392994,0.21896415087606869,-1.2878253542803542,-0.013045677017409218,0.006591568486236099,-0.04584504153726243,0.0,70.0,255.0,255.0,255.0
410,20.5,-8.420902480398308,-11.062605289079968,-14.343698382341588,-0.35243322507900743,0.21926765129601122,-1.2901245889740487,-0.013034396302913365,0.005855042778080133,-0.046229035614864245,0.0,70.0,255.0,255.0,255.0
411,20.55,-8.438540560270996,-11.051634828281163,-14.408262327101635,-0.3530807130042213,0.2195496551538767,-1.2924482578418406,-0.012707709192127936,0.005748682811379524,-0.04680173658435649,0.0,70.0,255.0,255.0,255.0
412,20.6,-8.45621055169873,-11.04065032356458,-14.472943208125772,-0.3537039959982202,0.21984251957714918,-1.2948047626324843,-0.012156224738113508,0.006168815913731862,-0.047468541044715096,0.0,70.0,255.0,255.0,255.0
413,20.650000000000002,-8.473910959870818,-11.029650576323448,-14.537742803364884,-0.35429633547803263,0.22016653674524989,-1.297195111946312,-0.011556120733402508,0.006880019370925083,-0.04807108359905499,0.0,70.0,255.0,255.0,255.0
414,20.700000000000003,-8.491640185246533,-11.018633669890056,-14.602662719320403,-0.3548596080715605,0.22053052151424168,-1.2996118709923898,-0.011074699316182546,0.007647358005513638,-0.048447143549346094,0.0,70.0,255.0,255.0,255.0
415,20.75,-8.509396920677974,-11.007597524172024,-14.667703990464123,-0.3554038054096509,0.22093127254580125,-1.3020398263012467,-0.01086954056770395,0.00823406027912199,-0.04844947803697153,0.0,70.0,255.0,255.0,255.0
416,20.8,-8.527180565787498,-10.996540542635476,-14.732866701950527,-0.35594656212833087,0.22135392754215388,-1.304456818796087,-0.011018886640634662,0.008506027333865518,-0.04801235779776647,0.0,70.0,255.0,255.0,255.0
417,20.85,-8.544991576890807,-10.985462131417808,-14.798149672343731,-0.35650569407371435,0.2217818752791878,-1.3068410620810234,-0.01145387300116596,0.00850685108684246,-0.04722079833783255,0.0,70.0,255.0,255.0,255.0
418,20.900000000000002,-8.56283113519487,-10.974362355107557,-14.86355080815863,-0.35709194942844746,0.22220461265083813,-1.3091788986298702,-0.012030011986396971,0.008346943144310615,-0.04624896872016393,0.0,70.0,255.0,255.0,255.0
419,20.950000000000003,-8.580700771833651,-10.963241670152724,-14.929067562206718,-0.35770869527235405,0.22261656959361886,-1.3114659589530397,-0.012596038540557686,0.00812659855977671,-0.04528535862480254,0.0,70.0,255.0,255.0,255.0
420,21.0,-8.598602004722105,-10.952100698148195,-14.994697404053934,-0.35835155328250323,0.2230172725068158,-1.3137074344923505,-0.012999422776616143,0.007948669487944926,-0.04450508020834576,0.0,70.0,255.0,255.0,255.0
421,21.05,-8.616535927161902,-10.940939942902043,-15.060438305655953,-0.35900863755001566,0.22341143654241336,-1.3159164669738743,-0.013157257063944883,0.007873268459590577,-0.04400831940376548,0.0,70.0,255.0,255.0,255.0
422,21.1,-8.634502868477107,-10.929759554493954,-15.126289050751321,-0.3596672789888977,0.22380459935277486,-1.318108266432727,-0.013111919621522361,0.007882847336482257,-0.04380192527655424,0.0,70.0,255.0,255.0,255.0
423,21.150000000000002,-8.652502655060792,-10.918559482966765,-15.192249132299226,-0.3603198295121679,0.22419972127606158,-1.3202966595015297,-0.012959355798081162,0.007933979611252084,-0.04386022100781872,0.0,70.0,255.0,255.0,255.0
424,21.200000000000003,-8.670534851428323,-10.907339582366347,-15.258318716701474,-0.36096321456870584,0.22459799731390007,-1.322494288533509,-0.012794946055549872,0.007992448222360338,-0.04415090913099107,0.0,70.0,255.0,255.0,255.0
425,21.25,-8.688598976517662,-10.896099683235375,-15.324498561152577,-0.3615993241177229,0.22499896609829761,-1.3247117504146289,-0.01272474967759507,0.008023289744230055,-0.04464218248134699,0.0,70.0,255.0,255.0,255.0
426,21.3,-8.706694783840096,-10.884839685756518,-15.390789891742937,-0.36223568953646534,0.22540032628832307,-1.3269585067816436,-0.012804858995529855,0.008007612113658524,-0.045295903050046604,0.0,70.0,255.0,255.0,255.0
427,21.35,-8.724822545471309,-10.873559650606543,-15.457194411830741,-0.3628798100172759,0.22579972730966347,-1.3292413407196335,-0.012977516111156717,0.007961759565411342,-0.04601159379582498,0.0,70.0,255.0,255.0,255.0
428,21.400000000000002,-8.742982764841823,-10.862259713025551,-15.5237140258149,-0.363533441147581,0.2261965022448642,-1.3315596661612261,-0.013134336384190703,0.007917138410640234,-0.04662753652411311,0.0,70.0,255.0,255.0,255.0
429,21.450000000000003,-8.761175889586067,-10.850940000382057,-15.590350378446864,-0.36419324365569494,0.2265914411507275,-1.3339040943720448,-0.013177090990446061,0.00790360855180694,-0.04697254331222922,0.0,70.0,255.0,255.0,255.0
430,21.5,-8.779402089207393,-10.839600568910479,-15.657104435252105,-0.3648511502466256,0.2269868631000449,-1.336256920492449,-0.013005634456320081,0.007958171536337488,-0.04688218054358373,0.0,70.0,255.0,255.0,255.0
431,21.55,-8.79766100461073,-10.828241314072052,-15.723976070496109,-0.36549380710132695,0.22738725830436124,-1.3385923124264032,-0.012576220706606023,0.008096283084313427,-0.04628704275617679,0.0,70.0,255.0,255.0,255.0
432,21.6,-8.815951469917525,-10.816861843080043,-15.790963666494745,-0.3661087723172862,0.22779649140847624,-1.3408856247680667,-0.011979787495874916,0.008270114400765749,-0.045317946626255434,0.0,70.0,255.0,255.0,255.0
433,21.650000000000002,-8.834271881842458,-10.805461664931205,-15.858064632972916,-0.36669178585091444,0.22821426974443781,-1.3431241070890287,-0.011382366264811594,0.008397466747922522,-0.044225064129932434,0.0,70.0,255.0,255.0,255.0
434,21.700000000000003,-8.852620648502617,-10.794040416105599,-15.925276077203648,-0.3672470089437674,0.2286362380832685,-1.34530813118106,-0.01094946387514284,0.008399830857541701,-0.04327117869227237,0.0,70.0,255.0,255.0,255.0
435,21.75,-8.870996582736835,-10.782598041122878,-15.992595446091022,-0.3677867322384287,0.22905425283019198,-1.347451224958256,-0.01084469384800002,0.008196052081999028,-0.04270909534476175,0.0,70.0,255.0,255.0,255.0
436,21.8,-8.88939932172646,-10.77113499082258,-16.060021199699474,-0.3683314783285674,0.2294558432914684,-1.3495790407155361,-0.011144057711653943,0.007753456015002769,-0.04266921263749168,0.0,70.0,255.0,255.0,255.0
437,21.85,-8.907829730569691,-10.75965245679373,-16.127553350162575,-0.3689011380095941,0.22982959843169226,-1.3517181462220051,-0.011738858381704631,0.007159554392721645,-0.04306850781130578,0.0,70.0,255.0,255.0,255.0
438,21.900000000000002,-8.92628943552742,-10.74815203097941,-16.195193014321674,-0.36950536416673785,0.23017179873074056,-1.3538858914966667,-0.012419834920862627,0.006572062198628714,-0.043720318845430484,0.0,70.0,255.0,255.0,255.0
439,21.950000000000003,-8.944780266986365,-10.736635276920657,-16.262941939312242,-0.3701431215016804,0.23048680465155513,-1.3560901781065482,-0.012972279615475202,0.006149841910207954,-0.044429455206795865,0.0,70.0,255.0,255.0,255.0
440,22.0,-8.963303747677587,-10.725103350514255,-16.33080203213233,-0.37080259212828537,0.23078678292176136,-1.3583288370173463,-0.01317959947524372,0.0060496014857136515,-0.04500143807852908,0.0,70.0,255.0,255.0,255.0
441,22.05,-8.981860526199194,-10.71355659862848,-16.398774823013976,-0.37146108144920476,0.2310917648001265,-1.360590321914401,-0.012934261734010022,0.006343692390764488,-0.04532384561848346,0.0,70.0,255.0,255.0,255.0
442,22.1,-9.000449855822508,-10.701994174034242,-16.46686106432377,-0.37209601830168637,0.2314211521608378,-1.3628612215791946,-0.01235018690213252,0.006927192504058155,-0.04541259089201333,0.0,70.0,255.0,255.0,255.0
443,22.150000000000002,-9.019070128029362,-10.690414483412397,-16.535060945171896,-0.372696100139418,0.2317844840505323,-1.3651315810036024,-0.011652886126434225,0.007597920821922344,-0.045327413404905315,0.0,70.0,255.0,255.0,255.0
444,22.200000000000003,-9.03771946583645,-10.678815725629189,-16.60337422242413,-0.3732613069143298,0.23218094424303004,-1.3673939629196852,-0.011067991089497298,0.008148027609955477,-0.04512531283573651,0.0,70.0,255.0,255.0,255.0
445,22.25,-9.056396258720795,-10.667196388988094,-16.671800341463864,-0.37380289924836774,0.23259928681152786,-1.369644112287176,-0.010820870954830752,0.008369551297526812,-0.04487713369201174,0.0,70.0,255.0,255.0,255.0
446,22.3,-9.075099755761286,-10.655555796948036,-16.740338633652847,-0.37434339400981287,0.23301789937278272,-1.3718816762888864,-0.011025468780268,0.00815848770763239,-0.04462766595807466,0.0,70.0,255.0,255.0,255.0
447,22.35,-9.093830598121777,-10.643894599050816,-16.808988509092753,-0.37490544612639454,0.2334151355822911,-1.3741068788829836,-0.011574986084106342,0.0076170835171751605,-0.04436196778243584,0.0,70.0,255.0,255.0,255.0
448,22.400000000000002,-9.112590300373926,-10.632214283389807,-16.877749321541145,-0.3755008926182235,0.23377960772450024,-1.37631787306713,-0.012254028497338254,0.006950846587905346,-0.044050866697986635,0.0,70.0,255.0,255.0,255.0
449,22.450000000000003,-9.131380687383599,-10.620516638278366,-16.946620296399466,-0.37613084897612836,0.23411022024108163,-1.3785119655527822,-0.012849182600049858,0.006364621076393462,-0.0436816943796714,0.0,70.0,255.0,255.0,255.0
450,22.5,-9.150203385271539,-10.608803261365699,-17.015600518096424,-0.3767858108782285,0.23441606983213958,-1.380686042505097,-0.01315295400274863,0.006056156027689497,-0.043238092419883856,0.0,70.0,255.0,255.0,255.0
451,22.55,-9.169059268471422,-10.597075031295152,-17.084688900649976,-0.3774461443764032,0.23471583584385058,-1.3828357747947706,-0.013057289719320408,0.006128930205129279,-0.04271840430547513,0.0,70.0,255.0,255.0,255.0
452,22.6,-9.187947999709179,-10.585331677781314,-17.1538840955759,-0.37809153985016053,0.2350289628526525,-1.3849578829356446,-0.012635276686268071,0.006519065503596266,-0.04217860557993447,0.0,70.0,255.0,255.0,255.0
453,22.650000000000002,-9.206868422456438,-10.573572135009886,-17.22318468894354,-0.37870967204503003,0.2353677423942102,-1.387053635352764,-0.012045591956599822,0.007084100750986977,-0.041710891362356506,0.0,70.0,255.0,255.0,255.0
454,22.700000000000003,-9.225818966913682,-10.561794903541893,-17.292589459111177,-0.3792960990458205,0.2357373729277512,-1.3891289720718802,-0.011448565224725371,0.007680201370874329,-0.041400683534931204,0.0,70.0,255.0,255.0,255.0
455,22.75,-9.24479803236102,-10.549998397717111,-17.36209758615073,-0.37985452856750257,0.23613576253129764,-1.3911937037062572,-0.011003303713152945,0.008169833916582547,-0.04131846865718103,0.0,70.0,255.0,255.0,255.0
456,22.8,-9.263804419770432,-10.538181327288763,-17.431708829481803,-0.3803964294171358,0.23655435631940946,-1.3932608189375983,-0.010798146234058947,0.00847301757840313,-0.041493029177530616,0.0,70.0,255.0,255.0,255.0
457,22.85,-9.282837675302734,-10.52634296208517,-17.501423668044488,-0.38093434319090846,0.23698306428913796,-1.3953430066240102,-0.010800270804622869,0.008590290832799496,-0.04188006677843248,0.0,70.0,255.0,255.0,255.0
458,22.900000000000002,-9.301897854089523,-10.51448302085985,-17.571243130144204,-0.3814764564975981,0.23741338540268941,-1.3974488256154416,-0.010928079199423735,0.008548274882791418,-0.042387432654322765,0.0,70.0,255.0,255.0,255.0
459,22.950000000000003,-9.320985320952493,-10.502601623544901,-17.641168550606032,-0.38202715111085084,0.2378378917774171,-1.3995817498894425,-0.011102756969805228,0.008375086260237197,-0.04290988383033323,0.0,70.0,255.0,255.0,255.0
460,23.0,-9.340100569200608,-10.490699231682107,-17.711201305133148,-0.3825867321945786,0.23825089402871313,-1.401739813998475,-0.011241849795240455,0.008108517631733037,-0.04334798632932291,0.0,70.0,255.0,255.0,255.0
461,23.05,-9.359243994171951,-10.47877653414203,-17.78134253200588,-0.3831513360903749,0.2386487435405904,-1.4039165485223748,-0.011297351449535142,0.007777973838862806,-0.043643278519311934,0.0,70.0,255.0,255.0,255.0
462,23.1,-9.378415702809646,-10.466834357328048,-17.851592959985386,-0.38371646733953213,0.23902869141259941,-1.406104141850406,-0.011284572494929535,0.007400610325269952,-0.04378476367108419,0.0,70.0,255.0,255.0,255.0
463,23.150000000000002,-9.397615640905904,-10.45487366500077,-17.92195294619092,-0.38427979333986784,0.2393888045731174,-1.4082950248894832,-0.011240319683913924,0.007003638881641905,-0.04377490249503069,0.0,70.0,255.0,255.0,255.0
464,23.200000000000003,-9.416843682143632,-10.442895476870737,-17.992422462474334,-0.3848404993079235,0.2397290553007636,-1.4104816320999092,-0.01119420642936575,0.006625141234373189,-0.04362029396247635,0.0,70.0,255.0,255.0,255.0
465,23.25,-9.436099690836697,-10.430900759470694,-18.06300110940091,-0.3853992139828044,0.24005131869655472,-1.4126570542857309,-0.011177269134421408,0.0062921328508380725,-0.04333359534953729,0.0,70.0,255.0,255.0,255.0
466,23.3,-9.455383603541913,-10.418890345001081,-18.133688167902907,-0.38595822622136566,0.2403582685858474,-1.414814991634863,-0.011205734681851709,0.0060218003518741625,-0.042932831104991465,0.0,70.0,255.0,255.0,255.0
467,23.35,-9.474695513458833,-10.406864932612109,-18.204482608564398,-0.3865197874509896,0.24065349873174213,-1.41695033739623,-0.011261439217058467,0.005844563902890343,-0.04246171769821672,0.0,70.0,255.0,255.0,255.0
468,23.400000000000002,-9.494035582287012,-10.394824995127907,-18.27538320164253,-0.3870843701430715,0.24094272497613645,-1.4190611634046846,-0.011310642064721321,0.005799873555467627,-0.041993796527606264,0.0,70.0,255.0,255.0,255.0
469,23.450000000000003,-9.51340395047314,-10.382770660114495,-18.346388724904866,-0.3876508516574617,0.2412334860872889,-1.4211497170489906,-0.011320417310578534,0.005917635515650943,-0.0416146279647478,0.0,70.0,255.0,255.0,255.0
470,23.5,-9.532800667452758,-10.370701646519178,-18.41749817334743,-0.38821641187412936,0.24153448852770154,-1.4232226262011594,-0.0112490736670523,0.006226913667006784,-0.04141366956886827,0.0,70.0,255.0,255.0,255.0
471,23.55,-9.552225591660553,-10.358617211261725,-18.488710987524982,-0.38877575902416694,0.24185617745398957,-1.4252910840058775,-0.011079709823391681,0.006729137108862915,-0.0414321103484383,0.0,70.0,255.0,255.0,255.0
472,23.6,-9.571678243355175,-10.34651602877378,-18.560027281748017,-0.38932438285646853,0.24220740223858783,-1.4273658372360032,-0.010869670637170259,0.007340294901503341,-0.041605661572674535,0.0,70.0,255.0,255.0,255.0
473,23.650000000000002,-9.5911580299462,-10.334396471037866,-18.631447571248582,-0.38986272608788397,0.2425902069441399,-1.429451650163145,-0.010717112058600264,0.007916027735355158,-0.04181261535833869,0.0,70.0,255.0,255.0,255.0
474,23.700000000000003,-9.610664515963963,-10.322257008079365,-18.70297244676433,-0.39039609406232856,0.24299900501212335,-1.431547098771837,-0.010717411041127889,0.00830534234594893,-0.04192790746344599,0.0,70.0,255.0,255.0,255.0
475,23.75,-9.630197639352433,-10.310096570536654,-18.774602281125766,-0.39093446719199676,0.2434207411787348,-1.4336444409094895,-0.010974408223773935,0.008356203155557296,-0.04181974502337482,0.0,70.0,255.0,255.0,255.0
476,23.8,-9.649757962683163,-10.297914933961492,-18.84633689085528,-0.39149353488470595,0.24383462532767908,-1.4357290732741745,-0.011529225558781775,0.008001138390945073,-0.04142544078966637,0.0,70.0,255.0,255.0,255.0
477,23.85,-9.669346992840904,-10.285713108003886,-18.918175188453183,-0.39208738974787494,0.2442208550178293,-1.4377869849884561,-0.012258106673534996,0.007358732015916303,-0.04083833997086117,0.0,70.0,255.0,255.0,255.0
478,23.900000000000002,-9.68896670165795,-10.273492848459709,-18.990115589354126,-0.39271934555205945,0.2445704985292707,-1.4398129072712607,-0.012941842102165424,0.006652379140525966,-0.04023303807834111,0.0,70.0,255.0,255.0,255.0
479,23.950000000000003,-9.70861892739611,-10.261256058150959,-19.06215647918031,-0.3933815739580915,0.2448860929318819,-1.4418102887962903,-0.01336387791894822,0.006113768995064106,-0.039780315611537276,0.0,70.0,255.0,255.0,255.0
480,24.0,-9.72830485905376,-10.24900423916652,-19.134296618233755,-0.3940557333439543,0.24518187542877712,-1.4437909388324144,-0.013313340057585776,0.005984264385894278,-0.03964730371457392,0.0,70.0,255.0,255.0,255.0
481,24.05,-9.748024500730505,-10.236737870608081,-19.20653557306355,-0.39471290796385006,0.24548451937047133,-1.4457750191677476,-0.01269578887388434,0.006379596039174373,-0.03991321273666415,0.0,70.0,255.0,255.0,255.0
482,24.1,-9.767776149850144,-10.224455787229473,-19.27887412015053,-0.3953253122313427,0.24581983503269456,-1.4477822601060808,-0.011664149753976005,0.007139369108166704,-0.040476503021125154,0.0,70.0,255.0,255.0,255.0
483,24.150000000000002,-9.78755703195364,-10.212155887104812,-19.35131379907416,-0.39587932293924766,0.246198456281288,-1.4498226694698602,-0.010510950766651206,0.007959863629203312,-0.04113886869454575,0.0,70.0,255.0,255.0,255.0
484,24.200000000000003,-9.807364082144069,-10.199835941601345,-19.423856387097516,-0.3963764073080078,0.2466158213956149,-1.4518961469755354,-0.009539338356745475,0.008539721536138245,-0.04169805619724798,0.0,70.0,255.0,255.0,255.0
485,24.25,-9.82719467268444,-10.18749430496525,-19.496503413771713,-0.3968332567749222,0.24705242843490183,-1.453992475089585,-0.009052231547634904,0.008574804567906824,-0.04195504944171091,0.0,70.0,255.0,255.0,255.0
486,24.3,-9.847047407821561,-10.175130698757854,-19.569255634606474,-0.3972816304627713,0.24747330185240557,-1.4560916519197065,-0.009200905657813507,0.007920104490999336,-0.04180842155001585,0.0,70.0,255.0,255.0,255.0
487,24.35,-9.866922835730717,-10.16274697478001,-19.642112578963683,-0.39775334734070356,0.24784443888400176,-1.4581733172445865,-0.009837182421001955,0.006770971038960738,-0.0413410558707028,0.0,70.0,255.0,255.0,255.0
488,24.400000000000002,-9.886822742555632,-10.150346254869454,-19.715072966330933,-0.3982653487048715,0.24815039895630164,-1.4602257575067767,-0.01066246671932447,0.005501826017173528,-0.04072607921692395,0.0,70.0,255.0,255.0,255.0
489,24.450000000000003,-9.906749370601204,-10.13793193488438,-19.78813515471436,-0.398819594012636,0.2483946214857191,-1.462245925166279,-0.011372195228354087,0.004486692180094565,-0.04014074631157882,0.0,70.0,255.0,255.0,255.0
490,24.5,-9.926704701956895,-10.125506792720882,-19.86129755884756,-0.3994025682277069,0.2485990681743111,-1.4642398321379346,-0.01164976172507437,0.004092461397497971,-0.03976848919649001,0.0,70.0,255.0,255.0,255.0
491,24.55,-9.946689627423975,-10.113072028066949,-19.934559137928154,-0.39998457018514344,0.2488038676254689,-1.466222774085928,-0.011334527888351431,0.004500358956960326,-0.03970587495452094,0.0,70.0,255.0,255.0,255.0
492,24.6,-9.96670315897541,-10.100626405958335,-20.007919836256153,-0.40053602101654207,0.24904910407000713,-1.4682104196333867,-0.01059346088680968,0.005526863286320349,-0.03987563712968267,0.0,70.0,255.0,255.0,255.0
493,24.650000000000002,-9.98674322952563,-10.088167117659948,-20.081380179891493,-0.4010439162738244,0.24935655395410095,-1.4702103377988962,-0.009752002869234389,0.006801876590856182,-0.040121289964289986,0.0,70.0,255.0,255.0,255.0
494,24.700000000000003,-10.006807550602792,-10.075690750562925,-20.154940870036043,-0.4015112213034655,0.24972929172909275,-1.4722225486298157,-0.00912554040422009,0.00794744913772405,-0.04029187231147091,0.0,70.0,255.0,255.0,255.0
495,24.75,-10.026894351655976,-10.063194188487039,-20.228602434754475,-0.4019564703142464,0.25015129886787335,-1.4742395250300433,-0.009028628311824605,0.008583368489922805,-0.040231040391347506,0.0,70.0,255.0,255.0,255.0
496,24.8,-10.047003197634217,-10.050675620676138,-20.302364822539047,-0.40241408413464796,0.25058762857808503,-1.4762456526689505,-0.009614642461919232,0.008512399075755184,-0.03986150520454146,0.0,70.0,255.0,255.0,255.0
497,24.85,-10.06713576006944,-10.03813542562923,-20.37622700002137,-0.40291793456043834,0.25100253877544887,-1.4782256755504974,-0.010701794544587528,0.00789062010575492,-0.03927909957290865,0.0,70.0,255.0,255.0,255.0
498,24.900000000000002,-10.08729499109026,-10.025575366798593,-20.450187390094097,-0.4034842635891067,0.2513766905886605,-1.4801735626262413,-0.011935862130840746,0.00704078416813303,-0.038666056966008,0.0,70.0,255.0,255.0,255.0
499,24.950000000000003,-10.107484186428351,-10.012997756570364,-20.524244356283994,-0.4041115207735224,0.25170661719226217,-1.4820922812470982,-0.012966295835425967,0.006283884228608372,-0.0381983378712647,0.0,70.0,255.0,255.0,255.0
500,25.0,-10.127706143167613,-10.000404705079367,-20.598396618218807,-0.4047808931726493,0.25200507901152136,-1.4839933964133678,-0.01345978097173628,0.00595000869889617,-0.03804730261585121,0.0,70.0,255.0,255.0,255.0
501,25.05,-10.147962275745616,-9.987797248669212,-20.67264369592533,-0.40545749887069604,0.2523016180621518,-1.4858970115086834,-0.013246529303145849,0.00620939205973059,-0.03829519047364727,0.0,70.0,255.0,255.0,255.0
502,25.1,-10.168251893054682,-9.975174543273152,-20.746986319369675,-0.4061055461029639,0.2526260182174944,-1.4878229154607325,-0.012449244384882263,0.006904315965350349,-0.03884348905280888,0.0,70.0,255.0,255.0,255.0
503,25.150000000000002,-10.188572830355913,-9.962534646847462,-20.821425987471404,-0.40670242330918427,0.2529920496586868,-1.4897813604139643,-0.011335504318843448,0.007722166223267379,-0.039498118534098126,0.0,70.0,255.0,255.0,255.0
504,25.200000000000003,-10.2089221353856,-9.949875338307283,-20.89596445541107,-0.40723909653484824,0.25339823483982116,-1.4917727273141423,-0.01018205014666762,0.00836335427312207,-0.04006200231607693,0.0,70.0,255.0,255.0,255.0
505,25.25,-10.229296740009397,-9.93719482336348,-20.970603260202818,-0.40772062832385103,0.25382838508599903,-1.493787560645572,-0.009256257125755951,0.008536689954929955,-0.040343758469774116,0.0,70.0,255.0,255.0,255.0
506,25.3,-10.249694198217986,-9.924492499798683,-21.04534321147563,-0.40816472224742384,0.25425190383531415,-1.4958071031611198,-0.00871150139705179,0.008096373011490243,-0.04024444618018208,0.0,70.0,255.0,255.0,255.0
507,25.35,-10.27011321223414,-9.911769632979949,-21.12018397051893,-0.4085917784635562,0.25463802238714806,-1.4978120052635902,-0.008533955188205766,0.007179295520209905,-0.039832352140933835,0.0,70.0,255.0,255.0,255.0
508,25.400000000000002,-10.290553376064342,-9.899028697559968,-21.195124412001988,-0.4090181177662444,0.25496983338733514,-1.4997903383752131,-0.008651071643583919,0.006064210613843102,-0.039256060977166385,0.0,70.0,255.0,255.0,255.0
509,25.450000000000003,-10.311015024010764,-9.886272649641215,-21.27016300435645,-0.4094568856279146,0.25524444344853237,-1.5017376113613068,-0.008991191223550743,0.005028759285075068,-0.03866693958087808,0.0,70.0,255.0,255.0,255.0
510,25.5,-10.331499064627133,-9.873504253215115,-21.34529817313812,-0.4099172368885995,0.25547270931584265,-1.503657032333301,-0.009479199849771192,0.004331203507845771,-0.038213654178065326,0.0,70.0,255.0,255.0,255.0
511,25.55,-10.352006747699624,-9.860725378709631,-21.42052870758978,-0.4104048056128917,0.25567756379931694,-1.5055589767791133,-0.01005571685723794,0.0041116893198633875,-0.03797979869197832,0.0,70.0,255.0,255.0,255.0
512,25.6,-10.372539545188422,-9.847936496835183,-21.49585407081603,-0.4109228085743233,0.255883878247829,-1.5074550122024988,-0.01065502810124741,0.0043303900675084606,-0.037943466021417294,0.0,70.0,255.0,255.0,255.0
513,25.650000000000002,-10.393099028557057,-9.835136990884848,-21.57127420881003,-0.41147030842301646,0.2561106028060678,-1.509353323381255,-0.01117759838340504,0.004869103210403125,-0.0380421130873998,0.0,70.0,255.0,255.0,255.0
514,25.700000000000003,-10.413686576030724,-9.822325436554577,-21.646789403154155,-0.4120405684126638,0.2563707885688693,-1.5112592235112388,-0.011508010133987057,0.005601608585514839,-0.03821643982817591,0.0,70.0,255.0,255.0,255.0
515,25.75,-10.434303085398323,-9.809499912027961,-21.722400131161155,-0.41262110943641517,0.2566707636646193,-1.5131749673640726,-0.011530906180645673,0.006406468041575408,-0.038409643464021315,0.0,70.0,255.0,255.0,255.0
516,25.8,-10.454948686974365,-9.796658360188115,-21.798106899890563,-0.41319365903072836,0.25701143537302684,-1.515100187857641,-0.01119840506653702,0.007198408171049664,-0.03858358515493876,0.0,70.0,255.0,255.0,255.0
517,25.85,-10.475622451301396,-9.783798768490659,-21.87391014994692,-0.41374094994306887,0.25739060448172424,-1.5170333258795665,-0.01061040792986745,0.007901941412491453,-0.03871471617422628,0.0,70.0,255.0,255.0,255.0
518,25.900000000000002,-10.496322781968672,-9.770919299739942,-21.94981023247852,-0.4142546998237151,0.257801629514276,-1.5189716594750635,-0.009954898460229344,0.008414061858097455,-0.03877371511364913,0.0,70.0,255.0,255.0,255.0
519,25.950000000000003,-10.517047921283767,-9.758018605539231,-22.025807315894426,-0.4147364397890918,0.258232010667534,-1.5209106973909314,-0.009429542133254643,0.00862634483489444,-0.03872781392786351,0.0,70.0,255.0,255.0,255.0
520,26.0,-10.537796425947581,-9.745096098673189,-22.101901302217613,-0.41519765403704056,0.25866426399776543,-1.5228444408678499,-0.009233166104394286,0.008442924326956813,-0.03854777196679038,0.0,70.0,255.0,255.0,255.0
521,26.05,-10.558567686687471,-9.732152179139455,-22.17809175998121,-0.41565975639953123,0.25907630310022967,-1.5247654745876105,-0.009463949589516574,0.007833139533808264,-0.03822534786586118,0.0,70.0,255.0,255.0,255.0
522,26.1,-10.579362401587534,-9.719188468363166,-22.254377849676374,-0.4161440489959922,0.25944757795114626,-1.526666975654436,-0.010017932250683259,0.006907158966384941,-0.037799440843500065,0.0,70.0,255.0,255.0,255.0
523,26.150000000000002,-10.60018209158707,-9.70620742134434,-22.330758457546654,-0.41666154962459956,0.25976701899686816,-1.5285454186719605,-0.010688215702714388,0.005871852154903934,-0.037342094058345765,0.0,70.0,255.0,255.0,255.0
524,26.200000000000003,-10.621028556549994,-9.69321176646348,-22.40723239154357,-0.41721287056626366,0.26003476316663665,-1.5304011850602706,-0.01126724790907474,0.004951473615832924,-0.03693179164052651,0.0,70.0,255.0,255.0,255.0
525,26.25,-10.641903378643697,-9.680203945027676,-22.48379857605268,-0.41778827441550703,0.26026216635845145,-1.5322385978360131,-0.011552466697217767,0.004353862622075155,-0.0366432779927095,0.0,70.0,255.0,255.0,255.0
526,26.3,-10.662807383991545,-9.667185549827634,-22.56045625132717,-0.41836811723598544,0.26047014942884417,-1.5340655128595415,-0.011439223147924338,0.004189033691837096,-0.0365150233786693,0.0,70.0,255.0,255.0,255.0
527,26.35,-10.683740190367295,-9.654156930084792,-22.637205127338635,-0.41893219673029947,0.26068106972763516,-1.53589010017388,-0.011003270991238878,0.004421310833180314,-0.03652481648828143,0.0,70.0,255.0,255.0,255.0
528,26.400000000000002,-10.704700603664575,-9.64111744285487,-22.71404526134456,-0.4194684443351093,0.2609122805121622,-1.5377179945083697,-0.01040683080404392,0.0049466414109744505,-0.03662061261699989,0.0,70.0,255.0,255.0,255.0
529,26.450000000000003,-10.725687034800806,-9.628065702033576,-22.790976926789472,-0.41997287981070386,0.2611757338687326,-1.53955216143558,-0.009814752946368799,0.005647760702842675,-0.036745019512451904,0.0,70.0,255.0,255.0,255.0
530,26.5,-10.746697891645645,-9.614999869467997,-22.868000477488117,-0.4204499196297462,0.26147705658244647,-1.5413924964596148,-0.009392957781706457,0.006409597212098106,-0.036835106740085166,0.0,70.0,255.0,255.0,255.0
531,26.55,-10.767732026763781,-9.601917996375331,-22.945116176435434,-0.4209121755888745,0.2618166935899424,-1.5432356721095886,-0.009231931709408059,0.0071522641603039006,-0.03685507143735833,0.0,70.0,255.0,255.0,255.0
532,26.6,-10.788789109204533,-9.588818200109003,-23.022324044699076,-0.421373112800687,0.26219228299847686,-1.5450780036033507,-0.009285347420373569,0.00781039490416191,-0.03682222560215109,0.0,70.0,255.0,255.0,255.0
533,26.650000000000002,-10.80986933804385,-9.575698768075483,-23.09962397679577,-0.42184071033091186,0.2625977330803586,-1.5469178946698037,-0.00944893660648205,0.008296267515461864,-0.03677368391379332,0.0,70.0,255.0,255.0,255.0
534,26.700000000000003,-10.830973180237624,-9.562558426800967,-23.177015834166056,-0.4223180064613352,0.26302190975002304,-1.54875537199473,-0.009619940774641123,0.008519022035002877,-0.03674192984668423,0.0,70.0,255.0,255.0,255.0
535,26.75,-10.852101138689983,-9.549396577100481,-23.254499513995242,-0.422802704408376,0.2634496352838589,-1.550592087654472,-0.00968372082326141,0.008407748530281367,-0.03676426707421854,0.0,70.0,255.0,255.0,255.0
