idx,t,px,py,pz,vx,vy,vz,ax,ay,az,yaw,mode,ledr,ledg,ledb
0,0.0,-4.5,7.499999999999999,7.845582115685684e-19,0.0003554506647063249,-0.00013135617214388162,0.001037212075695475,-0.01170300443131822,0.00274237448092407,-0.023714747171303178,0.0,70.0,255.0,255.0,255.0
1,0.05,-4.499982227466765,7.499993432191392,5.186060378477454e-05,-0.0002296995568595861,5.7625519023218885e-06,-0.00014852528286968383,-0.017591631093161197,0.0040707649112903255,-0.03530777736054187,0.0,70.0,255.0,255.0,255.0
2,0.1,-4.500022969955686,7.500000576255189,-1.4852528286967599e-05,-0.0014037124446097948,0.0002757203189851509,-0.0024935656603587127,-0.023554506647105455,0.005313561721465021,-0.04637212075695478,0.0,70.0,255.0,255.0,255.0
3,0.15000000000000002,-4.500122598711226,7.50002100422329,-0.00019749596225109676,-0.0025851502215701316,0.000537118724048824,-0.004785737358565162,-0.02370300443246265,0.005142374483035894,-0.045314747171305444,0.0,70.0,255.0,255.0,255.0
4,0.2,-4.500281484977843,7.500054288127594,-0.0004934262641434838,-0.0037740128878560597,0.0007899577672887403,-0.0070250403774892575,-0.023854617554963653,0.004967595901828048,-0.044248617496444945,0.0,70.0,255.0,255.0,255.0
5,0.25,-4.500500000000011,7.500100000000019,-0.0009000000000000225,-0.004970611977066497,0.0010338783142316288,-0.009210599108209656,-0.02402414386937224,0.0047721671074363314,-0.04313214030862545,0.0,70.0,255.0,255.0,255.0
6,0.30000000000000004,-4.50077854617555,7.500157675959017,-0.0014144861749644496,-0.006176427274793284,0.0012671744780323735,-0.011338254408351803,-0.024216342924709977,0.004550601337527382,-0.041951938249340515,0.0,70.0,255.0,255.0,255.0
7,0.35000000000000003,-4.501117642727491,7.5002267174478225,-0.002033825440835203,-0.007392246269537495,0.001488938447984367,-0.013405792933143708,-0.02439062878707432,0.004349685778848311,-0.040822083703012255,0.0,70.0,255.0,255.0,255.0
8,0.4,-4.501517770802503,7.500306569803816,-0.0027550654682788204,-0.008615490153500716,0.0017021430559172046,-0.015420462778653029,-0.024482185113239296,0.004244140265807772,-0.039924751970133766,0.0,70.0,255.0,255.0,255.0
9,0.45,-4.501979191742841,7.500396931753414,-0.003575871718700506,-0.009840464780861424,0.0019133524745651442,-0.017398268130157084,-0.02443334153658938,0.004301472554857355,-0.03941404908084948,0.0,70.0,255.0,255.0,255.0
10,0.5,-4.5025018172805895,7.500497905051272,-0.004494892281294529,-0.011058824307159654,0.00213229031140294,-0.019361867686737977,-0.024185641363150268,0.004593943415187596,-0.0394163491746817,0.0,70.0,255.0,255.0,255.0
11,0.55,-4.503085074173557,7.500610160784555,-0.0055120584873743035,-0.012259028917176451,0.002372746816083904,-0.021339903047625255,-0.023719918364939474,0.005145214654422858,-0.03997332300869478,0.0,70.0,255.0,255.0,255.0
12,0.6000000000000001,-4.503727720172307,7.500735179732881,-0.0066288825860570545,-0.013430816143653601,0.002646811776845226,-0.023359199987607455,-0.023121441526896547,0.005843625588930479,-0.04094933091099942,0.0,70.0,255.0,255.0,255.0
13,0.65,-4.504428155787922,7.500874841962239,-0.007847978486135049,-0.014571173069866106,0.0029571093749769517,-0.025434836138725197,-0.022540955932992546,0.006494057116945839,-0.042086805426207116,0.0,70.0,255.0,255.0,255.0
14,0.7000000000000001,-4.505184837479294,7.501030890670378,-0.009172366199929574,-0.015684911736952856,0.00329621748853981,-0.027567880530228166,-0.02213263533397125,0.006902241854245261,-0.043099836010492,0.0,70.0,255.0,255.0,255.0
15,0.75,-4.505996646961617,7.501204463711093,-0.010604766539157866,-0.01678443660326323,0.003647333560401478,-0.029744819739774397,-0.022049415899694225,0.006884272958807003,-0.04370653803320735,0.0,70.0,255.0,255.0,255.0
16,0.8,-4.50686328113962,7.501395624026419,-0.012146848173907014,-0.017889853326922278,0.00398464478442051,-0.0319385343335489,-0.022360898486173397,0.0063573496352553605,-0.04375981316046985,0.0,70.0,255.0,255.0,255.0
17,0.8500000000000001,-4.5077856322943095,7.501602928189535,-0.013798619972512756,-0.01902052645188057,0.004283068523927014,-0.03412080105582138,-0.022959129580879534,0.005442058952098705,-0.043349636942036085,0.0,70.0,255.0,255.0,255.0
18,0.9,-4.508765333784808,7.501823930878811,-0.015558928279489152,-0.02018576628501023,0.004528850679630381,-0.03627349802775251,-0.02363762751844689,0.0043750625017047184,-0.04267814287515506,0.0,70.0,255.0,255.0,255.0
19,0.9500000000000001,-4.5098042089228105,7.502055813257498,-0.017425969775288007,-0.02138428920372526,0.004720574774097486,-0.03838861534333689,-0.02418334323408544,0.003401821099657809,-0.04195369312427061,0.0,70.0,255.0,255.0,255.0
20,1.0,-4.510903762705181,7.502295988356221,-0.01939778981382284,-0.022604100608418776,0.004869032789596162,-0.04046886734017957,-0.02438070436214801,0.002748964749255123,-0.04138547072045938,0.0,70.0,255.0,255.0,255.0
21,1.05,-4.512064618983652,7.502542716536458,-0.021472856509305964,-0.02382235963994006,0.004995471249022998,-0.042527162415382826,-0.024123200977310688,0.0025386735187815646,-0.04109297213497273,0.0,70.0,255.0,255.0,255.0
22,1.1,-4.513285998669175,7.502795535481123,-0.023650506055361124,-0.025016420706149844,0.005122900141474318,-0.044578164553676844,-0.023527448075277846,0.0027400267147648094,-0.041047552556289224,0.0,70.0,255.0,255.0,255.0
23,1.1500000000000001,-4.514566261054267,7.503055006550605,-0.02593067296467365,-0.026175104447467845,0.005269473920499479,-0.04663191767101175,-0.02282312606816106,0.0032538047640251477,-0.04116687015942207,0.0,70.0,255.0,255.0,255.0
24,1.2000000000000002,-4.5159035091139215,7.503322482873173,-0.0283136978224623,-0.02729873331296595,0.005448280617876833,-0.04869485156961905,-0.02224056515558459,0.003970473746939263,-0.04137779242483035,0.0,70.0,255.0,255.0,255.0
25,1.25,-4.517296134385564,7.503599834612393,-0.030800158121635553,-0.028399160963026304,0.005666521295193405,-0.05076969691349478,-0.022011729355586596,0.004787840071784899,-0.041611625704998656,0.0,70.0,255.0,255.0,255.0
26,1.3,-4.518743425210224,7.503889135002693,-0.03339066751381178,-0.02949990624852461,0.005927064625055323,-0.052856014140118916,-0.022252871031103183,0.005629494750802877,-0.04182223769357632,0.0,70.0,255.0,255.0,255.0
27,1.35,-4.5202461250104164,7.504192541074898,-0.036085759535647445,-0.030624448066136623,0.006229470770273693,-0.054951920682852415,-0.022845670192417344,0.006400631391656475,-0.041981085233742596,0.0,70.0,255.0,255.0,255.0
28,1.4000000000000001,-4.521805870016838,7.50451208207972,-0.03888585958209702,-0.031784473267766344,0.00656712776422097,-0.057054122663493176,-0.023555276135134307,0.006964403757336868,-0.04205260492538762,0.0,70.0,255.0,255.0,255.0
29,1.4500000000000002,-4.523424572337193,7.5048492538513205,-0.04179117180199676,-0.03297997567965005,0.00692591114600738,-0.05915718117539118,-0.024147822716980016,0.00717782237433795,-0.04199564999692387,0.0,70.0,255.0,255.0,255.0
30,1.5,-4.525103867584803,7.505204673194321,-0.044801577699636136,-0.034199255539464346,0.007284910001654765,-0.06125368766318556,-0.02438841551137827,0.0068996749637229016,-0.04176802645954256,0.0,70.0,255.0,255.0,255.0
31,1.55,-4.5268444978911395,7.505577744851486,-0.04791654056831532,-0.03541881723078788,0.00761587864237967,-0.06333398382134543,-0.024158741471502765,0.006081809016666995,-0.04135756427020576,0.0,70.0,255.0,255.0,255.0
32,1.6,-4.5286457493078816,7.505966261058559,-0.05113497608177068,-0.03661512968661462,0.007893090903321465,-0.06538944409020614,-0.023575279080390033,0.004902762403524719,-0.040829878070516856,0.0,70.0,255.0,255.0,255.0
33,1.6500000000000001,-4.530506010859801,7.506367053941818,-0.05445548497733593,-0.03777634513882688,0.008106154882732142,-0.06741697162839712,-0.022870361466686973,0.0036857830037817507,-0.04030177773809707,0.0,70.0,255.0,255.0,255.0
34,1.7000000000000002,-4.532423383821764,7.506776876546832,-0.05787667324461039,-0.03890216583328332,0.00826166920369964,-0.06941962186401585,-0.02227471740248177,0.00276998500803316,-0.03989238148024918,0.0,70.0,255.0,255.0,255.0
35,1.75,-4.534396227443129,7.507193220862188,-0.06139744716373752,-0.04000381687907506,0.008383153383535458,-0.07140620977642204,-0.022018571302329093,0.0024934600730830425,-0.039708249808811935,0.0,70.0,255.0,255.0,255.0
36,1.8,-4.536423765509672,7.5076151918851854,-0.0650172942222526,-0.04110402296351623,0.008511015211007944,-0.07339044684489704,-0.02221873650940509,0.003017068715926996,-0.03980130475939592,0.0,70.0,255.0,255.0,255.0
37,1.85,-4.538506629739481,7.508044322383289,-0.06873649184822722,-0.04222569053001557,0.008684860255128157,-0.07538634025236163,-0.02276780556078606,0.004138435544209784,-0.04013492695971871,0.0,70.0,255.0,255.0,255.0
38,1.9000000000000001,-4.540646334562673,7.508483677910698,-0.07255592824748876,-0.043380803519594835,0.008924858765428922,-0.07740393954086891,-0.023448685924165602,0.005461508517079494,-0.04062392048586605,0.0,70.0,255.0,255.0,255.0
39,1.9500000000000002,-4.54284471009144,7.508936808259832,-0.07647688580231411,-0.04457055912243213,0.009231011106836107,-0.07944873230094823,-0.024046734246052637,0.006582890275286246,-0.04117533690259495,0.0,70.0,255.0,255.0,255.0
40,2.0,-4.5451033904749165,7.509406779021382,-0.08050080147758358,-0.0457854769442001,0.009583147792957547,-0.0815214732311284,-0.02435333657517802,0.007106531363465507,-0.04171095565718985,0.0,70.0,255.0,255.0,255.0
41,2.0500000000000003,-4.54742325778586,7.5098951230391275,-0.08462903312542695,-0.04700589277994993,0.009941664243182657,-0.08361982786666722,-0.02425973906445833,0.006830055978568339,-0.0421777295127157,0.0,70.0,255.0,255.0,255.0
42,2.1,-4.5498039797529115,7.5104009454457,-0.0888627842642503,-0.04821145085064593,0.010266153390814381,-0.08573924618239998,-0.023838906602069443,0.00591431127023867,-0.04251405045424539,0.0,70.0,255.0,255.0,255.0
43,2.15,-4.552244402870925,7.510921738378209,-0.09320295774366695,-0.049389783440156876,0.010533095370206524,-0.08787123291209176,-0.02324948691150297,0.0046973670777106236,-0.042638064793971975,0.0,70.0,255.0,255.0,255.0
44,2.2,-4.554742958096927,7.511454254982721,-0.09764990755545948,-0.05053639954179623,0.010735890098585443,-0.09000305266179717,-0.022651632326287086,0.003518314031136782,-0.04247349701659853,0.0,70.0,255.0,255.0,255.0
45,2.25,-4.557298042825105,7.5119953273880675,-0.10220326300984667,-0.051654946672785584,0.010884926773320203,-0.09211858261375161,-0.022204073072984443,0.0027003678527925956,-0.04194396485845825,0.0,70.0,255.0,255.0,255.0
46,2.3000000000000003,-4.559908452764206,7.512542747660053,-0.10686176581683464,-0.05275680684909467,0.011005926883864703,-0.094197449147643,-0.02199508112550319,0.002422054689077413,-0.041032952014913304,0.0,70.0,255.0,255.0,255.0
47,2.35,-4.562573723510014,7.513095920076454,-0.11162300792461097,-0.0538544547853359,0.011127132242227944,-0.09622187781524294,-0.021992931667469406,0.0026352750850833218,-0.039891481945920904,0.0,70.0,255.0,255.0,255.0
48,2.4000000000000004,-4.565293898242739,7.513655460884276,-0.11648395359835893,-0.054956100015841614,0.011269454392373035,-0.09818659734223509,-0.022117841954472084,0.0031989066219040296,-0.03878372709816419,0.0,70.0,255.0,255.0,255.0
49,2.45,-4.568069333511598,7.514222865515691,-0.12144166765883448,-0.05606623898078311,0.011447022904418347,-0.10010025052505936,-0.022292936914514172,0.003970054067004014,-0.03798242328275081,0.0,70.0,255.0,255.0,255.0
50,2.5,-4.570900522140818,7.514800163174717,-0.12649397865086487,-0.05718539370729303,0.011666459799073436,-0.10198483967051017,-0.022438389781331836,0.004811997225129261,-0.037749175584951555,0.0,70.0,255.0,255.0,255.0
51,2.5500000000000003,-4.573787872882328,7.515389511495599,-0.1316401516258855,-0.058310077958916295,0.011928222626931273,-0.10387516808355451,-0.02250716254081908,0.005629977013921206,-0.03820477478194556,0.0,70.0,255.0,255.0,255.0
52,2.6,-4.576731529936709,7.515992985437411,-0.13688149545922032,-0.05943610996137494,0.012229457500465557,-0.10580531714870473,-0.022510299128430944,0.006347385592420096,-0.039191070713143206,0.0,70.0,255.0,255.0,255.0
53,2.6500000000000004,-4.579731483878465,7.516612457245645,-0.14222068334075597,-0.06056110787175939,0.012562961186173283,-0.10779427515486883,-0.022477373708973403,0.00686169174919371,-0.04039429954066365,0.0,70.0,255.0,255.0,255.0
54,2.7,-4.582787640723885,7.517249281556028,-0.1476609229747072,-0.06168384733227228,0.012915626675384928,-0.10984474710277109,-0.022430419549301917,0.007063008162422335,-0.04148454878011021,0.0,70.0,255.0,255.0,255.0
55,2.75,-4.585899868611692,7.517904019913184,-0.15320515805103307,-0.06280414982668958,0.013269262002415516,-0.11194273003287986,-0.022390339830202777,0.006851643245919803,-0.042135323477704434,0.0,70.0,255.0,255.0,255.0
56,2.8000000000000003,-4.589068055706554,7.5185762077562694,-0.1588551959779952,-0.06392288131529256,0.013600790999976908,-0.11405827945054153,-0.02236955542436192,0.006196498793897831,-0.042175174964542705,0.0,70.0,255.0,255.0,255.0
57,2.85,-4.5922921567432216,7.519264099013181,-0.16461098599608723,-0.06504110536912577,0.0138889118818053,-0.11616024752933413,-0.022365871817875416,0.005220497231572807,-0.04171327949055448,0.0,70.0,255.0,255.0,255.0
58,2.9000000000000004,-4.595572166243467,7.51996509894445,-0.1704712207309286,-0.0661594684970801,0.014122840723134189,-0.11822960739959698,-0.022372663210212806,0.004151529178120228,-0.040989191289306226,0.0,70.0,255.0,255.0,255.0
59,2.95,-4.59890810359293,7.520676383085495,-0.17643394673604693,-0.06727837169014705,0.014304064799617322,-0.12025916665826475,-0.022385384888767845,0.0032363748207586696,-0.04024646784389074,0.0,70.0,255.0,255.0,255.0
60,3.0,-4.6023000034124815,7.521395505424412,-0.18249713739675508,-0.06839800698595688,0.014446478205210056,-0.12225425418398606,-0.02240025089799147,0.002713457763459104,-0.03973750253219166,0.0,70.0,255.0,255.0,255.0
61,3.0500000000000003,-4.605747904291525,7.522121030906016,-0.18865937215444553,-0.0695183967799462,0.014575410575963232,-0.12423291691148391,-0.022414615761334744,0.0027040278109957683,-0.03960007314542657,0.0,70.0,255.0,255.0,255.0
62,3.1,-4.609251843090476,7.522853046482008,-0.19492042908790347,-0.07063946856209036,0.014716880986309633,-0.1262142614985287,-0.022426213599402445,0.0031225135929346948,-0.03975124256007656,0.0,70.0,255.0,255.0,255.0
63,3.1500000000000004,-4.612811851147734,7.523592719004647,-0.2012807983042984,-0.07176101813988645,0.014887661935256702,-0.12820804116749157,-0.022431973450576237,0.003780303425493514,-0.04001518238838375,0.0,70.0,255.0,255.0,255.0
64,3.2,-4.616427944904465,7.524341812675534,-0.20774123320465263,-0.07288266590714798,0.015094911328858984,-0.1302157797373671,-0.022428040896116386,0.004478205841351723,-0.04022869406344887,0.0,70.0,255.0,255.0,255.0
65,3.25,-4.620100117738449,7.525102210137533,-0.2143023762780351,-0.07400382222949808,0.015335482519391874,-0.13223091057383646,-0.02240865657832103,0.005014525701430017,-0.040226740985588316,0.0,70.0,255.0,255.0,255.0
66,3.3000000000000003,-4.6238283271274145,7.525875360927473,-0.22096432426203627,-0.07512353156498008,0.015596363899001986,-0.13423845383592592,-0.022371981530167062,0.005275128890236402,-0.039924672313854104,0.0,70.0,255.0,255.0,255.0
67,3.35,-4.627612470894947,7.526661846527433,-0.2277262216616277,-0.07624102038251479,0.015862995408415514,-0.13622337780522187,-0.02232927378411631,0.00529401716065081,-0.03940445423183947,0.0,70.0,255.0,255.0,255.0
68,3.4000000000000004,-4.631452429165666,7.527461660468314,-0.23458666204255846,-0.07735645894339171,0.016125765615067067,-0.13817889925910987,-0.022299442987794293,0.005161010033294389,-0.03882737519451396,0.0,70.0,255.0,255.0,255.0
69,3.45,-4.635348116789286,7.52827442308894,-0.2415441115875387,-0.07847096468129422,0.016379096411744953,-0.14010611532467326,-0.022302451526456935,0.004958400881882596,-0.038345329328898226,0.0,70.0,255.0,255.0,255.0
70,3.5,-4.639299525633795,7.529099570109489,-0.24859727357502578,-0.07958670409603741,0.016621605703255327,-0.1420134321919997,-0.022365122788592373,0.0047683928108277485,-0.03809548690538733,0.0,70.0,255.0,255.0,255.0
71,3.5500000000000003,-4.64330678719889,7.529936583659265,-0.25574545480673866,-0.08070747696015346,0.016855935692827728,-0.143915664015212,-0.0224974581180426,0.004641517234205139,-0.038148323846237675,0.0,70.0,255.0,255.0,255.0
72,3.6,-4.647370273329811,7.530785163678772,-0.262988839976547,-0.08183644990784167,0.01708575742667584,-0.14582826457662346,-0.022656691264266726,0.004580485363625542,-0.038466464988060056,0.0,70.0,255.0,255.0,255.0
73,3.6500000000000004,-4.651490432189674,7.531645159401933,-0.270328281264401,-0.08297314608658013,0.017313984229190282,-0.147762310514018,-0.02277025459846982,0.004577428002328077,-0.03895895319720455,0.0,70.0,255.0,255.0,255.0
74,3.7,-4.655667587938469,7.532516562101691,-0.2777650710279488,-0.08411347536768865,0.017543500226908648,-0.1497241598963439,-0.02276886628411745,0.00463439109701369,-0.03953050144149817,0.0,70.0,255.0,255.0,255.0
75,3.75,-4.659901779726443,7.5333995094246236,-0.2853006972540354,-0.08525003271499187,0.01777742333889165,-0.15171536065816782,-0.022582880239330194,0.004763931028506363,-0.04010329274484192,0.0,70.0,255.0,255.0,255.0
76,3.8000000000000003,-4.664192591209968,7.53429430443558,-0.29293660709376557,-0.08637176339162167,0.018019893329759284,-0.1537344891708281,-0.022184386464285666,0.004965515460053638,-0.0406225451217046,0.0,70.0,255.0,255.0,255.0
77,3.85,-4.668538956065605,7.5352014987575995,-0.3006741461711182,-0.08746847136142044,0.018273974884897015,-0.15577761517033828,-0.021645732720543265,0.005184041384165283,-0.04101332217955056,0.0,70.0,255.0,255.0,255.0
78,3.9000000000000004,-4.67293943834611,7.53612170192407,-0.3085143686107994,-0.088536336663676,0.018538297468175813,-0.15783582138878316,-0.021098606216796156,0.0053292779568892,-0.0411723364921901,0.0,70.0,255.0,255.0,255.0
79,3.95,-4.677392589731973,7.537055328504417,-0.3164577283099965,-0.08957833198310006,0.018806902680585935,-0.1598948488195573,-0.020674857229607824,0.005310748016462696,-0.04099989101233881,0.0,70.0,255.0,255.0,255.0
80,4.0,-4.68189727154442,7.538002392192128,-0.3245038534927551,-0.09060382238663678,0.019069372269822082,-0.16193581049001704,-0.02049533760706268,0.005027911048927081,-0.04038737941129411,0.0,70.0,255.0,255.0,255.0
81,4.05,-4.6864529719706365,7.538962265731399,-0.3326513093589982,-0.09162786574380632,0.019309693785478643,-0.1639335867606867,-0.0206187955588355,0.00444262139227547,-0.039306670492111895,0.0,70.0,255.0,255.0,255.0
82,4.1000000000000005,-4.691060058118801,7.539933361570676,-0.3408972121688238,-0.09266570194252033,0.01951363440904963,-0.16586647753922823,-0.020995902328202476,0.003685120659646657,-0.03796285701635482,0.0,70.0,255.0,255.0,255.0
83,4.15,-4.6957195421648885,7.540913629172304,-0.34923795711292105,-0.09372745597662657,0.01967820585144331,-0.16772987246232218,-0.021518956897192965,0.002984527768745693,-0.036711607593981066,0.0,70.0,255.0,255.0,255.0
84,4.2,-4.700432803716463,7.54190118215582,-0.357670199415056,-0.09481759763223963,0.0198120871859242,-0.16953763829862634,-0.0220722176179855,0.0025686774431932236,-0.035914969474165614,0.0,70.0,255.0,255.0,255.0
85,4.25,-4.7052013019281125,7.542894837890897,-0.3661917209427837,-0.09593467773842512,0.01993507359576263,-0.17132136940973874,-0.022547750685752987,0.002664378155881053,-0.035931152313939396,0.0,70.0,255.0,255.0,255.0
86,4.3,-4.710026271490306,7.543894689515397,-0.3748023363560299,-0.09707237270081492,0.020078525001512304,-0.17313075353002028,-0.022880944121261848,0.0033715980389814604,-0.03691888479799288,0.0,70.0,255.0,255.0,255.0
87,4.3500000000000005,-4.714908539198194,7.544902690391048,-0.3835047962957857,-0.09822277215055131,0.020272233399660777,-0.17501325788953803,-0.023054294329671876,0.004509228891702577,-0.038604527144259215,0.0,70.0,255.0,255.0,255.0
88,4.4,-4.719848548705361,7.545921912855363,-0.3923036621449837,-0.09937780213378211,0.02052944789068256,-0.1769912062444462,-0.023061090669962425,0.00573717973271215,-0.04046943826007121,0.0,70.0,255.0,255.0,255.0
89,4.45,-4.724846319411572,7.546955635180116,-0.40120391692023033,-0.10052888121754755,0.020845951372931992,-0.17906020171554515,-0.022896785118220464,0.006708994424009518,-0.04198190941272495,0.0,70.0,255.0,255.0,255.0
90,4.5,-4.729901436827116,7.548006507992656,-0.4102096823165382,-0.10166748064560416,0.021200347333083513,-0.1811893971857187,-0.022557668974432232,0.007086604299200161,-0.04262404862895863,0.0,70.0,255.0,255.0,255.0
91,4.55,-4.735013067476133,7.5490756699134245,-0.4193228566388022,-0.10278464811499077,0.02155461180285201,-0.18332260657844102,-0.022056402316117385,0.006703900205362601,-0.042137417355525564,0.0,70.0,255.0,255.0,255.0
92,4.6000000000000005,-4.740179901638615,7.550161969172941,-0.4285419429743823,-0.1038731208772159,0.021870737353619774,-0.18540313892127125,-0.021467759513438267,0.005727847223546689,-0.04075432578191651,0.0,70.0,255.0,255.0,255.0
93,4.65,-4.745400379563854,7.5512627436487865,-0.4378631705309293,-0.1049314240663346,0.022127396525206677,-0.18739803915663267,-0.02091751958372967,0.004497709011364037,-0.03895618715127336,0.0,70.0,255.0,255.0,255.0
94,4.7,-4.750673044045248,7.552374708825462,-0.4472817468900456,-0.10596487283558886,0.022320508254756177,-0.18929875763639858,-0.020539616267800653,0.0033614054671282645,-0.037236740194279694,0.0,70.0,255.0,255.0,255.0
95,4.75,-4.755996866847413,7.553494794474262,-0.4567930462945692,-0.10698538569311467,0.022463537071919504,-0.19112171317606064,-0.02046558274084731,0.002661185999386362,-0.036080625198164906,0.0,70.0,255.0,255.0,255.0
96,4.800000000000001,-4.76137158261456,7.554621062532654,-0.46639391820765164,-0.1080114311096736,0.022586626854694813,-0.19290682015621508,-0.020753959435371172,0.0025788617453947893,-0.03575028027875127,0.0,70.0,255.0,255.0,255.0
97,4.8500000000000005,-4.76679800995838,7.555753457159732,-0.4760837283101907,-0.10906078163665178,0.022721423246458983,-0.19469674120393576,-0.021310192091394953,0.0030103379245360884,-0.036125489075461426,0.0,70.0,255.0,255.0,255.0
98,4.9,-4.772277660778225,7.5568932048573,-0.4858635923280452,-0.11014245031881309,0.022887660647148422,-0.19651936906376122,-0.02195246735876566,0.003721867672279444,-0.036920172109222715,0.0,70.0,255.0,255.0,255.0
99,4.95,-4.777812254990262,7.558042223224446,-0.4957356652165668,-0.11125602837252835,0.023093610013686927,-0.19838875841485804,-0.02249197591828178,0.0044782974613966076,-0.03785024402921944,0.0,70.0,255.0,255.0,255.0
100,5.0,-4.783403263615478,7.559202565858668,-0.505702468169531,-0.11239164791064127,0.023335490393288083,-0.20030439346668316,-0.022744009385977648,0.005040679674461757,-0.03863349719834819,0.0,70.0,255.0,255.0,255.0
101,5.050000000000001,-4.789051419781326,7.560375772263775,-0.5157661045632351,-0.11353042931112611,0.023597677981133103,-0.20225210813469285,-0.022614473228621534,0.005275105026392168,-0.039103139851220936,0.0,70.0,255.0,255.0,255.0
102,5.1000000000000005,-4.79475630654659,7.561562333656782,-0.5259276789830003,-0.11465309523350342,0.0238630008959273,-0.20421470745180526,-0.022176880045865488,0.00523536984324835,-0.03926921908183889,0.0,70.0,255.0,255.0,255.0
103,5.15,-4.800516729304676,7.562762072353368,-0.5361875753084157,-0.11574811731571266,0.024121214965457938,-0.20617903004287674,-0.02158720305569517,0.005048573214061491,-0.039195105763789595,0.0,70.0,255.0,255.0,255.0
104,5.2,-4.806331118278162,7.5639744551533274,-0.546545581987288,-0.11681181553907294,0.02436785821733345,-0.20813421802818421,-0.02100576677337429,0.004833003755067011,-0.03893039557687494,0.0,70.0,255.0,255.0,255.0
105,5.25,-4.8121979108585835,7.565198858175101,-0.5570009971112341,-0.11784869399305009,0.02460451534096464,-0.21007206960056424,-0.020594370391524564,0.004716048681974172,-0.03852533938835112,0.0,70.0,255.0,255.0,255.0
106,5.300000000000001,-4.818115987677467,7.566434906687424,-0.5675527889473444,-0.1188712525782254,0.024839463085530866,-0.21198675196701933,-0.020440921541986512,0.004766778754294876,-0.03802270810197017,0.0,70.0,255.0,255.0,255.0
107,5.3500000000000005,-4.824085036116406,7.567682804483654,-0.578199672307936,-0.11989278614724874,0.025081193216394126,-0.21387434041076125,-0.020498651361489095,0.004927250302344532,-0.03747847375812352,0.0,70.0,255.0,255.0,255.0
108,5.4,-4.8301052662921915,7.568943026009063,-0.5889402229884205,-0.1209211177143743,0.02533218811576532,-0.21573459934283168,-0.02066319594300481,0.005085611034605364,-0.036980243996409534,0.0,70.0,255.0,255.0,255.0
109,5.45,-4.8361771478878435,7.570216023295231,-0.5997731322422192,-0.12195910574154922,0.025589754319854663,-0.2175723648104022,-0.020831157454548332,0.005142601271135305,-0.03662714802213918,0.0,70.0,255.0,255.0,255.0
110,5.5,-4.842301176866346,7.571502001441049,-0.6106974594694607,-0.12300423345982914,0.02584644824287885,-0.2193973141450456,-0.020886527696273305,0.00499918154082124,-0.0365091545723395,0.0,70.0,255.0,255.0,255.0
111,5.550000000000001,-4.848477571233826,7.572800668119519,-0.6217128636567237,-0.12404775851117655,0.026089672473936787,-0.22122328026763616,-0.020769066710535355,0.004610693708695379,-0.036666540561469674,0.0,70.0,255.0,255.0,255.0
112,5.6000000000000005,-4.854705952717464,7.5741109686884425,-0.6328197874962244,-0.12508114013088267,0.026307517613748388,-0.22306396820119256,-0.020549446909345903,0.004057400508816755,-0.03705241036108253,0.0,70.0,255.0,255.0,255.0
113,5.65,-4.860985685246915,7.575431419880894,-0.644019260476843,-0.12610270320211114,0.026495412524818462,-0.2249285213037444,-0.020358241610107797,0.0034880502473910724,-0.03756755461413741,0.0,70.0,255.0,255.0,255.0
114,5.7,-4.867316223037675,7.576760509940924,-0.6553126396265988,-0.12711696429189345,0.026656322638487495,-0.2268207236626063,-0.020316689654986675,0.003049365054152986,-0.038101525155120886,0.0,70.0,255.0,255.0,255.0
115,5.75,-4.873697381676104,7.578097052144742,-0.6667013328431036,-0.1281343721676098,0.02680034903023376,-0.2287386738192565,-0.020555462879912056,0.002879206506101184,-0.03855002367436633,0.0,70.0,255.0,255.0,255.0
116,5.800000000000001,-4.880129660254436,7.579440544843948,-0.6781865070085245,-0.12917251057988466,0.026944243289097614,-0.23067572603004294,-0.021129897863580993,0.003044245944039403,-0.03885164247267037,0.0,70.0,255.0,255.0,255.0
117,5.8500000000000005,-4.8866146327340925,7.580791476473652,-0.6897689054461079,-0.1302473619539679,0.0271047736246377,-0.23262383806652354,-0.02190178943983767,0.0034786721375468233,-0.03899552116110039,0.0,70.0,255.0,255.0,255.0
118,5.9,-4.893154396449833,7.5821510222064115,-0.7014488908151768,-0.13136268952386843,0.027292110502852296,-0.23457527814615298,-0.022624770016488327,0.004045824339282689,-0.03898506202251184,0.0,70.0,255.0,255.0,255.0
119,5.95,-4.899750901686479,7.583520687523937,-0.7132264332607232,-0.13250983895561674,0.02750935605856597,-0.23652234426877472,-0.023056023318179797,0.004600451333303113,-0.03882726417797633,0.0,70.0,255.0,255.0,255.0
120,6.0,-4.906405380345395,7.584901957812268,-0.7251011252420543,-0.1336682918556864,0.027752155636182607,-0.2384580045639506,-0.022951667404846887,0.004995973786847685,-0.038534760054298456,0.0,70.0,255.0,255.0,255.0
121,6.050000000000001,-4.913117730872048,7.586295903087556,-0.7370722337171183,-0.13480500569610143,0.02800895343725074,-0.24037582027420457,-0.022203742768223123,0.00515283533619737,-0.038125863906735,0.0,70.0,255.0,255.0,255.0
122,6.1000000000000005,-4.919885880915005,7.587702853155993,-0.7491387072694747,-0.13588866613250872,0.028267439169802344,-0.2422705909546241,-0.021009642417979535,0.005111547305336472,-0.03764634415539536,0.0,70.0,255.0,255.0,255.0
123,6.15,-4.926706597485299,7.589122647004536,-0.7612992928125807,-0.13690596993789939,0.028520108167784386,-0.2441404546897441,-0.01973810955941957,0.0049641768701924605,-0.03717303645671688,0.0,70.0,255.0,255.0,255.0
124,6.2,-4.933576477908795,7.590554863972772,-0.7735527527384491,-0.13786247708845067,0.02876385685682159,-0.2459878946002958,-0.018764764856982197,0.00480262914530627,-0.03679510577855316,0.0,70.0,255.0,255.0,255.0
125,6.25,-4.940492845194144,7.591999032690218,-0.7858980822726103,-0.1387824464235976,0.029000371082315013,-0.24781996526759942,-0.018465839527870287,0.0047288796984013,-0.036606973404451626,0.0,70.0,255.0,255.0,255.0
126,6.300000000000001,-4.9474547225511545,7.593454901081003,-0.7983347492652091,-0.1397090610412377,0.02923674482666172,-0.24964859194074096,-0.019022217311004397,0.004797186605109971,-0.03665161518709992,0.0,70.0,255.0,255.0,255.0
127,6.3500000000000005,-4.954463751298268,7.594922707172884,-0.8108629414666844,-0.14068466815469804,0.02948008974282601,-0.2514851267863094,-0.0202097574396376,0.004954206241780668,-0.03685639825466991,0.0,70.0,255.0,255.0,255.0
128,6.4,-4.961523189366624,7.596402910055286,-0.82348326194384,-0.14173003678520146,0.029732165450839787,-0.25333423176620795,-0.021591836035028678,0.005099239740946615,-0.03708549611337597,0.0,70.0,255.0,255.0,255.0
129,6.45,-4.968636754976788,7.597895923717968,-0.8361963646433052,-0.1428438517582009,0.02999001371692067,-0.255193676397647,-0.02272556993414554,0.005141945836317774,-0.03719902599444991,0.0,70.0,255.0,255.0,255.0
130,6.5,-4.975807574542444,7.599401911426978,-0.8490026295836047,-0.14400259377861602,0.030246360034471564,-0.25705413436565294,-0.023165021103288552,0.004992563363526159,-0.03704536497587396,0.0,70.0,255.0,255.0,255.0
131,6.550000000000001,-4.983037014354649,7.600920559721415,-0.8619017780798705,-0.14516035386852977,0.030489270053273287,-0.2588982128952344,-0.02268752784750916,0.0046113319976726075,-0.03655438863154892,0.0,70.0,255.0,255.0,255.0
132,6.6000000000000005,-4.990323609929297,7.602450838432305,-0.8748924508731282,-0.14627134656336693,0.030707493234238825,-0.26070957322880783,-0.02152214367425742,0.004073399290760449,-0.03585076678862542,0.0,70.0,255.0,255.0,255.0
133,6.65,-4.997664149010986,7.603991309044839,-0.8879727354027512,-0.1473125682359555,0.030896609982349332,-0.26248328957409695,-0.02012373044957272,0.003517931764474014,-0.0351622751272096,0.0,70.0,255.0,255.0,255.0
134,6.7,-5.005054866752893,7.60554049943054,-0.9011407798305379,-0.1482837196083242,0.031059286410686227,-0.2642258007415288,-0.018946102260475328,0.0030823614004305,-0.03470865038354143,0.0,70.0,255.0,255.0,255.0
135,6.75,-5.0124925209718185,7.607097237685908,-0.9143953154769041,-0.14920717846200304,0.031204846122392382,-0.2659541546124511,-0.0184420014675446,0.00289284819929847,-0.03469949209986556,0.0,70.0,255.0,255.0,255.0
136,6.800000000000001,-5.019975584599093,7.608660984042779,-0.927736195291783,-0.15012791975507866,0.031348571230616074,-0.26769574995151535,-0.018840818151222294,0.0030112849386476626,-0.03523171606759634,0.0,70.0,255.0,255.0,255.0
137,6.8500000000000005,-5.027505312947326,7.6102320948089694,-0.9411648904720556,-0.15109126027712527,0.03150597461625715,-0.2694773262192107,-0.019930852011995626,0.0033877210712240924,-0.03617428750462004,0.0,70.0,255.0,255.0,255.0
138,6.9,-5.035084710626806,7.611811581504405,-0.954683927913704,-0.15212100495627823,0.03168734333773848,-0.27131317870197735,-0.0212840580174678,0.003912669564787308,-0.03726997214239525,0.0,70.0,255.0,255.0,255.0
139,6.95,-5.042717413442954,7.613400829142743,-0.9682962083422534,-0.15321966607887205,0.03189724157273588,-0.27320432343345025,-0.022476874170695993,0.004469121382033592,-0.0382541113991719,0.0,70.0,255.0,255.0,255.0
140,7.0,-5.050406677234693,7.6150013056616785,-0.9820043602570491,-0.15436869237334783,0.03213425547594184,-0.27513858984189454,-0.023099047619101754,0.004948025191087169,-0.03887666662456546,0.0,70.0,255.0,255.0,255.0
141,7.050000000000001,-5.058154282680289,7.6166142546903375,-0.9958100673264428,-0.15552957084078223,0.032392044091844596,-0.2770919900959068,-0.02293605269514387,0.005284041068431833,-0.0390054603847223,0.0,70.0,255.0,255.0,255.0
142,7.1000000000000005,-5.065959634318771,7.618240510070863,-1.0097135592666397,-0.1566622976428622,0.032662659582785025,-0.2790391358803668,-0.022125264128725064,0.005459352788239613,-0.038700195081065036,0.0,70.0,255.0,255.0,255.0
143,7.15,-5.073820512444575,7.619880520648616,-1.0237139809144795,-0.15774209725365473,0.03293797937066856,-0.2809620096040133,-0.020969221628774903,0.005466914451979221,-0.03810972441516958,0.0,70.0,255.0,255.0,255.0
144,7.2,-5.081733844044137,7.62153430800793,-1.037809760227041,-0.1587592198057397,0.03320935102798295,-0.28285010832188373,-0.019772974482368255,0.005301665891632723,-0.03739490401974965,0.0,70.0,255.0,255.0,255.0
145,7.25,-5.089696434425149,7.623201455751414,-1.0519989917466679,-0.15971939470189156,0.03346814595983183,-0.28470150000598826,-0.018833789408656543,0.004959060360221201,-0.03672586937375488,0.0,70.0,255.0,255.0,255.0
146,7.300000000000001,-5.097705783514326,7.624881122603913,-1.06627991022764,-0.16064259874660536,0.03370525706400507,-0.2865226952592592,-0.018320518854597623,0.004451525147253221,-0.03620490393199116,0.0,70.0,255.0,255.0,255.0
147,7.3500000000000005,-5.10576069429981,7.626571981457815,-1.0806512612725938,-0.16155144658735132,0.03391329847455715,-0.2883219903991874,-0.018200818746016978,0.0038557069364841823,-0.03582213496851061,0.0,70.0,255.0,255.0,255.0
148,7.4,-5.113860928173061,7.628272452451369,-1.0951121092675586,-0.16246268062120706,0.034090827757653486,-0.2901049087561103,-0.01836800651640047,0.003300511787607263,-0.03553644488232255,0.0,70.0,255.0,255.0,255.0
149,7.45,-5.12200696236193,7.62998106423358,-1.1096617521482048,-0.16338824723899137,0.03424334965331788,-0.29187563488741963,-0.018716915545358148,0.0029231894109749135,-0.035318160633512896,0.0,70.0,255.0,255.0,255.0
150,7.5,-5.13019975289696,7.6316967874167005,-1.1242996727563006,-0.16433437217574287,0.03438314669875098,-0.29363672481946157,-0.019129804069706324,0.002859742691807554,-0.03512391182427521,0.0,70.0,255.0,255.0,255.0
151,7.550000000000001,-5.138440399579505,7.633419378903455,-1.139025424630151,-0.165301227645962,0.034529323922498634,-0.29538802606984715,-0.019530123634581287,0.0031703711624864184,-0.03492886328142486,0.0,70.0,255.0,255.0,255.0
152,7.6000000000000005,-5.146729875661556,7.63514971980895,-1.1538384753632853,-0.166287384539201,0.03470018381499962,-0.29712961114760406,-0.01991155412781609,0.0037533439416037595,-0.03476949348331093,0.0,70.0,255.0,255.0,255.0
153,7.65,-5.155069138033425,7.636889397284955,-1.1687383857449114,-0.1672923830587436,0.03490465831665901,-0.29886497541817825,-0.02027614158359725,0.004414674761665793,-0.034705428456427434,0.0,70.0,255.0,255.0,255.0
154,7.7,-5.163459113967431,7.638640185640616,-1.1837249729051031,-0.16831499869756072,0.0351416512911662,-0.3006001539932468,-0.02060747522412143,0.004952802572333326,-0.03477953969326375,0.0,70.0,255.0,255.0,255.0
155,7.75,-5.171900637903181,7.640403562414072,-1.198798401144236,-0.16935313058115575,0.03539993857389234,-0.3023429293875046,-0.020898929043244863,0.005165978196242094,-0.0350304180610328,0.0,70.0,255.0,255.0,255.0
156,7.800000000000001,-5.180394427025546,7.6421801794980055,-1.2139592658438536,-0.1704048916018852,0.03565824911079041,-0.3041031957993501,-0.021145560033986044,0.004953703488563832,-0.03546724200989004,0.0,70.0,255.0,255.0,255.0
157,7.8500000000000005,-5.188941127063369,7.643969387325151,-1.229208720724171,-0.17146768658455436,0.035895308922748725,-0.3058896535884936,-0.02131566870664514,0.004416325222500461,-0.03601905193741928,0.0,70.0,255.0,255.0,255.0
158,7.9,-5.197541195684002,7.64576971039028,-1.244548231202703,-0.17253645847254973,0.036099881633040454,-0.307705100993092,-0.021364723185701706,0.0037553812407331577,-0.03656100213105251,0.0,70.0,255.0,255.0,255.0
159,7.95,-5.206194772910624,7.647579375488455,-1.2599792308234803,-0.17360415890312453,0.03627084704682204,-0.3095457538015989,-0.021259896844050274,0.003172173726539995,-0.036964706234488,0.0,70.0,255.0,255.0,255.0
160,8.0,-5.214901611574314,7.649396795094963,-1.2755028065828629,-0.17466244815695475,0.03641709900569445,-0.3114015716165408,-0.020970517053786608,0.0028603072271593533,-0.03711040660763221,0.0,70.0,255.0,255.0,255.0
161,8.05,-5.22366101772632,7.651221085389024,-1.2911193879851344,-0.1757012106085032,0.036556877769537977,-0.3132567944623621,-0.020493323875392377,0.0029213883094847404,-0.036941655858546696,0.0,70.0,255.0,255.0,255.0
162,8.1,-5.232471732635164,7.653052482871916,-1.306828486029099,-0.176711780544494,0.03670923783664293,-0.3150957372023955,-0.019906610206721354,0.003295947242776265,-0.03651877429142747,0.0,70.0,255.0,255.0,255.0
163,8.15,-5.241332195780769,7.654892009172689,-1.322628961705374,-0.17769187162917532,0.0368864724938156,-0.31690867189150485,-0.01934580483435866,0.0038492082008012574,-0.03596692665555068,0.0,70.0,255.0,255.0,255.0
164,8.200000000000001,-5.250240919798082,7.656741130121298,-1.3385193532182496,-0.17864636102792986,0.03709415865672305,-0.31869242986795054,-0.0189519117584247,0.0044452158088681415,-0.03542112254835139,0.0,70.0,255.0,255.0,255.0
165,8.25,-5.259196831883562,7.658601425038361,-1.354498204692169,-0.1795870628050178,0.03733099407470242,-0.32045078414634,-0.018863012065661877,0.004956802219702183,-0.03501597415662694,0.0,70.0,255.0,255.0,255.0
166,8.3,-5.268199626078584,7.660474229528768,-1.3705644316328836,-0.18053266223449604,0.03758983887869327,-0.32219402728361324,-0.0191416572850045,0.005307969379941824,-0.03482562173533488,0.0,70.0,255.0,255.0,255.0
167,8.35,-5.277250098107012,7.66236040892623,-1.3867176074205303,-0.18150122853351824,0.0378617910126966,-0.32393334631987347,-0.019693414942345555,0.005483522169669186,-0.03482221453310341,0.0,70.0,255.0,255.0,255.0
168,8.4,-5.2863497489319355,7.664260408630038,-1.402957766264871,-0.1825020037287306,0.03813819109566019,-0.3256762487369236,-0.020335693840056734,0.005483310431841915,-0.03493576677129351,0.0,70.0,255.0,255.0,255.0
169,8.450000000000001,-5.295500298479885,7.666174228035796,-1.4192852322942227,-0.18353479791752392,0.03841012205588079,-0.3274269229970028,-0.02087968222923564,0.005307475858629118,-0.03509700403847571,0.0,70.0,255.0,255.0,255.0
170,8.5,-5.304703228723688,7.668101420835626,-1.4357004585645712,-0.18458997195165416,0.0386689386815231,-0.32918594914077115,-0.0211414440083324,0.004956493218344349,-0.03523371541389597,0.0,70.0,255.0,255.0,255.0
171,8.55,-5.31395929567505,7.670041121903949,-1.4522038272082998,-0.18564894231835716,0.038905771377715226,-0.3309502945383924,-0.021026760271602996,0.0044457085295768195,-0.03530308330714771,0.0,70.0,255.0,255.0,255.0
172,8.6,-5.323268122955524,7.6719919979733975,-1.4687954880184104,-0.18669264797881446,0.039113509534480784,-0.3327162574714859,-0.02060513794885921,0.003850803239302536,-0.035313299976991175,0.0,70.0,255.0,255.0,255.0
173,8.65,-5.332628560472932,7.673952472857397,-1.4854754529554484,-0.18770945611324308,0.03929085170164548,-0.33448162453609154,-0.020026011879270555,0.003298389232764265,-0.035288234697627985,0.0,70.0,255.0,255.0,255.0
174,8.700000000000001,-5.342039068566848,7.675921083143562,-1.5022436504720196,-0.18869524916674152,0.03944334845775721,-0.3362450809412487,-0.019442646037770572,0.0029238551159771475,-0.0352446608316459,0.0,70.0,255.0,255.0,255.0
175,8.75,-5.351498085389606,7.677896807703172,-1.5190999610495732,-0.18965372071702014,0.039583237213243194,-0.3380060906192561,-0.019007202577014937,0.0028612342306111316,-0.03519713621586984,0.0,70.0,255.0,255.0,255.0
176,8.8,-5.36100444063855,7.679879406864886,-1.5360442595339452,-0.190595969424443,0.03972947188081832,-0.3397647945628357,-0.01880407552166119,0.003169709321504399,-0.035155331749270324,0.0,70.0,255.0,255.0,255.0
177,8.85,-5.37055768233205,7.681869754891254,-1.5530764405058568,-0.19153412826918625,0.039900208145393634,-0.34152162379418316,-0.018802396898998097,0.0037487893489007718,-0.03512458555876563,0.0,70.0,255.0,255.0,255.0
178,8.9,-5.380157853465469,7.683869427679426,-1.5701964219133635,-0.19247620911434282,0.0401043508157084,-0.34327725311871227,-0.018924734167224955,0.004406769000819821,-0.035111294438272544,0.0,70.0,255.0,255.0,255.0
179,8.950000000000001,-5.3898053032434845,7.685880189972825,-1.587404165817728,-0.19342660168590875,0.040340885045475616,-0.3450327532380104,-0.019095934085555655,0.004944329785772084,-0.03512435263484104,0.0,70.0,255.0,255.0,255.0
180,9.0,-5.3995005136340595,7.687903516183973,-1.6046996972371645,-0.1943858025228984,0.04059878379428561,-0.34678968838219637,-0.01923776433159219,0.00516257918317109,-0.03517773972259164,0.0,70.0,255.0,255.0,255.0
181,9.05,-5.409243883495774,7.689940068352254,-1.6220831346559477,-0.19535037811906797,0.040857142963792725,-0.3485505272102696,-0.019304163749644943,0.004962167469280132,-0.03527558969607103,0.0,70.0,255.0,255.0,255.0
182,9.1,-5.419035551445966,7.6919892304803525,-1.6395547499581915,-0.19631621889786288,0.04109500054121362,-0.3503172473518035,-0.01930620685568485,0.0044394472904940585,-0.0353883577880687,0.0,70.0,255.0,255.0,255.0
183,9.15,-5.428875505385561,7.694049568406375,-1.657114859391128,-0.19728099880463645,0.04130108769284213,-0.35208936298907645,-0.019273279889731043,0.0037891268393153155,-0.03546658754904897,0.0,70.0,255.0,255.0,255.0
184,9.200000000000001,-5.43876365132643,7.696119339249637,-1.6747636862570991,-0.198243546886836,0.041473913225145154,-0.35386390610670837,-0.019227417154255022,0.0032053991685820904,-0.035464641915328166,0.0,70.0,255.0,255.0,255.0
185,9.25,-5.448699860074244,7.6981969597288895,-1.6925012500017989,-0.19920374052006196,0.04162162760970034,-0.35563582718060927,-0.01918971212422349,0.002872411740106884,-0.03534393286577231,0.0,70.0,255.0,255.0,255.0
186,9.3,-5.458684025378436,7.700281502010607,-1.71032726897516,-0.20016251809925834,0.04176115439915584,-0.3573982993932856,-0.019172556193325363,0.0028881942264469274,-0.0350885099331677,0.0,70.0,255.0,255.0,255.0
187,9.35,-5.46871611188417,7.702373075168805,-1.7282410799411274,-0.2011209961393945,0.04191044703234503,-0.35914467817392604,-0.019172775678200082,0.003208013564304224,-0.03472375485098489,0.0,70.0,255.0,255.0,255.0
188,9.4,-5.478796124992376,7.704472546713841,-1.7462417367925527,-0.20207979566707834,0.042081955755586264,-0.3608706748783841,-0.01918214627369963,0.0037221315684732303,-0.03430142296432237,0.0,70.0,255.0,255.0,255.0
189,9.450000000000001,-5.488924091450878,7.706581270744364,-1.7643281474289658,-0.20303921076676446,0.042282660189192356,-0.36257482047035827,-0.019194397298072374,0.004320786826728096,-0.03387656688293994,0.0,70.0,255.0,255.0,255.0
190,9.5,-5.499100046069052,7.7087008127327605,-1.7824992188395885,-0.20399923539688558,0.042514034438259074,-0.3642583315666781,-0.019203387171362607,0.0049117831794731615,-0.03349053813828107,0.0,70.0,255.0,255.0,255.0
191,9.55,-5.5093240149905665,7.71083267418819,-1.8007539805856336,-0.20495954948390072,0.04277383850713967,-0.3659238742841864,-0.019205611477079998,0.00543228173244259,-0.033170370571689034,0.0,70.0,255.0,255.0,255.0
192,9.600000000000001,-5.519596001017442,7.7129781965834745,-1.8190916062680071,-0.20591979654459358,0.04305726261150333,-0.367575368623847,-0.01920269043127476,0.00581213481645193,-0.0329539188454131,0.0,70.0,255.0,255.0,255.0
193,9.65,-5.529915994645026,7.71513840044934,-1.8375115174480183,-0.2068798185270282,0.043355051988784865,-0.3692192661687277,-0.019198135015052742,0.005957871361328415,-0.03289042455618674,0.0,70.0,255.0,255.0,255.0
194,9.700000000000001,-5.540283982870145,7.717313701782353,-1.85601353288488,-0.20783961004609885,0.043653049747636175,-0.37086441107946566,-0.019194993654103598,0.005778679631252004,-0.033022377266123115,0.0,70.0,255.0,255.0,255.0
195,9.75,-5.550699955649636,7.719503705424104,-1.874597958555965,-0.20879931789243855,0.043932919951910065,-0.37252150389534,-0.019196739191063017,0.005176492838909752,-0.0333978772851351,0.0,70.0,255.0,255.0,255.0
196,9.8,-5.561163914659389,7.721706993777544,-1.893265683274414,-0.20975928396520516,0.04417069903152715,-0.37420419880797917,-0.01920499789829222,0.004127853669722015,-0.03402432013448475,0.0,70.0,255.0,255.0,255.0
197,9.850000000000001,-5.571675884046156,7.723920775327256,-1.9120183784367628,-0.21071981768226777,0.04434570531888227,-0.3759239359087885,-0.01921646259583909,0.00282605789170276,-0.034779730606415704,0.0,70.0,255.0,255.0,255.0
198,9.9,-5.5822358964276155,7.726141564309432,-1.9308580768652928,-0.21168093022478907,0.044453304820697426,-0.37768217186862074,-0.019225313665582888,0.0016062897452151503,-0.03545603965002808,0.0,70.0,255.0,255.0,255.0
199,9.950000000000001,-5.592843977068635,7.728366105809326,-1.9497865956236249,-0.21264234904882606,0.04450633429340378,-0.3794695398737913,-0.01922562808571726,0.000809529613743365,-0.035841662980384825,0.0,70.0,255.0,255.0,255.0
200,10.0,-5.603500131332498,7.730592197738773,-1.968805030852672,-0.2136034930333608,0.04453425778207176,-0.3812663381666592,-0.0192096560643229,0.000766208169711291,-0.03572597136918265,0.0,70.0,255.0,255.0,255.0
201,10.05,-5.614204326371971,7.732819531587533,-1.9879132294402908,-0.21456331465525835,0.04458295511037491,-0.38304213701070955,-0.019174396929866333,0.001624415476531027,-0.03501803653598312,0.0,70.0,255.0,255.0,255.0
202,10.100000000000001,-5.624956462798024,7.73505049324981,-2.007109244553743,-0.21552093272634743,0.044696699329724865,-0.38476814182025754,-0.019131459186016997,0.003152911005699366,-0.0338934058151219,0.0,70.0,255.0,255.0,255.0
203,10.15,-5.635756419644606,7.737289201520506,-2.0263900436223166,-0.21647646057386005,0.04489824621094485,-0.38643147759222174,-0.019100610322375644,0.004905174786795641,-0.03268084807912519,0.0,70.0,255.0,255.0,255.0
204,10.200000000000001,-5.64660410885541,7.739540317870905,-2.045752392312965,-0.217430993758585,0.04518721680840443,-0.38803622662817006,-0.01910249400225439,0.006418166948840565,-0.031716518598123855,0.0,70.0,255.0,255.0,255.0
205,10.25,-5.657499519020464,7.741807923201346,-2.0651936662851336,-0.2183867099740855,0.045540062905828904,-0.3896031294520341,-0.01916463655113887,0.007242683805053218,-0.03132620926598051,0.0,70.0,255.0,255.0,255.0
206,10.3,-5.6684427798528185,7.7440943241614875,-2.0847127052581684,-0.21934745741369888,0.04591148518890975,-0.3911688475547681,-0.019297414382535294,0.007147910996785356,-0.03167061996833809,0.0,70.0,255.0,255.0,255.0
207,10.350000000000001,-5.679434264761834,7.746399071720237,-2.1043105510406104,-0.22031645141233902,0.04625485400550744,-0.39277019144886793,-0.01945770066118513,0.006295817900259237,-0.03259676268343448,0.0,70.0,255.0,255.0,255.0
208,10.4,-5.690474424994052,7.748719809562038,-2.1239897244030552,-0.2212932274798174,0.046541066978935675,-0.39442852382311155,-0.019572245044940928,0.005039491295466547,-0.033789612322587814,0.0,70.0,255.0,255.0,255.0
209,10.450000000000001,-5.701563587509816,7.751053178418131,-2.1437534034229215,-0.2222736759168331,0.046758803135054094,-0.3961491526811267,-0.01957110919121874,0.003744376017245088,-0.03492620202107943,0.0,70.0,255.0,255.0,255.0
210,10.5,-5.712701792585736,7.753395689875544,-2.163604639671168,-0.22325033839893926,0.04691550458066018,-0.3979211440252195,-0.019383825703211954,0.0027790472852728954,-0.03569721021485783,0.0,70.0,255.0,255.0,255.0
211,10.55,-5.72388862134971,7.755744728876197,-2.1835455178254435,-0.2242120584871543,0.047036707863581384,-0.3997188737026125,-0.01898214600668524,0.0023489755008654356,-0.035933422984557595,0.0,70.0,255.0,255.0,255.0
212,10.600000000000001,-5.735122998434451,7.758099360661902,-2.203576527041429,-0.2251485529996078,0.04715040213074673,-0.40151448632367526,-0.01843950973077213,0.0023756122651263922,-0.035688587740434485,0.0,70.0,255.0,255.0,255.0
213,10.65,-5.746403476649671,7.760459769089271,-2.223696966457811,-0.22605600946023152,0.04727426909009402,-0.40328773247665595,-0.01788947709666644,0.002667582641979749,-0.03511081918037284,0.0,70.0,255.0,255.0,255.0
214,10.700000000000001,-5.757728599380474,7.762826787570911,-2.2439053002890947,-0.22693750070927443,0.0474171603949447,-0.40502556824171254,-0.01746584312609656,0.003042930381091935,-0.034352472851351123,0.0,70.0,255.0,255.0,255.0
215,10.75,-5.769097226720598,7.765201485128766,-2.2641995232819823,-0.22780259377284118,0.04757856212820322,-0.40672297976179106,-0.017292041988348217,0.003309192322653587,-0.03356494987474257,0.0,70.0,255.0,255.0,255.0
216,10.8,-5.780508858757758,7.7675846437837315,-2.284577598265274,-0.22866670490810925,0.04774807962721006,-0.4083820632291868,-0.017427801124458853,0.0033573525007213334,-0.03284743634512921,0.0,70.0,255.0,255.0,255.0
217,10.850000000000001,-5.791963897211409,7.769976293091487,-2.305037729604901,-0.22954537388528706,0.04791429737827535,-0.410007723396304,-0.017819784890882318,0.0032435978401856858,-0.0322460891523324,0.0,70.0,255.0,255.0,255.0
218,10.9,-5.803463396146287,7.772376073521559,-2.3255783706049042,-0.23044868339719748,0.04807243941122863,-0.41160667214442004,-0.018353482931576792,0.003086635013271888,-0.031812425641053466,0.0,70.0,255.0,255.0,255.0
219,10.950000000000001,-5.815008765551129,7.77478353703261,-2.346198396819343,-0.23138072217844474,0.04822296087960254,-0.4131889659604093,-0.018906031125176526,0.002984788239857039,-0.03160908139854257,0.0,70.0,255.0,255.0,255.0
220,11.0,-5.826601468364132,7.777198369609519,-2.366897267200945,-0.23233928650971514,0.04837091823521433,-0.4147675802842743,-0.019359987695732883,0.0030280995074072337,-0.031695018258126595,0.0,70.0,255.0,255.0,255.0
221,11.05,-5.8382426942021,7.779620628856131,-2.3876751548477704,-0.23331672094801803,0.04852577083034326,-0.416358467786222,-0.01964716231608321,0.0032619874565931184,-0.03208457056249614,0.0,70.0,255.0,255.0,255.0
222,11.100000000000001,-5.849933140458933,7.782050946692554,-2.4085331139795674,-0.23430400274132346,0.048697116980873645,-0.4179760373405239,-0.019764987069414985,0.0036482248124691807,-0.03268351252696533,0.0,70.0,255.0,255.0,255.0
223,11.15,-5.861673094476233,7.7844903405542185,-2.4294727585818228,-0.23529321965495953,0.04889059331159018,-0.4196268190389185,-0.019732115651827087,0.004106809705728409,-0.033321343057401975,0.0,70.0,255.0,255.0,255.0
224,11.200000000000001,-5.873462462424429,7.786940006023713,-2.4504957958834592,-0.23627721430650617,0.049107797951446486,-0.4213081716462641,-0.019570545193570155,0.004558429480550075,-0.0338122271955843,0.0,70.0,255.0,255.0,255.0
225,11.25,-5.885300815906883,7.789401120349363,-2.471603575746449,-0.23725027417431654,0.04934643625964519,-0.42300804175847695,-0.019312016553385547,0.004934400323808319,-0.0339669584443314,0.0,70.0,255.0,255.0,255.0
226,11.3,-5.897187489841861,7.791874649649677,-2.492796600059307,-0.23820841596184472,0.04960123798382732,-0.42470486749069725,-0.018982523970212384,0.005194697672195048,-0.033694281404716975,0.0,70.0,255.0,255.0,255.0
227,11.350000000000001,-5.909121657503068,7.794361244147746,-2.514074062495519,-0.23914852657133778,0.04986590602686469,-0.42637746989894865,-0.01860110599203324,0.005326206872080519,-0.03310526866595609,0.0,70.0,255.0,255.0,255.0
228,11.4,-5.921102342498995,7.796861240252364,-2.535434347049202,-0.24006852656104805,0.05013385867103537,-0.42801539435729286,-0.018198893621423906,0.005323422201364281,-0.03241679420393773,0.0,70.0,255.0,255.0,255.0
229,11.450000000000001,-5.933128510159173,7.799374630014849,-2.556875601931248,-0.24096841593348017,0.05039824824700112,-0.4296191493193424,-0.01781747574618464,0.00518820712560597,-0.03184858324525308,0.0,70.0,255.0,255.0,255.0
230,11.5,-5.945199184092343,7.801901065077064,-2.578396261981136,-0.2418502741356665,0.05065267938359597,-0.43120025268181816,-0.0174879833876318,0.004930336493735865,-0.031621110668345054,0.0,70.0,255.0,255.0,255.0
231,11.55,-5.957313537572739,7.804439897953209,-2.59999562719943,-0.24271721427224335,0.05089128189637471,-0.4327812603861769,-0.01722945509001761,0.004564909499205072,-0.03184487724530172,0.0,70.0,255.0,255.0,255.0
232,11.600000000000001,-5.969470905519567,7.806990193266701,-2.6216743880197537,-0.24357321964466827,0.051109170333516474,-0.43438474040634834,-0.017067884999377725,0.004127786859164928,-0.03241000488416468,0.0,70.0,255.0,255.0,255.0
233,11.65,-5.981670859537206,7.809550814986561,-2.643434101240065,-0.24442400277218113,0.0513040605822912,-0.4360222608745934,-0.017035013825150713,0.0036803406504581915,-0.03309688805224198,0.0,70.0,255.0,255.0,255.0
234,11.700000000000001,-5.993913305796785,7.81212059932493,-2.665276614107213,-0.24527672102718334,0.05147720439856229,-0.43769442921157253,-0.017152838534517656,0.0032944296643577786,-0.03368686639655394,0.0,70.0,255.0,255.0,255.0
235,11.75,-6.0061985316399245,7.814698535426417,-2.687203544161222,-0.2461392866256329,0.05163350354872698,-0.4393909475142488,-0.017440012600378196,0.003040290997091688,-0.03396463617812984,0.0,70.0,255.0,255.0,255.0
236,11.8,-6.018527234459349,7.817283949679803,-2.709215708858638,-0.24702072228722116,0.05178123349827146,-0.4410908928293855,-0.017893968025006757,0.0029523776161610726,-0.03381963618758199,0.0,70.0,255.0,255.0,255.0
237,11.850000000000001,-6.030900603868647,7.819876658776244,-2.7313126334441606,-0.24792868342813357,0.051928741310343085,-0.442772911133007,-0.018446514848768913,0.0029999417285431207,-0.03334011972304651,0.0,70.0,255.0,255.0,255.0
238,11.9,-6.043320102802162,7.822476823810837,-2.7534929999719386,-0.24886537377209805,0.052081227671125774,-0.44442490480169017,-0.018980211916552747,0.0031179191604557843,-0.03271024566156022,0.0,70.0,255.0,255.0,255.0
239,11.950000000000001,-6.055787141245856,7.825084781543357,-2.7757551239243297,-0.24982670461978884,0.052240533226388663,-0.446043935699163,-0.019372195757405564,0.0032340742180281268,-0.03211723788165699,0.0,70.0,255.0,255.0,255.0
240,12.0,-6.068302773264141,7.827700877133476,-2.798097393541855,-0.2508025933478386,0.052404635092928586,-0.44763662858985587,-0.019507956887210298,0.0032644901931000447,-0.03175633529517441,0.0,70.0,255.0,255.0,255.0
241,12.05,-6.08086740058064,7.8303252450526495,-2.8205187867833152,-0.25177750030850987,0.05256698224569867,-0.44921956922868045,-0.019334159989092825,0.0031660928549115397,-0.03172935189725834,0.0,70.0,255.0,255.0,255.0
242,12.100000000000001,-6.093480523294992,7.832957575358046,-2.843019350464723,-0.2527360093467479,0.05272124437841974,-0.4508095637795817,-0.01891053112954566,0.0029933786280800234,-0.03194587986032893,0.0,70.0,255.0,255.0,255.0
243,12.15,-6.106141001515315,7.8355973694904915,-2.8655997431612734,-0.25366855342146444,0.05286632010850667,-0.45241415721471334,-0.018360502145320368,0.002846211146856348,-0.03222660482591344,0.0,70.0,255.0,255.0,255.0
244,12.200000000000001,-6.118847378637138,7.838244207368897,-2.8882607661861943,-0.25457205956127993,0.053005865493105375,-0.45403222426217305,-0.01781786561538823,0.0028163597112218497,-0.03239709582931738,0.0,70.0,255.0,255.0,255.0
245,12.25,-6.131598207471443,7.840897956039802,-2.9110029655874907,-0.25545033998300326,0.053147956079628855,-0.4556538667976451,-0.01741617849884136,0.0029976922861330024,-0.03227006926120879,0.0,70.0,255.0,255.0,255.0
246,12.3,-6.144392412635439,7.84355900297686,-2.933826152865959,-0.25631367741116406,0.053305634721718675,-0.4572592311882939,-0.017228879197972446,0.0034303372098420937,-0.03175638279730997,0.0,70.0,255.0,255.0,255.0
247,12.350000000000001,-6.157229575212559,7.846228519511974,-2.95672888870632,-0.2571732279028005,0.053490989800613065,-0.4588295050773761,-0.017227724268575884,0.004024772197741555,-0.030999064798820086,0.0,70.0,255.0,255.0,255.0
248,12.4,-6.170109735425719,7.848908101956921,-2.9797091033736964,-0.25803644983802165,0.05370811194149283,-0.46035913766817593,-0.01734225502660891,0.004618168654157984,-0.03026063107167687,0.0,70.0,255.0,255.0,255.0
249,12.450000000000001,-6.183033220196362,7.851599330706123,-3.0027648024731377,-0.2589074534054614,0.05395280666602886,-0.46185556818454376,-0.017502542247793684,0.005047713044525892,-0.02979423894049482,0.0,70.0,255.0,255.0,255.0
250,12.5,-6.196000480766265,7.854303382623524,-3.025894660192151,-0.259786704062801,0.05421288324594542,-0.4633385615622254,-0.017635347766375986,0.005152759310167454,-0.02985131306805222,0.0,70.0,255.0,255.0,255.0
251,12.55,-6.209011890602642,7.857020619030718,-3.0490986586293602,-0.260670988182099,0.05446808259704561,-0.464840699491349,-0.017697549326900486,0.004858758770609484,-0.03054600269458696,0.0,70.0,255.0,255.0,255.0
252,12.600000000000001,-6.222067579584475,7.859750190883228,-3.0723787301412857,-0.26155645899549107,0.05469875912300637,-0.4663931618316841,-0.017699504196055926,0.004272008105044023,-0.03169161385816466,0.0,70.0,255.0,255.0,255.0
253,12.65,-6.235167536502191,7.862490494943018,-3.0957379748125287,-0.2624409386017046,0.05489528340755001,-0.46800986087716545,-0.01766870618515881,0.003597477873995558,-0.0329354396515491,0.0,70.0,255.0,255.0,255.0
254,12.700000000000001,-6.248311673444645,7.865239719223983,-3.1191797162290023,-0.26332332961400695,0.055058506910405924,-0.469686705796839,-0.01762576492714274,0.003045562003922697,-0.03392040062291102,0.0,70.0,255.0,255.0,255.0
255,12.75,-6.2614998694635915,7.867996345634059,-3.1427066453922126,-0.26420351509441886,0.05519983960794228,-0.47140190093945655,-0.01759040246502863,0.002827261149018767,-0.034296706438796676,0.0,70.0,255.0,255.0,255.0
256,12.8,-6.274732024954087,7.870759703184778,-3.166319906322948,-0.2650823698605098,0.0553412330253078,-0.4731163764407187,-0.017574210209048147,0.0030479144204953457,-0.03389252017771405,0.0,70.0,255.0,255.0,255.0
257,12.850000000000001,-6.2880081064496425,7.87353046893659,-3.1900182830362844,-0.2659609361153237,0.055504631049991815,-0.47479115295722796,-0.01757425894606257,0.003601787456197769,-0.03288436321868815,0.0,70.0,255.0,255.0,255.0
258,12.9,-6.301328118565619,7.876310166289777,-3.2137990216186707,-0.26683979575511607,0.05570141177092758,-0.4764048127625875,-0.017582920231173915,0.004277327775792372,-0.0316285660324489,0.0,70.0,255.0,255.0,255.0
259,12.950000000000001,-6.314692086025154,7.8791006101136825,-3.237658764312543,-0.26771922813844107,0.05593236382757105,-0.47795400956047285,-0.017594398044185056,0.004863465514315379,-0.03049021917322925,0.0,70.0,255.0,255.0,255.0
260,13.0,-6.3281000413794635,7.881903402672534,-3.261594422574718,-0.2685992355595346,0.056187758322359116,-0.47945383467991043,-0.017603042374858546,0.0051542333894261105,-0.029833842529258803,0.0,70.0,255.0,255.0,255.0
261,13.05,-6.3415520095811075,7.884719385945918,-3.2856041477805342,-0.2694795323759269,0.05644778716651366,-0.48093739381339873,-0.017605609837545444,0.005043010119454294,-0.02984997720134608,0.0,70.0,255.0,255.0,255.0
262,13.100000000000001,-6.355047994617056,7.887548181389185,-3.309688161956058,-0.2703597965432891,0.056692059334304545,-0.48243883240004504,-0.017603460019088857,0.004606249995742218,-0.030401888978026648,0.0,70.0,255.0,255.0,255.0
263,13.15,-6.3685879892354365,7.890388591879349,-3.3338480310205387,-0.2712398783778358,0.056908412166087885,-0.4839775827112014,-0.01759961288891887,0.0040078030987267255,-0.031200179668156025,0.0,70.0,255.0,255.0,255.0
264,13.200000000000001,-6.38217198245484,7.893239022605794,-3.358085920227178,-0.272119757832181,0.05709283964417722,-0.48555885036686064,-0.0175966428964891,0.003413862652568156,-0.03195834972329337,0.0,70.0,255.0,255.0,255.0
265,13.25,-6.3957999650186546,7.8960978758437665,-3.382403916057225,-0.2729995426674847,0.0572497984313447,-0.48717341768353073,-0.017597428036708607,0.002991795967766109,-0.032391979388668446,0.0,70.0,255.0,255.0,255.0
266,13.3,-6.409471936721588,7.8989640024489285,-3.406803261995531,-0.27387950063585187,0.05739201924095383,-0.4887980483057275,-0.017603350440253962,0.0028328189931592362,-0.03234822369817536,0.0,70.0,255.0,255.0,255.0
267,13.350000000000001,-6.42318791508224,7.901837077767862,-3.4312837208877975,-0.2747598777115101,0.057533080330660624,-0.49040824005334827,-0.01761190097733234,0.0028895761989389257,-0.03191442119514498,0.0,70.0,255.0,255.0,255.0
268,13.4,-6.436947924492739,7.9047173104819946,-3.455844086000866,-0.2756406907335851,0.05768097686084772,-0.491989490425242,-0.017618628213611487,0.0030559353553449853,-0.03128353580770238,0.0,70.0,255.0,255.0,255.0
269,13.450000000000001,-6.450751984155598,7.907605175453947,-3.4804826699303217,-0.27652174053287126,0.05783867386619512,-0.4935365936341185,-0.017619030368898336,0.003227284340390213,-0.030643468180668876,0.0,70.0,255.0,255.0,255.0
270,13.5,-6.464600098546026,7.910501177868614,-3.5051977453642778,-0.27740259377047494,0.05800370529488674,-0.49505383724330887,-0.017607245478146183,0.003286601385976695,-0.03018220261976623,0.0,70.0,255.0,255.0,255.0
271,13.55,-6.478492243532646,7.913405545983435,-3.5299880536546526,-0.2782824650806859,0.05816733400479279,-0.4965548138960951,-0.01758098840189959,0.0031729400153501786,-0.030003188612059972,0.0,70.0,255.0,255.0,255.0
272,13.600000000000001,-6.492428345054095,7.916317911269093,-3.5548532267538873,-0.2791606926106649,0.05832099929642176,-0.49805415610451487,-0.017548936071154486,0.0029563776106300566,-0.030056789877530576,0.0,70.0,255.0,255.0,255.0
273,13.65,-6.506408312793712,7.9192376459130776,-3.579793469265104,-0.28003735868780133,0.0584629717658558,-0.4995604928838482,-0.017525874256563156,0.0027666839183204672,-0.030230152625598805,0.0,70.0,255.0,255.0,255.0
274,13.700000000000001,-6.520432080922875,7.922164208445679,-3.604809276042272,-0.2809132800363212,0.05859766768825381,-0.5010771713670747,-0.01752723562775671,0.0027240862324973136,-0.030413978020682464,0.0,70.0,255.0,255.0,255.0
275,13.75,-6.534499640797344,7.925097412681903,-3.6299011864018116,-0.281790082250577,0.05873538038910553,-0.5026018906859164,-0.01757359005081227,0.0029577425437743443,-0.03048722878014054,0.0,70.0,255.0,255.0,255.0
276,13.8,-6.548611089147933,7.9280377464845895,-3.6550694651108637,-0.28267063904140244,0.05889344194263124,-0.5041258942450888,-0.01767269595269738,0.0035225071921551887,-0.03038624796056766,0.0,70.0,255.0,255.0,255.0
277,13.850000000000001,-6.562766704701485,7.930986756876166,-3.6803137758263205,-0.28355735184584674,0.05908763110832105,-0.5056405154819732,-0.017792354738066507,0.0042831417970568,-0.030179351695780454,0.0,70.0,255.0,255.0,255.0
278,13.9,-6.5769668243325174,7.933946509595422,-3.705633516659061,-0.2844498745152091,0.05932175612233692,-0.5071438294146668,-0.017877874760241497,0.004998261372346491,-0.02999408212809307,0.0,70.0,255.0,255.0,255.0
279,13.950000000000001,-6.5912116921530055,7.9369189324884,-3.731028158767787,-0.2853451393218709,0.0595874572455557,-0.5086399236947825,-0.017878740406640503,0.005430310124232562,-0.029947705983657258,0.0,70.0,255.0,255.0,255.0
280,14.0,-6.6055013382647045,7.939905255319977,-3.7564975090285393,-0.28623774855587314,0.05986478713476018,-0.5101386000130326,-0.017750422290152557,0.005342475059499918,-0.030164826315814963,0.0,70.0,255.0,255.0,255.0
281,14.05,-6.619835467008593,7.942905411201876,-3.7820420187690904,-0.28712018155088614,0.06012170475150569,-0.511656406326364,-0.017474428253905216,0.00462943214767364,-0.030698905792636566,0.0,70.0,255.0,255.0,255.0
282,14.100000000000001,-6.634213356419793,7.945917425795128,-3.8076631496611757,-0.28798519138126366,0.06032773034952754,-0.5132084905922962,-0.0170834165384548,0.003477302287446804,-0.03142403177762709,0.0,70.0,255.0,255.0,255.0
283,14.15,-6.648633986146719,7.9489381842368285,-3.83336286782832,-0.2888285232047316,0.06046943498025037,-0.5147988095041267,-0.016641694301444687,0.0022357018278462704,-0.032114451263254296,0.0,70.0,255.0,255.0,255.0
284,14.200000000000001,-6.663096208740266,7.951964369293153,-3.8591430306115884,-0.28964936081140813,0.06055130053231217,-0.5164199357186217,-0.01621728992526883,0.0012602210563095184,-0.0325491374382203,0.0,70.0,255.0,255.0,255.0
285,14.25,-6.67759892222786,7.95499331429006,-3.885004861400182,-0.2904502521972585,0.06059545708588132,-0.5180537232479487,-0.015868730112966745,0.0009003292462672619,-0.032513512576315406,0.0,70.0,255.0,255.0,255.0
286,14.3,-6.692141233959992,7.958023915001741,-3.9109484029363832,-0.2912362338227048,0.060641333456938895,-0.5196712869762532,-0.015629591031984802,0.0013268504633678901,-0.031910529801537635,0.0,70.0,255.0,255.0,255.0
287,14.350000000000001,-6.7067225456101305,7.961057447635754,-3.9369719900978075,-0.292013211300457,0.06072814213221811,-0.5212447762281025,-0.015511275144408643,0.002357765603555606,-0.030890768280045222,0.0,70.0,255.0,255.0,255.0
288,14.4,-6.721342555090038,7.964096729214963,-3.9630728805591935,-0.29278736133714567,0.060877110017294456,-0.5227603638042577,-0.015518051996643578,0.0036279756058910095,-0.029743544054472437,0.0,70.0,255.0,255.0,255.0
289,14.450000000000001,-6.736001281743845,7.967145158637483,-3.9892480264782333,-0.29356501650012135,0.06109093969280721,-0.5242191306335497,-0.01564538660643322,0.004762745044484262,-0.028768005336177183,0.0,70.0,255.0,255.0,255.0
290,14.5,-6.75069905674005,7.970205823184243,-4.0154947936225485,-0.294351899997789,0.06135338452174288,-0.5256371643378754,-0.015878619961462448,0.005384226603499798,-0.02826112337888098,0.0,70.0,255.0,255.0,255.0
291,14.55,-6.765436471743624,7.973280497089657,-4.041811742912021,-0.2951528784962676,0.06162936235315719,-0.5270452429714378,-0.016201519972103284,0.005297105392099155,-0.02837226171412688,0.0,70.0,255.0,255.0,255.0
292,14.600000000000001,-6.780214344589677,7.976368759419559,-4.068199317919692,-0.2959720519949993,0.0618830950609528,-0.5284743905092881,-0.01659064372310226,0.004660679586976357,-0.028964783214302514,0.0,70.0,255.0,255.0,255.0
293,14.65,-6.795033676943124,7.979468806595753,-4.09465918196295,-0.2968119428685778,0.06209543031185483,-0.5299417212928681,-0.01700525855126145,0.0038025122995222205,-0.029759484407065884,0.0,70.0,255.0,255.0,255.0
294,14.700000000000001,-6.8098955388765345,7.982578302450745,-4.121193490048979,-0.29767257785012546,0.06226334629090502,-0.5314503389499947,-0.01739547600401181,0.0030491717266656337,-0.03047226779013812,0.0,70.0,255.0,255.0,255.0
295,14.75,-6.824800934728136,7.985695141224843,-4.147804215857949,-0.298551490468979,0.06240034748452139,-0.5329889480718819,-0.017720752744398993,0.002738708395266798,-0.030814021880054554,0.0,70.0,255.0,255.0,255.0
296,14.8,-6.839750687923432,7.988818337199197,-4.174492384856167,-0.29944465312456536,0.0625372171304317,-0.5345317411380002,-0.0179576157922412,0.0030440752869509424,-0.030634362736137177,0.0,70.0,255.0,255.0,255.0
297,14.850000000000001,-6.854745400040593,7.991948862937886,-4.201257389971749,-0.3003472520482031,0.06270475501321648,-0.5360523843454956,-0.0180888539266455,0.003793175721256148,-0.030056439189785067,0.0,70.0,255.0,255.0,255.0
298,14.9,-6.869785413128253,7.995088812700518,-4.228097623290717,-0.3012535385172299,0.06291653470255731,-0.5375373850569787,-0.01809820983558197,0.004649154683633583,-0.0293313388294969,0.0,70.0,255.0,255.0,255.0
299,14.950000000000001,-6.884870753892316,7.998240516408142,-4.255011128477447,-0.3021570730317613,0.06316967048157984,-0.5389855182284453,-0.01797942266472674,0.005286908376245236,-0.02870329646231795,0.0,70.0,255.0,255.0,255.0
300,15.0,-6.900001120431429,8.001405779748676,-4.281996175113561,-0.3030514807837026,0.06344522554018184,-0.5404077147032105,-0.017734406357661214,0.005381033055851248,-0.02841472383323662,0.0,70.0,255.0,255.0,255.0
301,15.05,-6.915175901970686,8.00458503896216,-4.309051899947768,-0.30393051366752744,0.06370777378716497,-0.541826990611769,-0.017373704503675924,0.004772933786867384,-0.028590147481999395,0.0,70.0,255.0,255.0,255.0
302,15.100000000000001,-6.930394171798182,8.007776557127393,-4.336178874174738,-0.3047888512340702,0.06392251891886858,-0.5432667294514104,-0.016934779730704008,0.0036537970144578935,-0.029124052101447973,0.0,70.0,255.0,255.0,255.0
303,15.15,-6.945654787094093,8.010977290854047,-4.363378572892909,-0.30562399164059784,0.06407315348861076,-0.5447393958219138,-0.0164827412675983,0.002394528638838267,-0.029800568199878086,0.0,70.0,255.0,255.0,255.0
304,15.200000000000001,-6.960956570962241,8.014183872476254,-4.39065281375693,-0.30643712536083,0.0641619717827524,-0.5462467862713982,-0.016092520982802228,0.0013625420878682348,-0.030407972933499394,0.0,70.0,255.0,255.0,255.0
305,15.25,-6.976298499630176,8.017393488032322,-4.418003251520049,-0.30723324373887806,0.06420940769739758,-0.5477801931152637,-0.015837659121320513,0.0009131034385490011,-0.030743120083709385,0.0,70.0,255.0,255.0,255.0
306,15.3,-6.991679895336129,8.020604813245994,-4.445430833068456,-0.30802089127296206,0.0642532821266073,-0.5493210982797692,-0.015754279479640587,0.0012245625258699988,-0.03069847390957392,0.0,70.0,255.0,255.0,255.0
307,15.350000000000001,-7.007100588757472,8.023818816244983,-4.472935361348026,-0.3088086716868421,0.06433186394998458,-0.5508500405062211,-0.01580932318772099,0.0021417527692690896,-0.030332760329176978,0.0,70.0,255.0,255.0,255.0
308,15.4,-7.022560762504813,8.027037999640992,-4.500515837119078,-0.30960182359173416,0.06446745740353421,-0.5523543743126869,-0.01593352905695511,0.003341775051346474,-0.02978098044543742,0.0,70.0,255.0,255.0,255.0
309,15.450000000000001,-7.038060771116646,8.030265561985336,-4.5281707987792945,-0.31040202459253763,0.06466604145511923,-0.5538281385507648,-0.01605049340307474,0.0044968626669472656,-0.02917809851741282,0.0,70.0,255.0,255.0,255.0
310,15.5,-7.053600964964067,8.033504603786504,-4.555898650974155,-0.31120687293204163,0.06491714367022894,-0.5552721841644281,-0.016070947832957927,0.00529457183642279,-0.0286487865077234,0.0,70.0,255.0,255.0,255.0
311,15.55,-7.06918145840985,8.03675727635236,-4.583698017195737,-0.3120091193758334,0.0651954986387615,-0.5566930172015372,-0.01594969039979688,0.0055627555035187015,-0.02826873077239611,0.0,70.0,255.0,255.0,255.0
312,15.600000000000001,-7.0848018769016505,8.04002415365038,-4.611567952694308,-0.3128018419720213,0.06547341922058081,-0.5580990572416678,-0.015748859919106906,0.005348236197377787,-0.02806127021823812,0.0,70.0,255.0,255.0,255.0
313,15.65,-7.100461642607052,8.043304618274417,-4.639507922919904,-0.3135840053677441,0.06573032225849929,-0.559499144223361,-0.015581370941575301,0.004788487706619549,-0.028039985542704926,0.0,70.0,255.0,255.0,255.0
314,15.700000000000001,-7.116160277438425,8.04659718587623,-4.667517867116644,-0.31435997906617885,0.06595226799124276,-0.5609030557959382,-0.015552591651868397,0.004023806778796768,-0.028219120177119805,0.0,70.0,255.0,255.0,255.0
315,15.75,-7.13189764051367,8.049899845073542,-4.695598228499498,-0.31513926453293095,0.06613270293637896,-0.562321056241073,-0.015774493603259998,0.0031886092150656964,-0.02861772456146383,0.0,70.0,255.0,255.0,255.0
316,15.8,-7.147674203891718,8.053210456169868,-4.723749972740752,-0.31593742842650485,0.06627112891274933,-0.5637648282520846,-0.01629404516902966,0.0023761637116592738,-0.029227628641415038,0.0,70.0,255.0,255.0,255.0
317,15.850000000000001,-7.1634913833563205,8.056526957964817,-4.751974711324706,-0.3167686690498339,0.06637031930754489,-0.5652438191052145,-0.016993465574710598,0.001662505237298717,-0.02994131963687252,0.0,70.0,255.0,255.0,255.0
318,15.9,-7.179351070796701,8.059847488100623,-4.780274354651273,-0.3176367749839759,0.0664373794364792,-0.5667589602157719,-0.017661919576639207,0.0011495888077917016,-0.030578238222744858,0.0,70.0,255.0,255.0,255.0
319,15.950000000000001,-7.195255060854718,8.063170695908465,-4.808650607346284,-0.31853486100749784,0.06648527818832406,-0.568301642927489,-0.018093079382541788,0.0009463717573154895,-0.030953159702207245,0.0,70.0,255.0,255.0,255.0
320,16.0,-7.211204556897451,8.066496015919455,-4.837104518944022,-0.3194460829222301,0.06653201661221075,-0.5698542761859926,-0.018091124374741696,0.0011509913031559904,-0.03088833389464085,0.0,70.0,255.0,255.0,255.0
321,16.05,-7.227199669146941,8.069823897569686,-4.865636034964883,-0.320343973444972,0.06660037731863966,-0.571390476316953,-0.017566529856427593,0.0017941281116762298,-0.030306442307725945,0.0,70.0,255.0,255.0,255.0
322,16.1,-7.243238954241948,8.073156053651319,-4.894243566575717,-0.32120273590787285,0.06671142942337838,-0.5728849204167652,-0.016643524868698023,0.002756428167494107,-0.029339698320374197,0.0,70.0,255.0,255.0,255.0
323,16.150000000000002,-7.259319942737728,8.076495040512023,-4.922924527006559,-0.3220083259318418,0.06687602013538907,-0.5743244461489905,-0.015566381987763833,0.0038159542652849154,-0.028242492801311414,0.0,70.0,255.0,255.0,255.0
324,16.2,-7.275439786835133,8.079843655664858,-4.951676011190616,-0.32275937410664923,0.06709302484990687,-0.5757091696968963,-0.014587351889616684,0.004732244653737894,-0.02728050208604671,0.0,70.0,255.0,255.0,255.0
325,16.25,-7.291595880148393,8.083204342997014,-4.980495443976249,-0.3234670611208035,0.06734924460076286,-0.5770524963575951,-0.013941008897422336,0.005275397600001952,-0.026708939860231595,0.0,70.0,255.0,255.0,255.0
326,16.3,-7.307786492947213,8.086578580124934,-5.009381260826376,-0.32415347499639147,0.06762056460990706,-0.5783800636829195,-0.013753122118043137,0.005327323842507781,-0.026659888841162882,0.0,70.0,255.0,255.0,255.0
327,16.35,-7.3240112276480325,8.089966399458005,-5.038333450344541,-0.3248423733326078,0.06788197698501364,-0.5797184852417114,-0.013984323062921078,0.0049598939805051145,-0.02705177519324309,0.0,70.0,255.0,255.0,255.0
328,16.400000000000002,-7.340270730280474,8.093366777823435,-5.067353109350547,-0.3255519073026836,0.06811655400795757,-0.5810852412022438,-0.014520664361405977,0.00433848224208333,-0.02769990246074272,0.0,70.0,255.0,255.0,255.0
329,16.45,-7.356566418378301,8.0967780548588,-5.096441974464765,-0.3262944397687484,0.06831582520922197,-0.5824884754877857,-0.01523751305807508,0.0036379363407945675,-0.028411545240558667,0.0,70.0,255.0,255.0,255.0
330,16.5,-7.372900174257349,8.100198360344358,-5.125601956899326,-0.3270756586084911,0.06848034764203703,-0.5839263957262997,-0.01601281206280447,0.003027418297385509,-0.028995906663809023,0.0,70.0,255.0,255.0,255.0
331,16.55,-7.38927398423915,8.103626089623004,-5.154834614037395,-0.32789572097502884,0.06861856703896052,-0.5853880661541666,-0.016762520133717373,0.002608837590933888,-0.02934174125490685,0.0,70.0,255.0,255.0,255.0
332,16.6,-7.405689746354851,8.107060217048254,-5.184140763514742,-0.3287519106218628,0.06874123140113042,-0.5868605698517904,-0.017421980083121014,0.002399427145682864,-0.029457769671648038,0.0,70.0,255.0,255.0,255.0
333,16.650000000000002,-7.422149175301336,8.110500212763117,-5.213520671022574,-0.32963791898334094,0.06885850975352881,-0.5883338431213314,-0.017905645880755827,0.002396363852952277,-0.029391650270671477,0.0,70.0,255.0,255.0,255.0
334,16.7,-7.4386535382531855,8.113946068023607,-5.242974147826875,-0.3305424752099384,0.06898086778642565,-0.5897997348788575,-0.018124134338926012,0.002601697628357158,-0.02918762930530505,0.0,70.0,255.0,255.0,255.0
335,16.75,-7.45520342282233,8.11739829954176,-5.27250064451046,-0.33145033241723354,0.06911867951636452,-0.5912526060518619,-0.01800774285172224,0.003022947858433156,-0.028899414835326098,0.0,70.0,255.0,255.0,255.0
336,16.8,-7.471798571494909,8.120857935975243,-5.302099408432062,-0.3323432494951106,0.06928316257226896,-0.5926896763623901,-0.01753525888590346,0.00364506472170234,-0.028565407211367244,0.0,70.0,255.0,255.0,255.0
337,16.85,-7.488437747771841,8.124326615798987,-5.331769612146699,-0.3332038583058239,0.06948318598853476,-0.5941091467729986,-0.016773071289755137,0.0043615582763223415,-0.028197985281686044,0.0,70.0,255.0,255.0,255.0
338,16.900000000000002,-7.505118957325491,8.127806254574097,-5.3615103231093615,-0.33402055662408614,0.0697193183999012,-0.5955094748905587,-0.0158539549123482,0.004995223186554654,-0.027814335618003838,0.0,70.0,255.0,255.0,255.0
339,16.95,-7.52183980343425,8.131298547638977,-5.391320559635755,-0.3347892537970587,0.06998270830719022,-0.596890580334799,-0.014931124412065344,0.005363012072656659,-0.027443625183209974,0.0,70.0,255.0,255.0,255.0
340,17.0,-7.538597882705197,8.134804525404816,-5.421199381142841,-0.3355136690652927,0.07025561960716686,-0.5982538374088797,-0.014140272474616467,0.0052888089156155615,-0.027102471290874064,0.0,70.0,255.0,255.0,255.0
341,17.05,-7.555391170340779,8.138324109599694,-5.451145943376643,-0.33620328104452035,0.07051158919875178,-0.5996008274638864,-0.013562644787779021,0.004696591167707709,-0.026803343186276862,0.0,70.0,255.0,255.0,255.0
342,17.1,-7.572218210809649,8.14185568432469,-5.48115946388923,-0.3368699335440706,0.07072527872393763,-0.6009341717275074,-0.013239394431874274,0.00372058683613119,-0.026587585238946332,0.0,70.0,255.0,255.0,255.0
343,17.150000000000002,-7.589078163695186,8.145396637472087,-5.511239360549394,-0.3375272204877078,0.0708836478823649,-0.6022595859877811,-0.013205713957820109,0.0026181746379805304,-0.026513711220754743,0.0,70.0,255.0,255.0,255.0
344,17.2,-7.60597093285842,8.148944049112927,-5.541385422488008,-0.3381905049398526,0.07098709618773569,-0.6035855428495829,-0.013484141905806268,0.001658515152058726,-0.02663115667518312,0.0,70.0,255.0,255.0,255.0
345,17.25,-7.622897214189171,8.152495347090861,-5.571597914834352,-0.3388756346782884,0.07104949939757077,-0.6049227016552994,-0.014091120629533549,0.0011018164771670058,-0.026994662704815653,0.0,70.0,255.0,255.0,255.0
346,17.3,-7.639858496326249,8.156048999052684,-5.601877692653538,-0.33959961700280594,0.07109727783545239,-0.6062850091200644,-0.01500949995776324,0.0010818573205284565,-0.027615532397362585,0.0,70.0,255.0,255.0,255.0
347,17.35,-7.656857175889452,8.159605074874406,-5.632226415746358,-0.34037658467406473,0.07115768512962362,-0.6076842548950356,-0.016107672661469508,0.0015079824914110418,-0.0283708346019651,0.0,70.0,255.0,255.0,255.0
348,17.400000000000002,-7.673896154793655,8.163164767565647,-5.662646118143042,-0.3412103842689529,0.07124807608459349,-0.609122092580261,-0.01716151093491547,0.0021801901510798416,-0.029049980338680115,0.0,70.0,255.0,255.0,255.0
349,17.45,-7.690978214316347,8.166729882482866,-5.6931386250043845,-0.3420927357675563,0.0713757041447316,-0.6105892529289036,-0.01793435924613007,0.0028896406067957514,-0.029439487043791956,0.0,70.0,255.0,255.0,255.0
350,17.5,-7.708105428370411,8.17030233798012,-5.723705043435932,-0.3430038201935659,0.07153704014527307,-0.6120660412846401,-0.018207226358679662,0.0034239251750278754,-0.029326896537362757,0.0,70.0,255.0,255.0,255.0
351,17.55,-7.725278596335704,8.173883586497393,-5.7543452291328485,-0.34391345840342424,0.07171809666223439,-0.6135219425826399,-0.0178783297406504,0.0036637184757992713,-0.02862021486933486,0.0,70.0,255.0,255.0,255.0
352,17.6,-7.742496774210753,8.177474147646343,-5.785057237694196,-0.34479165316763094,0.071903411992853,-0.6149280627715736,-0.017058865972607862,0.0036520519621774383,-0.0274953234404407,0.0,70.0,255.0,255.0,255.0
353,17.650000000000002,-7.759757761652467,8.181073927696678,-5.815838035410006,-0.34561934500068503,0.07208330185845213,-0.616271474926684,-0.015980969574691528,0.0034948176738325287,-0.026281798660932054,0.0,70.0,255.0,255.0,255.0
354,17.7,-7.777058708710822,8.184682477832188,-5.846684385186864,-0.3463897501251001,0.07225289376023625,-0.6175562426376668,-0.014897395467539098,0.003290521489418552,-0.025316442933931427,0.0,70.0,255.0,255.0,255.0
355,17.75,-7.794396736664977,8.188299217072702,-5.877593659673773,-0.34710908454743894,0.07241235400739399,-0.6188031192200771,-0.01405601123183331,0.0031424362010312734,-0.02492572317240871,0.0,70.0,255.0,255.0,255.0
356,17.8,-7.811769617165566,8.191923713232928,-5.908564697108872,-0.3477953512482834,0.07256713738033937,-0.6200488149549077,-0.013596155438744262,0.0031093293813455603,-0.025270694372991898,0.0,70.0,255.0,255.0,255.0
357,17.85,-7.829176271789805,8.195555930810736,-5.939598541169263,-0.34846870009131337,0.07272328694552854,-0.6213301886573763,-0.013489590721960099,0.0031628772605429845,-0.02619798818788155,0.0,70.0,255.0,255.0,255.0
358,17.900000000000002,-7.846616487174697,8.19919604192748,-5.97069771597461,-0.34914431032047943,0.07288342510639367,-0.6226686137736959,-0.013643561814991045,0.0032423107160894915,-0.02739186930744708,0.0,70.0,255.0,255.0,255.0
359,17.95,-7.864090702821853,8.202844273321375,-6.001865402546633,-0.34983305627281247,0.07304751801713749,-0.624069375588121,-0.013961746527524355,0.003294473900616879,-0.028528680613426616,0.0,70.0,255.0,255.0,255.0
360,18.0,-7.881599792801978,8.206500793729194,-6.033104653533422,-0.35054048497323187,0.07321287249645536,-0.6255214818350385,-0.014332738038369541,0.003258357992308447,-0.029298229419794097,0.0,70.0,255.0,255.0,255.0
361,18.05,-7.899144751319176,8.21016556057102,-6.064417550730137,-0.3512663300766494,0.07337335381636834,-0.6269991985301004,-0.014685300253436395,0.0031056772860083015,-0.029530947032618826,0.0,70.0,255.0,255.0,255.0
362,18.1,-7.916726425809643,8.213838129110831,-6.095804573386432,-0.3520090149985755,0.07352344022505619,-0.6284745765383004,-0.015022864379332646,0.002896438996558004,-0.02928176809726679,0.0,70.0,255.0,255.0,255.0
363,18.150000000000002,-7.934345652819034,8.217517904593526,-6.127265008383967,-0.3527686165145827,0.07366299771602414,-0.6299273753398271,-0.01536217244302307,0.0027359394616510713,-0.02870084065973444,0.0,70.0,255.0,255.0,255.0
364,18.2,-7.9520032874611015,8.221204428882434,-6.158797310920415,-0.3535452322428778,0.0737970341712213,-0.6313446606042739,-0.015703730310434594,0.002724869621140158,-0.027942634146960188,0.0,70.0,255.0,255.0,255.0
365,18.25,-7.969700176043322,8.224897608010648,-6.190399474444394,-0.35433898954562615,0.07393548467813815,-0.6327216387545231,-0.01606497134636342,0.0029721038565355684,-0.027161359148486497,0.0,70.0,255.0,255.0,255.0
366,18.3,-7.987437186415664,8.228597977350248,-6.222069474795867,-0.35515172937751416,0.07409424455687486,-0.6340607965191225,-0.016449216974478986,0.003521761008506985,-0.026457265747126257,0.0,70.0,255.0,255.0,255.0
367,18.35,-8.005215348981073,8.232307032466336,-6.2538055540963065,-0.35598391124307405,0.07428766077898885,-0.6353673653292358,-0.016781655723541178,0.004249595193606126,-0.025872142219895977,0.0,70.0,255.0,255.0,255.0
368,18.400000000000002,-8.023035577539972,8.236026743428146,-6.2856062113287905,-0.3568298949498683,0.07451920407623547,-0.6366480107411121,-0.016945044449823143,0.004934863837924297,-0.02545008273955318,0.0,70.0,255.0,255.0,255.0
369,18.45,-8.04089833847606,8.23975895287396,-6.317470355170418,-0.35767841568805636,0.07478114716278128,-0.6379123736031911,-0.016836758804572582,0.005359987007835798,-0.025245957624608906,0.0,70.0,255.0,255.0,255.0
370,18.5,-8.058803419108777,8.243504858144425,-6.34939744868911,-0.35851357083032553,0.07505520277701905,-0.639172606503573,-0.01635544184477311,0.0053132732000804594,-0.02530836195848707,0.0,70.0,255.0,255.0,255.0
371,18.55,-8.076749695559093,8.247264473151661,-6.381387615820775,-0.3593139598725337,0.07531247448278933,-0.6404432097990398,-0.015469719959604333,0.0046996796116971495,-0.025647728905386913,0.0,70.0,255.0,255.0,255.0
372,18.6,-8.09473481509603,8.251036105592704,-6.413441769669014,-0.36006054282628597,0.07552517073818876,-0.6417373793941117,-0.014333123449539187,0.0036714273177196333,-0.026186119899307414,0.0,70.0,255.0,255.0,255.0
373,18.650000000000002,-8.112755749841721,8.25481699022548,-6.445561353760186,-0.3607472722174876,0.07567961721456129,-0.6430618217889705,-0.013217556518263507,0.002520036422382077,-0.0267806931849357,0.0,70.0,255.0,255.0,255.0
374,18.7,-8.13080954231778,8.25860406731416,-6.477747951847911,-0.3613822984781123,0.07577717438042697,-0.6444154487126053,-0.012400982722304832,0.0015474434192697117,-0.027274560995582675,0.0,70.0,255.0,255.0,255.0
375,18.75,-8.148893979689532,8.262394707663523,-6.510002898631447,-0.3619873704897181,0.07583436155648826,-0.6457892778885288,-0.012149251950077655,0.0010548033426260872,-0.027517174369062758,0.0,70.0,255.0,255.0,255.0
376,18.8,-8.167008279366751,8.266187503469808,-6.5423268796367635,-0.3625972236731201,0.07588265471468958,-0.6471671661495115,-0.01258621554001138,0.001192807257588413,-0.02743181863040789,0.0,70.0,255.0,255.0,255.0
377,18.85,-8.185153702056844,8.269982973134992,-6.574719615246398,-0.3632459920437192,0.0759536422822471,-0.6485324597515696,-0.013556899430611224,0.001816583649549841,-0.027068786108674914,0.0,70.0,255.0,255.0,255.0
378,18.900000000000002,-8.203332878571123,8.273782867698033,-6.6071801256119205,-0.3639529136161812,0.07606431307964456,-0.649874044760379,-0.014752002206641635,0.0026331023610381976,-0.026541736596641385,0.0,70.0,255.0,255.0,255.0
379,18.95,-8.221548993418462,8.277589404442956,-6.639707019722436,-0.3647211922643834,0.07621695251835092,-0.6511866334112337,-0.015847049232320387,0.0033436658881669246,-0.025969085106236633,0.0,70.0,255.0,255.0,255.0
380,19.0,-8.239804997797561,8.281404562949868,-6.672298788953044,-0.36553761853941324,0.07639867966846126,-0.6524709532710027,-0.016523541030366573,0.0036395413999912307,-0.02545893124112908,0.0,70.0,255.0,255.0,255.0
381,19.05,-8.258102755272404,8.285229272409802,-6.704954115049536,-0.36637354636742003,0.07658090665835005,-0.6537325265353466,-0.016612643987734543,0.003363030750769269,-0.02507777046503179,0.0,70.0,255.0,255.0,255.0
382,19.1,-8.276442352434303,8.289062653615703,-6.7376720416065785,-0.3671988829381867,0.07673498274353818,-0.6549787303175059,-0.016208323117261614,0.0026685784121127654,-0.024855099302723005,0.0,70.0,255.0,255.0,255.0
383,19.150000000000002,-8.294822643566222,8.292902770684156,-6.770451988081287,-0.3679943786791462,0.07684776449956132,-0.6562180364656189,-0.015524551206347326,0.0018603746454459724,-0.024816835953700433,0.0,70.0,255.0,255.0,255.0
384,19.200000000000003,-8.313241790302218,8.29674743006566,-6.80329384525314,-0.36875133805882143,0.07692102020808278,-0.6574604139128759,-0.014777906594254375,0.0012315527014195027,-0.024988585758300985,0.0,70.0,255.0,255.0,255.0
385,19.25,-8.331697777372105,8.300594872704965,-6.836198029472574,-0.36947216933857163,0.07697091976970327,-0.658716895041449,-0.014184555956298084,0.0010669378188055134,-0.02540309134300145,0.0,70.0,255.0,255.0,255.0
386,19.3,-8.350189007236075,8.30444452204263,-6.869165534757285,-0.37016979365445124,0.07702771398996333,-0.660000723047176,-0.01386875629503237,0.0015087294125137873,-0.026058125150196787,0.0,70.0,255.0,255.0,255.0
387,19.35,-8.36871475673755,8.30829764410396,-6.902198101777292,-0.37085904496807487,0.07712179271095465,-0.6613227075564687,-0.013805239335162867,0.0024219232138023017,-0.02682997751897176,0.0,70.0,255.0,255.0,255.0
388,19.400000000000002,-8.387274911732883,8.312156701313725,-6.935297805512932,-0.3715503175879675,0.07726990631134356,-0.6626837207990732,-0.013916040055050871,0.003531739383433319,-0.027510080428605477,0.0,70.0,255.0,255.0,255.0
389,19.450000000000003,-8.405869788496346,8.316024634735095,-6.968466473857199,-0.37225064897357996,0.07747496664929798,-0.6640737155993293,-0.014133725322729163,0.004564062700218585,-0.027884310788373057,0.0,70.0,255.0,255.0,255.0
390,19.5,-8.42449997663024,8.319904197978655,-7.001705177072865,-0.37296369012024044,0.07772631258136542,-0.6654721518779105,-0.01439828176419411,0.0052647352976720185,-0.027736722033910866,0.0,70.0,255.0,255.0,255.0
391,19.55,-8.44316615750837,8.323797265993232,-7.03501368904499,-0.37369047714999937,0.07800144017906518,-0.6668473878027203,-0.014666270226015854,0.005495478173500601,-0.026975416579322342,0.0,70.0,255.0,255.0,255.0
392,19.6,-8.46186902434524,8.327704341996562,-7.068389915853137,-0.37443031714284203,0.07827586039871548,-0.6681696935358428,-0.014891651942505746,0.005291840619925381,-0.025791237708805426,0.0,70.0,255.0,255.0,255.0
393,19.650000000000002,-8.480609189222655,8.331624852033103,-7.101830658398574,-0.37517964234424994,0.07853062424105772,-0.6694265115736009,-0.015009517013453433,0.004764555931835446,-0.024538273567564772,0.0,70.0,255.0,255.0,255.0
394,19.700000000000003,-8.499386988579666,8.335557404420667,-7.135332567010497,-0.37593126884418737,0.07875231599189902,-0.6706235208925992,-0.014947704935153183,0.004032196497583129,-0.02357971887283483,0.0,70.0,255.0,255.0,255.0
395,19.75,-8.518202316107073,8.339500083632293,-7.168893010487834,-0.37667441283776526,0.07893384389081604,-0.6717844834608844,-0.014622316985679618,0.0032061489630308415,-0.02327799254953078,0.0,70.0,255.0,255.0,255.0
396,19.8,-8.537054429863442,8.343450788809749,-7.202511015356586,-0.37739350054275533,0.07907293088820211,-0.6729513201475523,-0.014005649981285728,0.0023678194322585,-0.02380729477984289,0.0,70.0,255.0,255.0,255.0
397,19.85,-8.555941666161349,8.347407376721113,-7.23618814250259,-0.37807497783589383,0.07917062583404189,-0.6741652129388687,-0.013229924456048536,0.0016079171034633077,-0.024955188195807665,0.0,70.0,255.0,255.0,255.0
398,19.900000000000002,-8.574861927647031,8.351367851393153,-7.2699275366504725,-0.3787164929883602,0.07923372259854844,-0.6754468389671331,-0.012524959490178844,0.0010553515744859965,-0.026305869589737796,0.0,70.0,255.0,255.0,255.0
399,19.950000000000003,-8.593813315460185,8.355330748980968,-7.303732826399303,-0.3793274737849117,0.07927616099149049,-0.6767957998978424,-0.012121515543839223,0.0008456128478329106,-0.02743746640110345,0.0,70.0,255.0,255.0,255.0
400,20.0,-8.612794675025523,8.359295467492302,-7.337607116640257,-0.3799286445427441,0.07931828388333173,-0.6781905856072434,-0.012252403672796675,0.0011106688495132744,-0.027931354389032492,0.0,70.0,255.0,255.0,255.0
401,20.05,-8.63180617991446,8.363262577369301,-7.371551884960027,-0.3805527141521914,0.07938722787644181,-0.6795889353367457,-0.01301872891641409,0.0018947825587645184,-0.027575544161173582,0.0,70.0,255.0,255.0,255.0
402,20.1,-8.650849946440742,8.367234190279946,-7.405566010173931,-0.3812305174343855,0.07950776213920818,-0.6809481400233608,-0.01422240314621348,0.0030311762815316,-0.026558825357270166,0.0,70.0,255.0,255.0,255.0
403,20.150000000000002,-8.669929231657898,8.371213353583222,-7.439646698962363,-0.38197495446681273,0.07969034550459497,-0.6822448178724727,-0.015495213789762374,0.004216834973824746,-0.02526743222333039,0.0,70.0,255.0,255.0,255.0
404,20.200000000000003,-8.689047441887423,8.375203224830406,-7.473790491961179,-0.38278003881336176,0.07992944563659066,-0.6834748832456938,-0.01646068510563481,0.005133603860407732,-0.02409027566434574,0.0,70.0,255.0,255.0,255.0
405,20.25,-8.708207235539234,8.379206298146881,-7.507994187286933,-0.3836210229773762,0.08020370589063575,-0.6846538454389073,-0.016740096294753926,0.0054711756380498855,-0.023416543273935275,0.0,70.0,255.0,255.0,255.0
406,20.3,-8.72740954418516,8.38322359541947,-7.542255876505069,-0.38445404844283715,0.08047656320039565,-0.6858165375730874,-0.016152348104192527,0.005079250798090129,-0.02344987589353309,0.0,70.0,255.0,255.0,255.0
407,20.35,-8.746652640383518,8.387253954466921,-7.576575841044241,-0.38523625778779547,0.08071163097044476,-0.6869988330282606,-0.01493034640880353,0.0041172612215589766,-0.024040466085306633,0.0,70.0,255.0,255.0,255.0
408,20.400000000000002,-8.76593316996394,8.391294758516514,-7.610955759807895,-0.3859470830837175,0.08088828932255154,-0.688220584181618,-0.013525141063119861,0.0029082642411637494,-0.024874284967513205,0.0,70.0,255.0,255.0,255.0
409,20.450000000000003,-8.78524734869189,8.395342783399176,-7.645397899462403,-0.38658877189410745,0.08100245739456113,-0.6894862615250119,-0.01239509135420036,0.0017860323156426716,-0.025641057982461746,0.0,70.0,255.0,255.0,255.0
410,20.5,-8.804592047153351,8.39939500425597,-7.679904385960397,-0.38718659221913754,0.08106689255411581,-0.6907846899798642,-0.012007164528071712,0.0010766099505232773,-0.026026528458977793,0.0,70.0,255.0,255.0,255.0
411,20.55,-8.823966007913803,8.403449472654588,-7.71447636846039,-0.3877894883469146,0.08111011838961346,-0.6920889143709097,-0.012591738806300157,0.0009542748552249236,-0.025865604944375065,0.0,70.0,255.0,255.0,255.0
412,20.6,-8.843370995988042,8.407506016094931,-7.749113277397488,-0.38844576609976755,0.0811623200396383,-0.6933712504743017,-0.013885395365953457,0.0013307345431812223,-0.025285650627715484,0.0,70.0,255.0,255.0,255.0
413,20.650000000000002,-8.86281058452378,8.411565704658551,-7.78381349350782,-0.38917802788350997,0.08124319184393158,-0.6946174794336812,-0.015375037808595948,0.001999991510182042,-0.02454824842015313,0.0,70.0,255.0,255.0,255.0
414,20.700000000000003,-8.882288798776393,8.415630335279324,-7.818575025340856,-0.38998326988062715,0.0813623191906565,-0.695826075316317,-0.01655251591277107,0.0027551806292436254,-0.023905865366558032,0.0,70.0,255.0,255.0,255.0
415,20.75,-8.901808911511843,8.419701936577617,-7.8533961010394515,-0.3908332794747871,0.08151870990685595,-0.697008065970337,-0.016915348157731103,0.003394412533808122,-0.023609277621439162,0.0,70.0,255.0,255.0,255.0
416,20.8,-8.921372126723872,8.42378220627001,-7.888275831937889,-0.39167480469640026,0.08170176044403732,-0.6981870030784609,-0.016213750282823014,0.003798101995400316,-0.023787564468236155,0.0,70.0,255.0,255.0,255.0
417,20.85,-8.940976391981483,8.42787211262202,-7.923214801347298,-0.3924546545030694,0.08189852010639598,-0.6993868224171607,-0.014700659538924299,0.003964369370024201,-0.024331523478782202,0.0,70.0,255.0,255.0,255.0
418,20.900000000000002,-8.960617592174179,8.43197205828065,-7.9582145141796055,-0.3931448706502927,0.08209819738103974,-0.7006201554263392,-0.012882959451410159,0.003925522632819423,-0.025018129278109313,0.0,70.0,255.0,255.0,255.0
419,20.950000000000003,-8.980290879046512,8.436081932360125,-7.9932768168899315,-0.3937429504482104,0.08229107236967792,-0.7018886353449716,-0.011267479026422222,0.00370755752125973,-0.025628907124364275,0.0,70.0,255.0,255.0,255.0
420,21.0,-8.999991887219,8.440201165517617,-8.028403377714103,-0.3942716185529349,0.08246895313316571,-0.7031830461387756,-0.010343377572930024,0.0033377212657725863,-0.025952398350881367,0.0,70.0,255.0,255.0,255.0
421,21.05,-9.019718040901806,8.444328827673441,-8.063595121503809,-0.3947772882055034,0.08262484449625518,-0.7044838751800597,-0.010366406917050597,0.0028455782349112724,-0.025877563755649646,0.0,70.0,255.0,255.0,255.0
422,21.1,-9.03946961603955,8.448463649967243,-8.098851765232109,-0.39530825924463997,0.08275351095665684,-0.7057708025143405,-0.011178446665915942,0.002292627137734371,-0.025473663382413747,0.0,70.0,255.0,255.0,255.0
423,21.150000000000002,-9.05924886682627,8.452604178769107,-8.134172201755243,-0.395895132872095,0.08285410721002862,-0.7070312415183011,-0.012426644199337034,0.0017787571195526652,-0.02489382654307093,0.0,70.0,255.0,255.0,255.0
424,21.200000000000003,-9.07905912932676,8.456749060688246,-8.169554889383939,-0.3965509236645737,0.0829313866686121,-0.7082601851686476,-0.013750994552808038,0.0014135636439149835,-0.024291792849595595,0.0,70.0,255.0,255.0,255.0
425,21.25,-9.098903959192727,8.460897317435968,-8.204998220272108,-0.3972702323273758,0.08299546357442011,-0.7094604208032607,-0.014795150874036267,0.001298711727315549,-0.02381711965124822,0.0,70.0,255.0,255.0,255.0
426,21.3,-9.118786152559498,8.465048607045688,-8.240500931464265,-0.3980304387519773,0.08306125784134366,-0.7106418971337725,-0.015355587084897593,0.001480097885675491,-0.02355495440156119,0.0,70.0,255.0,255.0,255.0
427,21.35,-9.138707003067925,8.469203443220103,-8.276062409985485,-0.39880579103586555,0.08314347336298766,-0.7118159162434168,-0.015473758926631831,0.001900646554098273,-0.02349018662712865,0.0,70.0,255.0,255.0,255.0
428,21.400000000000002,-9.158666731663084,8.473362954381987,-8.311682523088606,-0.3995778146446405,0.08325132249675349,-0.7129909157964853,-0.01527974114061692,0.002443085252856747,-0.023571040075154315,0.0,70.0,255.0,255.0,255.0
429,21.450000000000003,-9.178664784532389,8.477528575469778,-8.347361501565134,-0.40033376514992725,0.08338778188827334,-0.7141730202509322,-0.014896654648666185,0.002978700723765826,-0.023750121944310365,0.0,70.0,255.0,255.0,255.0
430,21.5,-9.198700108178077,8.481701732570814,-8.3830998251137,-0.4010674801095071,0.08354919256913007,-0.7153659279909164,-0.014459981634473706,0.0033794131766740065,-0.023987141691250713,0.0,70.0,255.0,255.0,255.0
431,21.55,-9.21877153254334,8.485883494726691,-8.418898094364225,-0.4017797633133746,0.08372572320594074,-0.7165717344200573,-0.014056279709606656,0.0035745430430722536,-0.024249844743806648,0.0,70.0,255.0,255.0,255.0
432,21.6,-9.238878084509414,8.490074304891408,-8.454756998555705,-0.40247310808046777,0.0839066468734373,-0.717790912465297,-0.013686424388126284,0.0035884230090488245,-0.024486522509370445,0.0,70.0,255.0,255.0,255.0
433,21.650000000000002,-9.259018843351386,8.494274159414035,-8.490677185610755,-0.40314840575218724,0.08408456550684562,-0.7190203866709943,-0.013337001960422867,0.003484426345146119,-0.024620241595840753,0.0,70.0,255.0,255.0,255.0
434,21.700000000000003,-9.279192925084633,8.498482761442093,-8.526659037222805,-0.40380680827651005,0.08425508950795191,-0.7202529366248811,-0.013014274963474293,0.0033254329961707185,-0.024568232194432937,0.0,70.0,255.0,255.0,255.0
435,21.75,-9.299399524179037,8.50269966836483,-8.562702479273243,-0.4044498332485347,0.08441710880646269,-0.7214772098904376,-0.01271298785638919,0.003175616917516777,-0.024234313583271216,0.0,70.0,255.0,255.0,255.0
436,21.8,-9.319637908409486,8.506924472322739,-8.598806758211849,-0.405078107062149,0.08457265119970359,-0.7226763679832082,-0.012432720651212037,0.003074503834987752,-0.023585153801342074,0.0,70.0,255.0,255.0,255.0
437,21.85,-9.339907334885252,8.5111569334848,-8.634970116071564,-0.4056931053136559,0.08472455918996147,-0.7238357252705718,-0.012217839557315813,0.003024729008949123,-0.022765494896326288,0.0,70.0,255.0,255.0,255.0
438,21.900000000000002,-9.360207218940852,8.515396928241735,-8.671190330738906,-0.40629989101788055,0.0848751241005985,-0.7249529174728409,-0.012134954979359236,0.003020980927104233,-0.02202706114324826,0.0,70.0,255.0,255.0,255.0
439,21.950000000000003,-9.38053732398704,8.51964444589486,-8.707465407818848,-0.4069066008115918,0.08502665728267189,-0.7260384313848967,-0.01223953221174412,0.0030657677569934094,-0.021623009884841338,0.0,70.0,255.0,255.0,255.0
440,22.0,-9.400897879022011,8.523899593970002,-8.743794173877395,-0.40752384423905497,0.08518170087629784,-0.727115218461325,-0.012592029644586944,0.003170147126319023,-0.021815557353299653,0.0,70.0,255.0,255.0,255.0
441,22.05,-9.421289708410946,8.52816261598249,-8.78017692966498,-0.4081658037760505,0.0853436719953038,-0.7282199871202266,-0.013207150039384885,0.0033341549045218244,-0.022717139118633156,0.0,70.0,255.0,255.0,255.0
442,22.1,-9.441714459399616,8.532433961169533,-8.816616172589418,-0.40884455924299345,0.08551511636675002,-0.7293869323731883,-0.013961378222404619,0.003512660953575164,-0.0240852508198941,0.0,70.0,255.0,255.0,255.0
443,22.150000000000002,-9.462174164335245,8.536714127619165,-8.8531156229023,-0.40956194159829096,0.08569493809066131,-0.730628512202216,-0.014642338960690893,0.0036316499452127005,-0.025476082596220806,0.0,70.0,255.0,255.0,255.0
444,22.200000000000003,-9.482670653559445,8.541003454978599,-8.88967902380964,-0.41030879313906254,0.08587828136127129,-0.7319345406328104,-0.015035335115420878,0.003618209263400729,-0.026440893767976092,0.0,70.0,255.0,255.0,255.0
445,22.25,-9.503205043649151,8.545301955755292,-8.92630907696558,-0.41106547510983305,0.08605675901700138,-0.7332726015790136,-0.014926912214008325,0.0033958225499119976,-0.026527512946472598,0.0,70.0,255.0,255.0,255.0
446,22.3,-9.523777201070429,8.549609130880299,-8.963006283967541,-0.4118014843604634,0.08621786361626249,-0.7345872919274576,-0.01422436683817807,0.002935077014143417,-0.02552540394251679,0.0,70.0,255.0,255.0,255.0
447,22.35,-9.544385192085198,8.553923742116918,-8.999767806158326,-0.41248791179365085,0.08635026671841572,-0.7358251419732653,-0.013102894640582008,0.0023263987392496688,-0.023745156836163517,0.0,70.0,255.0,255.0,255.0
448,22.400000000000002,-9.565025992249794,8.55824415755214,-9.036588798164868,-0.4131117738245216,0.08645050349018746,-0.736961807611074,-0.011891120412421685,0.0017314868898665736,-0.021778631782609637,0.0,70.0,255.0,255.0,255.0
449,22.450000000000003,-9.58569636946765,8.562568792465937,-9.073463986919434,-0.413677023834893,0.08652341540740238,-0.7380030051515263,-0.010924675109968973,0.0013141690821782959,-0.02022553625575796,0.0,70.0,255.0,255.0,255.0
450,22.5,-9.606393694633283,8.56689649909288,-9.11038909868002,-0.4142042413355185,0.08658192039840529,-0.7389843612366498,-0.010528293528366817,0.0012385440259166103,-0.0196863255922608,0.0,70.0,255.0,255.0,255.0
451,22.55,-9.627116793601202,8.571226984505778,-9.147362423043099,-0.4147298531877297,0.08664726980999404,-0.7399716377107524,-0.010862468856132068,0.0015793365722771568,-0.020454904784905636,0.0,70.0,255.0,255.0,255.0
452,22.6,-9.647866679952056,8.57556122607388,-9.184386262451095,-0.4152904882211317,0.086739854055633,-0.7410298517151404,-0.011777159765813394,0.002217268566262476,-0.022198830459885244,0.0,70.0,255.0,255.0,255.0
453,22.650000000000002,-9.668645842423315,8.57990096991134,-9.221465408214613,-0.41590756916431104,0.08686899666662029,-0.7421915207567409,-0.012962223678414375,0.0029260388586749286,-0.024263842487393106,0.0,70.0,255.0,255.0,255.0
454,22.700000000000003,-9.689457436868487,8.584248125740542,-9.25860541452677,-0.4165867105889731,0.0870324579415005,-0.7434562359638797,-0.01409990383720583,0.0034723405146763753,-0.025991040463324566,0.0,70.0,255.0,255.0,255.0
455,22.75,-9.710304513482212,8.588604215705491,-9.295811031811,-0.4173175595480316,0.08721623071808793,-0.7447906248030733,-0.014887932320384323,0.0036140106702831076,-0.026723268600647998,0.0,70.0,255.0,255.0,255.0
456,22.8,-9.73118919282329,8.59296974881235,-9.333084477007077,-0.41807550382101155,0.08739385900852881,-0.7461285628239445,-0.015159697132283156,0.0032342899826787175,-0.026128543351155997,0.0,70.0,255.0,255.0,255.0
457,22.85,-9.752112063864313,8.597343601606344,-9.370423888093395,-0.41883352926125994,0.0875396597163558,-0.7474034791381889,-0.014957510584778788,0.0024899349217122335,-0.024515745100295305,0.0,70.0,255.0,255.0,255.0
458,22.900000000000002,-9.773072545749416,8.601723714783986,-9.407824824920896,-0.41957125487948943,0.08764285250070003,-0.748580137333974,-0.014410101423933952,0.0016789497497171624,-0.022509774492185386,0.0,70.0,255.0,255.0,255.0
459,22.950000000000003,-9.794069189352262,8.606107886856414,-9.445281901826792,-0.42027453940365334,0.08770755469132752,-0.7496544565874075,-0.013649509076429922,0.0010963289987842018,-0.020736735458193323,0.0,70.0,255.0,255.0,255.0
460,23.0,-9.815099999689782,8.61049447025312,-9.482790270579637,-0.4209362057871324,0.08775248540057845,-0.7506538108797933,-0.012799977189459355,0.0010373480257896972,-0.019824516088462474,0.0,70.0,255.0,255.0,255.0
461,23.05,-9.836162809930975,8.614883135396472,-9.520347282914772,-0.42155453712259927,0.08781128949390649,-0.7516369081962537,-0.011950490864798269,0.0016438764571802267,-0.02009684255419586,0.0,70.0,255.0,255.0,255.0
462,23.1,-9.857255453402042,8.61927559920251,-9.557953961399262,-0.42213125487361225,0.08791687304629647,-0.7526634951352129,-0.011190000691385649,0.0027358122602905155,-0.021283736924537777,0.0,70.0,255.0,255.0,255.0
463,23.150000000000002,-9.878375935418337,8.623674822701101,-9.595613632428293,-0.42267353719173784,0.08808487071993554,-0.7537652818887075,-0.010642685312589606,0.003964502468711828,-0.022832350921397904,0.0,70.0,255.0,255.0,255.0
464,23.200000000000003,-9.899522807121215,8.628084086274503,-9.633330489588133,-0.4231955234048712,0.08831332329316766,-0.7549467302273527,-0.010440521397647728,0.0049829961696445935,-0.02419507131783405,0.0,70.0,255.0,255.0,255.0
465,23.25,-9.920695487758824,8.632506155030418,-9.671108305451028,-0.4237175893315026,0.0885831703369,-0.7561847890204909,-0.010712158920433978,0.005460653170885621,-0.024818760285505448,0.0,70.0,255.0,255.0,255.0
466,23.3,-9.941894566054366,8.636942403308193,-9.708948968490182,-0.4242667392969146,0.08885938861025622,-0.7574286062559032,-0.01149987786916995,0.005229831228703574,-0.0244181656841036,0.0,70.0,255.0,255.0,255.0
467,23.35,-9.963122161688515,8.641392093891444,-9.746851166076619,-0.4248675771184196,0.08910615345977035,-0.7586266055889013,-0.01263717196522407,0.0044166994875638466,-0.023241055453482318,0.0,70.0,255.0,255.0,255.0
468,23.400000000000002,-9.984381323766208,8.64585301865417,-9.784811629049072,-0.425530456493437,0.0893010585590126,-0.7597527118012515,-0.013821954529369407,0.0032939960856737116,-0.021788234411701524,0.0,70.0,255.0,255.0,255.0
469,23.450000000000003,-10.005675207337859,8.650322199747345,-9.822826437256744,-0.42624977257135654,0.08943555306833773,-0.7608054290300714,-0.014736657080938187,0.002144460214026367,-0.02054992565696523,0.0,70.0,255.0,255.0,255.0
470,23.5,-10.027006301023343,8.654796573961004,-9.860892171952079,-0.42700412220153083,0.08951550458041524,-0.761807704366948,-0.01507138712639744,0.0012440486159448483,-0.020016340205053496,0.0,70.0,255.0,255.0,255.0
471,23.55,-10.048375619558012,8.659273750205386,-9.899007207693439,-0.4277569112839963,0.08955995792993221,-0.7628070630505768,-0.01467619812558496,0.0007490597011994282,-0.02043692827449206,0.0,70.0,255.0,255.0,255.0
472,23.6,-10.069781992151743,8.663752569753997,-9.937172878257137,-0.42847174201408933,0.08959041055053518,-0.7638513971943972,-0.013711194899990176,0.0006301170614619878,-0.021581225410116645,0.0,70.0,255.0,255.0,255.0
473,23.650000000000002,-10.091222793759421,8.66823279126044,-9.975392347412878,-0.4291280307739953,0.08962296963607841,-0.7649651855915884,-0.012500452280050922,0.0007884642371891459,-0.022985527284724583,0.0,70.0,255.0,255.0,255.0
474,23.700000000000003,-10.112694795229142,8.672714866717605,-10.013669396816296,-0.4297217872420944,0.0896692569742541,-0.7661499499228697,-0.01137891088323073,0.0011248506194050378,-0.024192079202478567,0.0,70.0,255.0,255.0,255.0
475,23.75,-10.13419497248363,8.677199716957865,-10.052007342405165,-0.4302659218623184,0.08973545469801891,-0.7673843935118363,-0.010674273925559419,0.0015271616900847107,-0.024747953484549612,0.0,70.0,255.0,255.0,255.0
476,23.8,-10.155721387415374,8.681688412187407,-10.09040783616748,-0.43078921463465036,0.08982197314326257,-0.7686247452713246,-0.010561390235963586,0.0019221817151304776,-0.02442097436237134,0.0,70.0,255.0,255.0,255.0
477,23.85,-10.177273893947095,8.686181914272192,-10.128869816932298,-0.43132206088591474,0.08992767286953196,-0.7698264909480734,-0.010949004146532104,0.00230292550575939,-0.023404858758446778,0.0,70.0,255.0,255.0,255.0
478,23.900000000000002,-10.198853593503966,8.69068117947436,-10.167390485262287,-0.4318841150493036,0.0900522656938385,-0.7709652311471693,-0.011626119799856838,0.002669536243971038,-0.022098840600648373,0.0,70.0,255.0,255.0,255.0
479,23.950000000000003,-10.220462305452026,8.695187140841576,-10.205966340047015,-0.4324846728659004,0.09019462649392906,-0.7720363750081383,-0.012380613139306718,0.0030042491966142393,-0.020901617672208772,0.0,70.0,255.0,255.0,255.0
480,24.0,-10.242102060790556,8.699700642123753,-10.2445941227631,-0.43312217636323425,0.09035269061349993,-0.7730553929143902,-0.0130035451423538,0.0032992393546038556,-0.020211799235170247,0.0,70.0,255.0,255.0,255.0
481,24.05,-10.26377452308835,8.704222409902926,-10.283271879338454,-0.4337850273801358,0.09052455042938945,-0.7740575549316553,-0.013372693144830805,0.003548786865437137,-0.020238521594961867,0.0,70.0,255.0,255.0,255.0
482,24.1,-10.28548056352857,8.708753097166692,-10.321999878256266,-0.4344594456777173,0.09070756930004364,-0.7750792450738864,-0.01349735727949053,0.0037208848789660465,-0.020830295269469445,0.0,70.0,255.0,255.0,255.0
483,24.150000000000002,-10.307220467656121,8.71329316683293,-10.360779803845842,-0.43513476310808485,0.09089663891728605,-0.7761405844586022,-0.013428821433514315,0.0037706868244669067,-0.021668993763235278,0.0,70.0,255.0,255.0,255.0
484,24.200000000000003,-10.328994039839378,8.71784276105842,-10.399613936702126,-0.43580232782106876,0.09108463798249034,-0.7772461444502099,-0.013212948914542721,0.0036648658804594447,-0.022441077145529675,0.0,70.0,255.0,255.0,255.0
485,24.25,-10.350800700438228,8.722401630631179,-10.438504418290863,-0.4364560579995391,0.091263125505332,-0.7783846921731552,-0.012903526857321879,0.003371918186445555,-0.022828905517791043,0.0,70.0,255.0,255.0,255.0
486,24.3,-10.372639645639332,8.726969073608954,-10.477452405919442,-0.43709268050680095,0.09142182980113489,-0.779529035001989,-0.012540098255087173,0.0028883584688443875,-0.022665591939663443,0.0,70.0,255.0,255.0,255.0
487,24.35,-10.394509968488908,8.731543813611292,-10.516457321791062,-0.43771006782504784,0.09155196135221644,-0.7806512513671215,-0.012142405897286324,0.002294374139921729,-0.022080300491644778,0.0,70.0,255.0,255.0,255.0
488,24.400000000000002,-10.416410652421837,8.736124269744176,-10.555517531056154,-0.4383069210965296,0.09165126721512706,-0.7817370650511535,-0.011739433627155904,0.0017285556188184614,-0.021338004859217108,0.0,70.0,255.0,255.0,255.0
489,24.450000000000003,-10.438340660598561,8.740708940332805,-10.594631028296178,-0.43888401118776343,0.09172481691409828,-0.7827850518530433,-0.0113732788472376,0.0013352616401007822,-0.020694446704538905,0.0,70.0,255.0,255.0,255.0
490,24.5,-10.460299053540613,8.745296751435585,-10.633796036241458,-0.43944424898125334,0.09178479337913714,-0.7838065097216074,-0.01107838472655942,0.0012570972225844912,-0.02040451342502081,0.0,70.0,255.0,255.0,255.0
491,24.55,-10.482285085496686,8.749887419670719,-10.673011679268338,-0.4399918496604194,0.09185052663635673,-0.7848255031955453,-0.010873627122087726,0.0015582920797285738,-0.02059897078741102,0.0,70.0,255.0,255.0,255.0
492,24.6,-10.504298238506655,8.754481804099221,-10.712278586561013,-0.4405316116934621,0.09194062258711,-0.7858664068003485,-0.010770315166652722,0.002137143039071532,-0.02116309483977119,0.0,70.0,255.0,255.0,255.0
493,24.650000000000002,-10.526338246666032,8.75908148192943,-10.751598319948373,-0.44106888117708465,0.09206424094026389,-0.7869418126795225,-0.010776148019076004,0.0027987270645013496,-0.0218643947254904,0.0,70.0,255.0,255.0,255.0
494,24.700000000000003,-10.548405126624363,8.763688228193248,-10.790972767828965,-0.4416092264953697,0.09222049529356013,-0.7880528462728975,-0.01088722240929485,0.003341313665039536,-0.022474562608998383,0.0,70.0,255.0,255.0,255.0
495,24.75,-10.57049916931557,8.768303531458786,-10.830403604575663,-0.44215760341801413,0.09239837230676784,-0.7891892689404223,-0.011086896941847613,0.003563702245656941,-0.02276907807630124,0.0,70.0,255.0,255.0,255.0
496,24.8,-10.592620886966165,8.772928065423924,-10.869891694723007,-0.4427179161895545,0.09257686551812583,-0.7903297540805276,-0.011359705611901916,0.003365186499415529,-0.022631951482665613,0.0,70.0,255.0,255.0,255.0
497,24.85,-10.614770960934525,8.777561218010598,-10.909436579983716,-0.4432935739792043,0.09273489095670939,-0.7914524640886889,-0.011695494275620888,0.0028424616314026707,-0.022152728075752748,0.0,70.0,255.0,255.0,255.0
498,24.900000000000002,-10.636950244364085,8.782201554519595,-10.949036941131876,-0.44388746561711656,0.0928611116812661,-0.7925450268881029,-0.012075135135702908,0.002191128197281955,-0.021519008315706856,0.0,70.0,255.0,255.0,255.0
499,24.950000000000003,-10.659159707496237,8.786847329178725,-10.988691082672526,-0.4445010874927746,0.09295400377643759,-0.7936043649202595,-0.012472143869146635,0.0016060571251585998,-0.020920589572703818,0.0,70.0,255.0,255.0,255.0
500,25.0,-10.681400353113363,8.791496954897239,-11.028397377623902,-0.4451346800040312,0.09302171739378196,-0.7946370858453733,-0.01287799020985858,0.0012720564987134253,-0.020555164945079696,0.0,70.0,255.0,255.0,255.0
501,25.05,-10.70367317549664,8.796149500918103,-11.068154791257063,-0.4457888865137605,0.09308120942630893,-0.7956598814147675,-0.013280837143447854,0.0012875353492702857,-0.020525997174303257,0.0,70.0,255.0,255.0,255.0
502,25.1,-10.725979241764739,8.80080507583987,-11.107963365765379,-0.446462763718376,0.09315047092870898,-0.7966896855628036,-0.013610411694031654,0.001607602510134143,-0.02074235649391909,0.0,70.0,255.0,255.0,255.0
503,25.150000000000002,-10.748319451868477,8.805464548010974,-11.147823759813344,-0.44714992768316364,0.09324196967732234,-0.7977341170641594,-0.013760607475354902,0.0021221680722049996,-0.021024047537210322,0.0,70.0,255.0,255.0,255.0
504,25.200000000000003,-10.770694234533055,8.810129272807602,-11.187736777471795,-0.4478388244659115,0.09336268773592948,-0.7987920903165247,-0.013637628687668268,0.002721171121855548,-0.021195992852618417,0.0,70.0,255.0,255.0,255.0
505,25.25,-10.793103334315068,8.814800816784567,-11.227702968844996,-0.44851369055193047,0.0935140867895079,-0.7998537163494213,-0.013149207487828107,0.0033120810831732683,-0.02107030876352667,0.0,70.0,255.0,255.0,255.0
506,25.3,-10.815545603588248,8.819480681486553,-11.267722149106737,-0.4491537452146943,0.09369389584424681,-0.8008991211928773,-0.012268833925688227,0.003831898209227802,-0.0205574863946012,0.0,70.0,255.0,255.0,255.0
507,25.35,-10.838018708836538,8.824170206368992,-11.307792880964284,-0.4497405739444993,0.09389727661043068,-0.8019094649888814,-0.01114546966949348,0.0042107646912370456,-0.019800549911153098,0.0,70.0,255.0,255.0,255.0
508,25.400000000000002,-10.860519660982698,8.828870409147596,-11.347913095605625,-0.45026829218164366,0.09411497231337052,-0.8028791761839926,-0.01004234172263807,0.004355723990911997,-0.019062097571342917,0.0,70.0,255.0,255.0,255.0
509,25.450000000000003,-10.883045538054702,8.833581703600329,-11.388080798582683,-0.4507448081167631,0.09433284900952188,-0.8038156747460157,-0.009229089633322474,0.004176484494955446,-0.018595299155776956,0.0,70.0,255.0,255.0,255.0
510,25.5,-10.905594141794374,8.838303694048548,-11.428294663080226,-0.4511912011449759,0.09453262076286606,-0.8047387060995703,-0.008961170515142669,0.0035756564640720967,-0.018651525408586167,0.0,70.0,255.0,255.0,255.0
511,25.55,-10.9281646581692,8.843034965676615,-11.46855466919264,-0.45164092516827736,0.09469041465592909,-0.8056808272868743,-0.0093581395065101,0.0025300466392153,-0.019344943029153683,0.0,70.0,255.0,255.0,255.0
512,25.6,-10.950758234311202,8.847772735514141,-11.508862745808914,-0.4521270150956269,0.09478562542678759,-0.8066732004024857,-0.01027875857761984,0.0012319494468115977,-0.020489196776729557,0.0,70.0,255.0,255.0,255.0
513,25.650000000000002,-10.973377359678762,8.852513528219294,-11.549221989232889,-0.45266880102603935,0.09481360960061025,-0.8077297469645472,-0.011437298362793058,1.4842724027630538e-05,-0.02173213094120996,0.0,70.0,255.0,255.0,255.0
514,25.700000000000003,-10.996025114413806,8.857254096474202,-11.589635720505369,-0.4532707449319062,0.09478710969919035,-0.8088464134966067,-0.012533751709575824,-0.0007820741350528237,-0.022717262737259603,0.0,70.0,255.0,255.0,255.0
515,25.75,-11.018704434171953,8.861992239189213,-11.63010663058255,-0.45392217619699693,0.09473540218710497,-0.8100014732382732,-0.013282101127565227,-0.0008307442358912454,-0.023095617573609672,0.0,70.0,255.0,255.0,255.0
516,25.8,-11.041417332033506,8.866727636692913,-11.670635867829196,-0.45459895504466274,0.09470403527560123,-0.8111559752539677,-0.01352583415332731,1.6027120608441692e-05,-0.02269565524244399,0.0,70.0,255.0,255.0,255.0
517,25.85,-11.06416432967642,8.871462642716773,-11.711222228107946,-0.45527475961232966,0.09473700489916581,-0.8122710387625176,-0.013308540307654937,0.0015307149110910245,-0.021692546432561244,0.0,70.0,255.0,255.0,255.0
518,25.900000000000002,-11.086944807994739,8.87620133718283,-11.751862971705448,-0.45592980907542824,0.09485710676671033,-0.8133252298972238,-0.012758581377703138,0.003273110241508448,-0.02044033437460513,0.0,70.0,255.0,255.0,255.0
519,25.950000000000003,-11.109757310583962,8.880948353393444,-11.792554751097668,-0.4565506177501,0.09506431592331666,-0.8143150721999781,-0.012009703063320387,0.004786777080845184,-0.019301710502261926,0.0,70.0,255.0,255.0,255.0
520,26.0,-11.132599869769749,8.88570776877516,-11.833294478925446,-0.4571307793817603,0.09533578447479485,-0.81525540094745,-0.011190424973861468,0.005631329803712504,-0.018637985647629307,0.0,70.0,255.0,255.0,255.0
521,26.05,-11.155470388522138,8.890481931840924,-11.874080291192413,-0.4576696602474861,0.0956274489036879,-0.816178870764741,-0.010390272130678113,0.0055792714503510865,-0.018638496605838384,0.0,70.0,255.0,255.0,255.0
522,26.1,-11.178366835794497,8.89527051366553,-11.91491236600192,-0.4581698065948281,0.09589371161982996,-0.8171192506080338,-0.009684282988864368,0.004778710722064261,-0.01917157320434626,0.0,70.0,255.0,255.0,255.0
523,26.150000000000002,-11.201287369181621,8.900071303002907,-11.955792216253217,-0.45863808854637256,0.09610531997589433,-0.8180960280851757,-0.00917369081268049,0.0035591964973491486,-0.019956415010113915,0.0,70.0,255.0,255.0,255.0
524,26.200000000000003,-11.224230644649134,8.904881045663119,-11.996721968810437,-0.45908717567609614,0.09624963126956487,-0.8191148921090452,-0.008965897575663462,0.0022615392389013778,-0.020715522295766675,0.0,70.0,255.0,255.0,255.0
525,26.25,-11.24719608674923,8.909696266129863,-12.037703705464121,-0.4595346783039389,0.09633147389978447,-0.8201675803147523,-0.009156198977855468,0.0012214156978274104,-0.0211764957796845,0.0,70.0,255.0,255.0,255.0
526,26.3,-11.270184112479528,8.914514193053098,-12.078738726841912,-0.4600027955738817,0.09637177283934761,-0.8212325416870137,-0.009774615784508,0.0006319220418049554,-0.021191011012611227,0.0,70.0,255.0,255.0,255.0
527,26.35,-11.293196366306619,8.919333443413798,-12.119826959632823,-0.4605121398823897,0.09639466610396497,-0.8222866814160135,-0.010709013050380634,0.00046623707117277036,-0.020827501076858823,0.0,70.0,255.0,255.0,255.0
528,26.400000000000002,-11.316235326467767,8.924153659663494,-12.160967394983514,-0.46107369687891975,0.09641839654646489,-0.8233152917946995,-0.011749452574782993,0.0006208263799933889,-0.020246826098890836,0.0,70.0,255.0,255.0,255.0
529,26.450000000000003,-11.33930373599451,8.928975283068445,-12.202158488812293,-0.461687085139868,0.0964567487419643,-0.8243113640259025,-0.0126682450954263,0.00099895407625894,-0.01960328656291921,0.0,70.0,255.0,255.0,255.0
530,26.5,-11.362404034981754,8.93379933453769,-12.243398531386104,-0.4623405213884624,0.09651829195409078,-0.8252756204509915,-0.01325275114396618,0.0014990447018803366,-0.019039993937042254,0.0,70.0,255.0,255.0,255.0
531,26.55,-11.385537788133357,8.938627112263854,-12.284686050857392,-0.4630123602542646,0.09660665321215234,-0.8262153634196068,-0.013391264731410502,0.0020480054162774763,-0.018643519948113862,0.0,70.0,255.0,255.0,255.0
532,26.6,-11.40870527100718,8.943459999858906,-12.326020067728065,-0.46367964786160343,0.09672309249571853,-0.8271399724458028,-0.013127776697352544,0.0025964342327711165,-0.018434786124643665,0.0,70.0,255.0,255.0,255.0
533,26.650000000000002,-11.431905752919517,8.948299421513426,-12.367400048101972,-0.4643251379239999,0.09686629663542945,-0.8280588420320711,-0.012580386999871962,0.003074887260723358,-0.01842075612010774,0.0,70.0,255.0,255.0,255.0
534,26.700000000000003,-11.45513778479958,8.953146629522449,-12.408825951931272,-0.4649376865615906,0.09703058122179087,-0.8289820480578136,-0.01188112204228986,0.0033974696311389607,-0.01861081863303582,0.0,70.0,255.0,255.0,255.0
535,26.75,-11.478399521575676,8.958002479635605,-12.450298252907753,-0.46551325012822886,0.09720604359854335,-0.8299199238953747,-0.01116482441876343,0.003486368197869183,-0.0190195191471787,0.0,70.0,255.0,255.0,255.0
536,26.8,-11.501689109812403,8.962867233882303,-12.49181794432081,-0.46605416900346697,0.09737921804157779,-0.8308839999725315,-0.010518786828761506,0.003308830186021794,-0.01963593483420567,0.0,70.0,255.0,255.0,255.0
