idx,t,px,py,pz,vx,vy,vz,ax,ay,az,yaw,mode,ledr,ledg,ledb
0,0.0,1.500000000000001,-10.500000000000005,7.845582115685684e-19,-0.0003825819270852904,0.00020113627943629808,0.00019072773462417374,-0.003582787152778266,0.004792424803667927,-0.03247151823082779,0.0,70.0,255.0,255.0,255.0
1,0.05,1.4999808709036468,-10.499989943186034,9.536386731209471e-06,-0.0005617212847242037,0.00044075751961969445,-0.001432848176917216,-0.005626332335095796,0.0072895841052300625,-0.04894833756738822,0.0,70.0,255.0,255.0,255.0
2,0.1,1.4999438278715287,-10.499955924248043,-0.00014328481769172082,-0.00094521516059487,0.0009300946899593043,-0.004704106022114648,-0.008174180729181302,0.00998863720589327,-0.06590727734624169,0.0,70.0,255.0,255.0,255.0
3,0.15000000000000002,1.4998863493875874,-10.499896933717038,-0.00046087421548025534,-0.0013791393576423339,0.0014396212402090214,-0.008023575911541386,-0.009182787152406391,0.010392424801608513,-0.06687151823083173,0.0,70.0,255.0,255.0,255.0
4,0.2,1.4998059139357645,-10.499811962124022,-0.0009456424088458594,-0.001863493875835509,0.0019693371701201556,-0.011391257845197822,-0.010199126577936646,0.010797970181286587,-0.06784256137173876,0.0,70.0,255.0,255.0,255.0
5,0.25,1.4997000000000038,-10.499700000000026,-0.0016000000000000376,-0.0023990520154359984,0.00251941825833768,-0.014807832048715263,-0.011259930764984105,0.011213622810934964,-0.06885271748647792,0.0,70.0,255.0,255.0,255.0
6,0.30000000000000004,1.4995660087342209,-10.499560020298189,-0.002426425613717386,-0.0029894869523339196,0.003090699451213652,-0.018276529593845615,-0.012377014020725774,0.011642068181139109,-0.06991237891110756,0.0,70.0,255.0,255.0,255.0
7,0.35000000000000003,1.4994010513047704,-10.499390930054904,-0.0034276529593845993,-0.003636753417508576,0.003683625076451591,-0.02179906993982602,-0.01344963251530551,0.01206040630385985,-0.07093292736190106,0.0,70.0,255.0,255.0,255.0
8,0.4,1.49920233339247,-10.499191657790544,-0.004606332607699988,-0.0043344502038644706,0.004296740081599637,-0.02536982233003572,-0.014316896848676208,0.012432065557455019,-0.0717728381170827,0.0,70.0,255.0,255.0,255.0
9,0.45,1.498967606284384,-10.498961256046744,-0.005964635192388172,-0.005068443102376197,0.004926831632197093,-0.02897635375153429,-0.014845844795030594,0.012727431735903849,-0.07231167107284941,0.0,70.0,255.0,255.0,255.0
10,0.5,1.4986954890822324,-10.498698974627324,-0.007503967982853417,-0.00581903468336753,0.005569483255190022,-0.03260098943732066,-0.014939771747091157,0.012927417279406939,-0.07244782513158583,0.0,70.0,255.0,255.0,255.0
11,0.55,1.4983857028160472,-10.498404307721225,-0.009224734136120238,-0.006562420277085312,0.006219573360137787,-0.03622113626469287,-0.014566669439020075,0.013025677326261587,-0.07214782599215,0.0,70.0,255.0,255.0,255.0
12,0.6000000000000001,1.4980392470545238,-10.49807701729131,-0.011126081609322705,-0.007275701627269537,0.006872050987816181,-0.03981577203653566,-0.01380545303484304,0.013032211902874735,-0.07152644335479477,0.0,70.0,255.0,255.0,255.0
13,0.65,1.4976581326533203,-10.497717102622444,-0.013206311339773805,-0.007942965580569616,0.00752279455042526,-0.04337378060017235,-0.01281831551684931,0.012971211673828975,-0.07079877769077363,0.0,70.0,255.0,255.0,255.0
14,0.7000000000000001,1.4972449504964669,-10.497324737836268,-0.01546345966933994,-0.008557533178954468,0.008169172155199078,-0.046895649805613025,-0.011797277129588224,0.012876783921811352,-0.07020406718856821,0.0,70.0,255.0,255.0,255.0
15,0.75,1.4968023793354248,-10.496900185406924,-0.017895876320335107,-0.009122693293528439,0.008810472942606395,-0.05039418731902917,-0.010921006251685128,0.012786368179007468,-0.06999275541771308,0.0,70.0,255.0,255.0,255.0
16,0.8,1.496332681167114,-10.496443690542007,-0.020502878401242857,-0.009649633804122981,0.009447808973099825,-0.05389492534738433,-0.010296442157819996,0.012723180762819197,-0.07028931984281069,0.0,70.0,255.0,255.0,255.0
17,0.8500000000000001,1.4958374159550125,-10.495955404509614,-0.02328536885507354,-0.010152337509310438,0.010082791018888315,-0.05742311930331024,-0.009961282618142775,0.012689813681099338,-0.07095495889258147,0.0,70.0,255.0,255.0,255.0
18,0.9,1.495317447416183,-10.495435411440118,-0.02624519033157388,-0.010645762065937259,0.010716790341209759,-0.06099042123664248,-0.00993879213284643,0.012684859308365048,-0.07171923060700532,0.0,70.0,255.0,255.0,255.0
19,0.9500000000000001,1.4947728397484188,-10.494883725475493,-0.02938441097873779,-0.011146216722595081,0.01135127694972482,-0.06459504236401077,-0.01024402104554678,0.012711633046613713,-0.0723184004992209,0.0,70.0,255.0,255.0,255.0
20,1.0,1.4942028257439235,-10.494300283745146,-0.03270469456797496,-0.011670164170491937,0.01198795364587113,-0.06822226128656457,-0.010888184598201178,0.012779137978036204,-0.07250124643765413,0.0,70.0,255.0,255.0,255.0
21,1.05,1.4936058233313696,-10.493684930110906,-0.036206637107394246,-0.0122350351824152,0.01262919074752844,-0.07184516700777618,-0.011849613211634136,0.012888312907044508,-0.07214123496294522,0.0,70.0,255.0,255.0,255.0
22,1.1,1.492979322225682,-10.493037364670393,-0.03988921126875258,-0.01285512549165535,0.01327678493657558,-0.07543638478285909,-0.012987738170933127,0.013008533370495456,-0.07134090056205994,0.0,70.0,255.0,255.0,255.0
23,1.1500000000000001,1.492320310782204,-10.492357251617248,-0.043750275585680155,-0.013533808999508512,0.013930044084577986,-0.07897925706398218,-0.014064837630289873,0.01308935109349818,-0.07031795955486919,0.0,70.0,255.0,255.0,255.0
24,1.2000000000000002,1.4916259413257311,-10.491644360261935,-0.047787136975150794,-0.014261609254684338,0.014585720045925399,-0.08246818073834601,-0.014828689970336484,0.013083397180224665,-0.06929510470732453,0.0,70.0,255.0,255.0,255.0
25,1.25,1.4908941498567356,-10.490898679612656,-0.051997093659514756,-0.01501667799654216,0.015238383802600453,-0.08590876753471463,-0.015038236707365371,0.012949107880899646,-0.06848225883166956,0.0,70.0,255.0,255.0,255.0
26,1.3,1.490124273526077,-10.490120521881675,-0.05637801372862226,-0.015765432925420875,0.015880630834015363,-0.08931640662151297,-0.014584079354351687,0.012669768075213028,-0.06799851419818301,0.0,70.0,255.0,255.0,255.0
27,1.35,1.4893176065641935,-10.489310616529254,-0.06092873432166605,-0.01647508593197733,0.016505360610121755,-0.09270861895453293,-0.013616715747000185,0.012277824397699533,-0.06783509853284242,0.0,70.0,255.0,255.0,255.0
28,1.4000000000000001,1.4884767649328792,-10.488469985820663,-0.06564887562407555,-0.017127104500120893,0.017108413273785317,-0.09609991647479721,-0.012434584619014366,0.011836803917830707,-0.06793611066070251,0.0,70.0,255.0,255.0,255.0
29,1.4500000000000002,1.4876048961141815,-10.487599775201875,-0.07053872596914577,-0.017718544393878766,0.017689041001904826,-0.09950223002060318,-0.01135348014555948,0.011414265411957558,-0.06824066785096478,0.0,70.0,255.0,255.0,255.0
30,1.5,1.4867049104934913,-10.486701081720472,-0.07559909862613587,-0.01826245251467684,0.018249839814981073,-0.10292398325989369,-0.010682877896095455,0.011068439819617026,-0.06868169958764297,0.0,70.0,255.0,255.0,255.0
31,1.55,1.4857786508627138,-10.485774791220377,-0.08083112429513514,-0.01878683218348831,0.01879588498386653,-0.10637039997936748,-0.010586843263649115,0.010832614792555262,-0.0692062467058635,0.0,70.0,255.0,255.0,255.0
32,1.6,1.4848262272751425,-10.484821493222086,-0.08623613862407262,-0.019321136841041753,0.0193331012942366,-0.10984460793048004,-0.010976354552072465,0.010717465078791122,-0.06975879854666384,0.0,70.0,255.0,255.0,255.0
33,1.6500000000000001,1.4838465371786096,-10.483841481090954,-0.09181558508818315,-0.019884467638695558,0.01986763149174564,-0.11334627983403386,-0.011646707343482277,0.010726137199768004,-0.07025498707971395,0.0,70.0,255.0,255.0,255.0
34,1.7000000000000002,1.482837780511273,-10.482834730072911,-0.097570766607476,-0.02048580757538998,0.0204057150142134,-0.11687010663845143,-0.012390303200437991,0.010852827882956717,-0.07059704906364483,0.0,70.0,255.0,255.0,255.0
35,1.75,1.4817979564210706,-10.481800909589532,-0.10350259575202829,-0.021123497958739357,0.020952914280041313,-0.12040598474039835,-0.013002279680240925,0.011081095542131436,-0.07069490552172042,0.0,70.0,255.0,255.0,255.0
36,1.8,1.480725430715399,-10.480739438644907,-0.10961136508151584,-0.021786035543414073,0.021513824568426543,-0.12393959719062347,-0.013362999805588416,0.011394085109017738,-0.07050927287114428,0.0,70.0,255.0,255.0,255.0
37,1.85,1.4796193528667292,-10.47964952713269,-0.11589655547109064,-0.0224597979392982,0.022092322790943086,-0.12745691202751278,-0.013482434809453103,0.011771476127897529,-0.07009418280497087,0.0,70.0,255.0,255.0,255.0
38,1.9000000000000001,1.4784794509214692,-10.478530206365813,-0.12235705628426712,-0.023134279024359383,0.022690972181216296,-0.13094901547112056,-0.013412338920648637,0.01217780812403646,-0.06956030465679608,0.0,70.0,255.0,255.0,255.0
39,1.9500000000000002,1.4773059249642932,-10.477380429914568,-0.1289914570182027,-0.023801031831363062,0.023310103603346732,-0.13441294249319238,-0.013199619407067154,0.012568735409423937,-0.06903062307394708,0.0,70.0,255.0,255.0,255.0
40,2.0,1.4760993477383328,-10.476199196005478,-0.13579835053358635,-0.0244542409650661,0.02394784572215869,-0.13785207777851527,-0.012899984734882075,0.012911140714422231,-0.06862669697351303,0.0,70.0,255.0,255.0,255.0
41,2.0500000000000003,1.4748605008677866,-10.474985645342352,-0.14277666479605422,-0.02509103030485127,0.024601217674788955,-0.1412756121905437,-0.012553418586147558,0.013184331485227574,-0.06841614898906445,0.0,70.0,255.0,255.0,255.0
42,2.1,1.4735902447078477,-10.473739074237999,-0.14992591175264072,-0.025709582823680854,0.025266278870681447,-0.14469369267742171,-0.01217474537116292,0.01335933437403014,-0.06838083386979388,0.0,70.0,255.0,255.0,255.0
43,2.15,1.4722895425854186,-10.472459017455284,-0.1572460340637964,-0.02630850484196756,0.02593715111219197,-0.14811369557752307,-0.011784776134615704,0.013399926340973423,-0.06846826981756482,0.0,70.0,255.0,255.0,255.0
44,2.2,1.470959394223651,-10.47114535912678,-0.16473728131039303,-0.026888060437142425,0.02660627150477879,-0.1515405196591782,-0.011416906816830164,0.013278943763417317,-0.0686266591067769,0.0,70.0,255.0,255.0,255.0
45,2.25,1.4696007365417043,-10.469798390304806,-0.1724000860297142,-0.027450195523650578,0.0272650454885337,-0.15497636148820076,-0.011093818676366496,0.012970378897136925,-0.0688063252322596,0.0,70.0,255.0,255.0,255.0
46,2.3000000000000003,1.468214374671286,-10.468418854577926,-0.1802349174592131,-0.027997442304779074,0.02790330939449248,-0.15842115218240416,-0.010830039136644487,0.012474276598339884,-0.06897335727983345,0.0,70.0,255.0,255.0,255.0
47,2.35,1.4668009923112264,-10.467008059365357,-0.18824220124795463,-0.028533199437315027,0.02851247314836769,-0.1618736972161841,-0.010655879743159957,0.011872025535986097,-0.06910341411676957,0.0,70.0,255.0,255.0,255.0
48,2.4000000000000004,1.4653610547275544,-10.46556760726309,-0.19642228718083152,-0.02906303027909507,0.02909051194809109,-0.1653314935940811,-0.010611260503368136,0.011303325670830588,-0.06916484451117699,0.0,70.0,255.0,255.0,255.0
49,2.45,1.463894689283317,-10.464099008170548,-0.20477535060736274,-0.02959432548765184,0.02964280571545075,-0.1687901816673018,-0.010726040038933071,0.010914463895517201,-0.06912325331948077,0.0,70.0,255.0,255.0,255.0
50,2.5,1.4624016221787892,-10.462603326691545,-0.2133013053475617,-0.030135634282988377,0.03018195833764281,-0.1722438189260292,-0.011028703263926687,0.010851353022722776,-0.0689480020974409,0.0,70.0,255.0,255.0,255.0
51,2.5500000000000003,1.460881125855018,-10.461080812336784,-0.22199973249996566,-0.03069719581404451,0.030727941017723026,-0.1756849818770459,-0.011520737221704103,0.011179074943434841,-0.0686299090710607,0.0,70.0,255.0,255.0,255.0
52,2.6,1.4593319025973848,-10.459530532589772,-0.2308698035352663,-0.03128770800515879,0.031299865831986295,-0.17910680983313526,-0.012120896495160238,0.011788087955899584,-0.06820728122490238,0.0,70.0,255.0,255.0,255.0
53,2.6500000000000004,1.4577523550545022,-10.457950825753585,-0.23991041348327918,-0.03190928546356053,0.031906749813312985,-0.18250570999953614,-0.012689342690919148,0.012470407337339395,-0.06775141973682508,0.0,70.0,255.0,255.0,255.0
54,2.7,1.4561409740510287,-10.456339857608441,-0.2491203745352199,-0.0325566422742507,0.032546906565720235,-0.18588195180681777,-0.013079958668615888,0.013010426762427585,-0.06733981479478957,0.0,70.0,255.0,255.0,255.0
55,2.75,1.454496690827077,-10.454696135097013,-0.25849860866396096,-0.03321728133042212,0.03320779248955574,-0.1892396914790151,-0.013147358944043397,0.013188218337489843,-0.06704567570196551,0.0,70.0,255.0,255.0,255.0
56,2.8000000000000003,1.4528192459179865,-10.453019078359485,-0.2680443436831214,-0.03387137816865504,0.03386572839946922,-0.19258651937701432,-0.012826499155771387,0.012896136915507839,-0.0669070064359123,0.0,70.0,255.0,255.0,255.0
57,2.85,1.4511095530102116,-10.451309562257066,-0.2777572606016624,-0.03449993124599926,0.03449740618110653,-0.19593039212260632,-0.012225009800714837,0.01226103056470862,-0.06690475702092469,0.0,70.0,255.0,255.0,255.0
58,2.9000000000000004,1.4493692527933866,-10.449569337741375,-0.28763738289538204,-0.035093879148726526,0.03509183145594008,-0.1992769950791068,-0.011547732369443509,0.011529637052376529,-0.06699218050425504,0.0,70.0,255.0,255.0,255.0
59,2.95,1.447600165095339,-10.447800379111472,-0.29768496010957307,-0.03565470448294361,0.03565036988634418,-0.20262961017303183,-0.011006899179233365,0.01095040248184631,-0.06711748750135027,0.0,70.0,255.0,255.0,255.0
60,3.0,1.4458037823450922,-10.44600430075274,-0.3079003439126852,-0.03619456906664986,0.03618687170412471,-0.20598874382924182,-0.010817851636035769,0.010779736332899859,-0.06722528577065567,0.0,70.0,255.0,255.0,255.0
61,3.0500000000000003,1.443980708188674,-10.44418169194106,-0.31828383449249725,-0.03673648964654719,0.036728343519634166,-0.2093521387500974,-0.011086552868255772,0.011142950821252384,-0.06728257800582838,0.0,70.0,255.0,255.0,255.0
62,3.1,1.4421301333804375,-10.442331466400777,-0.32883555778769497,-0.03730322435347544,0.03730116678624995,-0.21271700162982465,-0.011693656376299266,0.011882381859251723,-0.06729462309237322,0.0,70.0,255.0,255.0,255.0
63,3.1500000000000004,1.4402503857533264,-10.440451575262435,-0.3395555346554797,-0.037905855284177115,0.03791658170555934,-0.21608160105933472,-0.012405135757087571,0.012696452378158085,-0.06727808668438029,0.0,70.0,255.0,255.0,255.0
64,3.2,1.4383395478520198,-10.438539808230221,-0.35044371789362844,-0.038543737929184196,0.03857081202406576,-0.21944481029826268,-0.012985871188120335,0.013288103170694399,-0.0672440347335268,0.0,70.0,255.0,255.0,255.0
65,3.25,1.436396011960408,-10.436594494060028,-0.361500015685306,-0.03920444240298915,0.03924539202262878,-0.2228060045326874,-0.013197271807663391,0.013360901599845931,-0.0672011532433403,0.0,70.0,255.0,255.0,255.0
66,3.3000000000000003,1.4344191036117209,-10.434615269027958,-0.3727243183468972,-0.039863465109950535,0.03990690218405035,-0.2261649256225967,-0.01292071594429789,0.012771686838775054,-0.06715596825414005,0.0,70.0,255.0,255.0,255.0
67,3.35,1.432409665449413,-10.432603803841623,-0.38411650824756566,-0.04049651399741894,0.04052256070650628,-0.2295216013581014,-0.012285772619557989,0.011696621484880154,-0.06711675060967481,0.0,70.0,255.0,255.0,255.0
68,3.4000000000000004,1.430369452211979,-10.430563012957307,-0.3956764784827073,-0.041092042371906334,0.04107656433253837,-0.2328766006835642,-0.011546316677168988,0.010478213109266221,-0.0670954727582107,0.0,70.0,255.0,255.0,255.0
69,3.45,1.4283004612122223,-10.428496147408369,-0.4074041683159221,-0.041651145665135836,0.041570382017432905,-0.23623114863392247,-0.010956189495003876,0.009456532154850095,-0.0671063735644295,0.0,70.0,255.0,255.0,255.0
70,3.5,1.4262043376454654,-10.426405974755564,-0.41929959334609956,-0.04218766132140672,0.04202221754802338,-0.23958723804000714,-0.01077702383722734,0.008952601323386489,-0.06717010125597,0.0,70.0,255.0,255.0,255.0
71,3.5500000000000003,1.4240816950800816,-10.424293925653567,-0.4313628921199228,-0.04272884804885857,0.042465642149771554,-0.24294815875951947,-0.011137156781027002,0.009130674784785242,-0.06729354897768158,0.0,70.0,255.0,255.0,255.0
72,3.6,1.4219314528405795,-10.422159410540587,-0.4435944092220515,-0.04330137699950942,0.0429352850265019,-0.2463165929377753,-0.011877845219898653,0.0098812487527411,-0.06743837446896994,0.0,70.0,255.0,255.0,255.0
73,3.6500000000000004,1.4197515573801307,-10.420000397150917,-0.4559945514137003,-0.043916632570848435,0.043453767025045664,-0.24969199620641647,-0.012695005459595343,0.010959739473292984,-0.06754002228276379,0.0,70.0,255.0,255.0,255.0
74,3.7,1.4175397895834947,-10.417814033838082,-0.46856360884269316,-0.044570877545468957,0.0440312589738312,-0.2530705951660517,-0.01328951069203832,0.012112994314072978,-0.06753718429540756,0.0,70.0,255.0,255.0,255.0
75,3.75,1.4152944696255838,-10.415597271253533,-0.4813016109303055,-0.04524558364005227,0.04466506645645296,-0.2564457146359572,-0.01336269811151869,0.01310468378150631,-0.06737046970484717,0.0,70.0,255.0,255.0,255.0
76,3.8000000000000003,1.4130152312194895,-10.413347527192437,-0.4942081803062889,-0.045907147356620825,0.04534172735198183,-0.2598076421365364,-0.012770283971308416,0.013793352952973237,-0.06701603630136499,0.0,70.0,255.0,255.0,255.0
77,3.85,1.4107037548899217,-10.411063098518335,-0.5072823751439591,-0.04652261203718311,0.046044401751750286,-0.2631473182660937,-0.011690025988131403,0.014145656232855686,-0.06653152307616872,0.0,70.0,255.0,255.0,255.0
78,3.9000000000000004,1.4083629700157712,-10.408743087017262,-0.5205229121328983,-0.047076149955433966,0.0467562929752674,-0.26646079444415327,-0.010467321158058596,0.014153877946476712,-0.0660235057097891,0.0,70.0,255.0,255.0,255.0
79,3.95,1.4059961398943783,-10.406387469220808,-0.5339284545883745,-0.04756934415298897,0.04745978954639796,-0.26974966883707263,-0.009445115055939368,0.013812516228384197,-0.06560437643345907,0.0,70.0,255.0,255.0,255.0
80,4.0,1.4036060356004723,-10.403997108062622,-0.5474978790166055,-0.0480206614610279,0.04813754459810582,-0.2730212320874992,-0.008948127772656633,0.013116682198344165,-0.06539202924871201,0.0,70.0,255.0,255.0,255.0
81,4.05,1.4011940737482755,-10.401573714760998,-0.5612305777971244,-0.04846415693025463,0.04877145776623237,-0.27628887176194383,-0.00914208029425545,0.012093862122952714,-0.06544230581679855,0.0,70.0,255.0,255.0,255.0
82,4.1000000000000005,1.3987596199074468,-10.399119962285999,-0.5751267661927999,-0.04893486949045345,0.04934693081040109,-0.27956546266917903,-0.009912167377734704,0.010897804638254627,-0.06567282926355222,0.0,70.0,255.0,255.0,255.0
83,4.15,1.3963005867992302,-10.396639021679958,-0.5891871240640423,-0.0494553736680281,0.049861238230057836,-0.28285615468829906,-0.011004754197219135,0.009786427062152825,-0.06592865884086363,0.0,70.0,255.0,255.0,255.0
84,4.2,1.393814082540644,-10.394133838462993,-0.6034123816616298,-0.05003534491017536,0.05032557351661637,-0.2861583285532654,-0.012157255191214134,0.00903488949024478,-0.06605202325756787,0.0,70.0,255.0,255.0,255.0
85,4.25,1.3912970523082127,-10.391606464328296,-0.6178029569193688,-0.050671099187149515,0.050764727179082314,-0.28946135701405584,-0.013120781473840992,0.008916606071274202,-0.06586943194828443,0.0,70.0,255.0,255.0,255.0
86,4.3,1.388746972621929,-10.389057365745085,-0.6323585173630354,-0.05134742305755946,0.05121723412374379,-0.29274527174809384,-0.013749133779716871,0.009552224197051373,-0.06530145371809182,0.0,70.0,255.0,255.0,255.0
87,4.3500000000000005,1.3861623100024567,-10.386484740915922,-0.6470774840941782,-0.0520460125651212,0.05171994959878745,-0.295991502385865,-0.014028577228275552,0.010734174167303934,-0.06449986383232353,0.0,70.0,255.0,255.0,255.0
88,4.4,1.383542371365417,-10.383885370785206,-0.6619576676016219,-0.052750280780387016,0.05229065154047419,-0.2991952581313262,-0.013984711003867112,0.01206768653165824,-0.0637391549640709,0.0,70.0,255.0,255.0,255.0
89,4.45,1.380887281924418,-10.381255675761874,-0.6769970099073108,-0.053444483665507914,0.052926718251953275,-0.3023654178822721,-0.013646889820040364,0.013142378024078027,-0.06328739067616995,0.0,70.0,255.0,255.0,255.0
90,4.5,1.3781979229988661,-10.378592698960011,-0.6921942093898491,-0.05411496976239105,0.05360488934288199,-0.3055239971989432,-0.013056764980068358,0.013544912163432343,-0.06341816836600289,0.0,70.0,255.0,255.0,255.0
91,4.55,1.375475784948179,-10.375895186827586,-0.7075494096272051,-0.05475016016351475,0.05428120946829651,-0.3087072347188724,-0.01225933330502027,0.013070667661807533,-0.06425276509172129,0.0,70.0,255.0,255.0,255.0
92,4.6000000000000005,1.3727229069825146,-10.373164578013181,-0.7230649328617363,-0.05534090309289308,0.05491195610906274,-0.3119492737081153,-0.011335202031004243,0.011936314544946924,-0.06556146832105147,0.0,70.0,255.0,255.0,255.0
93,4.65,1.3699416946388896,-10.37040399121668,-0.7387443369980167,-0.055883680366615174,0.0554748409227912,-0.31526338155097755,-0.010418080108820504,0.010572010961595879,-0.06691929006732433,0.0,70.0,255.0,255.0,255.0
94,4.7,1.3671345389458531,-10.367617093920902,-0.7545912710168341,-0.05638271110377513,0.05596915720522233,-0.31864120271484775,-0.009659847533005639,0.009408745265560015,-0.06789957953882153,0.0,70.0,255.0,255.0,255.0
95,4.75,1.364303423528512,-10.364807075496158,-0.7706084572695014,-0.05684966511991574,0.056415715449347204,-0.3220533395048597,-0.009192205225971861,0.008871670681998012,-0.06808195053182864,0.0,70.0,255.0,255.0,255.0
96,4.800000000000001,1.3614495724338616,-10.361975522375968,-0.7867966049673201,-0.057301931626372316,0.05685632427342213,-0.3254493977680306,-0.00908075910759365,0.009178252009078847,-0.06726660013421926,0.0,70.0,255.0,255.0,255.0
97,4.8500000000000005,1.3585732303658749,-10.359121443068815,-0.8031533970463045,-0.0577577410306751,0.05733354065025509,-0.32877999951828163,-0.009303435160634699,0.010149751803645302,-0.06570591789515356,0.0,70.0,255.0,255.0,255.0
98,4.9,1.355673798330794,-10.356242168310942,-0.8196746049191482,-0.058232275142435785,0.05787129945378666,-0.33201998955754597,-0.009789308887109271,0.011415085473309716,-0.06389370807661221,0.0,70.0,255.0,255.0,255.0
99,4.95,1.3527500028516313,-10.353334313123437,-0.8363553960020591,-0.05873667191938603,0.05847504919758606,-0.33516937032594285,-0.010447519581679998,0.012602780771509003,-0.0623331256673576,0.0,70.0,255.0,255.0,255.0
100,5.0,1.3498001311388554,-10.350394663391183,-0.8531915419517425,-0.059277027100603785,0.05913157753093756,-0.33825330212428173,-0.011190358172052939,0.013348451728489863,-0.06151799221059129,0.0,70.0,255.0,255.0,255.0
101,5.050000000000001,1.346822300141571,-10.347421155370343,-0.8701807262144873,-0.059855707736591324,0.059809894370435046,-0.341321169547002,-0.011952455439456777,0.013456976984116409,-0.06170069451126858,0.0,70.0,255.0,255.0,255.0
102,5.1000000000000005,1.3438145603651963,-10.34441367395414,-0.8873236589064427,-0.06047227264454946,0.0604772752293492,-0.3444233715754086,-0.012653854529265374,0.013033722528987823,-0.06268134028490913,0.0,70.0,255.0,255.0,255.0
103,5.15,1.340775072877116,-10.341373427847408,-0.9046230633720281,-0.06112109318951786,0.06111326662333383,-0.3475893035754929,-0.013179369657412288,0.012317763694724704,-0.0640393974397635,0.0,70.0,255.0,255.0,255.0
104,5.2,1.3377024510462445,-10.338302347291807,-0.922082589263992,-0.06179020961029069,0.061709051598821674,-0.35082731131938494,-0.013411612601843537,0.011547217895646611,-0.06534805765179286,0.0,70.0,255.0,255.0,255.0
105,5.25,1.3345960519160869,-10.335202522687526,-0.9397057945039666,-0.062462254449702215,0.06226798841289849,-0.3541241093406722,-0.013246362085861385,0.010962494432575909,-0.06618211792178696,0.0,70.0,255.0,255.0,255.0
106,5.300000000000001,1.3314562256012743,-10.332075548450517,-0.9574950001980592,-0.06311484581887683,0.06280530104207926,-0.35744552311156363,-0.012647880672900236,0.010699387839707697,-0.06631178732195986,0.0,70.0,255.0,255.0,255.0
107,5.3500000000000005,1.3282845673341992,-10.328921992583318,-0.975450346815123,-0.06372704251699224,0.06333792719686926,-0.36075528807286816,-0.011726461407546296,0.010710789315027114,-0.06585869765527441,0.0,70.0,255.0,255.0,255.0
108,5.4,1.325083521349575,-10.32574175573083,-0.993570529005346,-0.06428749195963146,0.06387637997358198,-0.3640313928770911,-0.010690415280789622,0.010880106834854075,-0.0650970471526402,0.0,70.0,255.0,255.0,255.0
109,5.45,1.321855818138236,-10.32253435458596,-1.011853486102832,-0.0647960840450712,0.06442593788035467,-0.3672649927881322,-0.009764491549413279,0.011100748579018216,-0.06429552950628636,0.0,70.0,255.0,255.0,255.0
110,5.5,1.318603912945068,-10.319299161942794,-1.0302970282841593,-0.06526394111457279,0.0649864548314838,-0.3704609458277197,-0.009156221456296798,0.011261617160762682,-0.06372948015820334,0.0,70.0,255.0,255.0,255.0
111,5.550000000000001,1.3153294240267788,-10.316035709102811,-1.048899580685604,-0.06571170619070088,0.06555209959643093,-0.3736379408039525,-0.008976021869000483,0.011299411050735841,-0.06355099069967896,0.0,70.0,255.0,255.0,255.0
112,5.6000000000000005,1.3120327423259979,-10.312743951983151,-1.0676608223645545,-0.06616154330147284,0.06611639593655738,-0.3768160448976876,-0.009192187952322683,0.01124405261236916,-0.06367930032935565,0.0,70.0,255.0,255.0,255.0
113,5.65,1.3087132696966315,-10.309424069509156,-1.0865811851753728,-0.06663092498593315,0.06667650485766785,-0.3800058708368881,-0.009707081107546145,0.011160037404245315,-0.06393866103613366,0.0,70.0,255.0,255.0,255.0
114,5.7,1.3053696498274046,-10.306076301497384,-1.1056614094482433,-0.06713225141222745,0.06723239967698191,-0.383209911001301,-0.010410421200579556,0.011103587321947828,-0.06416893854239714,0.0,70.0,255.0,255.0,255.0
115,5.75,1.3020000445554087,-10.302700829541457,-1.124902176275503,-0.0676719671059911,0.06778686358986263,-0.3864227646911278,-0.011196724116890877,0.01113900895308717,-0.0642120360372811,0.0,70.0,255.0,255.0,255.0
116,5.800000000000001,1.2986024531168054,-10.299297615138398,-1.144303685917356,-0.06825192382391654,0.06834630057229063,-0.3896311146050291,-0.011989570312698206,0.01129625467033435,-0.06398438973918008,0.0,70.0,255.0,255.0,255.0
117,5.8500000000000005,1.295174852173017,-10.295866199484228,-1.1638652877360058,-0.06887092413726092,0.06891648905689607,-0.3928212036650458,-0.012707583985838156,0.01151300023405355,-0.06354680498996679,0.0,70.0,255.0,255.0,255.0
118,5.9,1.2917153607030794,-10.292405966232709,-1.1835858062838607,-0.06952268222250035,0.06949760059569599,-0.39598579510402576,-0.013235945603651267,0.011679743549386501,-0.06302560474034102,0.0,70.0,255.0,255.0,255.0
119,5.95,1.288222583950767,-10.288916439424659,-1.2034638672464084,-0.07019451869762605,0.07008446341183472,-0.3991237641390799,-0.013455362109904279,0.011691615420694745,-0.06254200303754676,0.0,70.0,255.0,255.0,255.0
120,6.0,1.2846959088333167,-10.285397519891525,-1.2234981826977687,-0.07086821843349078,0.07066676213776546,-0.40223999540778044,-0.013256882076251308,0.011434374996888153,-0.06221435704456546,0.0,70.0,255.0,255.0,255.0
121,6.050000000000001,1.281135762107418,-10.281849763210882,-1.2436878667871865,-0.07152020690525118,0.07122790091152353,-0.40534519984353645,-0.012604158418705325,0.010861770733505693,-0.062104737056767334,0.0,70.0,255.0,255.0,255.0
122,6.1000000000000005,1.2775438881427916,-10.278274729800373,-1.2640327026821223,-0.07212863427536131,0.07175293921111603,-0.40845046911345717,-0.011622790789456161,0.010105718014585818,-0.06217077574794949,0.0,70.0,255.0,255.0,255.0
123,6.15,1.2739228986798818,-10.27467446928977,-1.2845329136985322,-0.0726824859841968,0.07223847271298212,-0.4115622774183314,-0.01054633927508597,0.009400055997588197,-0.06232162396537788,0.0,70.0,255.0,255.0,255.0
124,6.2,1.270275639544372,-10.271050882529074,-1.3051889304239555,-0.07318326820286991,0.07269294481087485,-0.41468263150999496,-0.009626591898381776,0.008976011600481115,-0.06246304930768165,0.0,70.0,255.0,255.0,255.0
125,6.25,1.2666045718595949,-10.267405174808683,-1.3260011768495317,-0.07364514517403498,0.07313607387303023,-0.41780858234909957,-0.00910777555016562,0.009063444438162094,-0.06248652646043684,0.0,70.0,255.0,255.0,255.0
126,6.300000000000001,1.2629111250269685,-10.263737275141771,-1.3469697886588654,-0.07409404575788647,0.07359928925469106,-0.42093128415603864,-0.00911379601249429,0.009764261462841262,-0.062337174854154576,0.0,70.0,255.0,255.0,255.0
127,6.3500000000000005,1.2591951672838062,-10.260045245883214,-1.3680943052651355,-0.0745565247752844,0.07411250001931435,-0.424042299834515,-0.009553140967977214,0.010897880623339518,-0.062091024418875485,0.0,70.0,255.0,255.0,255.0
128,6.4,1.25545547254944,-10.25632602513984,-1.389374018642317,-0.0750493598546842,0.07468907731702501,-0.4271403865979262,-0.010226809184032959,0.012124601225416143,-0.061886127836374705,0.0,70.0,255.0,255.0,255.0
129,6.45,1.2516902312983378,-10.252576338151512,-1.4108083439249282,-0.0755792056936877,0.07532496014185597,-0.4302309126181525,-0.010924983583437964,0.01309879039048667,-0.06185288597913008,0.0,70.0,255.0,255.0,255.0
130,6.5,1.2478975519800712,-10.248793529125654,-1.4323971099041322,-0.07614185821302799,0.07599895635607368,-0.4333256751958392,-0.011432015723178424,0.013483875222597419,-0.06213548116951184,0.0,70.0,255.0,255.0,255.0
131,6.550000000000001,1.244076045477035,-10.244976442515904,-1.454140911444512,-0.07672240726600554,0.07667334766411571,-0.4364444607351037,-0.011628396459006929,0.013114097168376304,-0.06279364977355151,0.0,70.0,255.0,255.0,255.0
132,6.6000000000000005,1.2402253112534707,-10.241126194359243,-1.4760415559776425,-0.07730469785892868,0.07731036607291131,-0.43960504017319435,-0.011569214103079872,0.012152642943163983,-0.06366335501482023,0.0,70.0,255.0,255.0,255.0
133,6.65,1.2363455756911421,-10.237245405908613,-1.4981014154618315,-0.07787932867631353,0.07788861195843211,-0.4428107962365857,-0.01138017690265336,0.010932494812898597,-0.06445479709011881,0.0,70.0,255.0,255.0,255.0
134,6.7,1.2324373783858393,-10.2333373331634,-1.520322635601301,-0.07844271554919402,0.07840361555420117,-0.44605051988220623,-0.01118107283559766,0.009794887441749722,-0.06488605945647041,0.0,70.0,255.0,255.0,255.0
135,6.75,1.2285013041362227,-10.229405044353193,-1.5427064674500521,-0.0789974359598733,0.07886810070260708,-0.44929940218223274,-0.011104114936943965,0.009073036022577696,-0.06468362345344314,0.0,70.0,255.0,255.0,255.0
136,6.800000000000001,1.224537634789852,-10.225450523093139,-1.5652525758195244,-0.07955312704288842,0.07931091915645894,-0.45251888222755055,-0.011218678757507483,0.008945410470140303,-0.06372682745041658,0.0,70.0,255.0,255.0,255.0
137,6.8500000000000005,1.2205459914319339,-10.221473952437547,-1.5879583556728072,-0.08011930383562405,0.07976264174962111,-0.4556720849272744,-0.011449070218905177,0.009322503315267738,-0.062223574170117146,0.0,70.0,255.0,255.0,255.0
138,6.9,1.2165257044062896,-10.217474258918177,-1.6108197843122518,-0.08069803406477893,0.08024316948798571,-0.45874123964456226,-0.011654254767212713,0.0099953029733868,-0.060569182637504326,0.0,70.0,255.0,255.0,255.0
139,6.95,1.212476188025456,-10.213449635488749,-1.6338324796372634,-0.08128472931234532,0.08076217204695979,-0.46172900319102483,-0.011703638827031959,0.010754573594518035,-0.0591679111599408,0.0,70.0,255.0,255.0,255.0
140,7.0,1.208397231475055,-10.20939804171348,-1.6569926846313543,-0.08186839794748213,0.08131862684743751,-0.46465803076055634,-0.011455580472952143,0.0113960086585152,-0.05840200636857418,0.0,70.0,255.0,255.0,255.0
141,7.050000000000001,1.2042893482307078,-10.205317772804005,-1.680298282713319,-0.08243028735964053,0.08190177291281131,-0.46756920382788225,-0.010849802263956931,0.011798713165589447,-0.05846612667190776,0.0,70.0,255.0,255.0,255.0
142,7.1000000000000005,1.200154202739091,-10.2012078644222,-1.7037496050141425,-0.08295337817387782,0.08249849816399646,-0.4705046434277471,-0.010036276583180737,0.011961912560565224,-0.059229760892520744,0.0,70.0,255.0,255.0,255.0
143,7.15,1.19599401041332,-10.197067922987605,-1.7273487470560938,-0.0834339150179586,0.08309796416886783,-0.4734921799171343,-0.00928187162745342,0.011920046208047097,-0.06040022061144512,0.0,70.0,255.0,255.0,255.0
144,7.2,1.1918108112372952,-10.192898068005313,-1.751098823005856,-0.08388156533662317,0.08369050278480117,-0.47654466548889163,-0.008850432462281788,0.011701130534369497,-0.061669522010565636,0.0,70.0,255.0,255.0,255.0
145,7.25,1.1876058538796577,-10.188698872709125,-1.775003213604983,-0.08431895826418678,0.08426807722230478,-0.4796591321181909,-0.009013516551137357,0.011334910694493772,-0.06274033242428256,0.0,70.0,255.0,255.0,255.0
146,7.300000000000001,1.1833789154108765,-10.184471260283082,-1.799064736217675,-0.0847829169917369,0.08482399385425055,-0.4828186987313199,-0.009889711254240652,0.010851997940974911,-0.06343691761048209,0.0,70.0,255.0,255.0,255.0
147,7.3500000000000005,1.179127562180484,-10.1802164733237,-1.823285083478115,-0.08530792938961085,0.08535327701640227,-0.4860028238792391,-0.011239576362354065,0.01031068560379822,-0.06374558738817537,0.0,70.0,255.0,255.0,255.0
148,7.4,1.1748481224719154,-10.175935932581442,-1.847665018605599,-0.08590687462797231,0.08585506241463037,-0.4891932574701374,-0.012622827487596133,0.009805351353264768,-0.06369921230584552,0.0,70.0,255.0,255.0,255.0
149,7.45,1.1705368747176867,-10.171630967082237,-1.8722044092251287,-0.08657021213837046,0.08633381215172875,-0.49237274510982365,-0.013595796824805717,0.009439878626515963,-0.06332882597246403,0.0,70.0,255.0,255.0,255.0
150,7.5,1.1661911012580783,-10.16730255136627,-1.8969022931165813,-0.08726645431045288,0.08679905027728196,-0.4955261400673838,-0.013714409266385452,0.009308357889814545,-0.06267265461035176,0.0,70.0,255.0,255.0,255.0
151,7.550000000000001,1.1618102292866415,-10.162951062054509,-1.921757023231867,-0.087941653065009,0.0872646479407102,-0.4986400105708588,-0.012770466938216707,0.009453807892789712,-0.061777438317478506,0.0,70.0,255.0,255.0,255.0
152,7.6000000000000005,1.1573969359515774,-10.158576086572198,-1.9467662941736672,-0.08854350100427455,0.08774443106656094,-0.5017038838991317,-0.011057072979303584,0.009830869498728134,-0.06074956787638364,0.0,70.0,255.0,255.0,255.0
153,7.65,1.152955879186214,-10.154176618947853,-1.9719274116217802,-0.08904736036293937,0.08824773489058302,-0.5047149673584972,-0.009136841732182432,0.01034218474131876,-0.05976460848677867,0.0,70.0,255.0,255.0,255.0
154,7.7,1.1484921999152835,-10.14975131308314,-1.997237790909517,-0.08945718517749279,0.08877864954069281,-0.5076803447478095,-0.007578501450411501,0.010879867779500785,-0.05901983610436812,0.0,70.0,255.0,255.0,255.0
155,7.75,1.1440101606684647,-10.145298753993783,-2.022695446096561,-0.08980521050798052,0.0893357216685331,-0.510616950968934,-0.006940781115227779,0.011343639097205482,-0.05870909575436123,0.0,70.0,255.0,255.0,255.0
156,7.800000000000001,1.1395116788644855,-10.140817740916287,-2.0482994860064103,-0.09015126328901557,0.08991301345041336,-0.5135512543232457,-0.00750208066671032,0.011673283307800375,-0.0589205552267158,0.0,70.0,255.0,255.0,255.0
157,7.8500000000000005,1.1349950343395632,-10.136307452648742,-2.0740505715288857,-0.09055541857465155,0.09050304999931313,-0.5165090064916056,-0.008996840345187884,0.011849472766733982,-0.05952896161915966,0.0,70.0,255.0,255.0,255.0
158,7.9,1.1304561370070203,-10.131767435916355,-2.099950386655571,-0.09105094732353436,0.09109796072708676,-0.5195041504851616,-0.010884257797938446,0.011861434158610962,-0.060288694073484805,0.0,70.0,255.0,255.0,255.0
159,7.95,1.1258899396072097,-10.127197656576033,-2.126000986577402,-0.09164384435444539,0.09168919341517423,-0.5225378758989541,-0.012617563340922011,0.011701163075272802,-0.06093905571735725,0.0,70.0,255.0,255.0,255.0
160,8.0,1.1212917525715758,-10.122598516574838,-2.1522041742454663,-0.09231270365762656,0.09226807703461404,-0.5255980560568974,-0.013666522216881916,0.011361095043582736,-0.061210962371971434,0.0,70.0,255.0,255.0,255.0
161,8.05,1.116658669241447,-10.117970848872572,-2.1785607921830916,-0.09301049657613358,0.0928253029195325,-0.5286589721361512,-0.013748576362382359,0.010852033234520775,-0.060967566882874635,0.0,70.0,255.0,255.0,255.0
162,8.1,1.1119907029139624,-10.113315986282885,-2.2050700714590814,-0.0936875612938648,0.09335328035806612,-0.5316948127451848,-0.01301001785436462,0.010252078597439152,-0.06034092597340113,0.0,70.0,255.0,255.0,255.0
163,8.15,1.1072899131120606,-10.108635520836765,-2.23173027345761,-0.09431149836157005,0.09385051077927642,-0.5346930647334913,-0.011790835700620228,0.009692917784853705,-0.059593435732141486,0.0,70.0,255.0,255.0,255.0
164,8.200000000000001,1.1025595530778054,-10.103930935204957,-2.2585393779324305,-0.09486664486392682,0.09432257213655149,-0.537654156318399,-0.01043161814631155,0.009314454277031814,-0.058984313986742976,0.0,70.0,255.0,255.0,255.0
165,8.25,1.097803248625668,-10.09920326362311,-2.28549568908945,-0.0953546601762012,0.0947819562069796,-0.5405914961321656,-0.00925709272134867,0.00925599005370259,-0.05877898948920546,0.0,70.0,255.0,255.0,255.0
166,8.3,1.0930240870601853,-10.09445273958426,-2.312598527545647,-0.09579235413606169,0.09524817114192174,-0.5435320552673195,-0.008461935562031897,0.009579096574618973,-0.05910903738164386,0.0,70.0,255.0,255.0,255.0
167,8.35,1.0882240132120617,-10.089678446508918,-2.339848894616182,-0.09620085373240439,0.0957398658644415,-0.54650239987033,-0.0080748831090105,0.010177737318350921,-0.05982192656213137,0.0,70.0,255.0,255.0,255.0
168,8.4,1.0834040016869448,-10.084878752997815,-2.36724876753268,-0.09659984244696274,0.09626594487375684,-0.5495142479235327,-0.008083122010327237,0.01085053106599787,-0.06062297092324087,0.0,70.0,255.0,255.0,255.0
169,8.450000000000001,1.0785640289673655,-10.080051852021542,-2.394800319408535,-0.09700916593343711,0.09682491897104128,-0.5525646969626541,-0.008481138899019136,0.011388245923527052,-0.061223828195888785,0.0,70.0,255.0,255.0,255.0
170,8.5,1.0737030850936011,-10.07519626110071,-2.4225052372289455,-0.09744795633686465,0.09740476946610954,-0.5556366307431215,-0.009269116221832796,0.011578954065072367,-0.061341144939053294,0.0,70.0,255.0,255.0,255.0
171,8.55,1.068819233333679,-10.070311375074931,-2.4503639824828474,-0.0979360775556204,0.09798281437754852,-0.5586988114565594,-0.010412445958296601,0.011318293753959097,-0.0608359106302192,0.0,70.0,255.0,255.0,255.0
172,8.6,1.063909477338039,-10.065397979662956,-2.4783751183746014,-0.09848920093269431,0.09853659884150545,-0.5617202218061434,-0.011728771387709003,0.010722380054417613,-0.05985854726571205,0.0,70.0,255.0,255.0,255.0
173,8.65,1.0589703132404096,-10.06045771519078,-2.5065360046634617,-0.0991089546943913,0.09905505238299028,-0.5646846661831306,-0.012914997936497308,0.010019550025752721,-0.05870834024843674,0.0,70.0,255.0,255.0,255.0
174,8.700000000000001,1.0539985818686,-10.055492474424657,-2.5348435849929145,-0.09978070072634404,0.09953855384408072,-0.5675910558309871,-0.013652590826573885,0.00943913545672359,-0.05768643383547989,0.0,70.0,255.0,255.0,255.0
175,8.75,1.0489922431677752,-10.050503859806373,-2.5632951102465604,-0.10047421377704868,0.09999896592866264,-0.5704533095666786,-0.013630451715274106,0.009212156390070447,-0.05708440278286986,0.0,70.0,255.0,255.0,255.0
176,8.8,1.043951160490895,-10.04549257783179,-2.5918889159495824,-0.10114374589787145,0.10045976948308777,-0.5732994961092741,-0.012713455429835818,0.009454301836342438,-0.05705389352415047,0.0,70.0,255.0,255.0,255.0
177,8.85,1.038877868577988,-10.040457882858064,-2.620625059857488,-0.10174555932003226,0.10094439611229689,-0.5761586989190937,-0.011140753950766857,0.010047334538221264,-0.05749577248659321,0.0,70.0,255.0,255.0,255.0
178,8.9,1.0337766045588919,-10.035398138220561,-2.6495047858414917,-0.10225782129294814,0.1014645029369099,-0.5790490733579334,-0.009368681115695665,0.010756676753942429,-0.058191779971084046,0.0,70.0,255.0,255.0,255.0
179,8.950000000000001,1.0286520864486932,-10.030311432564373,-2.678529967193281,-0.10268242743160183,0.10202006378769113,-0.5819778769162021,-0.007873532759905544,0.011348638824060231,-0.05891714974897155,0.0,70.0,255.0,255.0,255.0
180,9.0,1.0235083618157317,-10.025196131841792,-2.707702573533112,-0.10304517456893869,0.10259936681931592,-0.5849407883328306,-0.007125067592839152,0.011588457673639141,-0.059441243929780896,0.0,70.0,255.0,255.0,255.0
181,9.05,1.0183475689917993,-10.020051495882441,-2.7370240460265642,-0.10339493419088575,0.10317890955505504,-0.5879220013091802,-0.007360305748749241,0.011357925473731711,-0.05963625420077889,0.0,70.0,255.0,255.0,255.0
182,9.1,1.013168868396643,-10.014878240886286,-2.76649477366403,-0.10378120514381362,0.10373515936668909,-0.5909044137529085,-0.008374692995594124,0.010773689715826151,-0.05956293155193748,0.0,70.0,255.0,255.0,255.0
183,9.15,1.007969448477418,-10.009677979945772,-2.796114487401855,-0.10423240349044516,0.10425627852663766,-0.5938782944643739,-0.00974379741444098,0.010068335031654385,-0.059358292781164224,0.0,70.0,255.0,255.0,255.0
184,9.200000000000001,1.0027456280475986,-10.004452613033623,-2.8258826031104674,-0.10475558488525771,0.10474199286985453,-0.5968402430310249,-0.01103341799426616,0.009472882674899097,-0.05915256623651999,0.0,70.0,255.0,255.0,255.0
185,9.25,0.9974938899888922,-9.999203780658787,-2.8557985117049576,-0.10533574528987177,0.10520356679412757,-0.5997935510880259,-0.011805315209156841,0.009217975621922392,-0.05909057487820668,0.0,70.0,255.0,255.0,255.0
186,9.3,0.9922120535186114,-9.99393225635421,-2.88586195821927,-0.1059361164061734,0.10566379043204677,-0.6027493005188456,-0.011826487076138648,0.009420569694107428,-0.059247150278807226,0.0,70.0,255.0,255.0,255.0
187,9.35,0.9869002783482749,-9.988637401615582,-2.916073441756842,-0.10651839399748564,0.10614562376353831,-0.6057182661159066,-0.011250450756872254,0.009972498670407504,-0.059531568904169774,0.0,70.0,255.0,255.0,255.0
188,9.4,0.9815602141188629,-9.983317693977856,-2.9464337848308606,-0.10706116148186062,0.10666104029908752,-0.6087024574092625,-0.010404474214897874,0.010655391044522844,-0.059776820465939906,0.0,70.0,255.0,255.0,255.0
189,9.450000000000001,0.9761941622000888,-9.977971297585674,-2.9769436874977684,-0.10755884141897543,0.1072111628679906,-0.6116959481625006,-0.009606967757436191,0.011253257051357934,-0.05983221234493463,0.0,70.0,255.0,255.0,255.0
190,9.5,0.9708043299769653,-9.972596577691057,-3.0076033796471107,-0.10802185825760424,0.10778636600422331,-0.614685678643756,-0.009177587654474184,0.011555677136954046,-0.059552540473761795,0.0,70.0,255.0,255.0,255.0
191,9.55,0.9653919763743284,-9.967192660985251,-3.038412255362144,-0.10847660018442284,0.108366730581686,-0.6176512022098768,-0.009286379979212,0.011453222322543866,-0.058874258903163224,0.0,70.0,255.0,255.0,255.0
192,9.600000000000001,0.959956669958523,-9.961759904632888,-3.0693684998680983,-0.10895049625552544,0.1089316882364777,-0.6205731045340723,-0.009817163650527316,0.01102172352673847,-0.05791433595456752,0.0,70.0,255.0,255.0,255.0
193,9.65,0.9544969267487758,-9.956299492161603,-3.100469565815551,-0.10945831654947558,0.10946890293435985,-0.6234426358053335,-0.010525485213108698,0.010424692864496876,-0.05689256055307901,0.0,70.0,255.0,255.0,255.0
194,9.700000000000001,0.9490108383035755,-9.950813014339452,-3.1317127634486317,-0.11000304477683631,0.10997415752292738,-0.6262623605893802,-0.011178338015760403,0.009827375833637575,-0.05603084545620085,0.0,70.0,255.0,255.0,255.0
195,9.75,0.9434966222710922,-9.94530207640931,-3.1630958018744892,-0.11057615035105162,0.1104516405177236,-0.6290457203509536,-0.011552399441050465,0.009395306507187229,-0.055535253902849746,0.0,70.0,255.0,255.0,255.0
196,9.8,0.9379532232684703,-9.93976785028768,-3.194617335483727,-0.11115828472094136,0.11091368817364611,-0.6318158859796652,-0.011528132867011376,0.009219314906694365,-0.055509613642135136,0.0,70.0,255.0,255.0,255.0
197,9.850000000000001,0.9323807937989981,-9.934210707591946,-3.2262773904724558,-0.11172896363775275,0.11137357200839304,-0.6345966817151671,-0.01116630256637885,0.009256970858473323,-0.05588390778998864,0.0,70.0,255.0,255.0,255.0
198,9.9,0.926780326904695,-9.92863049308684,-3.2580770036552438,-0.11227491497757924,0.11183938525949344,-0.6374042767586641,-0.010608177007320752,0.009410313022861772,-0.05649927764825868,0.0,70.0,255.0,255.0,255.0
199,9.950000000000001,0.9211533023012402,-9.923026769065997,-3.290017818148322,-0.11278978133848483,0.11231460331067922,-0.640246609479993,-0.009992966892868882,0.009583440081151195,-0.05718491865120967,0.0,70.0,255.0,255.0,255.0
200,10.0,0.9155013487708465,-9.917399032755773,-3.322101664603243,-0.11327421166686613,0.11279772926760856,-0.643122768623785,-0.009448805257317172,0.009671115482667858,-0.05777441594294608,0.0,70.0,255.0,255.0,255.0
201,10.05,0.9098258811345535,-9.911746996139236,-3.3543300950107007,-0.11373466186421655,0.113281714858946,-0.6460240510742876,-0.009053862445473904,0.009616744156026868,-0.05816831216907126,0.0,70.0,255.0,255.0,255.0
202,10.100000000000001,0.9041278825844249,-9.906070861269878,-3.386704069710672,-0.11417959791141352,0.11375940368321125,-0.6489395998406922,-0.008833989720280488,0.009471325439314171,-0.058354601649668325,0.0,70.0,255.0,255.0,255.0
203,10.15,0.8984079213434122,-9.900371055770915,-3.41922405499477,-0.1146180608362446,0.11422884740287742,-0.6518595112392545,-0.008806282282070033,0.009332283483409753,-0.058344081767813805,0.0,70.0,255.0,255.0,255.0
204,10.200000000000001,0.8926660765008004,-9.89464797652959,-3.4518900208345973,-0.11506022613962053,0.11469263203155222,-0.6547740080174735,-0.00898928159231982,0.009285950090109907,-0.05814379229351907,0.0,70.0,255.0,255.0,255.0
205,10.25,0.8869018987294501,-9.88890179256776,-3.4847014557965172,-0.11551698899547658,0.11515744241188841,-0.6576738904686064,-0.009408370205699068,0.009416175618959244,-0.05775906367726513,0.0,70.0,255.0,255.0,255.0
206,10.3,0.8811143776012528,-9.883132232288402,-3.517657409881458,-0.11600106316019043,0.11563424959344815,-0.6605499143852,-0.010057442992017496,0.009760794715596433,-0.057209398753999,0.0,70.0,255.0,255.0,255.0
207,10.350000000000001,0.8753017924134311,-9.877338367608415,-3.5507564472350372,-0.11652273329467833,0.11613352188344805,-0.6633948303440063,-0.010816899391652424,0.010255955821136808,-0.05657852477201075,0.0,70.0,255.0,255.0,255.0
208,10.4,0.8694621042717849,-9.871518880100057,-3.5839968929158585,-0.11708275309935567,0.11665984517556183,-0.6662077668624011,-0.011485854703607856,0.010781485445576777,-0.056005234440936746,0.0,70.0,255.0,255.0,255.0
209,10.450000000000001,0.8635935171034955,-9.865672383090859,-3.6173772239212774,-0.11767131876503911,0.11721167042800573,-0.6689953537880999,-0.01185764566556946,0.011219985666421906,-0.05563888653385973,0.0,70.0,255.0,255.0,255.0
210,10.5,0.857694972395281,-9.859797713057256,-3.6508964282946685,-0.11826851766591262,0.11778184374220402,-0.6717716555157871,-0.01172573256793541,0.011472200688622536,-0.05563333867257825,0.0,70.0,255.0,255.0,255.0
211,10.55,0.8517666653369043,-9.853894198716638,-3.684554389472856,-0.11884389202183265,0.11835889049686799,-0.6745586876553578,-0.011002053232167519,0.011486277447225746,-0.0560546056355804,0.0,70.0,255.0,255.0,255.0
212,10.600000000000001,0.8458105831930978,-9.84796182400757,-3.7183522970602043,-0.11936872298912937,0.11893047148692659,-0.6773771160793451,-0.009864659799307951,0.011269326800800172,-0.05676682373709774,0.0,70.0,255.0,255.0,255.0
213,10.65,0.8398297930379913,-9.842001151567946,-3.7522921010807906,-0.11983035800176345,0.119485823176948,-0.6802353700290675,-0.008645730138945318,0.0108581383718942,-0.05751861683211956,0.0,70.0,255.0,255.0,255.0
214,10.700000000000001,0.8338275473929214,-9.836013241689875,-3.786375834063111,-0.1202332960030239,0.12001628532411601,-0.6831289777625571,-0.007685683530989085,0.010300307710409129,-0.058054600965418146,0.0,70.0,255.0,255.0,255.0
215,10.75,0.8278064634376889,-9.829999523035534,-3.8206049988570463,-0.12059892635486236,0.12051585394798892,-0.6860408301256093,-0.007316671550516851,0.009635068245827938,-0.05812361892845175,0.0,70.0,255.0,255.0,255.0
216,10.8,0.8217676547574352,-9.823961656295076,-3.854979917075672,-0.12096496315807559,0.1209797921486988,-0.6889413396554023,-0.007701430326345626,0.008899783139959538,-0.05760509245655854,0.0,70.0,255.0,255.0,255.0
217,10.850000000000001,0.8157099671218814,-9.817901543820664,-3.8894991328225865,-0.12136906938749692,0.12140583226198487,-0.6918013393712652,-0.008674577961276242,0.008184872173977453,-0.05664135976664042,0.0,70.0,255.0,255.0,255.0
218,10.9,0.8096307478186855,-9.811821073068877,-3.9241600510127985,-0.12183242095420321,0.12179827936609655,-0.6946054756320663,-0.009900269029727848,0.0076295041923302165,-0.05551395790419633,0.0,70.0,255.0,255.0,255.0
219,10.950000000000001,0.803526725026461,-9.805721715884054,-3.958959680385793,-0.1223590962904697,0.12216878268121789,-0.6973527351616848,-0.011033559604367582,0.007371044563520002,-0.05450877021022649,0.0,70.0,255.0,255.0,255.0
220,11.0,0.7973948381896385,-9.799604194800756,-3.993895324528967,-0.12293577691463997,0.12253538382244855,-0.700056352653089,-0.011735599878004432,0.007535498354016568,-0.05390015764148437,0.0,70.0,255.0,255.0,255.0
221,11.05,0.7912331473349971,-9.79346817750181,-4.028965315651102,-0.12353265627827015,0.12292233251661955,-0.7027427509258333,-0.011826164856332255,0.008169415168168825,-0.05383159796501502,0.0,70.0,255.0,255.0,255.0
222,11.100000000000001,0.7850415725618115,-9.787311961549094,-4.06416959962155,-0.1241183934002732,0.12335232533926543,-0.7054395124495905,-0.011406072644659648,0.00914586981988208,-0.05421962530856028,0.0,70.0,255.0,255.0,255.0
223,11.15,0.7788213079949697,-9.781132944967883,-4.099509266896061,-0.12467326354273611,0.12383691949860776,-0.7081647134566893,-0.01070331029235927,0.010226642061184066,-0.054873663439014564,0.0,70.0,255.0,255.0,255.0
224,11.200000000000001,0.7725742462075379,-9.774928269599233,-4.134986070967219,-0.12518872442950912,0.12437498954538384,-0.7109268787934919,-0.009947164298529376,0.011157052495214259,-0.0555970314799481,0.0,70.0,255.0,255.0,255.0
225,11.25,0.7663024355520188,-9.768695446013345,-4.17060195477541,-0.12566797997258905,0.12495262474812918,-0.7137244166046841,-0.009368900965378568,0.011690910365302898,-0.05619575050603842,0.0,70.0,255.0,255.0,255.0
226,11.3,0.760007448210279,-9.76243300712442,-4.206358512627688,-0.12612561452604698,0.12554408058191413,-0.7165464538440958,-0.0090994580339121,0.011702556189341351,-0.05655625461109537,0.0,70.0,255.0,255.0,255.0
227,11.350000000000001,0.7536898740994141,-9.756141037955153,-4.24225660015982,-0.12657792577598026,0.12612288036706332,-0.7193800420657936,-0.009096562695520838,0.011279760436622155,-0.05668470776329926,0.0,70.0,255.0,255.0,255.0
228,11.4,0.747349655632681,-9.749820719087714,-4.278296516834267,-0.12703527079559906,0.12667205662557635,-0.7222149246204257,-0.00925273688708872,0.010615815673631346,-0.05662514125370777,0.0,70.0,255.0,255.0,255.0
229,11.450000000000001,0.7409863470198542,-9.743473832292596,-4.314478092621862,-0.12750319946468913,0.12718446193442645,-0.7250425561911644,-0.009470184133886228,0.00991403216819009,-0.05641741622470775,0.0,70.0,255.0,255.0,255.0
230,11.5,0.734599335686212,-9.73710227289427,-4.3508007724533835,-0.1279822892089877,0.12766345984239535,-0.7278566662428965,-0.009648842880494168,0.009380860184293738,-0.0561088216866068,0.0,70.0,255.0,255.0,255.0
231,11.55,0.7281881180989555,-9.730707486308356,-4.387263759246152,-0.12846808375273855,0.12812254795285583,-0.7306534383598251,-0.009729942402070257,0.0091326211460796,-0.05573564466230252,0.0,70.0,255.0,255.0,255.0
232,11.600000000000001,0.7217525273109382,-9.724290018098985,-4.423866116289366,-0.1289552834491947,0.12857672195700331,-0.7334302307091267,-0.009728608974235442,0.00913051967064149,-0.05532238279855051,0.0,70.0,255.0,255.0,255.0
233,11.65,0.715292589754036,-9.717849814112656,-4.460606782317065,-0.1294409446501621,0.12903559991991997,-0.7361856766396802,-0.009683970597440528,0.00927634233161001,-0.05490661070730596,0.0,70.0,255.0,255.0,255.0
234,11.700000000000001,0.708808432845922,-9.711386458106993,-4.497484683953334,-0.12992368050893877,0.12950435619016432,-0.7389208917798573,-0.00962589869971664,0.00947921976486299,-0.05453899126734996,0.0,70.0,255.0,255.0,255.0
235,11.75,0.7023002217031421,-9.70489937849364,-4.5344988714950505,-0.13040353452013376,0.12998352189640627,-0.7416395757664151,-0.009583699540538504,0.009645695516802277,-0.05426500004395152,0.0,70.0,255.0,255.0,255.0
236,11.8,0.6957680793939086,-9.698388105917353,-4.5716486415299755,-0.13088205046299262,0.13046892574184454,-0.7443473917842525,-0.009574059071104646,0.009720898617260332,-0.054107880026599275,0.0,70.0,255.0,255.0,255.0
237,11.850000000000001,0.6892120166568428,-9.691852485919455,-4.608933610673476,-0.13136094042724422,0.1309556117581323,-0.7470503637690751,-0.009589001407672715,0.009719093281645996,-0.05406305707893466,0.0,70.0,255.0,255.0,255.0
238,11.9,0.6826319853511842,-9.68529254474154,-4.646353677906883,-0.1318409506037599,0.13144083507000914,-0.7497536974921459,-0.00961138072312906,0.009677043440703414,-0.0541111198792521,0.0,70.0,255.0,255.0,255.0
239,11.950000000000001,0.6760279215964669,-9.678708402412454,-4.68390898042269,-0.13232207849955713,0.13192331610220265,-0.7524614757570003,-0.009626221067216001,0.009622888307880828,-0.054226618706287866,0.0,70.0,255.0,255.0,255.0
240,12.0,0.6693997775012285,-9.67210021313132,-4.721599825482583,-0.1328035727104815,0.13240312390079723,-0.7551763593627747,-0.009616358957376114,0.009584329775869094,-0.05438716881362993,0.0,70.0,255.0,255.0,255.0
241,12.05,0.6627475643254187,-9.665468090022374,-4.759426616358968,-0.13328371439529474,0.13288174907978956,-0.7579001926383633,-0.009573821313491049,0.009577071095989709,-0.05457334805250014,0.0,70.0,255.0,255.0,255.0
242,12.100000000000001,0.656071406061699,-9.65881203822334,-4.797389844746419,-0.1337609548418306,0.1333608310103962,-0.7606336941680247,-0.009515385395097997,0.009593107201411044,-0.05474632128654733,0.0,70.0,255.0,255.0,255.0
243,12.15,0.6493714688412356,-9.652132006921335,-4.83548998577577,-0.13423525293480454,0.13384105979993066,-0.763374824767018,-0.009470506510067533,0.009615483905633937,-0.054847138212998914,0.0,70.0,255.0,255.0,255.0
244,12.200000000000001,0.6426478807682185,-9.645427932243347,-4.873727327223121,-0.13470800549283735,0.1343223794009596,-0.7661184079893246,-0.009469217031377042,0.009629227005625296,-0.05481504672779636,0.0,70.0,255.0,255.0,255.0
245,12.25,0.6359006682919519,-9.638699768981239,-4.912101826574703,-0.13518217463794224,0.1348039825004932,-0.7688563294397976,-0.009550864629925826,0.009616985381200038,-0.05458632470149993,0.0,70.0,255.0,255.0,255.0
246,12.3,0.6291296633044243,-9.631947533993298,-4.950612960167101,-0.13566309195582993,0.1352840779390796,-0.7715770404594746,-0.009730655674911048,0.009570816998127896,-0.05413821494419935,0.0,70.0,255.0,255.0,255.0
247,12.350000000000001,0.6223343590963689,-9.62517136118733,-4.98925953062065,-0.13615524020543335,0.13576106420030598,-0.7742701509342176,-0.009949457011959595,0.009508477911168711,-0.053553429337060976,0.0,70.0,255.0,255.0,255.0
248,12.4,0.615514139283881,-9.618371427573267,-5.028039975260523,-0.1366580376570259,0.13623492573019647,-0.7769323833931807,-0.010106593236625105,0.0094610209361079,-0.052979394866614626,0.0,70.0,255.0,255.0,255.0
249,12.450000000000001,0.6086685553306663,-9.611547868614311,-5.066952768959968,-0.13716589952909586,0.13670716629391677,-0.779568090420879,-0.010103624093904529,0.00946020367145195,-0.0525659682753421,0.0,70.0,255.0,255.0,255.0
250,12.5,0.6017975493309714,-9.604700710943876,-5.105996784302611,-0.13766840006641634,0.13718094609734166,-0.7821889802207149,-0.009832210494953308,0.009547728700276537,-0.052459513732472374,0.0,70.0,255.0,255.0,255.0
251,12.55,0.5949017153240247,-9.597829774004577,-5.14517166698204,-0.1381491205785912,0.13766193916394442,-0.7848140417941263,-0.009249756453111324,0.009739660910668135,-0.052727591704915255,0.0,70.0,255.0,255.0,255.0
252,12.600000000000001,0.5879826372731123,-9.590934517027481,-5.184478188482023,-0.13859337571172747,0.13815491218840847,-0.7874617393912065,-0.008488558118813216,0.009972981153438809,-0.053275485841375314,0.0,70.0,255.0,255.0,255.0
253,12.65,0.581042377752852,-9.584014282785736,-5.22391784092116,-0.1389979763904725,0.1386592372792883,-0.7901415903782638,-0.007782188142557711,0.010140432348748618,-0.05391891868340437,0.0,70.0,255.0,255.0,255.0
254,12.700000000000001,0.574082839634065,-9.577068593299552,-5.26349234751985,-0.13937159452598324,0.13916895542328334,-0.7928536312595469,-0.007362347199102448,0.010136671594729307,-0.05446830627775512,0.0,70.0,255.0,255.0,255.0
255,12.75,0.5671052183002536,-9.570097387243408,-5.303203204047115,-0.13973421111038276,0.13967290443876124,-0.7955884210060393,-0.007460246770119028,0.009844127791502899,-0.054739629692779346,0.0,70.0,255.0,255.0,255.0
256,12.8,0.5601094185230268,-9.563101302855676,-5.343051189620454,-0.14011761920299515,0.14015336820243363,-0.7983275942288248,-0.00817791758018771,0.009216739826101161,-0.05463813152264407,0.0,70.0,255.0,255.0,255.0
257,12.850000000000001,0.5530934563799541,-9.556082050423164,-5.383035963469998,-0.14055200286840153,0.14059457842137135,-0.8010522341583037,-0.009330063426671309,0.008401369035659911,-0.05423003522340153,0.0,70.0,255.0,255.0,255.0
258,12.9,0.5460542182361866,-9.549041845013539,-5.423156413036284,-0.14105062554566228,0.14099350510599962,-0.803750597751165,-0.010569222957745872,0.007656317268178725,-0.05365952247426975,0.0,70.0,255.0,255.0,255.0
259,12.950000000000001,0.5389883938253879,-9.541982699912564,-5.463411023245114,-0.1416089251641761,0.14136021014818922,-0.8064181864057307,-0.011541439324047609,0.007239170555983776,-0.053074093326266336,0.0,70.0,255.0,255.0,255.0
260,13.0,0.531893325719769,-9.53490582399872,-5.503798231676857,-0.14220476947806704,0.141717422161598,-0.8090580070837916,-0.011898830396572802,0.007415713513303501,-0.052617958172529455,0.0,70.0,255.0,255.0,255.0
261,13.05,0.5247679168775812,-9.527810957696405,-5.544316823953493,-0.1427988082038334,0.14210178149951957,-0.8116799822229837,-0.01147148697908662,0.008300978852382457,-0.05237265609734365,0.0,70.0,255.0,255.0,255.0
262,13.100000000000001,0.5176134448993857,-9.520695645848768,-5.584966229899155,-0.1433519181759757,0.14254752004683624,-0.814295272693526,-0.010441071624445186,0.009655295617072568,-0.05232073690173422,0.0,70.0,255.0,255.0,255.0
263,13.15,0.5104327250599836,-9.513556205691721,-5.625746351222846,-0.1438429153662779,0.14306731106122683,-0.8169120559131571,-0.00917187573742928,0.011038867342882952,-0.05240746694443743,0.0,70.0,255.0,255.0,255.0
264,13.200000000000001,0.5032291533627579,-9.506388914742645,-5.666657435490471,-0.14426910574971863,0.14365140678112454,-0.8195360193879697,-0.008037956110712452,0.01200781168346765,-0.052581520883077104,0.0,70.0,255.0,255.0,255.0
265,13.25,0.49600581448501174,-9.499191065013608,-5.707699953161643,-0.14464671097734916,0.1442680922295736,-0.8221702080014648,-0.0074164129954867875,0.012117074099826652,-0.05279655626431179,0.0,70.0,255.0,255.0,255.0
266,13.3,0.48876448226502295,-9.491962105519688,-5.7488744562906176,-0.1450107470492673,0.1448631141911072,-0.8248156750144009,-0.007502195109587717,0.011158458983295816,-0.053018470195009826,0.0,70.0,255.0,255.0,255.0
267,13.350000000000001,0.481504739780085,-9.484704753594498,-5.790181520663083,-0.14539693048830793,0.14538393812790318,-0.8274720550209658,-0.008136605786557283,0.009429103507940795,-0.05320794957199837,0.0,70.0,255.0,255.0,255.0
268,13.4,0.47422478921619216,-9.477423711706898,-5.831621661792714,-0.14582440762792304,0.14580602454190128,-0.8301364699716007,-0.008993157542391828,0.0074982366692566416,-0.05330883818661647,0.0,70.0,255.0,255.0,255.0
269,13.450000000000001,0.4669222990172927,-9.470124151140308,-5.873195167660243,-0.1462962462425471,0.14613376179482884,-0.8328029388396274,-0.009746363272744585,0.005941703921941155,-0.053260335961269334,0.0,70.0,255.0,255.0,255.0
270,13.5,0.45959516459193744,-9.462810335527415,-5.914901955676677,-0.1467990439551975,0.1464001949340954,-0.8354625035677277,-0.010059573565468494,0.005327924820264229,-0.05299581676991849,0.0,70.0,255.0,255.0,255.0
271,13.55,0.45224239462177296,-9.455484131646898,-5.956741418017016,-0.14730220359909396,0.14666655427685527,-0.8381025205166193,-0.009760385263185567,0.005938844888575545,-0.052492950301363805,0.0,70.0,255.0,255.0,255.0
272,13.600000000000001,0.44486494423202805,-9.44814368009973,-5.998712207728339,-0.14777508248151605,0.14699407942295295,-0.840711798597864,-0.009018845555741617,0.007492998976488252,-0.05184923637280292,0.0,70.0,255.0,255.0,255.0
273,13.65,0.43746488637362135,-9.440784723704603,-6.040812597876802,-0.14820408815466812,0.1474158541745041,-0.8432874441538996,-0.008168314605877525,0.009422638193967714,-0.05123624790881465,0.0,70.0,255.0,255.0,255.0
274,13.700000000000001,0.43004453541656124,-9.433402094682279,-6.083040952143729,-0.1485919139421038,0.14793634324234972,-0.8458354233887455,-0.007530250471993183,0.011152738595399114,-0.05082990916349672,0.0,70.0,255.0,255.0,255.0
275,13.75,0.422605694979411,-9.425991089380368,-6.125396140215677,-0.14895711320186744,0.148531128034044,-0.8483704350702492,-0.007425199502480995,0.012115282562419338,-0.0508121580072185,0.0,70.0,255.0,255.0,255.0
276,13.8,0.4151488240963745,-9.418548981878875,-6.167877995650754,-0.1493344338923519,0.14914787149859166,-0.8509166391894674,-0.008009923511276273,0.012013527429921567,-0.051263528133649316,0.0,70.0,255.0,255.0,255.0
277,13.850000000000001,0.4076722515901758,-9.411076302230509,-6.210487804134623,-0.14975810555299507,0.14973248077703616,-0.8534967878836142,-0.009100832503344813,0.011053352802470329,-0.05203062941392389,0.0,70.0,255.0,255.0,255.0
278,13.9,0.400173013541075,-9.403575733801171,-6.253227674439115,-0.15024451714268638,0.1502532067788387,-0.8561197021308597,-0.010339924360497355,0.009675919179308323,-0.052829806541687674,0.0,70.0,255.0,255.0,255.0
279,13.950000000000001,0.39264779987590714,-9.396050981552625,-6.296099774347709,-0.1507920979890448,0.150700072694967,-0.8587797685377829,-0.011373287519933495,0.008321001368472025,-0.05337396677695949,0.0,70.0,255.0,255.0,255.0
280,14.0,0.3850938037421705,-9.388505726531674,-6.339105651292893,-0.15138184589467973,0.1510853069156859,-0.8614570988085557,-0.011863684368562666,0.007422879661689308,-0.05337158849716417,0.0,70.0,255.0,255.0,255.0
281,14.05,0.37750961528643917,-9.380942450861056,-6.382245484228565,-0.15197846642590107,0.15144236066113592,-0.8641169273874993,-0.011639547731312483,0.0072191666049548076,-0.052685850918177124,0.0,70.0,255.0,255.0,255.0
282,14.100000000000001,0.3698959570995804,-9.37336149046556,-6.425517344031643,-0.15254580066781098,0.15180722357618137,-0.8667256839003734,-0.010827707880822768,0.007603613124018693,-0.05151542545984711,0.0,70.0,255.0,255.0,255.0
283,14.15,0.3622550352196581,-9.365761728503438,-6.468918052618602,-0.15306123721398335,0.1522027219735378,-0.8692684699334841,-0.00970294366312019,0.008325340099268885,-0.050238185597084595,0.0,70.0,255.0,255.0,255.0
284,14.200000000000001,0.35458983337818206,-9.358141218268207,-6.512444191024992,-0.153516095034123,0.15263975758610826,-0.8717495024600819,-0.008549373341038002,0.009142370150705403,-0.0492335710472247,0.0,70.0,255.0,255.0,255.0
285,14.25,0.3469034257162458,-9.350497752744827,-6.5560930028646105,-0.15391617454808715,0.15311695898860833,-0.8741918270382065,-0.007644072347229303,0.009817254735544623,-0.04887743206074546,0.0,70.0,255.0,255.0,255.0
286,14.3,0.33919821592337335,-9.342829522369346,-6.599863373728812,-0.15428050226884593,0.15362148305966272,-0.8766372456661564,-0.007144146635751358,0.010210971650792544,-0.04935344115351015,0.0,70.0,255.0,255.0,255.0
287,14.350000000000001,0.3314753754893612,-9.335135604438861,-6.643756727431226,-0.15463058921166228,0.15413805615368759,-0.8791271711535575,-0.0070210632460987465,0.010336763465446097,-0.050457785296487145,0.0,70.0,255.0,255.0,255.0
288,14.4,0.3237351570022071,-9.327415716753977,-6.687776090844168,-0.1549826085934558,0.15465515940620733,-0.8816830241958051,-0.007177252035989179,0.01025647333623425,-0.0517864953596181,0.0,70.0,255.0,255.0,255.0
289,14.450000000000001,0.3159771146300156,-9.31967008849824,-6.731925029850807,-0.1553483144152612,0.155163703487311,-0.8843058206895194,-0.007514906761640905,0.01002383038457566,-0.05293240171519997,0.0,70.0,255.0,255.0,255.0
290,14.5,0.308200325560681,-9.311899346405246,-6.77620667291312,-0.1557340992696199,0.1556575424446649,-0.8869762643673251,-0.007924035566486687,0.009700082749475314,-0.053498729879652984,0.0,70.0,255.0,255.0,255.0
291,14.55,0.3004037047030536,-9.304104334253774,-6.820622656287539,-0.15614071797190987,0.15613371176225854,-0.8896556936774846,-0.00833211747389706,0.0093292078627627,-0.053280524327625756,0.0,70.0,255.0,255.0,255.0
292,14.600000000000001,0.29258625376349,-9.29628597522902,-6.8651722422808685,-0.1565673110170096,0.15659046323094117,-0.8923043168000877,-0.008728132374868913,0.00893017217400427,-0.05242424920464117,0.0,70.0,255.0,255.0,255.0
293,14.65,0.28474697360135265,-9.28844528793068,-6.909853087967548,-0.15701353120939676,0.15702672897965897,-0.8948981185979488,-0.009105437470352529,0.00852960571773309,-0.05124501711399887,0.0,70.0,255.0,255.0,255.0
294,14.700000000000001,0.27688490064255034,-9.280583302331054,-6.954662054140663,-0.15747785476404486,0.15744342380271448,-0.8974288185114876,-0.009439111500508801,0.00816799595764195,-0.0500633955193841,0.0,70.0,255.0,255.0,255.0
295,14.75,0.26899918812494816,-9.272700945550408,-6.999595969818697,-0.15795744235944764,0.15784352857542316,-0.8999044581498872,-0.009711720118715794,0.007878451561360578,-0.04919962977192327,0.0,70.0,255.0,255.0,255.0
296,14.8,0.26108915640660557,-9.264798949473512,-7.044652499955652,-0.15844902677591644,0.15823126895885054,-0.9023487814886799,-0.009913956895277187,0.007678910184516496,-0.048830009321054746,0.0,70.0,255.0,255.0,255.0
297,14.850000000000001,0.2531542854473565,-9.256877818654523,-7.089830847967565,-0.15894883804897536,0.15861141959387481,-0.9047874590819927,-0.010029111217124687,0.007579843875760162,-0.04887794515822108,0.0,70.0,255.0,255.0,255.0
298,14.9,0.24519427260170804,-9.248937807514125,-7.135131245863851,-0.1594519378976289,0.15898925334642655,-0.907236576004502,-0.010038294119885105,0.007587807756159748,-0.04916238723353672,0.0,70.0,255.0,255.0,255.0
299,14.950000000000001,0.23720909165759363,-9.24097889331988,-7.180554505568015,-0.15995266746096387,0.1593702003694908,-0.9097036978053463,-0.00993536052306121,0.007697472498691127,-0.04950641713969972,0.0,70.0,255.0,255.0,255.0
300,15.0,0.22919900585561165,-9.233000787477176,-7.226101615644386,-0.16044547394993502,0.15975900059629566,-0.912187217718472,-0.009725121254677838,0.00789007370745054,-0.04971878832824572,0.0,70.0,255.0,255.0,255.0
301,15.05,0.22116454426260013,-9.22500299326025,-7.271773227339862,-0.16092517958643165,0.16015920774023584,-0.9146755766381709,-0.009417742590694944,0.008149463753071018,-0.04969389060214269,0.0,70.0,255.0,255.0,255.0
302,15.100000000000001,0.21310648789696848,-9.216984866703152,-7.317569173308203,-0.16138724820900452,0.16057394697160277,-0.9171566067786863,-0.009036261917463873,0.008469613162453982,-0.049505834964769235,0.0,70.0,255.0,255.0,255.0
303,15.15,0.20502581944169967,-9.20894559856309,-7.363488888017731,-0.16182880577817804,0.16100616905648124,-0.9196261601346478,-0.00862222521094691,0.008838324098725536,-0.04930189082905656,0.0,70.0,255.0,255.0,255.0
304,15.200000000000001,0.19692360731915068,-9.200884249797504,-7.409531789321668,-0.1622494707300992,0.16145777938147532,-0.9220867958615919,-0.008225134052933236,0.009236426402736697,-0.049211821702765945,0.0,70.0,255.0,255.0,255.0
305,15.25,0.18880087236868975,-9.192799820624943,-7.45569756760389,-0.16265131918347137,0.1619298116967549,-0.9245473423049244,-0.007883832158583903,0.00966521631067252,-0.04936913299804502,0.0,70.0,255.0,255.0,255.0
306,15.3,0.18065847540080354,-9.184691268627828,-7.50198652355216,-0.1630378539459576,0.16242430101254257,-0.9270237091613964,-0.007621786028688682,0.010116521517034016,-0.049834801230641546,0.0,70.0,255.0,255.0,255.0
307,15.350000000000001,0.172497086974094,-9.176557390523689,-7.5483999385200296,-0.16341349778634023,0.1629414638484583,-0.9295308224279886,-0.0074631371503181,0.010504407437750274,-0.050496943421851626,0.0,70.0,255.0,255.0,255.0
308,15.4,0.16431712562216952,-9.168397122242983,-7.594939605794959,-0.1637841676609894,0.1634747417563176,-0.9320734035035816,-0.00743550899902079,0.010696191886871986,-0.05115098185131117,0.0,70.0,255.0,255.0,255.0
309,15.450000000000001,0.15611867020799505,-9.160209916348057,-7.641607278870388,-0.1641570486862423,0.1640110830371455,-0.9346459206131197,-0.007557389978501972,0.010570248464070175,-0.051600235442705866,0.0,70.0,255.0,255.0,255.0
310,15.5,0.1479014207535453,-9.151996013939268,-7.688404197856271,-0.1645399066588396,0.16453176660272462,-0.9372334270478522,-0.007843512814909026,0.00999712631575278,-0.05166472629918317,0.0,70.0,255.0,255.0,255.0
311,15.55,0.1396646795421111,-9.143756739687785,-7.735330621575173,-0.16494139996773322,0.1650107956687208,-0.939812393243038,-0.008289425648859428,0.008936338291221091,-0.051259305407391764,0.0,70.0,255.0,255.0,255.0
312,15.600000000000001,0.13140728075677197,-9.135494934372396,-7.782385437180575,-0.16536884922372555,0.16542540043184673,-0.9423593575885914,-0.008830350320454539,0.007595367811141784,-0.05047263843476202,0.0,70.0,255.0,255.0,255.0
313,15.65,0.12312779461973854,-9.1272141996446,-7.829566557334032,-0.16582443499977867,0.16577033244983497,-0.9448596570865142,-0.009354899632153801,0.006336815112817362,-0.04948961300179633,0.0,70.0,255.0,255.0,255.0
314,15.700000000000001,0.1148248372567941,-9.118917901127412,-7.876871402889226,-0.16630433918694093,0.16605908194312846,-0.947308318888771,-0.009746331674086173,0.005527614703915162,-0.04850621088481333,0.0,70.0,255.0,255.0,255.0
315,15.75,0.10649736070104444,-9.110608291450287,-7.924297389222909,-0.1667990681671873,0.16632309392022648,-0.9497102781749955,-0.009898107257716449,0.005530241130102809,-0.04770398977660406,0.0,70.0,255.0,255.0,255.0
316,15.8,0.09814493044007537,-9.10228559173539,-7.971842430706726,-0.16729414991271258,0.16661210605613874,-0.9520787178664314,-0.009759998555347593,0.006506237207837273,-0.047187464318465544,0.0,70.0,255.0,255.0,255.0
317,15.850000000000001,0.08976794570977319,-9.093947080844673,-8.019505261009552,-0.16777506802272205,0.1669737176410102,-0.9544290246068421,-0.009379937092393598,0.008183398708005996,-0.04696616251340657,0.0,70.0,255.0,255.0,255.0
318,15.9,0.08136742363780317,-9.085588219971289,-8.06728533316741,-0.16823214362195194,0.16743044592693934,-0.956775334117772,-0.00886125610875671,0.010044752788829214,-0.04701774563002914,0.0,70.0,255.0,255.0,255.0
319,15.950000000000001,0.07294473134757799,-9.07720403625198,-8.11518279442133,-0.16866119363359772,0.16797819291989313,-0.959130799169845,-0.008316770504620263,0.011560971039870083,-0.04731440819671917,0.0,70.0,255.0,255.0,255.0
320,16.0,0.0645013042744434,-9.0687904006793,-8.163198413084395,-0.16906382067241396,0.16858654303092635,-0.961506774937444,-0.007852076802190855,0.012217946460602036,-0.047831295945677255,0.0,70.0,255.0,255.0,255.0
321,16.05,0.056038349280336595,-9.060345381948887,-8.211333471915074,-0.1694464013138168,0.16919998756595334,-0.9639139287644127,-0.0075300673092271175,0.011758339919509808,-0.04853237578075209,0.0,70.0,255.0,255.0,255.0
322,16.1,0.047556664143061714,-9.051870401922704,-8.259589805960836,-0.16981682740333667,0.16976237702287733,-0.9663600125155192,-0.007366264946406242,0.010406328731882297,-0.0493028047520383,0.0,70.0,255.0,255.0,255.0
323,16.150000000000002,0.03905666654000293,-9.043369144246599,-8.307969473166626,-0.17018302780845743,0.17024062043914157,-0.9688442092396166,-0.007364551457335611,0.00862972151551844,-0.0499567937554346,0.0,70.0,255.0,255.0,255.0
324,16.2,0.03053836136221597,-9.03484633987879,-8.356474226884798,-0.17055328254907023,0.17062534917442918,-0.9713556918910626,-0.007526073486870677,0.006907848455561805,-0.05029769479012458,0.0,70.0,255.0,255.0,255.0
325,16.25,0.022001338285095904,-9.026306609329156,-8.405105042355732,-0.1709356351571445,0.17093140528469775,-0.973873978718629,-0.00784957620944271,0.005705945055822781,-0.05012681711669131,0.0,70.0,255.0,255.0,255.0
326,16.3,0.013444797846501521,-9.01775319935032,-8.45386162475666,-0.1713382401700145,0.17119594368001145,-0.9763683736027318,-0.008320757848759297,0.005279237613109444,-0.049362006917341716,0.0,70.0,255.0,255.0,255.0
327,16.35,0.004867514268094452,-9.009187014961155,-8.502741879716005,-0.17176771094202042,0.1714593290460087,-0.9788101794103632,-0.00887416396121471,0.005538605711841171,-0.048188865565457206,0.0,70.0,255.0,255.0,255.0
328,16.400000000000002,-0.0037319732477005224,-9.00060726644572,-8.551742642697697,-0.17222565656613598,0.17174980425119557,-0.9811872601592775,-0.009399698901122744,0.0062507201233685805,-0.04695051058334343,0.0,70.0,255.0,255.0,255.0
329,16.45,-0.012355051388519146,-8.992012034536035,-8.600860605731933,-0.1727076808321327,0.17208440105834555,-0.9835052304686975,-0.009779961188870478,0.007180036071119389,-0.046000360427456144,0.0,70.0,255.0,255.0,255.0
330,16.5,-0.021002741330913795,-8.983398826339885,-8.650093165744567,-0.17320365268502302,0.1724678078583075,-0.9857872962020231,-0.009905609035944785,0.008086291964559678,-0.04568940761568996,0.0,70.0,255.0,255.0,255.0
331,16.55,-0.02967541665702145,-8.974765253750205,-8.699439335352135,-0.17369824173572718,0.17289303025480152,-0.9880741712302665,-0.009726388475213288,0.008820187482783126,-0.046186682797610956,0.0,70.0,255.0,255.0,255.0
332,16.6,-0.03837256550448651,-8.966109523314405,-8.748900582867593,-0.17417629153254435,0.17334982660658582,-0.9904059644817842,-0.009301554733303352,0.009362978025073687,-0.04729184953689014,0.0,70.0,255.0,255.0,255.0
333,16.650000000000002,-0.04709304581027589,-8.957430271089546,-8.798479931800314,-0.1746283972090575,0.17382932805730889,-0.9928033561839555,-0.008753016574611916,0.009720311744310095,-0.04861020819912909,0.0,70.0,255.0,255.0,255.0
334,16.7,-0.055835405225392265,-8.948726590508674,-8.848180918485989,-0.17505159319000554,0.17432185778101683,-0.9952669853016971,-0.008213568937060767,0.009880631967895681,-0.04974151618064582,0.0,70.0,255.0,255.0,255.0
335,16.75,-0.06459820512927644,-8.939998085311444,-8.898006630330483,-0.1754497541027636,0.17481739125409845,-0.9977775078020201,-0.007816006294708577,0.00984483114248036,-0.050295599041483285,0.0,70.0,255.0,255.0,255.0
336,16.8,-0.07338038063566862,-8.931244851383264,-8.94795866926619,-0.1758331938194764,0.17530634089526487,-1.0002965452058454,-0.007633175429873351,0.00962556024060035,-0.05007140175088409,0.0,70.0,255.0,255.0,255.0
337,16.85,-0.08218152451122408,-8.922467451221918,-8.998036284851068,-0.17621307164575092,0.1757799472781585,-1.0027846479771085,-0.007635980742028148,0.009253025309696739,-0.0492145521379328,0.0,70.0,255.0,255.0,255.0
338,16.900000000000002,-0.09100168780024372,-8.913666856655448,-9.048237134063902,-0.17659679189367922,0.17623164342623454,-1.0052180004196387,-0.0077527103249805385,0.008786168098673386,-0.04803784077065387,0.0,70.0,255.0,255.0,255.0
339,16.95,-0.099841203700592,-8.904844286879294,-9.098558084893032,-0.17698834267824898,0.17665856408802583,-1.007588432054174,-0.00791196352901008,0.008303123704500592,-0.04686014827655072,0.0,70.0,255.0,255.0,255.0
340,17.0,-0.10870052206806861,-8.896001000246645,-9.148995977269319,-0.17738798824658022,0.1770619557966846,-1.0099040152472938,-0.008038384433152468,0.00787443008558597,-0.046000177568927825,0.0,70.0,255.0,255.0,255.0
341,17.05,-0.11758000252525003,-8.887138091299626,-9.199548486417761,-0.17779218112156422,0.17744600709658442,-1.0121884498110667,-0.008088135912513728,0.0075437720196802616,-0.04563325798301321,0.0,70.0,255.0,255.0,255.0
342,17.1,-0.12647974018022504,-8.878256399536987,-9.250214822250426,-0.1781968018378316,0.17781633299865263,-1.014467341045595,-0.008075454699606188,0.007341284371342738,-0.045682669185787006,0.0,70.0,255.0,255.0,255.0
343,17.150000000000002,-0.1353996827090332,-8.86935645799976,-9.30099522052232,-0.17859972659152484,0.1781801355337187,-1.0167567167296454,-0.008034370563780868,0.007299491386625334,-0.045967379769606964,0.0,70.0,255.0,255.0,255.0
344,17.2,-0.14433971283937752,-8.860438385983615,-9.35189049392339,-0.17900023889420968,0.17854628213731516,-1.0190640790225558,-0.007992376480620011,0.007446360394780527,-0.04631029164539058,0.0,70.0,255.0,255.0,255.0
345,17.25,-0.15329970659845416,-8.851501829786029,-9.402901628424576,-0.17939896423958684,0.17892477157319675,-1.0213877458941845,-0.007978428000543492,0.007813439190407223,-0.04651972797606874,0.0,70.0,255.0,255.0,255.0
346,17.3,-0.1622796092633362,-8.842545908826295,-9.454029268512809,-0.17979808169426403,0.17932762605635588,-1.0237160518201627,-0.008007567633358526,0.008400377321216013,-0.04649001853085366,0.0,70.0,255.0,255.0,255.0
347,17.35,-0.17127951476788056,-8.833569067180393,-9.505273233606593,-0.1801997210029227,0.17976480930531835,-1.0260367477472698,-0.008062200459649227,0.00910099804514175,-0.046296635922438156,0.0,70.0,255.0,255.0,255.0
348,17.400000000000002,-0.18029958136362847,-8.824569427895764,-9.556632943287536,-0.18060430174022896,0.18023772586087006,-1.0283457154124065,-0.008109807419973136,0.009735027193791268,-0.046089097028279014,0.0,70.0,255.0,255.0,255.0
349,17.45,-0.18933994494190345,-8.815545294594306,-9.608107805147833,-0.18101070174492,0.18073831202469748,-1.0306456574500977,-0.008118530548434366,0.01011917364373005,-0.045999570922283795,0.0,70.0,255.0,255.0,255.0
350,17.5,-0.19840065153812048,-8.806495596693294,-9.659697509032545,-0.1814161547950724,0.18124964322524306,-1.0329456725046349,-0.008047903564573078,0.010079831801235173,-0.04616482660946275,0.0,70.0,255.0,255.0,255.0
351,17.55,-0.2074815604214107,-8.797420330271782,-9.711402372398297,-0.18181549210137732,0.181746295204821,-1.035262140111044,-0.007881593554054378,0.009540406340136087,-0.046647040854708166,0.0,70.0,255.0,255.0,255.0
352,17.6,-0.2165822007482582,-8.788320967172812,-9.76322372304365,-0.18220431415047783,0.18220368385925667,-1.0376103765901057,-0.0076757434618934806,0.008620970534245487,-0.04732901556376845,0.0,70.0,255.0,255.0,255.0
353,17.650000000000002,-0.22570199183645848,-8.779199961885856,-9.815163410057307,-0.18258306644756667,0.18260839225824554,-1.0399950416674208,-0.007526399756413449,0.0075558310747680935,-0.04799716451735492,0.0,70.0,255.0,255.0,255.0
354,17.7,-0.23484050739301487,-8.770060127946987,-9.867223227210392,-0.18295695412611918,0.18295926696673348,-1.0424100930418412,-0.007526788038855758,0.00658920610270286,-0.04844536405741451,0.0,70.0,255.0,255.0,255.0
355,17.75,-0.2439976872490704,-8.760904035189183,-9.919404419361491,-0.18333574525145224,0.18326731286851583,-1.0448395780731623,-0.007777929769034464,0.005947233604963742,-0.04848101220709111,0.0,70.0,255.0,255.0,255.0
356,17.8,-0.2531740819181601,-8.751733396660136,-9.971707185017708,-0.18373474710302262,0.18355399032722985,-1.0472581942625503,-0.00831985768423582,0.005751284031063619,-0.048014218984526735,0.0,70.0,255.0,255.0,255.0
357,17.85,-0.26237116195937266,-8.74254863615646,-10.024130238787746,-0.18416773101987582,0.1838424412716222,-1.049640999971615,-0.009033054131080132,0.005967007928830981,-0.04715354890798551,0.0,70.0,255.0,255.0,255.0
358,17.900000000000002,-0.2715908550201477,-8.733349152532973,-10.07667128501487,-0.18463805251613064,0.18415069112011295,-1.0519735491533488,-0.009705525955400196,0.006489760395211874,-0.04611767613695861,0.0,70.0,255.0,255.0,255.0
359,17.95,-0.2808349672109857,-8.724133567044449,-10.129327593703081,-0.18513828361541584,0.18449141731114338,-1.0542527675853108,-0.01012825669002293,0.007204001945737559,-0.04513794720626407,0.0,70.0,255.0,255.0,255.0
360,18.0,-0.29010468338168927,-8.714900010801859,-10.1820965617734,-0.18565087818513293,0.1848710913146867,-1.0564873438739752,-0.010100423979203521,0.007999205808140175,-0.04444315253628872,0.0,70.0,255.0,255.0,255.0
361,18.05,-0.299400055029499,-8.70564645791298,-10.234976328090479,-0.1861483260133362,0.1852913378919574,-1.0586970828389397,-0.009531376641414013,0.008795995996990769,-0.044155570387971466,0.0,70.0,255.0,255.0,255.0
362,18.1,-0.3087195159830229,-8.696370877012663,-10.287966270057295,-0.18660401584927433,0.18575069091438579,-1.0609029009127724,-0.008558287100113304,0.009513794951665488,-0.04421044847529032,0.0,70.0,255.0,255.0,255.0
363,18.150000000000002,-0.31806045661442645,-8.687071388821542,-10.341066618181756,-0.18700415472334753,0.18624271738712395,-1.0631181276864687,-0.007446927657506208,0.010039812658568792,-0.0444593104214519,0.0,70.0,255.0,255.0,255.0
364,18.2,-0.32741993145535764,-8.677746605273951,-10.394278082825942,-0.18734870861502495,0.18675467218024266,-1.0653488319549176,-0.006472446273264598,0.010256324576474185,-0.0447490475840695,0.0,70.0,255.0,255.0,255.0
365,18.25,-0.33679532747592894,-8.668395921603517,-10.447601501377248,-0.187651399350674,0.18726834984477136,-1.0675930324448757,-0.0059003743140162435,0.010055943163678194,-0.044910386972141225,0.0,70.0,255.0,255.0,255.0
366,18.3,-0.34618507139042504,-8.659019770289474,-10.50103738607043,-0.18793874604642657,0.18776026649661048,-1.0698398706521317,-0.005867922463398401,0.009403193519652575,-0.04485123839259586,0.0,70.0,255.0,255.0,255.0
367,18.35,-0.3555892020805716,-8.649619894953856,-10.554585488442461,-0.18823819159701383,0.18820866919673662,-1.0720781562841353,-0.00628568558047049,0.00842312694881997,-0.044646521992319776,0.0,70.0,255.0,255.0,255.0
368,18.400000000000002,-0.3650088905501264,-8.6401989033698,-10.608245201698843,-0.18856731460447362,0.18860257919149248,-1.0743045228513637,-0.006954875302744856,0.00734819176724244,-0.044441539053607926,0.0,70.0,255.0,255.0,255.0
369,18.45,-0.37444593354101896,-8.630759637034707,-10.662015940727597,-0.1889336791272883,0.18894348837346087,-1.076522310189496,-0.007668671503546776,0.006429161287435647,-0.04436674823793396,0.0,70.0,255.0,255.0,255.0
370,18.5,-0.38390225846285525,-8.621304554532454,-10.715897432717792,-0.1893341817548283,0.18924549532023605,-1.078741197675157,-0.008218078764671288,0.005909049508900921,-0.044559215657535844,0.0,70.0,255.0,255.0,255.0
371,18.55,-0.3933793517165018,-8.611835087502683,-10.769890060495113,-0.18975548700375544,0.18953439332435096,-1.0809782317552497,-0.008484672432745866,0.005911229924038253,-0.04507984900268269,0.0,70.0,255.0,255.0,255.0
372,18.6,-0.4028778071632308,-8.602351115200019,-10.823995255893317,-0.1901826489981029,0.18983661831263987,-1.0832491825754254,-0.008503539342663569,0.006345585365075124,-0.04580169199606132,0.0,70.0,255.0,255.0,255.0
373,18.650000000000002,-0.4123976166163121,-8.59285142567142,-10.878214978752656,-0.1906058409380218,0.19016895186085847,-1.0855584009548558,-0.008367324045333024,0.007015532160892235,-0.046495465765517,0.0,70.0,255.0,255.0,255.0
374,18.7,-0.421938391257033,-8.583334220013933,-10.932551095988803,-0.1910193814026362,0.1905381715287291,-1.087898729151977,-0.008160466780049447,0.007713743560877617,-0.0469378988560365,0.0,70.0,255.0,255.0,255.0
375,18.75,-0.4314995547565757,-8.573797608518547,-10.987004851667853,-0.19142188761602674,0.19094032621694623,-1.0902521908404594,-0.007967264007135988,0.008227858800324839,-0.046912797016673835,0.0,70.0,255.0,255.0,255.0
376,18.8,-0.44108058001863565,-8.564240187392238,-11.041576315072849,-0.1918161078033498,0.19136095740876158,-1.0925900088536444,-0.007839448411661731,0.00843962571241974,-0.046321766529366926,0.0,70.0,255.0,255.0,255.0
377,18.85,-0.4506811655369107,-8.55466151277767,-11.096263852553218,-0.19220583245719292,0.1917842887881882,-1.0948843674933961,-0.007779224648063465,0.008399100355482858,-0.04531295711149852,0.0,70.0,255.0,255.0,255.0
378,18.900000000000002,-0.46030116326435494,-8.54506175851342,-11.151064751822188,-0.19259403026815614,0.19220086744430986,-1.0971213045647943,-0.007777600077807367,0.00822343250277413,-0.04417202912065932,0.0,70.0,255.0,255.0,255.0
379,18.95,-0.4699405685637263,-8.53544142603324,-11.205975983009697,-0.19298359246497365,0.19260663203846562,-1.099301570405462,-0.007835661842414687,0.008023463536410702,-0.04319391740832401,0.0,70.0,255.0,255.0,255.0
380,19.0,-0.4795995225108523,-8.525801095309573,-11.260994908862735,-0.1933775964523976,0.19300321379795093,-1.1014406963056267,-0.007964893178691312,0.007919468669115304,-0.04266959627514666,0.0,70.0,255.0,255.0,255.0
381,19.05,-0.48927832820896605,-8.516141104653444,-11.31612005264026,-0.19378008178284278,0.19339857890537715,-1.1035685300329767,-0.008164247207259612,0.007976327833247865,-0.04274637159227268,0.0,70.0,255.0,255.0,255.0
382,19.1,-0.4989775306891366,-8.506461237419035,-11.371351761866032,-0.19419402117312357,0.19380084658127572,-1.105715333464854,-0.00837956206520274,0.008137080812353759,-0.04329836766991946,0.0,70.0,255.0,255.0,255.0
383,19.150000000000002,-0.5086977303262784,-8.496761019995317,-11.426691585986745,-0.19461803798936306,0.19421228698661253,-1.1078983667999687,-0.00852227564357988,0.008292509389740133,-0.04406452964182961,0.0,70.0,255.0,255.0,255.0
384,19.200000000000003,-0.5184393344880729,-8.487040008720374,-11.48214159854603,-0.19504624873748155,0.19463009752024973,-1.110121786429037,-0.008503599136971962,0.008345316046209916,-0.04477985808417628,0.0,70.0,255.0,255.0,255.0
385,19.25,-0.5282023552000266,-8.477298010243292,-11.537703764629649,-0.19546839790306025,0.19504681859123352,-1.1123763526083863,-0.008225191249999764,0.008198322467123376,-0.04518084585516391,0.0,70.0,255.0,255.0,255.0
386,19.3,-0.5379861742783789,-8.46753532686125,-11.593379233806868,-0.19586876786248153,0.19544992976696207,-1.1146398710145533,-0.0076497632254368675,0.007807976708029685,-0.0451266864939015,0.0,70.0,255.0,255.0,255.0
387,19.35,-0.5477892319862747,-8.457753017266596,-11.649167751731104,-0.19623337422560394,0.19582761626203649,-1.1168890212577764,-0.0069042986530210015,0.007254347956298091,-0.04469991253319705,0.0,70.0,255.0,255.0,255.0
388,19.400000000000002,-0.5576095117009393,-8.447952565235047,-11.705068135932645,-0.19655919772778363,0.19617536456259188,-1.119109862267873,-0.006212364947055793,0.006685597536737475,-0.044082672826917246,0.0,70.0,255.0,255.0,255.0
389,19.450000000000003,-0.5674451517590531,-8.438135480810336,-11.761078737957892,-0.19685461072030952,0.19649617601571023,-1.1212972885404682,-0.005796002215685547,0.0062480461721747815,-0.043453736504162066,0.0,70.0,255.0,255.0,255.0
390,19.5,-0.5772949727729703,-8.428302947633476,-11.817197864786692,-0.19713879794935218,0.19680016917980936,-1.1234552359182892,-0.005874295201169222,0.00607922281510298,-0.04299098300855064,0.0,70.0,255.0,255.0,255.0
391,19.55,-0.5871590315539883,-8.418455463892355,-11.87342426154972,-0.19744204024042644,0.19710409829722053,-1.1255963868413232,-0.006544298958521821,0.00624556486794603,-0.04279294303550785,0.0,70.0,255.0,255.0,255.0
392,19.6,-0.5970391767970129,-8.408592537803754,-11.929757503470825,-0.19779322784520437,0.19742472566660396,-1.12773453022184,-0.007636996236481952,0.006681051837276186,-0.042818345831996396,0.0,70.0,255.0,255.0,255.0
393,19.650000000000002,-0.6069383543385087,-8.398712991325695,-11.986197714571905,-0.19820573986407464,0.19777220348094815,-1.1298782214245229,-0.008832833332883538,0.00724873682678151,-0.04296925457794032,0.0,70.0,255.0,255.0,255.0
394,19.700000000000003,-0.6168597507834204,-8.38881531745566,-12.042745325613277,-0.19867651117849272,0.1981495993492821,-1.132031455679634,-0.00980684421475475,0.007803012086426975,-0.043151396366702954,0.0,70.0,255.0,255.0,255.0
395,19.75,-0.626806005456358,-8.378898031390767,-12.099400860139868,-0.1991864242855501,0.19855250468959085,-1.1341933610611932,-0.010249655917282663,0.008196767624291112,-0.043263240757163146,0.0,70.0,255.0,255.0,255.0
396,19.8,-0.6367783932119754,-8.3689600669867,-12.156164661719396,-0.199701476770221,0.19896927611171122,-1.1363577797553504,-0.010005954693337316,0.008350276639390586,-0.043248767469528104,0.0,70.0,255.0,255.0,255.0
397,19.85,-0.6467761531333801,-8.359001103779596,-12.213036638115403,-0.20018701975488384,0.1993875323535299,-1.138518237808146,-0.00919759985089641,0.00830508105966743,-0.04314763654011955,0.0,70.0,255.0,255.0,255.0
398,19.900000000000002,-0.6567970951874638,-8.349021313751347,-12.27001648550021,-0.20062123675531063,0.19979978421767797,-1.1406725434093623,-0.008087257432443096,0.008154979632024606,-0.04303853730185381,0.0,70.0,255.0,255.0,255.0
399,19.950000000000003,-0.6668382768089112,-8.339021125357828,-12.32710389245634,-0.20099574549812815,0.20020303031673237,-1.1428220915383314,-0.0069493948181009735,0.007993705014897046,-0.042994477562530165,0.0,70.0,255.0,255.0,255.0
400,20.0,-0.6768966697372766,-8.329001010719674,-12.384298694654044,-0.20131617623712073,0.20059915471916767,-1.1449719911656153,-0.0060510904536070775,0.007925688040444356,-0.043104025990281514,0.0,70.0,255.0,255.0,255.0
401,20.05,-0.6869698944326232,-8.318961209885911,-12.4416010915729,-0.20160085454348886,0.2009955991207768,-1.1471324941373595,-0.005544143340330265,0.008006102467028597,-0.04340527380009007,0.0,70.0,255.0,255.0,255.0
402,20.1,-0.6970567551916255,-8.308901450807596,-12.49901194406778,-0.20187059057115375,0.20139976496587053,-1.1493125185456243,-0.005405331632690746,0.008177691522881503,-0.04379110800663,0.0,70.0,255.0,255.0,255.0
403,20.150000000000002,-0.7071569534897386,-8.298821233389324,-12.556532343427463,-0.20214138770675794,0.20181336827306495,-1.1515116049380225,-0.005547087986446098,0.008333116207737135,-0.044076596214459585,0.0,70.0,255.0,255.0,255.0
404,20.200000000000003,-0.7172708939623013,-8.28872011398029,-12.614163104561582,-0.20242529936979836,0.20223307658664424,-1.1537201781670703,-0.005881264158569266,0.00837508160689282,-0.044084119957332746,0.0,70.0,255.0,255.0,255.0
405,20.25,-0.7273994834267185,-8.27859792573066,-12.67190436124417,-0.20272951412261486,0.20265087643375423,-1.1559200169337558,-0.006309991592179376,0.008204536157130349,-0.04362471122654199,0.0,70.0,255.0,255.0,255.0
406,20.3,-0.7375438453745627,-8.268455026336914,-12.729755106254958,-0.2030562985290163,0.20305353020235728,-1.1580826492897245,-0.0067657236935803056,0.0077782272452253665,-0.042622538261660736,0.0,70.0,255.0,255.0,255.0
407,20.35,-0.7477051132796201,-8.258292572710424,-12.787712626173143,-0.2034060864919729,0.20342869915827677,-1.1601822707599219,-0.0072211668585175914,0.007185924410535449,-0.04129147455547155,0.0,70.0,255.0,255.0,255.0
408,20.400000000000002,-0.75788445402376,-8.248112156421087,-12.84577333333095,-0.20377841521486806,0.20377212264341082,-1.1622117967452716,-0.0076417798992700625,0.00659162313638717,-0.04001321303910288,0.0,70.0,255.0,255.0,255.0
409,20.450000000000003,-0.7680829548011069,-8.237915360446083,-12.90393380584767,-0.2041702644818999,0.2040878614719155,-1.1641835920638322,-0.007973660435667274,0.006158742450423915,-0.039167877109136384,0.0,70.0,255.0,255.0,255.0
410,20.5,-0.77830148047195,-8.227703370273895,-12.962191692537333,-0.20457578125843479,0.20438799688845322,-1.1661285844561853,-0.008160877909457742,0.006048148681614407,-0.03912906383405357,0.0,70.0,255.0,255.0,255.0
411,20.55,-0.7885405329269504,-8.217476560757238,-13.020546664293288,-0.20498635227284567,0.20469267634007693,-1.1680964984472375,-0.008179535311914066,0.0063347880868036555,-0.04006597175205684,0.0,70.0,255.0,255.0,255.0
412,20.6,-0.7988001156992346,-8.207234102639887,-13.079001342382057,-0.2053937347896262,0.20502147569713358,-1.170135181631391,-0.008072704895900618,0.006914135312285907,-0.04171227116316345,0.0,70.0,255.0,255.0,255.0
413,20.650000000000002,-0.809079906405913,-8.196974413187524,-13.137560182456427,-0.20579362276243574,0.20538408987130552,-1.1722677255635539,-0.007923088453876126,0.007584027609475186,-0.04355875675816634,0.0,70.0,255.0,255.0,255.0
414,20.700000000000003,-0.8193794779754782,-8.186695693652757,-13.196228114938412,-0.2061860436350138,0.2057798784580811,-1.1744910573072076,-0.007824094098907164,0.00813717469778652,-0.045086049926723604,0.0,70.0,255.0,255.0,255.0
415,20.75,-0.8296985107694144,-8.176396425341716,-13.255009288187148,-0.20657603217232645,0.20619780734108417,-1.1767763305562262,-0.007890506093866101,0.00836687844039119,-0.045795070731813325,0.0,70.0,255.0,255.0,255.0
416,20.8,-0.8400370811927108,-8.166075912918648,-13.313905747994035,-0.20697509424440041,0.20661656630212022,-1.179070564380389,-0.008175622238093538,0.00816933369538475,-0.045433201768751985,0.0,70.0,255.0,255.0,255.0
417,20.85,-0.8503960201938544,-8.155734768711504,-13.372916344625187,-0.2073935943961358,0.20701474071062265,-1.1813196507331014,-0.008567081156984901,0.007642942266272712,-0.04419473217005532,0.0,70.0,255.0,255.0,255.0
418,20.900000000000002,-0.8607764406323244,-8.145374438847586,-13.432037713067345,-0.2078318023600989,0.2073808605287475,-1.1834900375973945,-0.008867637847198573,0.006986858499402615,-0.04249730771501703,0.0,70.0,255.0,255.0,255.0
419,20.950000000000003,-0.8711792004298643,-8.13499668265863,-13.491265348384927,-0.20828035818085566,0.2077134265605629,-1.1855693815046031,-0.008889590208471798,0.006399132184675693,-0.04077398378949937,0.0,70.0,255.0,255.0,255.0
420,21.0,-0.88160447645041,-8.12460309619153,-13.550594651217805,-0.20872076138094608,0.20802077374721506,-1.1875674359763444,-0.008433181631062325,0.006068300261219406,-0.03945065323840424,0.0,70.0,255.0,255.0,255.0
421,21.05,-0.8920512765679589,-8.114194605283908,-13.610022091982561,-0.2091236763439619,0.20832025658668485,-1.1895144468284435,-0.007417089954564471,0.006094450558613573,-0.03876625613568052,0.0,70.0,255.0,255.0,255.0
422,21.1,-0.9025168440848061,-8.103771070532861,-13.66954609590065,-0.20946247037640253,0.20863021880307642,-1.1914440615899125,-0.00606251359965837,0.006428687696669044,-0.038657891065163597,0.0,70.0,255.0,255.0,255.0
423,21.150000000000002,-0.9129975236055992,-8.0933315834036,-13.729166498141552,-0.20972992770392773,0.20896312535635175,-1.19338023593496,-0.004764495355757958,0.0069539463176226946,-0.03894543895661684,0.0,70.0,255.0,255.0,255.0
424,21.200000000000003,-0.9234898368551989,-8.082874757997226,-13.788884119494146,-0.20993891991197833,0.2093256134348387,-1.1953386054855741,-0.003916379566226702,0.007553009850802539,-0.03944990302908735,0.0,70.0,255.0,255.0,255.0
425,21.25,-0.933991415596797,-8.072399022060116,-13.84870035869011,-0.2101215656605504,0.209718426341432,-1.1973252262378686,-0.003908702113597506,0.00812392983924326,-0.03997434428821833,0.0,70.0,255.0,255.0,255.0
426,21.3,-0.944501993421254,-8.061902915363083,-13.908616642117932,-0.21032979012333808,0.210138006418763,-1.199336039914396,-0.0049174165447918305,0.008600090176358322,-0.04039725154001417,0.0,70.0,255.0,255.0,255.0
427,21.35,-0.9550243946091308,-8.05138522141824,-13.96863396268155,-0.21061330731502959,0.21057843535906784,-1.20136495139187,-0.0066521418336518146,0.00892594331034502,-0.04073472920786969,0.0,70.0,255.0,255.0,255.0
428,21.400000000000002,-0.9655633241527569,-8.040845071827176,-14.02875313725712,-0.21099500430670326,0.21103060074979751,-1.203409512835183,-0.008562585858196137,0.009032880706172364,-0.04103655417715402,0.0,70.0,255.0,255.0,255.0
429,21.450000000000003,-0.9761238950398011,-8.03028216134326,-14.088974913965068,-0.2114695659008492,0.21148172342968508,-1.2054686068095855,-0.010086569848533067,0.008856054519590373,-0.0413283155177524,0.0,70.0,255.0,255.0,255.0
430,21.5,-0.9867102807428418,-8.019696899484208,-14.149299997938078,-0.21200366129155657,0.21191620620175655,-1.2075423443869582,-0.01066804721036041,0.008332017677670223,-0.04165187636839818,0.0,70.0,255.0,255.0,255.0
431,21.55,-0.9973242611689568,-8.009090540723085,-14.209729148403763,-0.21253637062188524,0.2123149251974521,-1.2096337944464253,-0.010032870905696267,0.007450363560490558,-0.0420245978425271,0.0,70.0,255.0,255.0,255.0
432,21.6,-1.0079639178050304,-7.9984654069644625,-14.27026337738272,-0.2130069483821262,0.2126612425578056,-1.2117448041712109,-0.0084642104410948,0.006350149785205872,-0.04236589606545493,0.0,70.0,255.0,255.0,255.0
433,21.650000000000002,-1.0186249560071694,-7.987824416467304,-14.330903628820884,-0.21338279166599472,0.21294994017597269,-1.2138703840529708,-0.006530708997076751,0.005274437618663086,-0.04254564037360353,0.0,70.0,255.0,255.0,255.0
434,21.700000000000003,-1.0293021969716298,-7.977170412946865,-14.391650415788018,-0.21366001928183387,0.21318868631967192,-1.2159993682085712,-0.004809975072395112,0.004474520321728903,-0.04245026147380315,0.0,70.0,255.0,255.0,255.0
435,21.75,-1.0399909579353528,-7.966505547835337,-14.452503565641742,-0.21386378917323423,0.21339739220814558,-1.218115410200351,-0.0038750531007769595,0.004183990124673187,-0.04196621550569546,0.0,70.0,255.0,255.0,255.0
436,21.8,-1.0506885758889533,-7.955830673726051,-14.513461956808053,-0.21404752459191156,0.21360708533213923,-1.2201959897591408,-0.004023733864966239,0.004512767935871409,-0.04105624520178708,0.0,70.0,255.0,255.0,255.0
437,21.85,-1.061395710394544,-7.945144839302123,-14.574523164617656,-0.21426616255973086,0.21384866900173272,-1.2222210347205298,-0.0050365641876659595,0.00534450650144791,-0.03988429725243492,0.0,70.0,255.0,255.0,255.0
438,21.900000000000002,-1.0721151921449263,-7.934445806825877,-14.635684060280106,-0.21455118101067816,0.21414153598228403,-1.2241844194843843,-0.0064498695288683905,0.006436641547491462,-0.03874079108818762,0.0,70.0,255.0,255.0,255.0
439,21.950000000000003,-1.0828508284956118,-7.9237306857038945,-14.696941606566094,-0.2149111495126177,0.21449233315648186,-1.2260951138293485,-0.007799870188174296,0.00752688983300942,-0.037922386839639444,0.0,70.0,255.0,255.0,255.0
440,22.0,-1.0936063070961881,-7.912996573510229,-14.75829357166304,-0.2153311680294956,0.21489422496558497,-1.2279766581683482,-0.008619805654519475,0.008355984526531302,-0.03771925228566175,0.0,70.0,255.0,255.0,255.0
441,22.05,-1.1043839452985613,-7.902241263207336,-14.819739272382929,-0.21577313007806964,0.215327931609135,-1.2298670390579147,-0.00866007242223965,0.008779590337582022,-0.038264733703563536,0.0,70.0,255.0,255.0,255.0
442,22.1,-1.115183620103995,-7.891463780349316,-14.881280275568832,-0.21619717527171955,0.21577218399934317,-1.2318031315387046,-0.008079509498148951,0.00883909693678575,-0.03936796387407071,0.0,70.0,255.0,255.0,255.0
443,22.150000000000002,-1.1260036628257333,-7.880664044807402,-14.9429195855368,-0.21658108102788454,0.21621184130281357,-1.2338038354453218,-0.007218157876076603,0.008650045143365759,-0.04065846800305195,0.0,70.0,255.0,255.0,255.0
444,22.200000000000003,-1.1368417282067835,-7.869842596219034,-15.004660659113364,-0.21691899105932722,0.21663718851367975,-1.2358689783390098,-0.006404716669106136,0.008332232700869469,-0.04175464338302959,0.0,70.0,255.0,255.0,255.0
445,22.25,-1.147695561931666,-7.859000325956034,-15.0665064833707,-0.21722155269479515,0.21704506457290051,-1.2379792997836248,-0.005969640364789086,0.008028062444509487,-0.04228479399763785,0.0,70.0,255.0,255.0,255.0
446,22.3,-1.158563883476263,-7.848138089761744,-15.128458589091727,-0.21751595509580612,0.2174399947581307,-1.2400974577387736,-0.006088610478771628,0.007820618965137527,-0.04205824655674206,0.0,70.0,255.0,255.0,255.0
447,22.35,-1.1694471574412466,-7.837256326480221,-15.190516229144578,-0.2178304137426723,0.21782712646941427,-1.242185124439299,-0.0066390574932961854,0.007659012511496144,-0.04121466310138544,0.0,70.0,255.0,255.0,255.0
448,22.400000000000002,-1.1803469248505303,-7.826355377114803,-15.252677101535657,-0.21817986084513574,0.2182058960092803,-1.244218924048912,-0.007364678454147011,0.007445788601767589,-0.040054521049626146,0.0,70.0,255.0,255.0,255.0
449,22.450000000000003,-1.1912651435257602,-7.815435736879293,-15.314938121549469,-0.21856688158808701,0.21857170532959103,-1.2461905765442616,-0.008020890175219897,0.007102780761503169,-0.03888561305522842,0.0,70.0,255.0,255.0,255.0
450,22.5,-1.202203613009339,-7.804498206581844,-15.377296159190083,-0.21898194986265773,0.21891617408543063,-1.248107485354435,-0.008369698154164773,0.006531858936398294,-0.03801355307597731,0.0,70.0,255.0,255.0,255.0
451,22.55,-1.213163338512026,-7.7935441194707495,-15.439748870084912,-0.2194038514035035,0.21922489122323086,-1.2499919318518593,-0.008285625522885809,0.005697560841966265,-0.03760782785651173,0.0,70.0,255.0,255.0,255.0
452,22.6,-1.2241439981496893,-7.782575717459521,-15.502295352375269,-0.2198105124149463,0.21948593016962725,-1.2518682681400861,-0.007849668454018577,0.004763920615769024,-0.0376061109909287,0.0,70.0,255.0,255.0,255.0
453,22.650000000000002,-1.2351443897535206,-7.771595526453787,-15.564935696898921,-0.22018881824890535,0.21970128328480776,-1.2537525429509522,-0.007237720381914059,0.004008572011215961,-0.03785239884717129,0.0,70.0,255.0,255.0,255.0
454,22.700000000000003,-1.2461628799745799,-7.76060558913104,-15.627670606670364,-0.22053428445313772,0.21988678737074885,-1.2556535080248032,-0.0066250093435638036,0.0036959915715506497,-0.03819530533029081,0.0,70.0,255.0,255.0,255.0
455,22.75,-1.2571978181988344,-7.749606847716712,-15.690501047701401,-0.22085131918326173,0.22007088244196282,-1.2575720734839813,-0.006187557694370405,0.004088417894188012,-0.03847703099424393,0.0,70.0,255.0,255.0,255.0
456,22.8,-1.268248011892906,-7.738598500886844,-15.753427814018762,-0.22115304022257476,0.22029562916016765,-1.2595012111242276,-0.006021661322330729,0.005291049089795052,-0.03860489423193059,0.0,70.0,255.0,255.0,255.0
457,22.85,-1.2793131222210918,-7.727577284800695,-15.816451168813824,-0.2214534853154948,0.22059998735094233,-1.2614325629071743,-0.0060786323269779174,0.007038218778721017,-0.038602757736150295,0.0,70.0,255.0,255.0,255.0
458,22.900000000000002,-1.2903933604244555,-7.716538502151749,-15.87957107030948,-0.22176090345527255,0.22099945103803975,-1.2633614868978427,-0.006248915542705902,0.00884365295634737,-0.0385323404392679,0.0,70.0,255.0,255.0,255.0
459,22.950000000000003,-1.301489212566619,-7.705477339696891,-15.942787317503608,-0.2220783768697654,0.22148435264657707,-1.265285796951101,-0.006425272917010005,0.010208730806215982,-0.03844076469192714,0.0,70.0,255.0,255.0,255.0
460,23.0,-1.312601198111432,-7.694390066887092,-16.00609965000459,-0.22240343074697355,0.22202032411866135,-1.2672055633670354,-0.006488089716349954,0.010642488135204076,-0.03837426700048496,0.0,70.0,255.0,255.0,255.0
461,23.05,-1.3237295556413164,-7.683275307285025,-16.069507873840312,-0.2227271858414004,0.22254860146009747,-1.2691232236511496,-0.006374955294718987,0.009910643732613522,-0.038359168642188024,0.0,70.0,255.0,255.0,255.0
462,23.1,-1.334873916695572,-7.672135206741082,-16.133011972369705,-0.22304092627644545,0.2230113884919227,-1.2710414802312542,-0.0061567346388846644,0.008297563244674677,-0.03838285806594399,0.0,70.0,255.0,255.0,255.0
463,23.150000000000002,-1.346033648268961,-7.660974168435833,-16.196612021863437,-0.22334285930528885,0.22337835778456494,-1.272961509457744,-0.005964845885753078,0.006364135509695501,-0.03841823939616518,0.0,70.0,255.0,255.0,255.0
464,23.200000000000003,-1.357208202626101,-7.6497973709626255,-16.26030812331548,-0.22363741086502076,0.22364780204289225,-1.2748833041708707,-0.0059209852356412185,0.004687919701140686,-0.03844163590223104,0.0,70.0,255.0,255.0,255.0
465,23.25,-1.368397389355463,-7.638609388231544,-16.324100352280524,-0.22393495782885298,0.223847149754679,-1.276805673047967,-0.006156027495984873,0.003849601593408636,-0.038425901003336094,0.0,70.0,255.0,255.0,255.0
466,23.3,-1.3796016984089863,-7.627412655987158,-16.387988690620276,-0.22425301361461925,0.22403276220223312,-1.2787258942712043,-0.006725603745816322,0.004145723299586734,-0.03835843119865956,0.0,70.0,255.0,255.0,255.0
467,23.35,-1.390822690716925,-7.61620611201132,-16.451972941707645,-0.2246075182034346,0.22426172208463768,-1.280641516167833,-0.007492657555752125,0.005317076029065504,-0.03826581000012652,0.0,70.0,255.0,255.0,255.0
468,23.400000000000002,-1.4020624502293297,-7.604986483778694,-16.51605284223706,-0.22500227937019446,0.22456446980513967,-1.282552475271217,-0.008212633315229922,0.006835096380441996,-0.038194701975413636,0.0,70.0,255.0,255.0,255.0
469,23.450000000000003,-1.4133229186539444,-7.593749665030806,-16.580228189234766,-0.2254287815349576,0.22494523172268188,-1.2844609863653744,-0.008644725534434627,0.008172644000925544,-0.03819269169902384,0.0,70.0,255.0,255.0,255.0
470,23.5,-1.4246053283828255,-7.582491960606426,-16.644498940873596,-0.22586675192363792,0.22538173420523222,-1.2863717444411193,-0.008547846919748636,0.008799198730979896,-0.03832212898764453,0.0,70.0,255.0,255.0,255.0
471,23.55,-1.4359095938463082,-7.571211491610283,-16.70886536367888,-0.22628356622693246,0.22582515159577987,-1.2882931992641389,-0.007815030654345634,0.008440542323828737,-0.03860710656198307,0.0,70.0,255.0,255.0,255.0
472,23.6,-1.4472336850055187,-7.559909445446848,-16.77332826080001,-0.22664825498907248,0.2262257884376151,-1.2902324550973177,-0.0066388822242968715,0.0073258808902743056,-0.0389539019330698,0.0,70.0,255.0,255.0,255.0
473,23.650000000000002,-1.4585744193452155,-7.5485889127665216,-16.83788860918861,-0.22694745444936215,0.2265577396848073,-1.2921885894574459,-0.00538005208867709,0.0059228915564979445,-0.03920295270525287,0.0,70.0,255.0,255.0,255.0
474,23.700000000000003,-1.469928430450455,-7.537253671478367,-16.902547119745755,-0.2271862601979402,0.2268180775932649,-1.294152750367843,-0.0044056604124875776,0.004688450683243417,-0.03920102387517943,0.0,70.0,255.0,255.0,255.0
475,23.75,-1.4812930453650095,-7.525907105007195,-16.967303884225394,-0.2273880204906109,0.22702658475313164,-1.2961086918449638,-0.0040805568531920855,0.004069500917491808,-0.03878963898742427,0.0,70.0,255.0,255.0,255.0
476,23.8,-1.492667232499516,-7.514551013003054,-17.03215798893025,-0.2275943158832594,0.22722502768501407,-1.2980317142665854,-0.004581359883482072,0.0042985409704598965,-0.037905543482708026,0.0,70.0,255.0,255.0,255.0
477,23.85,-1.5040524769533354,-7.503184602238694,-17.097107055652053,-0.22784615647895912,0.22745643885017763,-1.2998992461932346,-0.0057019300969685105,0.005208584558680229,-0.03672212539278519,0.0,70.0,255.0,255.0,255.0
478,23.900000000000002,-1.515451848147412,-7.491805369118036,-17.162147913549575,-0.22816450889295625,0.2277458861408821,-1.3017039268058639,-0.007036202619215004,0.006444153245066531,-0.03555162240722609,0.0,70.0,255.0,255.0,255.0
479,23.950000000000003,-1.526868927842631,-7.4804100136246054,-17.22727744833264,-0.22854977674088062,0.2281008541746843,-1.3034544084339572,-0.008173285496559934,0.007653693127540606,-0.03470876058386807,0.0,70.0,255.0,255.0,255.0
480,24.0,-1.5383068258215,-7.4689952837005675,-17.29249335439297,-0.22898183744261225,0.22851125545363615,-1.3051748028642507,-0.008709972287546108,0.008502844218671868,-0.03450327776306494,0.0,70.0,255.0,255.0,255.0
481,24.05,-1.5497671115868923,-7.457558888079242,-17.357794928619064,-0.22942077396963523,0.22895113859655147,-1.3069047362102637,-0.00843966967154497,0.008805946473966486,-0.03507831857483268,0.0,70.0,255.0,255.0,255.0
482,24.1,-1.5612489032184635,-7.446100169840912,-17.423183828013997,-0.22982580440976674,0.2293918501010328,-1.308682634721734,-0.007524213238618849,0.008608825163669565,-0.036228645446811925,0.0,70.0,255.0,255.0,255.0
483,24.150000000000002,-1.572749692027869,-7.4346197030691386,-17.488663192091238,-0.2301731952934971,0.22981202111291843,-1.310527600754945,-0.006304321583794348,0.008050612013832392,-0.03755783039522953,0.0,70.0,255.0,255.0,255.0
484,24.200000000000003,-1.5842662227478133,-7.4231189677296205,-17.55423658808949,-0.23045623656814618,0.23019691130241604,-1.312438417761257,-0.005121057741375168,0.007270576341600332,-0.03865838600312088,0.0,70.0,255.0,255.0,255.0
485,24.25,-1.5957953156846836,-7.411600011938897,-17.619907033867364,-0.23068530106763463,0.23053907874707846,-1.314393439355257,-0.004299507376526179,0.00639912220794514,-0.03912526860716525,0.0,70.0,255.0,255.0,255.0
486,24.3,-1.6073347528545767,-7.400065059854913,-17.685675932025017,-0.2308861873057988,0.23083682352321055,-1.3163509446219734,-0.0040193087493367585,0.005529421384320443,-0.03875460879321224,0.0,70.0,255.0,255.0,255.0
487,24.35,-1.6188839344152635,-7.388516329586576,-17.75154212832956,-0.2310872319425683,0.2310920208855105,-1.3182689002345782,-0.004232172659435207,0.004753317583272576,-0.037734108670406385,0.0,70.0,255.0,255.0,255.0
488,24.400000000000002,-1.6304434760488336,-7.376955857766362,-17.817502822048475,-0.23130940457174232,0.2313121552815378,-1.320124355489014,-0.004796394495665268,0.004198713385772379,-0.036446240163101606,0.0,70.0,255.0,255.0,255.0
489,24.450000000000003,-1.6420148748724377,-7.365385114058422,-17.883554563878462,-0.23156687139213483,0.23151189222408775,-1.3219135242508884,-0.0055686840044755215,0.0040024630450830045,-0.035277555543444805,0.0,70.0,255.0,255.0,255.0
490,24.5,-1.653600163188047,-7.353804668543953,-17.949694174473564,-0.23186627297218987,0.2317124015860461,-1.3236521110433586,-0.00641199820634597,0.00430066694931952,-0.03461560118473983,0.0,70.0,255.0,255.0,255.0
491,24.55,-1.6652015021696567,-7.3422138738998175,-18.015919774982798,-0.23220807121276943,0.2319419589190197,-1.3253750843693624,-0.007231347078962003,0.005137906449803609,-0.03466259357374213,0.0,70.0,255.0,255.0,255.0
492,24.6,-1.676820970309324,-7.330610472652051,-18.0822316829105,-0.23258940768008607,0.23222619223102647,-1.3271183704007328,-0.007949893326264501,0.006332589817503731,-0.03526587558262406,0.0,70.0,255.0,255.0,255.0
493,24.650000000000002,-1.6884604429376653,-7.318991254676715,-18.14863161202287,-0.23300306054539588,0.23257521790077007,-1.3289016719276248,-0.008464785748718562,0.007557331645813292,-0.036107092399717544,0.0,70.0,255.0,255.0,255.0
494,24.700000000000003,-1.7001212763638636,-7.307352950861974,-18.215121850103262,-0.23343588625495792,0.2329819253956078,-1.3307290796407045,-0.008665744702640588,0.008467823226432358,-0.036871018864204075,0.0,70.0,255.0,255.0,255.0
495,24.75,-1.711804031563161,-7.295693062137154,-18.281704519986942,-0.23386963501565994,0.2334220002234133,-1.3325887738140452,-0.008452499797595436,0.008718209995972614,-0.03723638259920392,0.0,70.0,255.0,255.0,255.0
496,24.8,-1.7235082398654296,-7.284010750839633,-18.348380727484667,-0.23428113623471747,0.23385374639520506,-1.334452717900625,-0.007793764472951992,0.00814515328295684,-0.03703566959138982,0.0,70.0,255.0,255.0,255.0
497,24.85,-1.7352321451866328,-7.272307687497634,-18.415149791777004,-0.23464901146295514,0.234236515551709,-1.3362923407731842,-0.006813568720831498,0.006966206595393487,-0.036408729324577394,0.0,70.0,255.0,255.0,255.0
498,24.900000000000002,-1.746973141011725,-7.260587099284462,-18.482009961561985,-0.23496249310680062,0.2345503670547444,-1.3380935908330827,-0.005741665306868704,0.005602915741320658,-0.03563821075118767,0.0,70.0,255.0,255.0,255.0
499,24.950000000000003,-1.7587283944973129,-7.248852650792159,-18.548959150860313,-0.235223177993642,0.23479680712584106,-1.339856161848303,-0.004826798723644998,0.0044855913689190174,-0.034998741961800306,0.0,70.0,255.0,255.0,255.0
500,25.0,-1.7704954588110893,-7.237107418571878,-18.615995577746816,-0.23544517297916512,0.23499892619163631,-1.3415934650292627,-0.004310030575016555,0.004046446447425467,-0.034770803150507845,0.0,70.0,255.0,255.0,255.0
501,25.05,-1.7822729117952294,-7.2253527581729955,-18.68311849736324,-0.23565418105114366,0.2352014517705836,-1.3433332421633537,-0.004313595029192818,0.004501340558249467,-0.035094588198703036,0.0,70.0,255.0,255.0,255.0
502,25.1,-1.7940608769162036,-7.213587273394819,-18.75032890196315,-0.2358765324820844,0.23544906024746126,-1.345102923849133,-0.004747719902442604,0.0056317679495876405,-0.0358137991923968,0.0,70.0,255.0,255.0,255.0
503,25.150000000000002,-1.8058605650434378,-7.201807852148249,-18.817628789748152,-0.23612895304138792,0.23576462856554237,-1.3469146220825934,-0.00541666491198356,0.007001821239516204,-0.036625472522544555,0.0,70.0,255.0,255.0,255.0
504,25.200000000000003,-1.8176737722203424,-7.190010810538265,-18.88502036417141,-0.23641819897328276,0.23614924237141288,-1.3487654711013874,-0.00611377368966437,0.008176664445258552,-0.03723415315164402,0.0,70.0,255.0,255.0,255.0
505,25.25,-1.8295023849407661,-7.178192927911108,-18.95250533685829,-0.23674033041035436,0.23658229501006822,-1.3506380373977578,-0.00662737790217971,0.008728078806274908,-0.03734847006420239,0.0,70.0,255.0,255.0,255.0
506,25.3,-1.8413478052613779,-7.166352581037258,-19.020084167911186,-0.23708093676350073,0.23702205025204037,-1.3525003181078077,-0.006839594337737509,0.008436337630790547,-0.03682560465101403,0.0,70.0,255.0,255.0,255.0
507,25.35,-1.8532104786171162,-7.154490722885904,-19.08775536866907,-0.2374242898441281,0.23742592877314728,-1.3543205978628592,-0.006800120433858581,0.007477537457489802,-0.03582325339479553,0.0,70.0,255.0,255.0,255.0
508,25.400000000000002,-1.8650902342457907,-7.142609988159943,-19.155516227697472,-0.23776094880688659,0.23776980399778935,-1.3560826434472872,-0.006625427959261465,0.006218983449368665,-0.03465355883420784,0.0,70.0,255.0,255.0,255.0
509,25.450000000000003,-1.8769865734978048,-7.130713742486125,-19.2233636330138,-0.23808683264005426,0.23804782711808414,-1.35778595374628,-0.006425705585733077,0.0050276109899272114,-0.033630706039744496,0.0,70.0,255.0,255.0,255.0
510,25.5,-1.888898917509796,-7.118805205448135,-19.2912948230721,-0.2384035193654599,0.23827256509678207,-1.3594457140512617,-0.006320411195970266,0.004261191707755074,-0.03306328861931718,0.0,70.0,255.0,255.0,255.0
511,25.55,-1.9008269254343508,-7.106886485976447,-19.359308204418927,-0.23871887375965128,0.23847394628885965,-1.3610922826082117,-0.006374088225657992,0.004112656237165169,-0.03310956662083697,0.0,70.0,255.0,255.0,255.0
512,25.6,-1.9127708048857612,-7.094957810819249,-19.42740405133292,-0.2390409281880257,0.2386838307204986,-1.3627566707133454,-0.006530865961251742,0.00448903793186517,-0.033645075338384345,0.0,70.0,255.0,255.0,255.0
513,25.650000000000002,-1.9247310182531534,-7.083018102904397,-19.49558387149026,-0.23937196035577646,0.23892285008204617,-1.3644567901420501,-0.0066833948128453,0.005172128414265842,-0.034408404029662165,0.0,70.0,255.0,255.0,255.0
514,25.700000000000003,-1.9367080009213389,-7.071065525811044,-19.563849730347126,-0.23970926766931022,0.23920104356192518,-1.3661975111163116,-0.00673631772045713,0.0059458053475403005,-0.03513644926727011,0.0,70.0,255.0,255.0,255.0
515,25.75,-1.9487019450200844,-7.0590979985482045,-19.632203622601892,-0.24004559212782217,0.2395174306168002,-1.3679704350687771,-0.006595033257772442,0.006599182333566489,-0.03557040343089568,0.0,70.0,255.0,255.0,255.0
516,25.8,-1.960712560134121,-7.047113782749364,-19.700646773854004,-0.24036877099508747,0.23986096179528182,-1.3697545514594012,-0.00621696651248449,0.007007489634247577,-0.03557006825758435,0.0,70.0,255.0,255.0,255.0
517,25.85,-1.9727388221195932,-7.035111902368676,-19.769179077747832,-0.24066728877907062,0.24021817958022496,-1.3715274418945356,-0.0056781872831424,0.0071708795799985126,-0.03520278557616052,0.0,70.0,255.0,255.0,255.0
518,25.900000000000002,-1.9847792890120282,-7.023091964791342,-19.837799518043457,-0.2409365897234017,0.24057804975328168,-1.3732748300170172,-0.005120060388308367,0.007126255808742599,-0.03462564556038217,0.0,70.0,255.0,255.0,255.0
519,25.950000000000003,-1.9968324810919333,-7.011054097393348,-19.906506560749534,-0.24117929481790146,0.24093080516109922,-1.3749900064505738,-0.00468179742505459,0.006903479975139959,-0.0339905831424403,0.0,70.0,255.0,255.0,255.0
520,26.0,-2.0088972184938183,-6.998998884275232,-19.975298518688515,-0.24140476946590717,0.24126839775079567,-1.3766738883312613,-0.00449143712484279,0.0065340603085495275,-0.03343906035908617,0.0,70.0,255.0,255.0,255.0
521,26.05,-2.020972958038524,-6.986927257618269,-20.04417394958266,-0.24162843853038574,0.24158421119195417,-1.3783339124864824,-0.004611845258439828,0.006049646296624189,-0.03305622094984528,0.0,70.0,255.0,255.0,255.0
522,26.1,-2.033060062346857,-6.974840463156037,-20.113131909937163,-0.24186595399175115,0.2418733623804581,-1.3799795104262458,-0.004991909381901749,0.005508282909616469,-0.032860145994106915,0.0,70.0,255.0,255.0,255.0
523,26.150000000000002,-2.045159553437699,-6.962739921380223,-20.182171900625285,-0.2421276294685759,0.24213503948291581,-1.381619927085893,-0.0055199999971833336,0.005003687512417088,-0.03285348925743392,0.0,70.0,255.0,255.0,255.0
524,26.200000000000003,-2.0572728252937145,-6.950626959207745,-20.251293902645752,-0.24241795399146948,0.2423737311316998,-1.3832648593519892,-0.006077005399740543,0.004639249111626498,-0.03304070534433379,0.0,70.0,255.0,255.0,255.0
525,26.25,-2.069401348836846,-6.938502548267053,-20.320498386560484,-0.24273533000854997,0.24259896439407846,-1.3849239976203265,-0.0065511995949840696,0.0045085857558468945,-0.03342934580423673,0.0,70.0,255.0,255.0,255.0
526,26.3,-2.0815463582945695,-6.926367062768337,-20.389786302407785,-0.2430730739509679,0.2428245897072845,-1.3866077939324128,-0.006876165274416479,0.004654437998574679,-0.034006073580172824,0.0,70.0,255.0,255.0,255.0
527,26.35,-2.093708656231943,-6.914220089296324,-20.459159165953725,-0.2434229465359916,0.24306440819393593,-1.3883246049783438,-0.007037811553090023,0.005031513256881226,-0.03467579129186049,0.0,70.0,255.0,255.0,255.0
528,26.400000000000002,-2.1058886529481686,-6.9020606219489435,-20.52861876290562,-0.2437768551062769,0.2433277410329726,-1.390075373061599,-0.0070354640981928895,0.005542630505761537,-0.03527955825184392,0.0,70.0,255.0,255.0,255.0
529,26.450000000000003,-2.1180863417425706,-6.889887315193027,-20.598166703259885,-0.2441264929458109,0.24361867124451209,-1.3918525608035281,-0.0068706937963014525,0.006080036399414013,-0.03565433440577692,0.0,70.0,255.0,255.0,255.0
530,26.5,-2.1303013022427497,-6.877698754824492,-20.667804018985972,-0.24446392448590704,0.243935744672914,-1.3936408065021766,-0.00654777381945415,0.0065435780203237925,-0.0356515750713271,0.0,70.0,255.0,255.0,255.0
531,26.55,-2.1425327341911613,-6.865493740725736,-20.737530783910103,-0.24478127032775632,0.24427302904654447,-1.3954177183106609,-0.006082468002954755,0.0068731145297817875,-0.035205172373409255,0.0,70.0,255.0,255.0,255.0
532,26.6,-2.1547794292755253,-6.853271451919838,-20.80734579081704,-0.2450721712862025,0.2446230561258922,-1.3971613237395175,-0.0055376835663256685,0.0070493004257876635,-0.034402935926536315,0.0,70.0,255.0,255.0,255.0
533,26.650000000000002,-2.1670399513197816,-6.8410314351131465,-20.877246916284054,-0.24533503868438888,0.24497795908912323,-1.3988580119033145,-0.005018982770765845,0.0070613149392606545,-0.03342370897101432,0.0,70.0,255.0,255.0,255.0
534,26.700000000000003,-2.1793129331439642,-6.828773656010926,-20.94723159200737,-0.2455740695632791,0.24532918761981826,-1.400503694636619,-0.004639193774558237,0.006901118112079274,-0.03246093139033235,0.0,70.0,255.0,255.0,255.0
