idx,t,px,py,pz,vx,vy,vz,ax,ay,az,yaw,mode,ledr,ledg,ledb
0,0.0,1.500000000000001,10.500000000000005,5.2303880771237895e-19,0.0010426125124496366,0.0001760256048655151,-0.00042745162750178244,-0.012017416749676713,0.0009598293008394876,-0.013150322483321472,0.0,70.0,255.0,255.0,255.0
1,0.05,1.5000521306256236,10.500008801280249,-2.1372581375088602e-05,0.00044174167496580097,0.00022401706990748949,-0.001084967751667856,-0.017623948030820458,0.0015197652885490243,-0.02008169341456701,0.0,70.0,255.0,255.0,255.0
2,0.1,1.5000441741674977,10.500022401706996,-0.00010849677516678508,-0.0007197822906324092,0.00032800213372041753,-0.0024356209689584836,-0.022426125124508367,0.0022397439510157824,-0.027725483724982198,0.0,70.0,255.0,255.0,255.0
3,0.15000000000000002,1.4999801523965604,10.50004160149362,-0.000264934678270937,-0.0018008708374850357,0.0004479914650090677,-0.003857516124166076,-0.020817416749308038,0.002559829303550032,-0.029150322483323252,0.0,70.0,255.0,255.0,255.0
4,0.2,1.4998640870837492,10.500067200853497,-0.0004942483875833927,-0.002801523965563213,0.0005839850640754207,-0.005350653217290809,-0.019195099107949254,0.0028799164434545332,-0.03058491310372598,0.0,70.0,255.0,255.0,255.0
5,0.25,1.499700000000004,10.500100000000028,-0.0008000000000000179,-0.003720380748279961,0.000735983109354521,-0.006916007434538674,-0.017494528184225366,0.003200013873794205,-0.032075576930987844,0.0,70.0,255.0,255.0,255.0
6,0.30000000000000004,1.4994920490089212,10.500140799164432,-0.0011858491310372601,-0.0045509767839857496,0.0009039864514548412,-0.008558210910389594,-0.015694912041608333,0.0035201243415272643,-0.033637212643266974,0.0,70.0,255.0,255.0,255.0
7,0.35000000000000003,1.4992449023216055,10.500190398645174,-0.0016558210910389774,-0.0052898719524407944,0.0010879955435072475,-0.010279728698865372,-0.01397354918168947,0.0038402245159829818,-0.03514277514868517,0.0,70.0,255.0,255.0,255.0
8,0.4,1.4989630618136771,10.500249598718783,-0.0022138220009237973,-0.005948331702154697,0.0012880089030531394,-0.012072488425258111,-0.012613587957632788,0.004160277138431923,-0.036389371539316276,0.0,70.0,255.0,255.0,255.0
9,0.45,1.49865006915139,10.500319199535479,-0.0028630699335647886,-0.006551230748204073,0.0015040232573504397,-0.013918665852797,-0.011856006825117227,0.00448695849346592,-0.037209029766091334,0.0,70.0,255.0,255.0,255.0
10,0.5,1.4983079387388567,10.500400001044518,-0.0036056885862034973,-0.007133932384666419,0.0017367047523997314,-0.015793391401867245,-0.011904145844487957,0.004852104767039123,-0.0374783863886223,0.0,70.0,255.0,255.0,255.0
11,0.55,1.4979366759129233,10.500492870010719,-0.004442409073751513,-0.007741645332652869,0.001989233734054352,-0.01766650449165923,-0.012824998516669517,0.005265955458000349,-0.0371566225387069,0.0,70.0,255.0,255.0,255.0
12,0.6000000000000001,1.4975337742055914,10.500598924417924,-0.00537233903536942,-0.008416432236333371,0.0022633002981997663,-0.019509053655737935,-0.014388761860018029,0.005641150636392922,-0.03634712875343397,0.0,70.0,255.0,255.0,255.0
13,0.65,1.49709503268929,10.500719200040539,-0.006393314439325307,-0.009180521518654672,0.002553348797693644,-0.021301217367002627,-0.01616479175692298,0.005838183562012489,-0.0352606269867585,0.0,70.0,255.0,255.0,255.0
14,0.7000000000000001,1.496615722053726,10.500854259297693,-0.007502460772069683,-0.010032911412025669,0.002847118654401015,-0.023035116354413784,-0.01768085764375371,0.005731915619122674,-0.034148917474415806,0.0,70.0,255.0,255.0,255.0
15,0.75,1.4960917415480874,10.501003911905979,-0.008696826074766685,-0.010948607283030043,0.0031265403596059116,-0.024716109114444208,-0.01846733270576273,0.00519167417163402,-0.03326258498164175,0.0,70.0,255.0,255.0,255.0
16,0.8,1.495520861325423,10.501166913333654,-0.009974071683514104,-0.011879644682601942,0.003366286071564417,-0.02636137485257796,-0.018285284159280657,0.004174657011546401,-0.03274465046256957,0.0,70.0,255.0,255.0,255.0
17,0.8500000000000001,1.4949037770798272,10.501340540513135,-0.011332963560024481,-0.012777135698958109,0.0035440060607605517,-0.027990574160701165,-0.01732585559266475,0.0028777836609705787,-0.032580504709374056,0.0,70.0,255.0,255.0,255.0
18,0.9,1.4942431477555271,10.50152131393973,-0.01277312909958422,-0.013612230241868417,0.003654064437661475,-0.029619425323515365,-0.015991953639549195,0.0016468953761616945,-0.03269884312437216,0.0,70.0,255.0,255.0,255.0
19,0.9500000000000001,1.4935425540556404,10.501705946956902,-0.014294906092376018,-0.014376331062913028,0.003708695598376721,-0.03126045847313838,-0.014694222273581303,0.0008304139942794109,-0.033027188448134376,0.0,70.0,255.0,255.0,255.0
20,1.0,1.4928055146492358,10.501892183499567,-0.01589917494689806,-0.015081652469226547,0.003737105837089416,-0.0329221441683288,-0.013838458064197035,0.0007651612484949055,-0.03348731098084985,0.0,70.0,255.0,255.0,255.0
21,1.05,1.4920343888087177,10.50207965754061,-0.0175871205092089,-0.01576017686933273,0.0037852117232262117,-0.034609189571223366,-0.013645986058263837,0.0016035283840309944,-0.03401974064598093,0.0,70.0,255.0,255.0,255.0
22,1.1,1.4912294969623026,10.50227070467189,-0.019360093904020395,-0.01644625107505293,0.0038974586754925156,-0.036324118232926896,-0.014017839079483174,0.0031169921101081854,-0.034570945649161494,0.0,70.0,255.0,255.0,255.0
23,1.1500000000000001,1.4903897637012125,10.50246940340816,-0.021219532332501588,-0.01716196077728105,0.00409691093423703,-0.038066284136139515,-0.014719048696654191,0.004862440063035933,-0.03506138979314129,0.0,70.0,255.0,255.0,255.0
24,1.2000000000000002,1.4895133008845745,10.502680395765314,-0.023166722317634347,-0.01791815594471835,0.004383702681796109,-0.039830257212241024,-0.01552136748101951,0.006381393437138172,-0.0353971539078745,0.0,70.0,255.0,255.0,255.0
25,1.25,1.4885979481067406,10.50290777367634,-0.02520255805372569,-0.018714097525383,0.004735050277950847,-0.041605999526926965,-0.01620289098147598,0.007231690156750403,-0.03549213379892453,0.0,70.0,255.0,255.0,255.0
26,1.3,1.4876418911320362,10.503153900793109,-0.027327322270327043,-0.01953844504286595,0.005106871697471149,-0.04337947059213348,-0.016631937108724237,0.007184656027448,-0.035309160846281815,0.0,70.0,255.0,255.0,255.0
27,1.35,1.486644103602454,10.503418460846087,-0.029540505112939038,-0.020377291236255424,0.005453515880695647,-0.045136915611555146,-0.016807356853898447,0.006387767713711412,-0.03490018821845353,0.0,70.0,255.0,255.0,255.0
28,1.4000000000000001,1.4856041620084106,10.503699252381178,-0.03184101383148256,-0.021219180728255793,0.00574564846884229,-0.04686948941397883,-0.01676560448764519,0.005169824557604841,-0.03437196133942409,0.0,70.0,255.0,255.0,255.0
29,1.4500000000000002,1.4845221855296284,10.50399302569297,-0.03422745405433692,-0.022053851685019943,0.0059704983364561315,-0.048574111745497556,-0.016534620156782864,0.0038705856825416163,-0.03384368309985834,0.0,70.0,255.0,255.0,255.0
30,1.5,1.4833987768399086,10.504296302214824,-0.03669842500603231,-0.02287264274393408,0.006132707037096452,-0.050253857723964665,-0.01614195936190388,0.002824068800855173,-0.03343217247147451,0.0,70.0,255.0,255.0,255.0
31,1.55,1.482234921255235,10.50460629639668,-0.03925283982673339,-0.02366804762121033,0.006252905216541649,-0.05191732899264501,-0.015618526579030956,0.0022228824716918894,-0.03320310314837774,0.0,70.0,255.0,255.0,255.0
32,1.6,1.4810319720777876,10.504921592736478,-0.041890157905296814,-0.024434495401837175,0.006354995284265641,-0.05357416803880244,-0.015033572665634765,0.0020437319063759674,-0.03314466511338196,0.0,70.0,255.0,255.0,255.0
33,1.6500000000000001,1.4797914717150513,10.505241795925107,-0.04461025663061363,-0.025171404887773807,0.0064572784071792455,-0.0552317955039832,-0.01449937251356559,0.002188984316831011,-0.0332152403736366,0.0,70.0,255.0,255.0,255.0
34,1.7000000000000002,1.4785148315890102,10.505567320577196,-0.047413337455695134,-0.025884432653193734,0.006573893715948742,-0.0568956920761661,-0.014139126251055956,0.0025681519442599665,-0.033374314158901575,0.0,70.0,255.0,255.0,255.0
35,1.75,1.477203028449732,10.505899185296702,-0.05029982583823024,-0.026585317512879403,0.006714093601605242,-0.05856922691987336,-0.014073280894955076,0.0030880719361192632,-0.03358719496319648,0.0,70.0,255.0,255.0,255.0
36,1.8,1.4758562998377223,10.506238729937357,-0.05327026014768247,-0.02729176074268924,0.006882700909560668,-0.06025441157248575,-0.014354469395505554,0.0036787791211523313,-0.03382565266742965,0.0,70.0,255.0,255.0,255.0
37,1.85,1.474473852375463,10.506587455387658,-0.056325266995478816,-0.028020764452429958,0.007081971513720475,-0.061951792186616325,-0.014893876959165553,0.004277397901120139,-0.03404208372894957,0.0,70.0,255.0,255.0,255.0
38,1.9000000000000001,1.4730542233924793,10.506946927088729,-0.0594654393663441,-0.028781148438605797,0.007310440699672682,-0.0636586199453807,-0.015520541821789635,0.004791627451794511,-0.034165305604254986,0.0,70.0,255.0,255.0,255.0
39,1.9500000000000002,1.4715957375316024,10.507318499457625,-0.06269112899001689,-0.02957281863460892,0.007561134258899926,-0.06536832274704182,-0.016056100946193474,0.005111631713639042,-0.03411957308505423,0.0,70.0,255.0,255.0,255.0
40,2.0,1.4700969415290184,10.507703040514619,-0.06600227164104829,-0.030386758533225144,0.007821603871036586,-0.06707057725388613,-0.016328926382236375,0.005127606159227582,-0.03381904767574412,0.0,70.0,255.0,255.0,255.0
41,2.0500000000000003,1.46855706167828,10.508100659844729,-0.0693981867154055,-0.03120571127283256,0.008073894874822685,-0.06875022751461624,-0.01625030912555392,0.00479477493833258,-0.03323377336139355,0.0,70.0,255.0,255.0,255.0
42,2.1,1.4669763704017351,10.5085104300021,-0.07287729439250991,-0.032011789445780536,0.008301081364869844,-0.07039395459002548,-0.015876327423147707,0.004211152012700836,-0.03248877153258917,0.0,70.0,255.0,255.0,255.0
43,2.15,1.4653558827337019,10.508930767981216,-0.07643758217440805,-0.03279334401514733,0.008495010076092768,-0.07199910466787515,-0.015333052273902581,0.0035608695119648814,-0.031802604808404966,0.0,70.0,255.0,255.0,255.0
44,2.2,1.4636970360002204,10.50935993100971,-0.08007720485929742,-0.033545094673170794,0.008657168316066333,-0.07357421507086598,-0.014749756677523429,0.0030380950949648877,-0.03139345410694827,0.0,70.0,255.0,255.0,255.0
45,2.25,1.4620013732663848,10.509796484812822,-0.08379500368149465,-0.03426831968289967,0.008798819585589257,-0.07513845007856998,-0.014247004252143647,0.002837494101726179,-0.03147656771378127,0.0,70.0,255.0,255.0,255.0
46,2.3000000000000003,1.4602702040319304,10.510239812968269,-0.08759104986715442,-0.03496979509838516,0.00894091772623895,-0.0767218718422441,-0.013897067994972367,0.0030554078396249906,-0.03214685295459402,0.0,70.0,255.0,255.0,255.0
47,2.35,1.4585043937565463,10.510690576585446,-0.09146719086571906,-0.03565802648239691,0.009104360369551756,-0.07835313537402938,-0.013717176984595625,0.0035925861237018353,-0.03323658305445232,0.0,70.0,255.0,255.0,255.0
48,2.4000000000000004,1.4567044013836907,10.511150249005224,-0.09542636340455736,-0.03634151279684472,0.009300176338609134,-0.08004553014768934,-0.013711724607046172,0.004250302424324559,-0.034428843926691266,0.0,70.0,255.0,255.0,255.0
49,2.45,1.4548702424768618,10.511620594219307,-0.09947174388048799,-0.03702919894310153,0.009529390611984212,-0.08179601976669851,-0.01388435952323075,0.004829414481122285,-0.03540106270160659,0.0,70.0,255.0,255.0,255.0
50,2.5,1.4530014814893806,10.512103188066423,-0.10360596538122721,-0.037729948749167797,0.009783117786721363,-0.08358563641785,-0.014239047285169448,0.005138454730335695,-0.035846709441166025,0.0,70.0,255.0,255.0,255.0
51,2.5500000000000003,1.451097247601945,10.51259890599798,-0.10783030752227299,-0.03845310367161847,0.010043236085017782,-0.08538069071081511,-0.014762444535398878,0.005077020275479072,-0.03561172857313999,0.0,70.0,255.0,255.0,255.0
52,2.6,1.4491561711222187,10.513107511674924,-0.11214403445230872,-0.039206193202707684,0.01029081981426927,-0.087146809275164,-0.015374125477607414,0.004703911417358597,-0.03481477969947272,0.0,70.0,255.0,255.0,255.0
53,2.6500000000000004,1.4471766282816743,10.513627987979406,-0.11654498844978939,-0.03999051621937921,0.010513627226753641,-0.08886216868076238,-0.015939210137272397,0.004152512864941116,-0.03371297519578209,0.0,70.0,255.0,255.0,255.0
54,2.7,1.4451571195002808,10.5141588743976,-0.12103025132038496,-0.040800114216434924,0.010706071100763381,-0.0905181067947422,-0.016313830870706703,0.003557533695186521,-0.032575068979417976,0.0,70.0,255.0,255.0,255.0
55,2.75,1.4430966168600308,10.514698595089483,-0.1255967991292636,-0.04162189930644988,0.010869380596272293,-0.09211967557870418,-0.01635279728304795,0.003044677652930261,-0.031660603845573565,0.0,70.0,255.0,255.0,255.0
56,2.8000000000000003,1.4409949295696358,10.515245812457227,-0.13024221887825538,-0.04243539394473972,0.011010538866056407,-0.09368416717929956,-0.015992641042772426,0.0026892849499304816,-0.03111849382509274,0.0,70.0,255.0,255.0,255.0
57,2.85,1.4388530774655568,10.515799648976088,-0.13496521584719356,-0.043221163410727126,0.011138309091265342,-0.09523152496121345,-0.015350796629398644,0.002508131843548256,-0.03093702542037169,0.0,70.0,255.0,255.0,255.0
58,2.9000000000000004,1.436672813228563,10.516359643366354,-0.13976537137437672,-0.04397047360767958,0.011261352050411233,-0.09677786972133673,-0.014647798480371677,0.002504121640889423,-0.03104820633913763,0.0,70.0,255.0,255.0,255.0
59,2.95,1.4344560301047888,10.51692578418113,-0.14464300281932724,-0.044685943258764294,0.011388721255354284,-0.09833634559512722,-0.0141130908869469,0.002679937917804409,-0.03138434902642817,0.0,70.0,255.0,255.0,255.0
60,3.0,1.4322042189026867,10.517498515491889,-0.14959900593388945,-0.04538178269637427,0.011529345842191674,-0.09991630462397955,-0.013985754258749594,0.0030388253343005545,-0.03187488450055176,0.0,70.0,255.0,255.0,255.0
61,3.0500000000000003,1.4299178518351514,10.518078718765349,-0.1546346332817252,-0.04608451868463925,0.01169260378878434,-0.10152383404518239,-0.014380278006731473,0.003566865565751698,-0.03246254787472869,0.0,70.0,255.0,255.0,255.0
62,3.1,1.4275957670342228,10.518667775870767,-0.15975138933840768,-0.04681981049704742,0.011886032398766844,-0.10316255941145241,-0.015137280079047244,0.004182722047474385,-0.033077211859128264,0.0,70.0,255.0,255.0,255.0
63,3.1500000000000004,1.4252358707854467,10.519267322005225,-0.16495088922287043,-0.04759824669254398,0.012110875993531778,-0.10483155523109522,-0.015955003866507944,0.00475016141088247,-0.03361158872507153,0.0,70.0,255.0,255.0,255.0
64,3.2,1.4228359423649684,10.51987886347012,-0.1702345448615172,-0.048415310883698215,0.01236104853985509,-0.10652371828395957,-0.016533945441876696,0.005123740274548538,-0.03394236008970597,0.0,70.0,255.0,255.0,255.0
65,3.25,1.4203943396970768,10.52050342685921,-0.1756032610512664,-0.04925164123673165,0.012623250020986632,-0.10822579124006582,-0.016572250950219747,0.005156011685869544,-0.033943820856169316,0.0,70.0,255.0,255.0,255.0
66,3.3000000000000003,1.4179107782412952,10.52114118847222,-0.1810571239855238,-0.05007253597872019,0.012876649708442045,-0.1099181003695765,-0.015925873969857562,0.004782739966380234,-0.0335640885687466,0.0,70.0,255.0,255.0,255.0
67,3.35,1.4153870860992048,10.521791091830055,-0.18659507108822404,-0.0508442286337174,0.013101524017624655,-0.11158220009694048,-0.014787262541404722,0.0041254554901115625,-0.03291860266758373,0.0,70.0,255.0,255.0,255.0
68,3.4000000000000004,1.4128263553779234,10.522451340873982,-0.19221534399521784,-0.05155126223286066,0.013289195257453201,-0.11320996063633487,-0.013525845727357932,0.0034115963520875425,-0.032221802396950605,0.0,70.0,255.0,255.0,255.0
69,3.45,1.4102319598759188,10.5231200113558,-0.19791606715185753,-0.052196813206453196,0.01344268365283341,-0.11480438033663554,-0.012510474664861881,0.002877874877960096,-0.03169898450752218,0.0,70.0,255.0,255.0,255.0
70,3.5,1.4076066740572781,10.523795609239265,-0.2036957820288814,-0.05280230969934685,0.013576982745249211,-0.11637985908708709,-0.012101185996060693,0.0027731185985757634,-0.03158582275077371,0.0,70.0,255.0,255.0,255.0
71,3.5500000000000003,1.404951728905984,10.524477709630325,-0.20955405306056624,-0.053406931806059266,0.013719995512690986,-0.11796296261171291,-0.012476599074484618,0.0032154612808810157,-0.03199438456358006,0.0,70.0,255.0,255.0,255.0
72,3.6,1.4022659808766722,10.525167608790534,-0.21549207829005268,-0.05404996960679531,0.013898528873337312,-0.1195792975434451,-0.013463786305667469,0.004030048065750691,-0.03276296954511093,0.0,70.0,255.0,255.0,255.0
73,3.6500000000000004,1.3995467319453045,10.525867562517659,-0.22151198281491075,-0.05475331043662601,0.014123000319266055,-0.121239259566224,-0.014710657512972958,0.004888861105989406,-0.03358660961254867,0.0,70.0,255.0,255.0,255.0
74,3.7,1.3967906498330096,10.52657990882246,-0.22761600424667508,-0.05552103535809261,0.014387414983936253,-0.12293795850469996,-0.015858095292520247,0.005464900073626211,-0.03416184174035719,0.0,70.0,255.0,255.0,255.0
75,3.75,1.3939946284094953,10.527306304016053,-0.23380577866538074,-0.05633911996587804,0.014669490326628676,-0.12465544374025972,-0.016551023713451407,0.005419579188981061,-0.0341809534087828,0.0,70.0,255.0,255.0,255.0
76,3.8000000000000003,1.3911567378364218,10.528046857855124,-0.24008154862070105,-0.05717613772943775,0.01492937290283436,-0.12635605384557824,-0.01660166912631489,0.004595041950139489,-0.0334980002165558,0.0,70.0,255.0,255.0,255.0
77,3.85,1.3882770146365515,10.528799241306336,-0.24644138404993857,-0.057999286878509526,0.015128994521642625,-0.1280052437619153,-0.01612663652506008,0.00324153173441033,-0.032316698639159314,0.0,70.0,255.0,255.0,255.0
78,3.9000000000000004,1.3853568091485708,10.529559757307288,-0.2528820729968926,-0.058788801381943756,0.015253526076275392,-0.12958772370949417,-0.015381640770661953,0.001826618898626009,-0.031025418826510776,0.0,70.0,255.0,255.0,255.0
79,3.95,1.3823981344983571,10.530324593913964,-0.259400156420888,-0.05953745095557572,0.015311656411505226,-0.13110778564456638,-0.014624230412074724,0.000815158858991083,-0.0300129958504064,0.0,70.0,255.0,255.0,255.0
80,4.0,1.3794030640530133,10.531090922948438,-0.2659928515613492,-0.06025122442315123,0.0153350419621745,-0.1325890232945348,-0.014122691178197755,0.0006724807278146727,-0.029666307670050962,0.0,70.0,255.0,255.0,255.0
81,4.05,1.376373012056042,10.531858098110181,-0.27265905875034147,-0.0609497200733955,0.015378904484286693,-0.13407441641157147,-0.014022272205904684,0.001618543413961504,-0.030173987530568436,0.0,70.0,255.0,255.0,255.0
82,4.1000000000000005,1.3733080920456737,10.532628813396867,-0.27940029320250637,-0.0616534516437417,0.01549689630357065,-0.13560642204759166,-0.01422509882949008,0.003352169986925446,-0.031320352448377387,0.0,70.0,255.0,255.0,255.0
83,4.15,1.3702076668916678,10.533407787740538,-0.28621970095510063,-0.062372229956344505,0.015714121482979237,-0.1372064516564092,-0.014529026490461838,0.005294639988484562,-0.03268075937044035,0.0,70.0,255.0,255.0,255.0
84,4.2,1.3670708690500393,10.534200225545165,-0.2931209383681473,-0.06310635429278788,0.016026360302419107,-0.1388744979846357,-0.014744097278218682,0.006862343276914373,-0.033826827538668836,0.0,70.0,255.0,255.0,255.0
85,4.25,1.363897031462389,10.53501042377078,-0.3001071507535642,-0.06384663968416637,0.016400355810670675,-0.1405891344102761,-0.014670286166040825,0.007478563167317986,-0.03433386253103854,0.0,70.0,255.0,255.0,255.0
86,4.3,1.3606862050816226,10.535840261126232,-0.3071798518091749,-0.06457338290939196,0.016774216619150906,-0.14230788423773955,-0.014209381910412766,0.006857124720482943,-0.033986189521284516,0.0,70.0,255.0,255.0,255.0
87,4.3500000000000005,1.3574396931714499,10.536687845432695,-0.31433793917733815,-0.06526757787520765,0.01708606828271897,-0.14398775336240455,-0.013495672119590019,0.005285079694949957,-0.03297270741816627,0.0,70.0,255.0,255.0,255.0
88,4.4,1.3541594472941019,10.537548867954504,-0.32157862714541535,-0.06592295012135096,0.0173027245886459,-0.14560515497955617,-0.012779549304764437,0.003340368933102411,-0.03168072784091591,0.0,70.0,255.0,255.0,255.0
89,4.45,1.3508473981593148,10.53841811789156,-0.32889845467529377,-0.0665455328056841,0.01742010517602921,-0.14715582614649614,-0.012299240614943585,0.0016081020650204891,-0.030499554134805207,0.0,70.0,255.0,255.0,255.0
90,4.5,1.3475048940135335,10.539290878472107,-0.33629420976006497,-0.06715287418284532,0.01746353479514795,-0.1486551103930367,-0.01228408956532867,0.0006692106579109236,-0.02981819558574572,0.0,70.0,255.0,255.0,255.0
91,4.55,1.3441321107410302,10.540164471371074,-0.34376396571459744,-0.06777394176221696,0.017487026241820303,-0.1501376457050707,-0.012841085933246177,0.0008255917361310594,-0.029840601703612357,0.0,70.0,255.0,255.0,255.0
92,4.6000000000000005,1.3407274998373118,10.541039581096289,-0.35130797433057204,-0.06843698277616994,0.017546093968761056,-0.15163917056339793,-0.013825965606129031,0.001853059020717751,-0.03041977358993475,0.0,70.0,255.0,255.0,255.0
93,4.65,1.3372884124634132,10.54191908076795,-0.35892788277093723,-0.06915653832282986,0.017672332143892078,-0.15317962306406419,-0.01495734505512214,0.003279175655812594,-0.031246212715790866,0.0,70.0,255.0,255.0,255.0
94,4.7,1.3338118460050288,10.542806814310678,-0.36662593663697846,-0.06993271728168216,0.017874011534342316,-0.15476379183497702,-0.01594667918958237,0.004631588788228669,-0.03201458296173687,0.0,70.0,255.0,255.0,255.0
95,4.75,1.330295140735245,10.543706481921385,-0.37440426195443494,-0.0707512062417881,0.018135491022714945,-0.15638108136023787,-0.01651335557253386,0.005432659467352607,-0.03241741107004037,0.0,70.0,255.0,255.0,255.0
96,4.800000000000001,1.32673672538085,10.54462036341295,-0.38226404477300224,-0.07158405283893554,0.018417277481077576,-0.15800553294198105,-0.01651298764342446,0.005428387122030642,-0.0322920563449236,0.0,70.0,255.0,255.0,255.0
97,4.8500000000000005,1.3231367354513515,10.545548209669493,-0.39020481524863304,-0.07240250500613055,0.01867832973491801,-0.15961028699473023,-0.016048577344163206,0.004792660914354485,-0.031754538548450784,0.0,70.0,255.0,255.0,255.0
98,4.9,1.319496474880237,10.546488196386441,-0.39822507347247527,-0.07318891057335186,0.018896543572513025,-0.16118098679682613,-0.015342958586650468,0.0038912734332541277,-0.03104724180872931,0.0,70.0,255.0,255.0,255.0
99,4.95,1.3158178443940163,10.547437864026744,-0.40632291392831565,-0.0739368008647956,0.01906745707824342,-0.16271501117560316,-0.014627329339766959,0.0030797152744455047,-0.030402486978581278,0.0,70.0,255.0,255.0,255.0
100,5.0,1.3121027947937574,10.548394942094266,-0.4144965745900356,-0.07465164350732856,0.019204515099957575,-0.16422123549468426,-0.014142488144353038,0.0027240675557038685,-0.030044094866049642,0.0,70.0,255.0,255.0,255.0
101,5.050000000000001,1.3083526800432834,10.54935831553674,-0.4227450374777841,-0.0753510496792309,0.01933986383381381,-0.16571942066220813,-0.01401922456565341,0.0030134938088011154,-0.03009103305655625,0.0,70.0,255.0,255.0,255.0
102,5.1000000000000005,1.3045676898258343,10.550328928477647,-0.4310685166562564,-0.0760535659638939,0.019505864480837687,-0.16723033880033988,-0.014175156252860255,0.003769956997601298,-0.030476664290829403,0.0,70.0,255.0,255.0,255.0
103,5.15,1.300747323446894,10.551308901984823,-0.43946807135781807,-0.07676856530451692,0.01971685953357394,-0.16876708709129107,-0.014437067684358595,0.0046429100983402805,-0.031050227974765976,0.0,70.0,255.0,255.0,255.0
104,5.2,1.2968908332953826,10.552300614431005,-0.4479452253653855,-0.07749727273232976,0.019970155490671715,-0.17033536159781648,-0.014643117670343209,0.005295890438539175,-0.031662182410635564,0.0,70.0,255.0,255.0,255.0
105,5.25,1.292997596173661,10.55330591753389,-0.4565016075175997,-0.07823287707155124,0.020246448577427856,-0.17193330533235462,-0.014628766442115193,0.005391163549006706,-0.032170218789706606,0.0,70.0,255.0,255.0,255.0
106,5.300000000000001,1.2890675455882274,10.554325259288747,-0.46513855589862096,-0.07896014937654128,0.020509271845572385,-0.17355238347678714,-0.014310253954263885,0.0047639779696240225,-0.03249103753610316,0.0,70.0,255.0,255.0,255.0
107,5.3500000000000005,1.285101581236007,10.555356844718448,-0.47385684586527843,-0.07966390246697763,0.020722846374390258,-0.17518240908596494,-0.013773501607095007,0.003614690583297886,-0.03262244065187492,0.0,70.0,255.0,255.0,255.0
108,5.4,1.2811011553415297,10.556397543926186,-0.48265679680721746,-0.08033749953725078,0.020870740903902174,-0.17681462754197463,-0.01318606671312228,0.0023307458461019337,-0.032587370767755974,0.0,70.0,255.0,255.0,255.0
109,5.45,1.2770678312822819,10.557443918808838,-0.4915383086194759,-0.08098250913828986,0.02095592095900045,-0.17844114616274054,-0.012706773405524174,0.0012960702912678812,-0.03240929619939825,0.0,70.0,255.0,255.0,255.0
110,5.5,1.2730029044277007,10.558493136022086,-0.5005009114234915,-0.0816081768778032,0.021000347933028962,-0.18005555716191446,-0.01248239946707308,0.0008872223054012807,-0.03211903929909998,0.0,70.0,255.0,255.0,255.0
111,5.550000000000001,1.2689070135945015,10.559543953602141,-0.5095438643356673,-0.08223074908499717,0.02104464318954058,-0.18165305009265054,-0.012586845864359653,0.0012909672731709065,-0.031743791157989865,0.0,70.0,255.0,255.0,255.0
112,5.6000000000000005,1.264779829519201,10.56059760034104,-0.5186662164327566,-0.08286686146423916,0.021129444660346053,-0.18322993627771345,-0.012966361794197745,0.002321397217386334,-0.03131441226249532,0.0,70.0,255.0,255.0,255.0
113,5.65,1.2606203274480776,10.561656898068176,-0.5278668579634387,-0.08352738526441694,0.021276782911279213,-0.18478449131890007,-0.013502301826773255,0.003603150805453481,-0.030881128115067824,0.0,70.0,255.0,255.0,255.0
114,5.7,1.2564270909927593,10.562725278632168,-0.5371446655646466,-0.08421709164691649,0.0214897597408914,-0.18631804908922023,-0.014070301528379403,0.0047537677922093735,-0.030506320437473367,0.0,70.0,255.0,255.0,255.0
115,5.75,1.252198618283386,10.563805874042265,-0.5464986628723607,-0.08493441541725488,0.02175215969050015,-0.1878351233626474,-0.014553617041412892,0.005387965878433931,-0.030249661309944553,0.0,70.0,255.0,255.0,255.0
116,5.800000000000001,1.2479336494510338,10.564900494601218,-0.5559281779009113,-0.08567245335105778,0.022028556328734794,-0.18934301522021468,-0.01488287540865052,0.005306092331558432,-0.030140511118625923,0.0,70.0,255.0,255.0,255.0
117,5.8500000000000005,1.2436313729482802,10.566008729675138,-0.5654329643943822,-0.08642270295811993,0.022282768923655993,-0.19084917447451,-0.015044687579890414,0.0046687648353582745,-0.030157206335401643,0.0,70.0,255.0,255.0,255.0
118,5.9,1.2392913791552218,10.567128771493584,-0.5750130953483623,-0.08717692210904682,0.02249543281227062,-0.19235873585375485,-0.01504025045524493,0.0038067674822173103,-0.030250820734789574,0.0,70.0,255.0,255.0,255.0
119,5.95,1.2349136807373755,10.568258272956365,-0.5846688379797577,-0.08792672800364443,0.022663445671877724,-0.19387425654798895,-0.014872533301546476,0.0030492314994745584,-0.03036542205075987,0.0,70.0,255.0,255.0,255.0
120,6.0,1.2304987063548574,10.569395116060772,-0.5944005210031612,-0.08866417543920146,0.022800355962218077,-0.19539527805883083,-0.014547141691312326,0.0027368582360409732,-0.030438306137003934,0.0,70.0,255.0,255.0,255.0
121,6.050000000000001,1.2260472631934554,10.570538308552587,-0.6042083657856407,-0.08938144217277566,0.02293713149548182,-0.19691808716168935,-0.014080626859969136,0.003044010720465451,-0.03043467718792936,0.0,70.0,255.0,255.0,255.0
122,6.1000000000000005,1.2215605621375798,10.57168882921032,-0.6140923297193301,-0.09007223812519838,0.023104757034264622,-0.19843874577762377,-0.01353572704716477,0.0037972031154964725,-0.030377694796890342,0.0,70.0,255.0,255.0,255.0
123,6.15,1.2170400393809355,10.572848784256013,-0.6240522403634031,-0.09073501487749214,0.02331685180703147,-0.19995585664137838,-0.013017535512971357,0.004656958754445384,-0.030313817384153285,0.0,70.0,255.0,255.0,255.0
124,6.2,1.2124870606498306,10.574020514391023,-0.634087915383468,-0.09137399167649551,0.02357045290970916,-0.2014701275160391,-0.01263853962429895,0.005295646535152798,-0.03028579089322525,0.0,70.0,255.0,255.0,255.0
125,6.25,1.207902640213286,10.575205829546984,-0.644199253115007,-0.09199886883992203,0.02384641646054675,-0.2029844357307009,-0.012501825517374776,0.005384694416044056,-0.03034508616988063,0.0,70.0,255.0,255.0,255.0
126,6.300000000000001,1.2032871737658384,10.576405156037078,-0.6543863589565381,-0.09262417422823299,0.024108922351313566,-0.20450463613302716,-0.012655129972105605,0.004764205113616526,-0.0305140668429571,0.0,70.0,255.0,255.0,255.0
127,6.3500000000000005,1.1986402227904627,10.577616721782116,-0.6646497167283097,-0.09326438183713259,0.0243228369719084,-0.20603584241499662,-0.013047928706999556,0.0036296021898252206,-0.030732014477108383,0.0,70.0,255.0,255.0,255.0
128,6.4,1.1939607355821251,10.578837439734269,-0.6749899431980377,-0.09392896709893295,0.02447188257029609,-0.207577837580738,-0.013573243856424,0.00235905717467233,-0.03089390972863537,0.0,70.0,255.0,255.0,255.0
129,6.45,1.1892473260805694,10.580063910039145,-0.6854075004863835,-0.09462170622277499,0.024558742689375634,-0.20912523338786015,-0.014113821021788375,0.0013275296801396053,-0.03089812766298161,0.0,70.0,255.0,255.0,255.0
130,6.5,1.1844985649598476,10.581293314003206,-0.6959024665368237,-0.09534034920111178,0.02460463553831005,-0.21066765034703616,-0.014557537591075587,0.0009003081551384184,-0.030633377155453445,0.0,70.0,255.0,255.0,255.0
131,6.550000000000001,1.1797132911604582,10.582524373592976,-0.7064742655210872,-0.09607745998188255,0.024648773504889476,-0.2121885711034055,-0.014839366072116889,0.0012595417850036483,-0.03005525590645819,0.0,70.0,255.0,255.0,255.0
132,6.6000000000000005,1.1748908189616594,10.583758191353695,-0.7171213236471643,-0.09682428580832347,0.024730589716810414,-0.21367317593768198,-0.014956194488524588,0.002234504674980542,-0.029296018856506123,0.0,70.0,255.0,255.0,255.0
133,6.65,1.1700308625796259,10.584997432564657,-0.7278415831148554,-0.09757307943073501,0.02487222397238753,-0.2151181729890561,-0.014925013536859488,0.0034758568357773356,-0.028589611300455786,0.0,70.0,255.0,255.0,255.0
134,6.7,1.1651335110185859,10.586245413750934,-0.7386331409460699,-0.09831678716200942,0.025078175400388147,-0.21653213706772756,-0.01476668910918022,0.004628174138332497,-0.028167759060904185,0.0,70.0,255.0,255.0,255.0
135,6.75,1.160199183863425,10.587505250104696,-0.7494947968216281,-0.09904974834165303,0.02533504138622078,-0.21793494889514653,-0.014512033442337646,0.005342091611737487,-0.028261358588188568,0.0,70.0,255.0,255.0,255.0
136,6.800000000000001,1.1552285361844206,10.588778917889556,-0.7604266358355846,-0.09976799050624319,0.025612384561561896,-0.21935827292654642,-0.014186380098268891,0.005431567140234961,-0.028972508598767988,0.0,70.0,255.0,255.0,255.0
137,6.8500000000000005,1.1502223848128006,10.590066488560852,-0.7714306241142828,-0.10046838635147992,0.025878198100244276,-0.22083219975502333,-0.013808132499826264,0.005001423398809379,-0.030117663010620355,0.0,70.0,255.0,255.0,255.0
138,6.9,1.1451816975492726,10.59136673769958,-0.7825098558110869,-0.10114880375622581,0.026112526901442834,-0.22237003922760845,-0.013407541157084424,0.004287632032351496,-0.031352213834157094,0.0,70.0,255.0,255.0,255.0
139,6.95,1.140107504437178,10.592677741250997,-0.7936676280370436,-0.10180914046718836,0.026306961303479426,-0.22396742113843904,-0.013025110187148137,0.003526860013636224,-0.03232528830789949,0.0,70.0,255.0,255.0,255.0
140,7.0,1.1350007835025537,10.593997433829928,-0.8049065979249308,-0.10245131477494063,0.026465212902806456,-0.2256025680583984,-0.012690365935652537,0.0029592974259529115,-0.03269321646378609,0.0,70.0,255.0,255.0,255.0
141,7.050000000000001,1.129862372959684,10.595324262541277,-0.8162278848428834,-0.10307817706075362,0.026602891046074717,-0.22723674278481765,-0.012421826821351623,0.0027197374389942297,-0.03228762345135472,0.0,70.0,255.0,255.0,255.0
142,7.1000000000000005,1.1246929657964784,10.596657722934536,-0.8276302722034126,-0.10369349745707579,0.02673718664670588,-0.22883133040353387,-0.012248571549400289,0.002755232965334642,-0.03128321255084776,0.0,70.0,255.0,255.0,255.0
143,7.15,1.1194930232139764,10.597997981205948,-0.8391110178832368,-0.10430303421569365,0.02687841434260818,-0.23036506403990242,-0.012207525797647278,0.0029398621224530075,-0.030032489073850144,0.0,70.0,255.0,255.0,255.0
144,7.2,1.114262662374909,10.599345564368797,-0.8506667786074028,-0.10491425003684052,0.02703117285895118,-0.2318345793109189,-0.012326156855468895,0.0031567867390336346,-0.028897148313666854,0.0,70.0,255.0,255.0,255.0
145,7.25,1.1090015982102923,10.600701098491843,-0.8622944758143287,-0.10553564990124054,0.027194093016511545,-0.2332547788712691,-0.012630465519047895,0.003280765302982047,-0.028237756908655598,0.0,70.0,255.0,255.0,255.0
146,7.300000000000001,1.103709097384785,10.602064973670448,-0.8739922564945297,-0.1061772965887453,0.027359249389249385,-0.23465835500178445,-0.013120624970630601,0.003243422496979065,-0.028243058201748994,0.0,70.0,255.0,255.0,255.0
147,7.3500000000000005,1.0983838685514178,10.603437023430768,-0.8857603113145072,-0.1068477123983036,0.02751843526620945,-0.236079084691444,-0.01371674214165619,0.0030985771429570264,-0.028780442496967318,0.0,70.0,255.0,255.0,255.0
148,7.4,1.0930243261449546,10.604816817197069,-0.8976001649636741,-0.10754897080291093,0.027669107103545088,-0.23753639925148118,-0.0142815164915433,0.0029511479171517863,-0.029567713320399758,0.0,70.0,255.0,255.0,255.0
149,7.45,1.0876289714711267,10.606203934141123,-0.9095139512396553,-0.10827586404745793,0.02781355005792463,-0.23903585602348398,-0.014671288031942176,0.002893079275878563,-0.030325745477055577,0.0,70.0,255.0,255.0,255.0
150,7.5,1.0821967397402088,10.607598172202861,-0.9215037505660225,-0.10901609960610514,0.027958415031132944,-0.24056897379918674,-0.014743762664082283,0.003013585417832587,-0.030779811845693672,0.0,70.0,255.0,255.0,255.0
151,7.550000000000001,1.0767273615105162,10.608999775644236,-0.933570848619574,-0.10975024031386615,0.02811490859970789,-0.24211383720805335,-0.01443516047572313,0.003353658819271743,-0.030780796422302803,0.0,70.0,255.0,255.0,255.0
152,7.6000000000000005,1.0712217157088222,10.610409663062832,-0.9457151342868279,-0.11045961565367746,0.028293780913060118,-0.24364705344141702,-0.013848935408544705,0.003848686901619658,-0.030401357787546157,0.0,70.0,255.0,255.0,255.0
153,7.65,1.0656813999451484,10.611829153735542,-0.9579355539637157,-0.11113513385472062,0.028499777289869854,-0.24515397298680797,-0.01318277187254413,0.004376478610268464,-0.029809478157372116,0.0,70.0,255.0,255.0,255.0
154,7.7,1.0601082023233501,10.613259640791819,-0.9702305315855086,-0.11177789284093187,0.028731428774086964,-0.24662800125715423,-0.012641464909490807,0.004818122264005353,-0.029166956025261648,0.0,70.0,255.0,255.0,255.0
155,7.75,1.0545036106610552,10.61470229661295,-0.9825983540894311,-0.1123992803456697,0.02898158951627039,-0.24807066858933413,-0.01243047450047996,0.005072911675085834,-0.028626958412580894,0.0,70.0,255.0,255.0,255.0
156,7.800000000000001,1.0488682742887832,10.616157799743446,-0.9950375984444421,-0.11302094029097987,0.029238719941595548,-0.24949069709841232,-0.012652019839709538,0.0050881426920668105,-0.028279816715048867,0.0,70.0,255.0,255.0,255.0
157,7.8500000000000005,1.0432015166319573,10.61762616860711,-1.0075474237992723,-0.11366448232964066,0.02949040378547707,-0.250898650260839,-0.013202108298937532,0.004871150773944066,-0.028130489989164342,0.0,70.0,255.0,255.0,255.0
158,7.9,1.037501826055819,10.619106840121994,-1.020127463470526,-0.11434115112087362,0.029725835018989955,-0.25230374609732875,-0.01387280394375967,0.0044593012788141095,-0.028158849574644318,0.0,70.0,255.0,255.0,255.0
159,7.95,1.03176740151987,10.620598752109009,-1.0327777984090052,-0.11505176272401663,0.02993633391335848,-0.25371453521830345,-0.014456278903396402,0.003900632134445914,-0.02834591760134675,0.0,70.0,255.0,255.0,255.0
160,8.0,1.0259966497834174,10.62210047351333,-1.0454989169923563,-0.11578677901121326,0.030115898232434546,-0.2551383378574634,-0.014750376630079387,0.0032348145014182705,-0.028668345179982957,0.0,70.0,255.0,255.0,255.0
161,8.05,1.0201887236187486,10.623610341932253,-1.0582916321947515,-0.11652680038702456,0.03025981536350031,-0.25658136973630175,-0.014650186738940363,0.002499458058480286,-0.029100962358574733,0.0,70.0,255.0,255.0,255.0
162,8.1,1.014343969744715,10.62512645504968,-1.0711570539659865,-0.1172517976851073,0.030365844038282575,-0.2580484340933209,-0.014228039321007024,0.0017848452007029891,-0.029595843094920582,0.0,70.0,255.0,255.0,255.0
163,8.15,1.0084635438502378,10.62664692633608,-1.0840964756040836,-0.11794960431912527,0.030438299883570608,-0.2595409540457938,-0.0136406044270454,0.001229859399032307,-0.030074284383285743,0.0,70.0,255.0,255.0,255.0
164,8.200000000000001,1.0025490093128024,10.628170285038037,-1.0971111493705659,-0.11861585812781184,0.030488829978185805,-0.2610558625316495,-0.013046706190222856,0.0009716102711720964,-0.030450399210302237,0.0,70.0,255.0,255.0,255.0
165,8.25,0.9966019580374567,10.6296958093339,-1.1102020618572486,-0.11925427493814755,0.030535460910687817,-0.262585993966824,-0.012604009655159398,0.0011358023453311716,-0.030655651543387563,0.0,70.0,255.0,255.0,255.0
166,8.3,0.9906235818189877,10.631223831129105,-1.1233697487672483,-0.11987625909332777,0.030602410212718922,-0.26412142768598823,-0.012400007097390642,0.0017688502477852808,-0.030655821030212138,0.0,70.0,255.0,255.0,255.0
167,8.35,0.9846143321281239,10.632756050355171,-1.1366142046258474,-0.12049427564788662,0.030712345935466345,-0.26565157606984524,-0.012402098053254651,0.0027441537389094606,-0.030450613155630357,0.0,70.0,255.0,255.0,255.0
168,8.4,0.978574154254199,10.634295065722652,-1.1499349063742328,-0.12111646889865324,0.03087682558660987,-0.26716648900155127,-0.012529253872450852,0.0038240583295490183,-0.03006037652864002,0.0,70.0,255.0,255.0,255.0
169,8.450000000000001,0.9725026852382586,10.635843732913832,-1.1633308535260025,-0.1217472010351317,0.031094751768421247,-0.26865761372270924,-0.012703096802013647,0.0047544652424846845,-0.02951868602365515,0.0,70.0,255.0,255.0,255.0
170,8.5,0.9663994341506859,10.637404540899494,-1.1768006677465037,-0.1223867785788546,0.03135227211085834,-0.2701183576039168,-0.012841603397351076,0.005289948143172296,-0.028849095266436642,0.0,70.0,255.0,255.0,255.0
171,8.55,0.9602640073803731,10.638978960124918,-1.1903426892863942,-0.12303136137486681,0.03162374658273848,-0.2715425232493529,-0.012897010978818457,0.005305140949829479,-0.028081441166172283,0.0,70.0,255.0,255.0,255.0
172,8.6,0.9540962980131992,10.640566915557768,-1.203954920071439,-0.12367647967673645,0.031882786205841285,-0.272926501720534,-0.01288450086684989,0.004886651731972336,-0.02731983948058847,0.0,70.0,255.0,255.0,255.0
173,8.65,0.9478963594126995,10.642167238745502,-1.2176353394584476,-0.1243198114615518,0.03211241175593571,-0.27427450719741175,-0.012840608521269559,0.00422579539556267,-0.026727752625865797,0.0,70.0,255.0,255.0,255.0
174,8.700000000000001,0.941664316867044,10.643778156733362,-1.2313823707911802,-0.1249605405288634,0.03230536574539755,-0.2755992769831206,-0.01279470613555489,0.0035238154731942473,-0.026467117767636772,0.0,70.0,255.0,255.0,255.0
175,8.75,0.9354003053598131,10.645397775320042,-1.2451952671567597,-0.1255992820751073,0.032464793303255135,-0.27692121897417543,-0.012777548783404757,0.0029844050803973232,-0.026695939418863723,0.0,70.0,255.0,255.0,255.0
176,8.8,0.9291043886595333,10.647024636063687,-1.2590744926885977,-0.12623829540720388,0.032603806253437284,-0.27826887092500696,-0.01280523570067471,0.0027228470255380444,-0.027473239479691713,0.0,70.0,255.0,255.0,255.0
177,8.85,0.9227764758190927,10.648658155945386,-1.2730221542492604,-0.12687980564517476,0.03273707800580894,-0.2796685429221446,-0.012859898479400389,0.00270467056946444,-0.02862471423639157,0.0,70.0,255.0,255.0,255.0
178,8.9,0.9164164080950158,10.650298343864268,-1.2870413469808122,-0.12752428525514392,0.03287427331038373,-0.2811313423486461,-0.012908312042436698,0.002839007173882635,-0.02983141017054436,0.0,70.0,255.0,255.0,255.0
179,8.950000000000001,0.9100240472935783,10.651945583276424,-1.301135288484125,-0.12817063684941843,0.0330209787231972,-0.28265168393919904,-0.012918078655765886,0.0030426737977151674,-0.030761094654341292,0.0,70.0,255.0,255.0,255.0
180,9.0,0.903599344410074,10.653600441736588,-1.315306515374732,-0.1288160931207205,0.033178540690155245,-0.28420745181408025,-0.01284820146899568,0.0032324781553683124,-0.03108714705861715,0.0,70.0,255.0,255.0,255.0
181,9.05,0.8971424379815063,10.65526343734544,-1.329556033665533,-0.129455456996318,0.033344226538734034,-0.28576039864506075,-0.012682046218503995,0.003357410342452738,-0.030651801381109678,0.0,70.0,255.0,255.0,255.0
182,9.1,0.8906537987104421,10.656934864390461,-1.3438825552392382,-0.1300842977425709,0.03351428172440052,-0.2872726319521912,-0.012475905215514338,0.0034155983913208843,-0.029631187023171357,0.0,70.0,255.0,255.0,255.0
183,9.15,0.8841340082072492,10.65861486551788,-1.358283296860752,-0.13070304751786943,0.03368578637786612,-0.2887235173473779,-0.012326143308916127,0.003416404345202295,-0.028377562402925882,0.0,70.0,255.0,255.0,255.0
184,9.200000000000001,0.8775834939586552,10.660303443028248,-1.372754906973976,-0.13131691207346252,0.03385592215892075,-0.2901103881924838,-0.012326265954787363,0.003359288868942656,-0.027254564221323996,0.0,70.0,255.0,255.0,255.0
185,9.25,0.8710023169999029,10.662000457733772,-1.3872943356800005,-0.13193567411334817,0.03402171526476039,-0.2914489737695103,-0.012577617368592087,0.0032336543288380426,-0.02662745369885755,0.0,70.0,255.0,255.0,255.0
186,9.3,0.8643899265473204,10.663705614554724,-1.401899804350927,-0.13257467381032173,0.03417928759180455,-0.29277313356236956,-0.013120378958997314,0.0030407983190983146,-0.02668561560184024,0.0,70.0,255.0,255.0,255.0
187,9.35,0.8577448496188708,10.665418386492952,-1.4165716490362374,-0.1332477120092479,0.03432579509667022,-0.2941175353296943,-0.013834709096727238,0.002832935862073782,-0.02728149338164787,0.0,70.0,255.0,255.0,255.0
188,9.4,0.8510651553463956,10.66713819406439,-1.4313115578838964,-0.13395814471999445,0.03446258117801193,-0.29550128290053435,-0.014508047122885337,0.002695375443551029,-0.02810822366785537,0.0,70.0,255.0,255.0,255.0
189,9.450000000000001,0.8443490351468713,10.668864644610753,-1.4461217773262909,-0.13469851672153643,0.03459533264102532,-0.29692835769647985,-0.014930796919154776,0.002713457440783884,-0.02886027550004222,0.0,70.0,255.0,255.0,255.0
190,9.5,0.837595303674242,10.670597727328493,-1.4610043936535444,-0.13545122441190993,0.03473392692209032,-0.29838731045053857,-0.014901375676679152,0.002980876558744683,-0.029227094089900874,0.0,70.0,255.0,255.0,255.0
191,9.55,0.8308039127056803,10.672338037302962,-1.4759605083713447,-0.13618865428920435,0.03489342029689979,-0.29985106710546994,-0.01432883887781955,0.0035331959166384763,-0.029046388892162156,0.0,70.0,255.0,255.0,255.0
192,9.600000000000001,0.8239764382453215,10.674087069358183,-1.4909895003640914,-0.1368841082996919,0.03508724651375417,-0.3012919493397548,-0.013351505483827353,0.004250886597034764,-0.02844917977653516,0.0,70.0,255.0,255.0,255.0
193,9.65,0.8171155018757111,10.675846761954338,-1.5060897033053202,-0.13752380483758708,0.03531850895660327,-0.30269598508312345,-0.012237099435052912,0.004923026279612941,-0.027702363438786293,0.0,70.0,255.0,255.0,255.0
194,9.700000000000001,0.8102240577615628,10.677618920253844,-1.5212590988724037,-0.13810781824319718,0.03557954914171546,-0.3040621856836334,-0.011262807440837186,0.005340820762889109,-0.027064706738810784,0.0,70.0,255.0,255.0,255.0
195,9.75,0.8033047200513914,10.67940471686851,-1.5364959218736836,-0.1386500855816708,0.03585259103289218,-0.30540245575700453,-0.010696879924598779,0.005302886055957856,-0.026796104673021404,0.0,70.0,255.0,255.0,255.0
196,9.8,0.7963590492033957,10.681204179357133,-1.5517993444481042,-0.13917750623565706,0.036109837747311246,-0.30674179615093555,-0.010677552243010258,0.0047188189471469855,-0.027028688969377157,0.0,70.0,255.0,255.0,255.0
197,9.850000000000001,0.7893869694278257,10.68301570064324,-1.5671701014887771,-0.13971784080597183,0.03632447292760688,-0.30810532465394225,-0.011111157079890521,0.0037297648365353098,-0.027636379586959414,0.0,70.0,255.0,255.0,255.0
198,9.9,0.7823872651227985,10.684836626649894,-1.5826098769134984,-0.1402886219436461,0.03648281423096478,-0.3095054341096315,-0.011791667025051744,0.0026079506728393653,-0.028367730502654176,0.0,70.0,255.0,255.0,255.0
199,9.950000000000001,0.7753581072334611,10.686663982066337,-1.5981206448997403,-0.140897007508477,0.03658526799489081,-0.31094209770420767,-0.012504686604153381,0.0016355205806561912,-0.028974324118191674,0.0,70.0,255.0,255.0,255.0
200,10.0,0.7682975643719508,10.688495153449383,-1.6137040866839192,-0.14153909060406145,0.036646366289030397,-0.31240286652145066,-0.01303110462490542,0.0010875792169073861,-0.02920452451369293,0.0,70.0,255.0,255.0,255.0
201,10.05,0.761204198173055,10.69032861869524,-1.6293609315518853,-0.14220011797096754,0.03669402591658155,-0.31386255015557696,-0.013248691077927255,0.001104815008190485,-0.028932281803628612,0.0,70.0,255.0,255.0,255.0
202,10.100000000000001,0.7540775525748541,10.69216455604104,-1.6450903416994769,-0.14286395971185417,0.036756847789849445,-0.3152960947018135,-0.013208434961131665,0.0015819421694374114,-0.0282907098012819,0.0,70.0,255.0,255.0,255.0
203,10.15,0.7469178022018695,10.694004303474225,-1.6608905410220667,-0.1435209614670807,0.03685222013352529,-0.31669162113570515,-0.013029985378520959,0.0022932829171651292,-0.02754130662550036,0.0,70.0,255.0,255.0,255.0
204,10.200000000000001,0.739725456428146,10.695849778054393,-1.6767595038130474,-0.14416695824970627,0.03698617608156596,-0.31805022536436356,-0.012826045210168058,0.0030038102014628976,-0.026944570214881836,0.0,70.0,255.0,255.0,255.0
205,10.25,0.7325011063768989,10.697702921082382,-1.692695563558503,-0.14480356598809752,0.03715260115367158,-0.31938607815719333,-0.012718654955734543,0.003466797074835881,-0.026769759975842078,0.0,70.0,255.0,255.0,255.0
206,10.3,0.7252450998293363,10.69956503816976,-1.7086981116287667,-0.14543882374527972,0.037332855789049546,-0.32072720136194777,-0.012773744051408631,0.0035496599478435087,-0.02714875724281196,0.0,70.0,255.0,255.0,255.0
207,10.350000000000001,0.7179572240023709,10.701436206661286,-1.7247682836946978,-0.14608094039323838,0.037507567148455934,-0.3221009538814745,-0.012934170674561152,0.0033470352523323754,-0.027915373282794143,0.0,70.0,255.0,255.0,255.0
208,10.4,0.7106370057900124,10.703315794884606,-1.7409082070169142,-0.14673224081273584,0.037667559314282784,-0.3235187386902272,-0.013090163022588808,0.0030526705721456437,-0.028752450920888073,0.0,70.0,255.0,255.0,255.0
209,10.450000000000001,0.7032839999210974,10.705202962592715,-1.7571201575637205,-0.14738995669549726,0.0378128342056705,-0.32497619897356333,-0.01314404630816668,0.002850124393383169,-0.029347534882107063,0.0,70.0,255.0,255.0,255.0
210,10.5,0.6958980101204627,10.707097078305173,-1.7734058269142705,-0.1480466454435525,0.0379525717536211,-0.3264534921784379,-0.01299833149625007,0.002933157891504834,-0.029384500850571094,0.0,70.0,255.0,255.0,255.0
211,10.55,0.6884793353767421,10.708998219768077,-1.7897655067815643,-0.14868978984512227,0.03810614999482098,-0.32791464905862044,-0.012609246469430513,0.0033964053402613104,-0.028712316265067095,0.0,70.0,255.0,255.0,255.0
212,10.600000000000001,0.6810290311359505,10.710907693304655,-1.8061972918201326,-0.14930757009049556,0.03829221228764723,-0.3293247238049446,-0.012056653902359216,0.0041072128592389845,-0.02753497655501036,0.0,70.0,255.0,255.0,255.0
213,10.65,0.6735485783676926,10.712827440996842,-1.8226979791620588,-0.1498954552353582,0.03851687128074488,-0.3306681467141215,-0.01148843013002443,0.004818738757350616,-0.026242549364519085,0.0,70.0,255.0,255.0,255.0
214,10.700000000000001,0.6660394856124147,10.71475938043273,-1.8392641064915447,-0.150456413103498,0.03877408616338229,-0.3319489787413965,-0.011050543449908634,0.005295832084684093,-0.025224637575860243,0.0,70.0,255.0,255.0,255.0
215,10.75,0.6585029370573428,10.71670484961318,-1.8558928770361984,-0.15100050958034905,0.03904645448921329,-0.3331906104717075,-0.010880000411395141,0.005312645950006356,-0.02486818067755081,0.0,70.0,255.0,255.0,255.0
216,10.8,0.6509394346543798,10.718664025881651,-1.8725831675387155,-0.1515444131446375,0.03930535075838293,-0.3344357968091516,-0.011043069604776967,0.0047638329098376175,-0.02536235065746517,0.0,70.0,255.0,255.0,255.0
217,10.850000000000001,0.643348495742879,10.720635384689018,-1.8893364567171136,-0.15210481654082675,0.03952283778019705,-0.335726845537454,-0.01147473819141931,0.0037903603987032852,-0.026494837047508213,0.0,70.0,255.0,255.0,255.0
218,10.9,0.6357289530002971,10.72261630965967,-1.9061558520924609,-0.15269188696377944,0.03968438679825326,-0.3370852805139024,-0.012039752820836025,0.0026678056327611444,-0.02784639591015825,0.0,70.0,255.0,255.0,255.0
219,10.950000000000001,0.6280793070465011,10.724603823368843,-1.9230449847685038,-0.15330879182291035,0.039789618343473165,-0.33851148512846985,-0.012594292712753141,0.0016788083391006126,-0.02899456749512197,0.0,70.0,255.0,255.0,255.0
220,11.0,0.620398073818006,10.726595271494018,-1.9400070006053078,-0.15395131623505476,0.03985226763216332,-0.3399847372634146,-0.012993648210168907,0.0010962583090190492,-0.029522823058880654,0.0,70.0,255.0,255.0,255.0
221,11.05,0.6126841754229956,10.72858905013206,-1.9570434584948453,-0.15460815664392724,0.03989924417437507,-0.3414637674343579,-0.013158987931960464,0.0010615497339827584,-0.029218420965126946,0.0,70.0,255.0,255.0,255.0
222,11.100000000000001,0.6049372581536133,10.730585195911456,-1.9741533773487436,-0.1552672150282508,0.039958422605561594,-0.3429065793599273,-0.01312802969564153,0.0014832336590941964,-0.028256491106182224,0.0,70.0,255.0,255.0,255.0
223,11.15,0.5971574539201705,10.732584892392616,-1.991334116430838,-0.1559209596134914,0.04004756754028449,-0.34428941654497613,-0.012988083062104305,0.0021581505992074312,-0.02700105114405993,0.0,70.0,255.0,255.0,255.0
224,11.200000000000001,0.5893451621922642,10.734589952665484,-2.0085823190032412,-0.15656602333446124,0.04017423766548234,-0.3456066844743333,-0.012826085232897633,0.0028756478460678636,-0.025816952583213038,0.0,70.0,255.0,255.0,255.0
225,11.25,0.5815008515867244,10.736602316159164,-2.0258947848782713,-0.15720356813678116,0.040335132324891276,-0.34687111180329744,-0.012737388099992586,0.0034223208151829,-0.025060480466754242,0.0,70.0,255.0,255.0,255.0
226,11.3,0.5736248053785861,10.738623465897973,-2.043269430183571,-0.1578397621444605,0.04051646974700063,-0.3481127325210087,-0.012773752560113483,0.0036777070805626977,-0.024923312801439224,0.0,70.0,255.0,255.0,255.0
227,11.350000000000001,0.5657168753722783,10.740653963133864,-2.060706058130372,-0.1584809433927925,0.040702903032947546,-0.34936344308344136,-0.012892210625081724,0.003681273727096368,-0.02531015423894445,0.0,70.0,255.0,255.0,255.0
228,11.4,0.5577767110393068,10.742693756201268,-2.078205774491915,-0.15912898320696867,0.040884597119710264,-0.35064374794490316,-0.013009686492448935,0.0035333448845875637,-0.02599928296369569,0.0,70.0,255.0,255.0,255.0
229,11.450000000000001,0.5498039770515815,10.744742422845835,-2.0957704329248625,-0.1597819120420374,0.0410562375214063,-0.35196337137981093,-0.013054280108570904,0.003326199346709302,-0.026770535924880434,0.0,70.0,255.0,255.0,255.0
230,11.5,0.5417985198351031,10.746799379953409,-2.113402111629896,-0.16043441121782576,0.041217217054381194,-0.3533208015373912,-0.012960855334021026,0.0031544118105131247,-0.02740728304582163,0.0,70.0,255.0,255.0,255.0
231,11.55,0.5337605359297989,10.748864144551273,-2.1311025130786017,-0.1610779975754395,0.041371678702457615,-0.3547040996843931,-0.012698915580489079,0.0030736825490151887,-0.02778278004318402,0.0,70.0,255.0,255.0,255.0
232,11.600000000000001,0.5256907200775591,10.750936547823654,-2.1488725215983355,-0.16170430277587466,0.04152458530928271,-0.3560990795417096,-0.01230489936584478,0.003070739031052483,-0.02790746070293615,0.0,70.0,255.0,255.0,255.0
233,11.65,0.5175901056522114,10.753016603082202,-2.1667124210327726,-0.16230848751202398,0.04167875260556286,-0.3574948457546867,-0.011852238567167106,0.0031102414235206766,-0.027835569915390934,0.0,70.0,255.0,255.0,255.0
234,11.700000000000001,0.5094598713263567,10.75510442308421,-2.184622006173804,-0.16288952663259137,0.04183560945163478,-0.3588826365332487,-0.011416281512188764,0.0031657552336028516,-0.027615216071463777,0.0,70.0,255.0,255.0,255.0
235,11.75,0.5013011529889523,10.757200164027365,-2.2026006846860975,-0.16345011566324286,0.04199532812892315,-0.3602563673618331,-0.01106319988789517,0.0032120599147589246,-0.027302368701809243,0.0,70.0,255.0,255.0,255.0
236,11.8,0.49311485976003244,10.759303955897103,-2.2206476429099875,-0.1639958466213809,0.04215681544311067,-0.3616128734034296,-0.0108305851179602,0.0032342760095005474,-0.02693782809788381,0.0,70.0,255.0,255.0,255.0
237,11.850000000000001,0.4849015683268142,10.761415845571676,-2.2387619720264404,-0.16453317417503888,0.0423187557298732,-0.36295015017162147,-0.010725487948859413,0.003235770149956352,-0.026540842110112095,0.0,70.0,255.0,255.0,255.0
238,11.9,0.47666154234252855,10.76353583147009,-2.2569426579271497,-0.16506839541626683,0.04248039245810631,-0.36426695761444083,-0.010744063201634235,0.003225689421704203,-0.02613927653558612,0.0,70.0,255.0,255.0,255.0
239,11.950000000000001,0.4683947287851875,10.765663884817487,-2.2751886677878845,-0.1656075804952023,0.04264132467204362,-0.3655640778251801,-0.010873880555933857,0.0032107797181879505,-0.025774287435043064,0.0,70.0,255.0,255.0,255.0
240,12.0,0.4601007842930083,10.767799963937295,-2.2934990657096677,-0.16615578347186022,0.042801470429925104,-0.36684438635794514,-0.011090307818267808,0.003197348530292743,-0.025479279443096914,0.0,70.0,255.0,255.0,255.0
241,12.05,0.4517791504380015,10.76994403186048,-2.311873106423679,-0.16671661127702908,0.0429610595250729,-0.36811200576948977,-0.011373056302005358,0.003189213412824188,-0.025272620851923833,0.0,70.0,255.0,255.0,255.0
242,12.100000000000001,0.4434291231653054,10.772096069889802,-2.3303102662866166,-0.16729308910206075,0.04312039177120752,-0.3693716484431375,-0.011712309677963662,0.0031861803696742186,-0.025166466894122053,0.0,70.0,255.0,255.0,255.0
243,12.15,0.4350498415277954,10.7742560710376,-2.348810271267993,-0.16788784224482545,0.04327967756204032,-0.370628652458902,-0.012090669465458781,0.003187000890569891,-0.02517002790480838,0.0,70.0,255.0,255.0,255.0
244,12.200000000000001,0.42664033894082287,10.776424037646006,-2.367373131532507,-0.16850215604860663,0.04343909186026451,-0.37188865123361836,-0.012482508618333332,0.0031911258933092768,-0.02528092090146039,0.0,70.0,255.0,255.0,255.0
245,12.25,0.41819962592293475,10.778599980223627,-2.3859991363913546,-0.16913609310665878,0.04359879015137125,-0.373156744549048,-0.012879531542975275,0.0031985459635563984,-0.025484476230008823,0.0,70.0,255.0,255.0,255.0
246,12.3,0.409726729630157,10.780783916661143,-2.4046888059874116,-0.16979010920290416,0.04375894645662015,-0.37443709885661924,-0.013270476387344798,0.00320887033975481,-0.025766000848737036,0.0,70.0,255.0,255.0,255.0
247,12.350000000000001,0.40122061500264433,10.782975874869289,-2.4234428462770166,-0.17046314074539326,0.04391967718534673,-0.3757333446339217,-0.013587977302037535,0.0032195083708330685,-0.026112451152560112,0.0,70.0,255.0,255.0,255.0
248,12.4,0.39268041555561767,10.785175884379678,-2.442262140450804,-0.1711489069331079,0.04408089729370346,-0.37704834397187525,-0.013730554973800935,0.0032263070160354346,-0.026499772684251965,0.0,70.0,255.0,255.0,255.0
249,12.450000000000001,0.38410572430933354,10.787383964598659,-2.461147680674204,-0.17183619624277335,0.04424230788695027,-0.3783833219023469,-0.01360951154412704,0.0032247167084165085,-0.026896341313564776,0.0,70.0,255.0,255.0,255.0
250,12.5,0.37549679593134033,10.789600115168373,-2.4801004726410385,-0.17250985808752062,0.04440336896454511,-0.37973797810323173,-0.013139631277903074,0.0032084676153232294,-0.027286778341117923,0.0,70.0,255.0,255.0,255.0
251,12.55,0.3668547385005815,10.791824301495113,-2.4991214784845273,-0.17315015937056366,0.044563154648482595,-0.3811119997364587,-0.012296926260502161,0.0031753052287086803,-0.027656662466180038,0.0,70.0,255.0,255.0,255.0
252,12.600000000000001,0.35818177999428397,10.794056430633221,-2.5182116726146844,-0.17373955071357083,0.04472089948741598,-0.38250364434984974,-0.01121839183650386,0.0031357861463021663,-0.0279464324582257,0.0,70.0,255.0,255.0,255.0
253,12.65,0.3494807834292244,10.796296391443855,-2.5373718429195122,-0.17427199855421405,0.04487673326311281,-0.3839066429822813,-0.010147017399297908,0.003107771046018115,-0.028068177395512706,0.0,70.0,255.0,255.0,255.0
254,12.700000000000001,0.34075458013886256,10.798544103959532,-2.5566023369129125,-0.17475425245350062,0.04503167659201779,-0.385310462089401,-0.009331193456929565,0.0031100072723333483,-0.027947140417738936,0.0,70.0,255.0,255.0,255.0
255,12.75,0.33200535818387433,10.800799559103057,-2.5759028891284523,-0.175205117899907,0.045187733990346146,-0.38670135702405517,-0.008997934021326426,0.0031675835746369785,-0.027516475673383667,0.0,70.0,255.0,255.0,255.0
256,12.8,0.32323406834887186,10.803062877358567,-2.595272472615318,-0.17565404585563327,0.045348434949481486,-0.3880621096567394,-0.009256130924961692,0.003289908747383663,-0.026759237398321645,0.0,70.0,255.0,255.0,255.0
257,12.850000000000001,0.314439953598311,10.805334402598005,-2.6147091000941263,-0.17613073099240317,0.04551672486508451,-0.38937728076388733,-0.010009504303026828,0.0034373470436221965,-0.02578442973737438,0.0,70.0,255.0,255.0,255.0
258,12.9,0.30562099524963154,10.807614549845075,-2.6342102006917067,-0.17665499628593595,0.045692169653843706,-0.3906405526304768,-0.01104864815629214,0.003542608799556035,-0.024787424493677435,0.0,70.0,255.0,255.0,255.0
259,12.950000000000001,0.2967744539697174,10.80990361956339,-2.653773155357174,-0.1772355958080324,0.045870985745040116,-0.3918560232132551,-0.012146740269214362,0.003541967488374098,-0.023973558554013508,0.0,70.0,255.0,255.0,255.0
260,13.0,0.2878974356688283,10.81220164841958,-2.6733958030130323,-0.1778696703128574,0.046046366402681116,-0.39303790848587816,-0.013092595340680191,0.00337322605687973,-0.023535337613012075,0.0,70.0,255.0,255.0,255.0
261,13.05,0.2789874869384317,10.814508256203657,-2.6930769462057618,-0.1785448553421004,0.04620830835072809,-0.3942095569745563,-0.01375957568064412,0.0030112602491527696,-0.023566900761196052,0.0,70.0,255.0,255.0,255.0
262,13.100000000000001,0.27004295013461826,10.816822479254652,-2.712816758710488,-0.1792456278809218,0.04634749242759639,-0.39539459856199777,-0.014110863678701291,0.0025165972420637672,-0.023988669105445837,0.0,70.0,255.0,255.0,255.0
263,13.15,0.2610629241503395,10.819143005446417,-2.7326164060619615,-0.17995594170997053,0.046459968074934466,-0.39660842388510087,-0.01412943892661056,0.0020008613544675313,-0.02462846495570048,0.0,70.0,255.0,255.0,255.0
264,13.200000000000001,0.2520473559636212,10.821468476062146,-2.752477601098998,-0.18065857177358285,0.046547578563043146,-0.3978574450575678,-0.013802871107254644,0.0015748966662343378,-0.025299138186785086,0.0,70.0,255.0,255.0,255.0
265,13.25,0.2429970669729812,10.823797763302721,-2.7724021505677183,-0.181336228820696,0.0466174577415579,-0.3991383377037794,-0.013119703263908544,0.001331493549017182,-0.025810145902749326,0.0,70.0,255.0,255.0,255.0
266,13.3,0.2339137330815516,10.826130221836301,-2.792391434869376,-0.1819705420999737,0.046680727917944864,-0.40043845964784275,-0.012103515070382986,0.00131884979008845,-0.02605418519805447,0.0,70.0,255.0,255.0,255.0
267,13.350000000000001,0.22480001276298384,10.828465836094516,-2.8124459965325026,-0.1825465803277343,0.046749342720566744,-0.4017437562235848,-0.010908719303881487,0.0015317884644261426,-0.026065462605462386,0.0,70.0,255.0,255.0,255.0
268,13.4,0.21565907504877818,10.830805156108358,-2.8325658104917344,-0.18306141403036186,0.04683390676438748,-0.403045005908389,-0.009795274458967995,0.0019375821464606702,-0.025932468596767677,0.0,70.0,255.0,255.0,255.0
269,13.450000000000001,0.20649387135994765,10.833149226770955,-2.8527504971233415,-0.1835261077736311,0.04694310093521281,-0.4043370030832616,-0.009039724019715978,0.0024922453794928856,-0.025737487766308575,0.0,70.0,255.0,255.0,255.0
270,13.5,0.19730646427141507,10.83549946620188,-2.8729995108000606,-0.18396538643233346,0.04708313130233677,-0.40561875468501984,-0.008916610251641366,0.0031607531267852096,-0.02556403215616676,0.0,70.0,255.0,255.0,255.0
271,13.55,0.1880973327167143,10.837857539901188,-2.8933123725918435,-0.18441776879879523,0.04725917624789133,-0.40689340629887827,-0.009547389678840612,0.003907652945223106,-0.02546241905276858,0.0,70.0,255.0,255.0,255.0
272,13.600000000000001,0.17886468739153555,10.840225383826668,-2.9136888514299484,-0.18492012540021752,0.04747389659685908,-0.4081649965902967,-0.010725308056883098,0.00463811370110534,-0.025428548071948498,0.0,70.0,255.0,255.0,255.0
273,13.65,0.16960532017669255,10.842604929560874,-2.934128872250873,-0.18549029960448354,0.047722987618001866,-0.4094362611060731,-0.012056735964821597,0.005205266936592068,-0.025443432218841266,0.0,70.0,255.0,255.0,255.0
274,13.700000000000001,0.1603156574310872,10.844997682588469,-2.9546324775405557,-0.18612579899669968,0.047994423290518284,-0.41070933981218083,-0.01313268502832754,0.005463860743937232,-0.025497111213956813,0.0,70.0,255.0,255.0,255.0
275,13.75,0.15099274027702259,10.847404371889926,-2.9751998062320912,-0.1868035681073163,0.04826937369239559,-0.4119859722274688,-0.013541874377487328,0.00527752191636921,-0.025585753444667958,0.0,70.0,255.0,255.0,255.0
276,13.8,0.14163530062035556,10.849824619957708,-2.9958310747633026,-0.1874799864344484,0.048522175482155205,-0.4132679151566476,-0.01308035278769909,0.004595713255639566,-0.02570285187779575,0.0,70.0,255.0,255.0,255.0
277,13.850000000000001,0.13224474163357774,10.852256589438142,-3.016526597747756,-0.1881116033860862,0.048728945017959546,-0.4145562574152484,-0.011960864319458808,0.0035610714162359614,-0.025820345106941645,0.0,70.0,255.0,255.0,255.0
278,13.9,0.12282414028174694,10.854697514459504,-3.0372867005048274,-0.1886760728663943,0.0488782826237788,-0.4158499496673418,-0.010606965830906034,0.002438552903250013,-0.025893802527532372,0.0,70.0,255.0,255.0,255.0
279,13.950000000000001,0.11337713434693832,10.85714441770052,-3.05811159271449,-0.1891722999691768,0.04897280030828455,-0.4171456376680016,-0.009442682720110784,0.0015107731828223336,-0.025880780664389036,0.0,70.0,255.0,255.0,255.0
280,14.0,0.10390691028482926,10.859594794490333,-3.0790012642716276,-0.18962034113840537,0.049029359942061035,-0.4184380277337807,-0.008883817646318515,0.0010611871802623796,-0.025744982037734232,0.0,70.0,255.0,255.0,255.0
281,14.05,0.09441510023309778,10.862047353694726,-3.0999553954878682,-0.19006068173380866,0.049078919026310786,-0.41972013587177504,-0.0091443460235055,0.0012294940326285086,-0.02547237390215784,0.0,70.0,255.0,255.0,255.0
282,14.100000000000001,0.0849008421114484,10.864502686392964,-3.120973277858805,-0.19053477574075592,0.049152309345323886,-0.4209852651239965,-0.01006041881448927,0.001869488746386594,-0.02509184306145329,0.0,70.0,255.0,255.0,255.0
283,14.15,0.07536162265902219,10.866962584629258,-3.142053922000268,-0.1910667236152576,0.049265867900949445,-0.42222932017792036,-0.011286216562370055,0.0026886333380105043,-0.024660425270228714,0.0,70.0,255.0,255.0,255.0
284,14.200000000000001,0.06579416974992264,10.869429273183059,-3.163196209876597,-0.19166339739699292,0.049421172679124936,-0.42345130765101935,-0.012476723951371782,0.003386473097855003,-0.024239253308255826,0.0,70.0,255.0,255.0,255.0
285,14.25,0.056195282919322895,10.87190470189717,-3.18439905276537,-0.19231439601039477,0.049604515210734945,-0.42465324550874595,-0.013302901657254729,0.003649757334223125,-0.023878327728610316,0.0,70.0,255.0,255.0,255.0
286,14.3,0.04656273014888316,10.874389724704132,-3.2056615344274717,-0.1929936875627184,0.04978614841254725,-0.4258391404238804,-0.013582915798925344,0.003320250007199377,-0.023607652513302213,0.0,70.0,255.0,255.0,255.0
287,14.350000000000001,0.036895914163051054,10.876883316738425,-3.226982966807758,-0.1936726875902873,0.04993654021145488,-0.42701401076007617,-0.013366504711664895,0.002567313925716519,-0.023449578683942818,0.0,70.0,255.0,255.0,255.0
288,14.4,0.027195461389854427,10.879383378725278,-3.2483629355034793,-0.1943303380338849,0.0500428798051189,-0.42818409829227466,-0.012798284469743293,0.0017197342568664453,-0.023427200354886324,0.0,70.0,255.0,255.0,255.0
289,14.450000000000001,0.017462880359662564,10.881887604718937,-3.2698013766369853,-0.19495251603726163,0.05010851363714153,-0.4293567307955648,-0.012024221008195835,0.0010969940992922034,-0.023555492816385026,0.0,70.0,255.0,255.0,255.0
290,14.5,0.007700209786128261,10.884394230088992,-3.291298608583036,-0.19553276013470447,0.05015257921504812,-0.43053964757391316,-0.011184575724615398,0.0010196902437087374,-0.023845669751354492,0.0,70.0,255.0,255.0,255.0
291,14.55,-0.002090395653807883,10.886902862640442,-3.3128553413943767,-0.19607097360972317,0.0502104826615124,-0.43174129777070025,-0.010375739032540132,0.0016431656115756255,-0.024291328398895473,0.0,70.0,255.0,255.0,255.0
292,14.600000000000001,-0.011906887574844056,10.889415278355143,-3.334472738360106,-0.19657033403795848,0.05031689577620568,-0.4329687804138027,-0.009670765136099713,0.0027740760625505345,-0.02482900304174862,0.0,70.0,255.0,255.0,255.0
293,14.65,-0.02174742905760373,10.891934552218062,-3.356152219435757,-0.19703805012333314,0.050487890267767455,-0.4342241980748751,-0.009165960243981697,0.004038769960601485,-0.025349934149465625,0.0,70.0,255.0,255.0,255.0
294,14.700000000000001,-0.03161069258717737,10.89446406738192,-3.3778951581675933,-0.19748693006235665,0.05072077277226583,-0.4355037738287493,-0.008964853554297991,0.005066203186387952,-0.025739801067636847,0.0,70.0,255.0,255.0,255.0
295,14.75,-0.041496122063839395,10.897006629495289,-3.399702596818632,-0.19793453547876294,0.05099451058640625,-0.4367981781816388,-0.009158795444235979,0.005495537634736536,-0.02589498394165446,0.0,70.0,255.0,255.0,255.0
296,14.8,-0.05140414613505367,10.89956351844056,-3.421574975985757,-0.19840280960678025,0.051270326535739486,-0.4380932722229147,-0.00977566653245221,0.005146714586423684,-0.02576652107029176,0.0,70.0,255.0,255.0,255.0
297,14.850000000000001,-0.06133640302451742,10.902133662148863,-3.4435119240409233,-0.19891210213200816,0.05150918204504862,-0.439374830288668,-0.010705120058670248,0.0041862652754076635,-0.025398884673677458,0.0,70.0,255.0,255.0,255.0
298,14.9,-0.07129535634825448,10.904714436645065,-3.465512459014624,-0.19947332161264728,0.05168895306328025,-0.44063316069028247,-0.011740671757142773,0.0029561416114987082,-0.02488942668401606,0.0,70.0,255.0,255.0,255.0
299,14.950000000000001,-0.08128373518578215,10.907302557455191,-3.4875752401099516,-0.20008616930772244,0.05180479620619849,-0.4418637729570696,-0.012657903236138746,0.0018042537591966834,-0.0243447900925009,0.0,70.0,255.0,255.0,255.0
300,15.0,-0.09130397327902673,10.909894916265685,-3.509698836310331,-0.20073911193626115,0.05186937843919992,-0.44306763969953256,-0.013248214526356827,0.00107014056887067,-0.023862413129727145,0.0,70.0,255.0,255.0,255.0
301,15.05,-0.10135764637940826,10.912489495299111,-3.531882004079905,-0.20141099076035812,0.051911810263085556,-0.4442500142700423,-0.013401594837654518,0.0009360366513888607,-0.023502074499504033,0.0,70.0,255.0,255.0,255.0
302,15.100000000000001,-0.11144507235506254,10.915086097291994,-3.554123837737335,-0.2020792714200266,0.051962982104338806,-0.44541784714948296,-0.013156866517383126,0.0013118185487215328,-0.02329182189995116,0.0,70.0,255.0,255.0,255.0
303,15.15,-0.12156557352141092,10.917685793509545,-3.576423788794853,-0.20272667741209643,0.05204299211795771,-0.4465791964600374,-0.012623240839350347,0.0019865470409996533,-0.023256834638862856,0.0,70.0,255.0,255.0,255.0
304,15.200000000000001,-0.13171774009627218,10.92029039650379,-3.598781757383339,-0.20334159550396164,0.05216163680843877,-0.44774353061336924,-0.011923533501131955,0.002749695527271001,-0.023420525741624232,0.0,70.0,255.0,255.0,255.0
305,15.25,-0.1418997330718071,10.922901957190389,-3.62119814185619,-0.20391903076220963,0.05231796167068481,-0.44892124903419983,-0.011180374422306572,0.0033959280630213584,-0.023811354215697023,0.0,70.0,255.0,255.0,255.0
306,15.3,-0.15210964317249315,10.925522192670858,-3.643673882286759,-0.2044596329461923,0.05250122961474091,-0.45012466603493895,-0.010476415655399918,0.003803591023832098,-0.02442620657339134,0.0,70.0,255.0,255.0,255.0
307,15.350000000000001,-0.16234569636642632,10.928152080151863,-3.666210608459684,-0.20496667232774962,0.05269832077306802,-0.45136386969153897,-0.009864616669055803,0.003971029294191908,-0.02515298856535786,0.0,70.0,255.0,255.0,255.0
308,15.4,-0.1726063104052681,10.930792024748165,-3.688810269255913,-0.20544609461309787,0.0528983325441601,-0.45263996489147473,-0.009411679570783815,0.003931423137970569,-0.025802395598972794,0.0,70.0,255.0,255.0,255.0
309,15.450000000000001,-0.1828903058277361,10.933441913406279,-3.7114746049488314,-0.205907840284828,0.053091463086865076,-0.45394410925143625,-0.009193137584492805,0.003711276485951487,-0.026180845868672975,0.0,70.0,255.0,255.0,255.0
310,15.5,-0.1931970944337509,10.936101171056851,-3.7342046801810564,-0.20636540837154715,0.05326946019275525,-0.45525804947834203,-0.009282315756389825,0.0033381285307498842,-0.026100188655853174,0.0,70.0,255.0,255.0,255.0
311,15.55,-0.20352684666489082,10.938768859425554,-3.7570004098966656,-0.20683607186046699,0.053425275939940065,-0.45655412811702156,-0.0097004814684859,0.002841860325375478,-0.02547878685303928,0.0,70.0,255.0,255.0,255.0
312,15.600000000000001,-0.2138807016197976,10.941443698650845,-3.7798600929927586,-0.20733545651839574,0.053553646225292795,-0.45780592816364596,-0.010341123682913733,0.0022849034355232334,-0.024462470925001867,0.0,70.0,255.0,255.0,255.0
313,15.65,-0.2242603923167304,10.944124224048084,-3.80278100271303,-0.20787018422875836,0.05365376628349239,-0.45900037520952175,-0.011011905679403355,0.001768599568130469,-0.023329014200301756,0.0,70.0,255.0,255.0,255.0
314,15.700000000000001,-0.23466772004267344,10.946809075279194,-3.8257601305137108,-0.20843664708633608,0.05373050618210584,-0.46013882958367613,-0.011504941801876445,0.0014041728881863946,-0.02236835185560615,0.0,70.0,255.0,255.0,255.0
315,15.75,-0.245104057025364,10.949497274666294,-3.848794885671398,-0.209020678408946,0.05379418357231103,-0.46123721039508236,-0.011602343904049128,0.0012955671378378497,-0.021867891161120312,0.0,70.0,255.0,255.0,255.0
316,15.8,-0.25556978788356804,10.952188493636426,-3.871883851553219,-0.209596881476741,0.05386006289588963,-0.46232561869978817,-0.011201658470683107,0.001489480494676343,-0.021971932727815613,0.0,70.0,255.0,255.0,255.0
317,15.850000000000001,-0.2660637451730381,10.954883280955883,-3.8950274475413766,-0.21014084425601431,0.05394313162177866,-0.4634344036678639,-0.010456296524766207,0.0019248814400185665,-0.02254901584657354,0.0,70.0,255.0,255.0,255.0
318,15.9,-0.2765838723091695,10.957582806798603,-3.9182272919200054,-0.2106425111292176,0.05405255103989148,-0.4645805202844455,-0.009655289786203447,0.0024778149526838433,-0.023329659487902887,0.0,70.0,255.0,255.0,255.0
319,15.950000000000001,-0.28712799628595986,10.960288536059872,-3.941485499569821,-0.21110637323463466,0.054190913117047046,-0.4657673696166542,-0.009086955347814563,0.0030125447802120675,-0.02403917328188676,0.0,70.0,255.0,255.0,255.0
320,16.0,-0.29769450963263294,10.963001898110308,-3.964804028881671,-0.21155120666399907,0.05435380551791269,-0.4669844376126342,-0.009040243359292877,0.003391584271206227,-0.024400274671876332,0.0,70.0,255.0,255.0,255.0
321,16.05,-0.30828311695235977,10.965723916611664,-3.9881839433310846,-0.21201039757056395,0.05453007154416767,-0.46820739708384185,-0.00965325760917679,0.003540730517670454,-0.024267421630064234,0.0,70.0,255.0,255.0,255.0
322,16.1,-0.31889554938968934,10.968454905264725,-4.011624768590055,-0.21251653242491675,0.054707878569679735,-0.4694111797756406,-0.010746510730913483,0.0034992071674011527,-0.023747806014950967,0.0,70.0,255.0,255.0,255.0
323,16.150000000000002,-0.32953477019485145,10.971194704468632,-4.035125061308649,-0.2130850486436553,0.054879992260907784,-0.47058217768533694,-0.011973275502136227,0.0033556650953059375,-0.023065168360592025,0.0,70.0,255.0,255.0,255.0
324,16.2,-0.34020405425405487,10.973942904490816,-4.058682986358589,-0.21371385997513037,0.05504344507921033,-0.4717176966116998,-0.012987889487481308,0.0031994475239827125,-0.02243532797683301,0.0,70.0,255.0,255.0,255.0
325,16.25,-0.3509061561923645,10.976699048976553,-4.082296830969819,-0.21438383759240343,0.055199937013306055,-0.47282571048302025,-0.013460738602777411,0.0031300771311748576,-0.02206294488349414,0.0,70.0,255.0,255.0,255.0
326,16.3,-0.3616424380132952,10.979462898192146,-4.105965557406891,-0.2150599338354081,0.055356452792327815,-0.47392399110004924,-0.013224938132228026,0.0032003713286599123,-0.02205824089260844,0.0,70.0,255.0,255.0,255.0
327,16.35,-0.3724121495759053,10.982234694255785,-4.129689230079824,-0.21570633140562623,0.055519974146172046,-0.4750315345722811,-0.012407544001535875,0.0033573574887313384,-0.022374352168341716,0.0,70.0,255.0,255.0,255.0
328,16.400000000000002,-0.38321307115385783,10.985014895606763,-4.153468710864119,-0.2163006882355617,0.05569218854120095,-0.4761614263168834,-0.01128256391625393,0.0035012962269931336,-0.02289507499488863,0.0,70.0,255.0,255.0,255.0
329,16.45,-0.39404221839946146,10.987803913109905,-4.177305372711512,-0.21683458779725162,0.05587010376887136,-0.47732104207176995,-0.010134260595018318,0.003542578877002711,-0.023506228097414095,0.0,70.0,255.0,255.0,255.0
330,16.5,-0.404896529933583,10.99060190598365,-4.201200815071296,-0.21731411429506353,0.05604644642890122,-0.4785120491266248,-0.009240811553512529,0.0033921631484190584,-0.024111955117778194,0.0,70.0,255.0,255.0,255.0
331,16.55,-0.4157736298289678,10.993408557752796,-4.225156577624174,-0.21775866895260287,0.056209320083713266,-0.47973223758354777,-0.008759250934109453,0.003010697919947347,-0.02464684090695002,0.0,70.0,255.0,255.0,255.0
332,16.6,-0.4266723968288433,10.996222837992022,-4.249174038829651,-0.21819003938847448,0.056347516220895955,-0.4809767332173198,-0.008656040535787168,0.0024731344407058486,-0.025038421676004674,0.0,70.0,255.0,255.0,255.0
333,16.650000000000002,-0.43759263376781526,10.999043309374885,-4.273254250945906,-0.2186242730061816,0.05645663352778385,-0.48223607975114824,-0.008825419881908214,0.0019182175964971293,-0.025190056135304673,0.0,70.0,255.0,255.0,255.0
334,16.7,-0.44853482412946144,11.0018685013448,-4.297397646804765,-0.2190725813766653,0.05653933798054567,-0.4834957388308503,-0.009160755778064855,0.001483010859359979,-0.025006985740105847,0.0,70.0,255.0,255.0,255.0
335,16.75,-0.4594998919054818,11.00469724317294,-4.321603824828991,-0.21954034858398808,0.05660493461371985,-0.4847367783251588,-0.009540024507076472,0.0012932516259667182,-0.024385271941085307,0.0,70.0,255.0,255.0,255.0
336,16.8,-0.47048885898786025,11.007528994806172,-4.345871324637281,-0.22002658382737295,0.05666866314314234,-0.4859342660249588,-0.009886309879580946,0.0014106365249233477,-0.023299570304580186,0.0,70.0,255.0,255.0,255.0
337,16.85,-0.4815025502882191,11.010364109487254,-4.370197251431487,-0.22052897957194617,0.05674599826621218,-0.48706673535561684,-0.010208387095489435,0.0017856292251039463,-0.021954571850724136,0.0,70.0,255.0,255.0,255.0
338,16.900000000000002,-0.49254175694505486,11.013203594632794,-4.394577998172843,-0.2210474225369219,0.056847226065652734,-0.48812972321003123,-0.010533145833541147,0.0023094697517933582,-0.02070460722460865,0.0,70.0,255.0,255.0,255.0
339,16.95,-0.5036072925419113,11.01604883209382,-4.41901022375249,-0.22158229415530029,0.05697694524139152,-0.4891371960780777,-0.010870828180786773,0.0028658905055323203,-0.01991086390660257,0.0,70.0,255.0,255.0,255.0
340,17.0,-0.5146999863605849,11.018901289156933,-4.443491717780651,-0.22213450535500057,0.057133815116205966,-0.4901208096006915,-0.011251025150105232,0.003346811698889951,-0.019930919820954074,0.0,70.0,255.0,255.0,255.0
341,17.05,-0.5258207430774113,11.02176221360544,-4.46802230471256,-0.2227073966703108,0.057311626411280514,-0.4911302880601731,-0.011682082974140418,0.003687268801044752,-0.020922989763061395,0.0,70.0,255.0,255.0,255.0
342,17.1,-0.536970726027616,11.02463245179806,-4.492604746586668,-0.2233027136524146,0.05750254199631044,-0.4922131085769976,-0.012073115044997085,0.0038679850229428325,-0.022612568311064507,0.0,70.0,255.0,255.0,255.0
343,17.150000000000002,-0.5481510144426528,11.02751246780507,-4.517243615570259,-0.22391470817481052,0.0576984249135748,-0.49339154489127957,-0.012279292821260057,0.003879427871389396,-0.024479720094738866,0.0,70.0,255.0,255.0,255.0
344,17.2,-0.559362196845097,11.030402294289418,-4.541943901075796,-0.22453064293454061,0.05789048478344938,-0.4946610805864715,-0.012169358072078307,0.003713939939409272,-0.025991236955036356,0.0,70.0,255.0,255.0,255.0
345,17.25,-0.5706040787361069,11.033301516283416,-4.5667097236289065,-0.22513164398201835,0.058069818907515725,-0.4959906685867832,-0.011603940160498372,0.0033635109026874943,-0.02662708607061859,0.0,70.0,255.0,255.0,255.0
346,17.3,-0.5818753612432989,11.03620927618017,-4.591542967934474,-0.22569103695059045,0.05822683587371813,-0.49732378919353337,-0.010537246335839967,0.0028392626292728096,-0.02612809768223201,0.0,70.0,255.0,255.0,255.0
347,17.35,-0.5931731824311659,11.039124199870788,-4.61644210254826,-0.22618536861560234,0.058353745170443005,-0.4986034783550064,-0.009181763447263513,0.002223269844847664,-0.024730446280685214,0.0,70.0,255.0,255.0,255.0
348,17.400000000000002,-0.6044938981048591,11.042044650697214,-4.641403315769975,-0.2266092132953168,0.0584491628582029,-0.4997968338216019,-0.007909589641352799,0.0016536579238390914,-0.02292206018275067,0.0,70.0,255.0,255.0,255.0
349,17.45,-0.6158341037606976,11.044969116156608,-4.66642178593042,-0.22697632757973762,0.058519110962826915,-0.5008956843732815,-0.007096774495785052,0.0012773240957386633,-0.021203535592473344,0.0,70.0,255.0,255.0,255.0
350,17.5,-0.6271915308628329,11.047896561793497,-4.691492884207303,-0.2273188907448953,0.05857689526777676,-0.5019171873808492,-0.007117176911752843,0.0012431540136859098,-0.02006870792383708,0.0,70.0,255.0,255.0,255.0
351,17.55,-0.6385659928351871,11.050826805683386,-4.716613504668505,-0.2276880452709129,0.058643426364195506,-0.5029025551656652,-0.008137043570655145,0.001616193502051999,-0.019783454006638834,0.0,70.0,255.0,255.0,255.0
352,17.6,-0.6499603353899241,11.053760904429916,-4.74178313972387,-0.22813259510196082,0.05873851461798196,-0.5038955327815131,-0.00986910855533818,0.002274460074325191,-0.02021296591401267,0.0,70.0,255.0,255.0,255.0
353,17.650000000000002,-0.6613792523453832,11.056700657145184,-4.767003057946656,-0.22867495612644673,0.058870872371628025,-0.5049238517570664,-0.011770553741619061,0.0029895767958976194,-0.02104639814941578,0.0,70.0,255.0,255.0,255.0
354,17.7,-0.6728278310025688,11.05964799166708,-4.792275524899576,-0.22930965047612273,0.059037472297571725,-0.5060001725964547,-0.013285222266423702,0.0035239897842487267,-0.021973734894142893,0.0,70.0,255.0,255.0,255.0
355,17.75,-0.6843102173929955,11.062604404374941,-4.817603075206302,-0.2300034783530891,0.0592232713500529,-0.5071212252464807,-0.013863389488377731,0.003627882366785684,-0.022678128853126367,0.0,70.0,255.0,255.0,255.0
356,17.8,-0.6958281788378777,11.065570318802084,-4.842987647424224,-0.2306959894249605,0.05940026053425029,-0.5082679854817673,-0.013234206421142147,0.003182676650048677,-0.022979764612429676,0.0,70.0,255.0,255.0,255.0
357,17.85,-0.7073798163354915,11.068544430428366,-4.868429873754478,-0.2313268989952033,0.059541539015057765,-0.5094192017077237,-0.011677093706818908,0.002364297784041014,-0.02294319122917443,0.0,70.0,255.0,255.0,255.0
358,17.900000000000002,-0.7189608687373981,11.07152447270359,-4.893929567594997,-0.2318636987956424,0.059636690312654395,-0.5105623046046848,-0.009753743177853824,0.0015026269645446177,-0.022724328572554242,0.0,70.0,255.0,255.0,255.0
359,17.95,-0.7305661862150558,11.074508099459631,-4.919486104214947,-0.2323022733129887,0.05969180171151223,-0.5116916345649791,-0.00803497047102697,0.0009265769074673358,-0.022462923432442494,0.0,70.0,255.0,255.0,255.0
360,18.0,-0.7421910960686969,11.077493652874741,-4.945098731051495,-0.2326671958427451,0.05972934800340113,-0.512808596947929,-0.007085209190482722,0.0009772512534311772,-0.02230670207055141,0.0,70.0,255.0,255.0,255.0
361,18.05,-0.7538329057993303,11.080481034259972,-4.97076696390974,-0.23301079423203697,0.059789526836855345,-0.5139223047720343,-0.007198764777460731,0.0018134728575702752,-0.02233683486299043,0.0,70.0,255.0,255.0,255.0
362,18.1,-0.7654921754919006,11.083472605558427,-4.996490961528698,-0.23338707232049116,0.059910695289158156,-0.5150422804342281,-0.008168064403113462,0.003181169301669229,-0.0224933367690916,0.0,70.0,255.0,255.0,255.0
363,18.150000000000002,-0.7771716130313794,11.086472103788887,-5.022271191953163,-0.2338276006723483,0.06010764376702227,-0.5161716384489434,-0.009549764922378579,0.004606255671291137,-0.022658059122271368,0.0,70.0,255.0,255.0,255.0
364,18.2,-0.7888749355591355,11.08948336993513,-5.048108125373592,-0.23434204881272902,0.06037132085628727,-0.5173080863464552,-0.010901236175608897,0.0056170685533984965,-0.02272748512810452,0.0,70.0,255.0,255.0,255.0
365,18.25,-0.8006058179126523,11.092509235874516,-5.074002000587808,-0.2349177242899092,0.06066935062236212,-0.5184443869617539,-0.011783839017542874,0.005739196537035696,-0.022599118808042107,0.0,70.0,255.0,255.0,255.0
366,18.3,-0.8123667079881264,11.095550304997365,-5.099952564069768,-0.2355204327144833,0.06094524050999084,-0.5195679982272594,-0.011958613256979334,0.004749259425373964,-0.022225809689313536,0.0,70.0,255.0,255.0,255.0
367,18.35,-0.8241578611841006,11.098603759925515,-5.125958800410534,-0.23611358561560714,0.06114427656489951,-0.5206669679306852,-0.011540625370887181,0.002962680019891195,-0.021685233256896197,0.0,70.0,255.0,255.0,255.0
368,18.400000000000002,-0.8359780665496871,11.101664732653855,-5.152019260862836,-0.23667449525157203,0.06124150851197996,-0.521736521552949,-0.010795542121078139,0.000982373659930147,-0.02112250253691883,0.0,70.0,255.0,255.0,255.0
369,18.45,-0.8478253107092578,11.104727910776713,-5.178132452565829,-0.23719313982771495,0.06124251393089253,-0.5227792181843771,-0.00998097060729286,-0.0005827299087712845,-0.020679909947141084,0.0,70.0,255.0,255.0,255.0
370,18.5,-0.8596973805324586,11.107788984046945,-5.204297182681274,-0.2376725923123013,0.06118323552110283,-0.5238045125476631,-0.009355378795183888,-0.0011221026683827517,-0.02048880404954545,0.0,70.0,255.0,255.0,255.0
371,18.55,-0.871592569940488,11.110846234328823,-5.230512903820595,-0.23812867770723334,0.06113030366405425,-0.5248280985893317,-0.009065616693570977,-0.00033685088514090467,-0.020613725914930825,0.0,70.0,255.0,255.0,255.0
372,18.6,-0.8835102483031819,11.11390201441335,-5.256779992540207,-0.2385791539816584,0.06114955043258874,-0.5258658851391562,-0.009064865348873408,0.0014328192415646868,-0.021001254679120507,0.0,70.0,255.0,255.0,255.0
373,18.650000000000002,-0.8954504853386538,11.116961189372082,-5.283099492334511,-0.23903516424212068,0.06127358558821072,-0.5269282240572437,-0.009234313679529205,0.0035187019040705536,-0.02153556709254545,0.0,70.0,255.0,255.0,255.0
374,18.7,-0.907413764727394,11.120029372972171,-5.309472814945932,-0.23950258534961133,0.061501420622995795,-0.5280194418484108,-0.009467282327502158,0.005247930337048956,-0.02209338790351012,0.0,70.0,255.0,255.0,255.0
375,18.75,-0.9194007438736149,11.123111331434382,-5.335901436519352,-0.2399818924748709,0.06179837862191562,-0.5291375628475947,-0.009654692421712241,0.00594529805244548,-0.022557646346310634,0.0,70.0,255.0,255.0,255.0
376,18.8,-0.9314119539748811,11.126209210834363,-5.362386571230691,-0.24046805459178255,0.06209595042824034,-0.5302752064830418,-0.009732859362698854,0.005271710548804265,-0.022859799472030318,0.0,70.0,255.0,255.0,255.0
377,18.85,-0.9434475493327932,11.129320926477206,-5.388928957167656,-0.24095517841114078,0.062325549676796044,-0.5314235427947978,-0.009720845634586528,0.00356226678945859,-0.022993384390002092,0.0,70.0,255.0,255.0,255.0
378,18.900000000000002,-0.9555074718159952,11.132441765802042,-5.415528925510171,-0.2414401391552412,0.0624521771071862,-0.532574544922042,-0.009665431599115148,0.001486594948651998,-0.022970753567364,0.0,70.0,255.0,255.0,255.0
379,18.95,-0.9675915632483173,11.135566144187925,-5.44218641165986,-0.2419217215710523,0.062474209171661244,-0.5337206181515342,-0.009603699616544947,-0.0002892711590263275,-0.022807051259121636,0.0,70.0,255.0,255.0,255.0
380,19.0,-0.9796996439731004,11.138689186719208,-5.468900987325324,-0.2424005091168957,0.06242324999128357,-0.5348552500479542,-0.00957382354579428,-0.0011072014315161027,-0.022524619889896513,0.0,70.0,255.0,255.0,255.0
381,19.05,-0.9918316141600069,11.141808469187053,-5.495671936664656,-0.24287910392563172,0.06236348902850963,-0.5359730801405238,-0.009596232568787055,-0.0006302710309213921,-0.02214605055588237,0.0,70.0,255.0,255.0,255.0
382,19.1,-1.0039875543656636,11.14492553562206,-5.522498295339377,-0.2433601323737744,0.06236022288819143,-0.5370698551035424,-0.009651752112971312,0.0008618898252876761,-0.021706046921554645,0.0,70.0,255.0,255.0,255.0
383,19.150000000000002,-1.0161676273973843,11.148044491475872,-5.54937892217501,-0.24384427913692885,0.0624496780110384,-0.5381436848326793,-0.009703959924178829,0.0027911420776405294,-0.021262257799481432,0.0,70.0,255.0,255.0,255.0
384,19.200000000000003,-1.0283719822793564,11.151170503423163,-5.576312663822645,-0.2443305283661923,0.06263933709595548,-0.5391960808834906,-0.009717919206231329,0.004582720732138057,-0.020884094705753142,0.0,70.0,255.0,255.0,255.0
385,19.25,-1.0406006802340035,11.154308425185468,-5.603298530263359,-0.244816071057552,0.0629079500842522,-0.5402320943032546,-0.009650013395012813,0.005679591589746735,-0.020639911389963572,0.0,70.0,255.0,255.0,255.0
386,19.3,-1.0528535893851116,11.157461298431588,-5.63033587325297,-0.24529552970569357,0.06320729625493016,-0.5412600720224869,-0.009482210362121712,0.005783452829710711,-0.020562711591320948,0.0,70.0,255.0,255.0,255.0
387,19.35,-1.065130233204573,11.16062915481096,-5.657424537465608,-0.24576429209376416,0.06348629536722328,-0.5422883654623867,-0.00927214591359693,0.005044626123229534,-0.020619723961257108,0.0,70.0,255.0,255.0,255.0
388,19.400000000000002,-1.077430018594488,11.16380992796831,-5.684564709799209,-0.24622274429705326,0.06371175886725311,-0.5433220444186126,-0.009118728704282653,0.0038135453641174877,-0.020742919197225262,0.0,70.0,255.0,255.0,255.0
389,19.450000000000003,-1.0897525076342782,11.167000330697686,-5.711756741907469,-0.24667616496419242,0.06386764990363503,-0.5443626573821092,-0.009117910271827512,0.0024387611912146667,-0.02085656991761553,0.0,70.0,255.0,255.0,255.0
390,19.5,-1.1020976350909073,11.170196692958674,-5.73900097553742,-0.24713453532423602,0.06395563498637458,-0.5454077014103742,-0.0093740949019816,0.00125279777734022,-0.020871725226179194,0.0,70.0,255.0,255.0,255.0
391,19.55,-1.1144659611667018,11.173395894196323,-5.7662975120485065,-0.24761357445439058,0.06399292968136905,-0.5464498299047271,-0.00992872551635049,0.0004547813906796705,-0.02074361589903262,0.0,70.0,255.0,255.0,255.0
392,19.6,-1.1268589925363464,11.176595985926811,-5.793645958527892,-0.24812740787587106,0.06400111312544254,-0.5474820630002775,-0.010657892670895563,7.140055249266197e-05,-0.02053598963485115,0.0,70.0,255.0,255.0,255.0
393,19.650000000000002,-1.139278701954289,11.179796005508868,-5.821045718348534,-0.24867936372148014,0.06400006973661831,-0.5485034288682122,-0.011342057659824434,8.539907643267952e-05,-0.02036429385023908,0.0,70.0,255.0,255.0,255.0
394,19.700000000000003,-1.1517269289084944,11.182995992900473,-5.8484963014147135,-0.2492616136418535,0.06400965303308581,-0.5495184923853014,-0.011764379100465128,0.00048740933014101984,-0.020336711870427848,0.0,70.0,255.0,255.0,255.0
395,19.75,-1.1642048633184743,11.186196970812176,-5.875997567587064,-0.24985580163152665,0.06404881066963242,-0.550537100055255,-0.01171365361691823,0.0012732266249315671,-0.020569131761138948,0.0,70.0,255.0,255.0,255.0
396,19.8,-1.176712509071647,11.189400873967436,-5.903550011420239,-0.25043297900354533,0.06413697569557897,-0.5515754055614153,-0.011095288504670009,0.0024061861758184477,-0.02110991105990223,0.0,70.0,255.0,255.0,255.0
397,19.85,-1.1892481612188288,11.192610668381734,-5.931155108143206,-0.25096533048199365,0.06428942928721426,-0.5526480911612452,-0.010062530489007848,0.0037080933450894804,-0.021834545937426952,0.0,70.0,255.0,255.0,255.0
398,19.900000000000002,-1.2018090421198464,11.195829816896158,-5.958814820536364,-0.2514392320524461,0.06450778503008792,-0.553758860155158,-0.008908471892188352,0.004883180008796728,-0.02252083780271974,0.0,70.0,255.0,255.0,255.0
399,19.950000000000003,-1.2143920844240734,11.199061446884743,-5.986530994158722,-0.2518561776712125,0.06477774728809393,-0.5549001749415172,-0.007936834398925008,0.005620366056291459,-0.022950521995035444,0.0,70.0,255.0,255.0,255.0
400,20.0,-1.2269946598869677,11.202307591624967,-6.014304838030515,-0.2522329154923386,0.06506982163571706,-0.5560539123546615,-0.00745129063006722,0.005618305046084515,-0.022911794348701164,0.0,70.0,255.0,255.0,255.0
401,20.05,-1.2396153759733073,11.205568429048315,-6.042136385394188,-0.2526013067342192,0.06533957779270239,-0.5571913543763873,-0.007603407177936283,0.004745648732651375,-0.022309140793197457,0.0,70.0,255.0,255.0,255.0
402,20.1,-1.2522547905603896,11.208841549404237,-6.070023973468154,-0.25299325621013224,0.0655443865089822,-0.5582848264339813,-0.00824387348501432,0.0032269486773373046,-0.021292073702028347,0.0,70.0,255.0,255.0,255.0
403,20.150000000000002,-1.2649147015943205,11.212122867699213,-6.097964868037586,-0.25342569408272064,0.06566227266043612,-0.5593205617465902,-0.00907216665988475,0.00149367575961179,-0.02014778617498436,0.0,70.0,255.0,255.0,255.0
404,20.200000000000003,-1.2775973599686616,11.21540777667028,-6.125956029642813,-0.2539004728761207,0.06569375408494338,-0.5602996050514797,-0.009781709877443312,-3.838590068028225e-06,-0.019173461222088406,0.0,70.0,255.0,255.0,255.0
405,20.25,-1.2903047488819326,11.218692243107707,-6.153994828542734,-0.254403865070465,0.06566188880142931,-0.561237907868799,-0.010053211834426534,-0.0008304561331939908,-0.018663690843201408,0.0,70.0,255.0,255.0,255.0
406,20.3,-1.3030377464757081,11.221973965550424,-6.182079820429693,-0.2549057940595634,0.06561070847162398,-0.5621659741357998,-0.00972502217733151,-0.0007622076781288456,-0.01876681247976464,0.0,70.0,255.0,255.0,255.0
407,20.35,-1.315795328287889,11.22525331395487,-6.210211425956314,-0.2553763672881981,0.06558566803361643,-0.5631145891167755,-0.008968315897517343,5.0592131550786235e-05,-0.01934904736655696,0.0,70.0,255.0,255.0,255.0
408,20.400000000000002,-1.328575383204528,11.228532532353785,-6.2383912793413705,-0.2558026256493151,0.06561576768477906,-0.5641008788724555,-0.008115681981202272,0.0012756367643973476,-0.02013612938664977,0.0,70.0,255.0,255.0,255.0
409,20.450000000000003,-1.3413755908528204,11.231814890723347,-6.2666215138435595,-0.25618793548631835,0.06571323171005616,-0.5651282020554405,-0.007489985764919105,0.002568414878112435,-0.020849059690153382,0.0,70.0,255.0,255.0,255.0
410,20.5,-1.3541941767531598,11.235103855524791,-6.2949040995469145,-0.256551624225807,0.0658726091725903,-0.5661857848414709,-0.007415768792062849,0.003587528811976881,-0.021205470249086034,0.0,70.0,255.0,255.0,255.0
411,20.55,-1.3670307532754011,11.238402151640607,-6.323240092327707,-0.25692951236552464,0.06607198459125385,-0.5672487490803491,-0.008050163786421649,0.004138147013676985,-0.021057548681735483,0.0,70.0,255.0,255.0,255.0
412,20.6,-1.3798871279897122,11.241711053983916,-6.3516289744549495,-0.2573566406044492,0.066286423873958,-0.5682915397096444,-0.009195683437845936,0.004258887923747068,-0.02051807715854892,0.0,70.0,255.0,255.0,255.0
413,20.650000000000002,-1.392766417335846,11.245030794028002,-6.380069246298671,-0.25784908070930923,0.06649787338362856,-0.569300556796204,-0.01047144574164438,0.00407305457361673,-0.01982051679165764,0.0,70.0,255.0,255.0,255.0
414,20.700000000000003,-1.4056720360606432,11.24836084132228,-6.40855903013457,-0.2584037851786136,0.06669372933131967,-0.5702735913888102,-0.011498999743442262,0.0036982909659144525,-0.01919067297837529,0.0,70.0,255.0,255.0,255.0
415,20.75,-1.4186067958537074,11.251700166961134,-6.437096605437552,-0.25899898068365346,0.06686770248022,-0.5712196240940415,-0.011907768941243901,0.0032643035881463334,-0.018846362891444812,0.0,70.0,255.0,255.0,255.0
416,20.8,-1.4315719341290085,11.255047611570301,-6.465680992543974,-0.259594562072738,0.0670201596901343,-0.5721582276779547,-0.011513949716523975,0.002854654589157235,-0.018902852932445313,0.0,70.0,255.0,255.0,255.0
417,20.85,-1.4445662520609812,11.258402182930148,-6.4943124282053475,-0.26015037565530585,0.06715316793913573,-0.573109909387286,-0.010498833801109164,0.002473762933519197,-0.019293236074346964,0.0,70.0,255.0,255.0,255.0
418,20.900000000000002,-1.457586971694539,11.261762928364215,-6.522991983482703,-0.2606444454528489,0.06726753598348623,-0.5740875512853894,-0.009229490763384973,0.0021147556637401976,-0.019867211373014726,0.0,70.0,255.0,255.0,255.0
419,20.950000000000003,-1.470630696606266,11.265128936528496,-6.551721183333886,-0.26107332473164435,0.06736464350550975,-0.5750966305245875,-0.008080075867389347,0.0017903093709747964,-0.02047496168327001,0.0,70.0,255.0,255.0,255.0
420,21.0,-1.4836943041677035,11.268499392714766,-6.580501646535161,-0.26145245303958786,0.0674465669205837,-0.5761350474537164,-0.0074251367946587266,0.0015033221020033238,-0.020973087507858423,0.0,70.0,255.0,255.0,255.0
421,21.05,-1.496775941910225,11.271873593220555,-6.609334688079258,-0.2618158384111102,0.06751497571571008,-0.5771939392753733,-0.007460097953382316,0.001256661202475584,-0.02127826569546798,0.0,70.0,255.0,255.0,255.0
422,21.1,-1.5098758880088146,11.275250890286337,-6.638221040462699,-0.2621984628349261,0.06757223304083126,-0.5782628740232632,-0.008039937068837766,0.0010833563811374347,-0.0213926149082333,0.0,70.0,255.0,255.0,255.0
423,21.150000000000002,-1.5229957881937175,11.278630816524638,-6.667160975481584,-0.262619832117994,0.06762331135382382,-0.5793332007661967,-0.008860474654959205,0.0010306267338222597,-0.021346162192781293,0.0,70.0,255.0,255.0,255.0
424,21.200000000000003,-1.536137871220614,11.28201322142172,-6.696154360539318,-0.263084510300422,0.06767529571421349,-0.5803974902425413,-0.00962032382678668,0.0011337582630943643,-0.02116999310928236,0.0,70.0,255.0,255.0,255.0
425,21.25,-1.5493042392237597,11.28539834609606,-6.7252007245058385,-0.26358186450067267,0.06773668718013326,-0.5814502000771249,-0.010015739823887593,0.0014263707079464893,-0.020905296399664763,0.0,70.0,255.0,255.0,255.0
426,21.3,-1.5624960576706812,11.288786890139733,-6.754299380547031,-0.2640860842828108,0.06781793278500814,-0.5824880198825078,-0.009886311150220095,0.001913012954446458,-0.020583058644785268,0.0,70.0,255.0,255.0,255.0
427,21.35,-1.5757128476520408,11.29218013937456,-6.783449526494089,-0.2645704956156947,0.0679279884755779,-0.5835085059416034,-0.009347758249966809,0.0025119723819244655,-0.020217143454015485,0.0,70.0,255.0,255.0,255.0
428,21.400000000000002,-1.5889531072322507,11.29557968898729,-6.812650231141191,-0.26502086010780745,0.06806913002320059,-0.5845097342279093,-0.008641431130018695,0.0030818982400759865,-0.019828979016889292,0.0,70.0,255.0,255.0,255.0
429,21.450000000000003,-1.6022149336628215,11.29898705237688,-6.84190049991688,-0.26543463872869655,0.0682361782995855,-0.5854914038432923,-0.007999001786052062,0.003475683216791481,-0.019450753525429576,0.0,70.0,255.0,255.0,255.0
430,21.5,-1.6154965711051203,11.302403306817249,-6.87119937152552,-0.26582076028641266,0.06841669834487973,-0.5864548095804523,-0.007643838641469003,0.003547185743180137,-0.019101764188711456,0.0,70.0,255.0,255.0,255.0
431,21.55,-1.6287970096914628,11.305828722211368,-6.900545980874925,-0.26619902259284345,0.06859089687390352,-0.5874015802621635,-0.007694517585310479,0.003230774158424765,-0.018796213012262086,0.0,70.0,255.0,255.0,255.0
432,21.6,-1.6421164733644047,11.30926239650464,-6.929939529551737,-0.2665902120449437,0.06873977576072221,-0.5883344308816785,-0.008083622005838897,0.0026332296164000013,-0.018576107313439394,0.0,70.0,255.0,255.0,255.0
433,21.650000000000002,-1.6554560308959572,11.31270269978744,-6.959379423963093,-0.26700738479342734,0.06885421983554352,-0.5892591909935074,-0.00865920875070536,0.001958143944058577,-0.018500625701989293,0.0,70.0,255.0,255.0,255.0
434,21.700000000000003,-1.6688172118437474,11.316147818488194,-6.9888654486510875,-0.26745613292001424,0.06893559015512807,-0.5901844934518774,-0.009270382315862413,0.0014162827616459595,-0.01862027950201295,0.0,70.0,255.0,255.0,255.0
435,21.75,-1.6822016441879586,11.319596258802953,-7.018397873308281,-0.2679344230250136,0.06899584811170811,-0.5911212189437087,-0.009772914933892096,0.001220876994700859,-0.01899160954961232,0.0,70.0,255.0,255.0,255.0
436,21.8,-1.6956106541462488,11.323047403299364,-7.047977570545458,-0.26843342441340345,0.06905767785459815,-0.5920836544068386,-0.010082844615744158,0.0014771771237320763,-0.019626401660932657,0.0,70.0,255.0,255.0,255.0
437,21.85,-1.709044986629299,11.326502026588413,-7.077606238748965,-0.268942707486588,0.06914356582408132,-0.593083859109802,-0.010201390090491813,0.0020697012274695226,-0.020397588131615407,0.0,70.0,255.0,255.0,255.0
438,21.900000000000002,-1.7225049248949076,11.329961759881773,-7.107285956456439,-0.26945356342245264,0.0692646479773451,-0.5941234132200002,-0.010157258342746722,0.0027709339098791474,-0.021087679014009098,0.0,70.0,255.0,255.0,255.0
439,21.950000000000003,-1.7359903429715442,11.333428491386147,-7.137018580070965,-0.26995843332086267,0.06942065921506924,-0.5951926270112029,-0.009979981770946722,0.003352612308660241,-0.021475867393938586,0.0,70.0,255.0,255.0,255.0
440,22.0,-1.7495007682269939,11.33690382580328,-7.166805219157559,-0.2704515615995473,0.06959990920821113,-0.596270999959394,-0.009708510946793147,0.003585343574208366,-0.021339816260823596,0.0,70.0,255.0,255.0,255.0
441,22.05,-1.763035499131499,11.340388482306968,-7.196645680066904,-0.270929284415542,0.06977919357249007,-0.5973266086372853,-0.00937307831092582,0.003353943921702296,-0.02058386798990952,0.0,70.0,255.0,255.0,255.0
442,22.1,-1.776593696668548,11.343881745160528,-7.226537880021287,-0.2713888694306399,0.06993530360038136,-0.598329386758385,-0.00899165679308922,0.002773373399733714,-0.019399787247298406,0.0,70.0,255.0,255.0,255.0
443,22.150000000000002,-1.790174386074563,11.347382012667007,-7.256478618742743,-0.2718284500948509,0.07005653091246344,-0.5992665873620151,-0.008592597038870053,0.0020727124885766557,-0.01814408947744539,0.0,70.0,255.0,255.0,255.0
444,22.200000000000003,-1.8037765416780331,11.350887398251775,-7.286464538757489,-0.2722481291345269,0.07014257484923903,-0.6001437957061295,-0.008215378246134719,0.0014798414296635087,-0.01718179870628944,0.0,70.0,255.0,255.0,255.0
445,22.25,-1.8173991989880156,11.35439627015193,-7.316492998313356,-0.2726499879194644,0.0702045150554298,-0.600984767232644,-0.007889078575007424,0.0012217114139900787,-0.01687709743523058,0.0,70.0,255.0,255.0,255.0
446,22.3,-1.8310415404699796,11.357907849757318,-7.346563015480753,-0.27303703699202764,0.07026474599063803,-0.6018315054496526,-0.007631555427267678,0.0014136206170078935,-0.017405212627341626,0.0,70.0,255.0,255.0,255.0
447,22.35,-1.8447029026872184,11.361422744750994,-7.376676148858321,-0.27341314346219114,0.07034587711713058,-0.6027252884953782,-0.007469278774330235,0.0019513972493001575,-0.018553379429064876,0.0,70.0,255.0,255.0,255.0
448,22.400000000000002,-1.8583828548161987,11.36494243746903,-7.406835544330291,-0.27378396486946066,0.07045988571556805,-0.6036868433925591,-0.007435057464388883,0.0026236240611154926,-0.01990500736503975,0.0,70.0,255.0,255.0,255.0
449,22.450000000000003,-1.8720812991741644,11.368468733322551,-7.437044833197577,-0.27415664920863003,0.07060823952324213,-0.6047157892318822,-0.007551791958104737,0.0032214485448989194,-0.021037590461681077,0.0,70.0,255.0,255.0,255.0
450,22.5,-1.8857985197370617,11.372003261421355,-7.467307123253479,-0.27453914406527113,0.07078203057005794,-0.6057906024387272,-0.007839137457166245,0.0035438480638916303,-0.021531840618660425,0.0,70.0,255.0,255.0,255.0
451,22.55,-1.8995352135806916,11.375546936379557,-7.49762389344145,-0.27494056295434666,0.0709626243296313,-0.6068689732937482,-0.008295012334147422,0.003485000184255682,-0.021175421360020152,0.0,70.0,255.0,255.0,255.0
452,22.6,-1.9132925760324964,11.379099523854318,-7.527994020582854,-0.2753686452986859,0.07113053058848351,-0.6079081445747292,-0.008850388948689059,0.00310644552996564,-0.020157510886598118,0.0,70.0,255.0,255.0,255.0
453,22.650000000000002,-1.9270720781105601,11.382659989438405,-7.558414707898923,-0.27582560184921556,0.07127326888262786,-0.608884724382408,-0.009386333942851266,0.00254738334142246,-0.01886506521211473,0.0,70.0,255.0,255.0,255.0
454,22.700000000000003,-1.940875136217418,11.386226850742581,-7.588882493021095,-0.276307278692971,0.07138526892262576,-0.6097946510959407,-0.009778479562605469,0.0019476511033289512,-0.017687699587654038,0.0,70.0,255.0,255.0,255.0
455,22.75,-1.9547028059798572,11.389798516330668,-7.619394173008517,-0.2768034498054761,0.07146803399296076,-0.6106534943411734,-0.00991036227215858,0.0014388870043902102,-0.01701549347039588,0.0,70.0,255.0,255.0,255.0
456,22.8,-1.9685554811979655,11.393373654141877,-7.649947842455212,-0.27729831492018686,0.07152915762306478,-0.6114962004429803,-0.00972788241557776,0.0010991525400072533,-0.01705244925052085,0.0,70.0,255.0,255.0,255.0
457,22.85,-1.982432637471876,11.396951432092974,-7.680543793052815,-0.2777762380470339,0.07157794924696148,-0.6123587392662255,-0.009293640955387872,0.0009391842697326069,-0.01764753273523212,0.0,70.0,255.0,255.0,255.0
458,22.900000000000002,-1.996333105002669,11.400531449066573,-7.711183716381835,-0.27822767901572565,0.07162307605003804,-0.6132609537165035,-0.008735970400564064,0.0009513180964759727,-0.018484615237746027,0.0,70.0,255.0,255.0,255.0
459,22.950000000000003,-2.0102554053734485,11.404113739697978,-7.741869888424465,-0.2786498350870903,0.07167308105660908,-0.6142072007900001,-0.008193776971188171,0.0011274342204714571,-0.019251238227635525,0.0,70.0,255.0,255.0,255.0
460,23.0,-2.024198088511378,11.407698757172234,-7.772604436460835,-0.27904705671284447,0.07173581947208518,-0.615186077539267,-0.007807432102135969,0.0014565945940958613,-0.019630241443735486,0.0,70.0,255.0,255.0,255.0
461,23.05,-2.038160111044733,11.411287321645187,-7.803388496178392,-0.2794305782973039,0.07181874051601866,-0.6161702249343737,-0.007652945182723414,0.0019194152971024891,-0.019455434318249587,0.0,70.0,255.0,255.0,255.0
462,23.1,-2.0521411463411083,11.414880631223836,-7.834221458954272,-0.2798123512311168,0.07192776100179543,-0.617131620971092,-0.007691410866206283,0.002455978233051326,-0.018858698498380733,0.0,70.0,255.0,255.0,255.0
463,23.150000000000002,-2.0661413461678446,11.418480097745366,-7.865101658275501,-0.2801997193839245,0.0720643383393238,-0.6180560947842118,-0.007834259979633273,0.0029665051110683294,-0.018109294350043825,0.0,70.0,255.0,255.0,255.0
464,23.200000000000003,-2.080161118279501,11.422087065057768,-7.896027068432693,-0.28059577722908013,0.07222441151290226,-0.6189425504060964,-0.00799261301902554,0.0033436376529749623,-0.017467720462516212,0.0,70.0,255.0,255.0,255.0
465,23.25,-2.0942009238907526,11.425702538896656,-7.9269959133161105,-0.28099898068582707,0.0723987021046213,-0.6198028668304634,-0.008067927967170263,0.003490725295840491,-0.017195475486264655,0.0,70.0,255.0,255.0,255.0
466,23.3,-2.1082610163480835,11.42932693526823,-7.95800735511574,-0.28140257002579716,0.07257348404248631,-0.6206620979547228,-0.008007562960177239,0.0033626734520453283,-0.017425673615623083,0.0,70.0,255.0,255.0,255.0
467,23.35,-2.1223411808933323,11.432959887300905,-7.989062123111583,-0.2817997369818448,0.07273496944982583,-0.6215454341920257,-0.007861647980611508,0.003001378323119752,-0.018032265345802045,0.0,70.0,255.0,255.0,255.0
468,23.400000000000002,-2.136440990046268,11.436600432213213,-8.020161898534942,-0.2821887348238583,0.07287362187479829,-0.622465324489303,-0.007725218119736255,0.002499025095836771,-0.01876361528836412,0.0,70.0,255.0,255.0,255.0
469,23.450000000000003,-2.150560054375718,11.440247249488385,-8.051308655560513,-0.2825722587938184,0.0729848719594095,-0.6234217957208621,-0.007682857200075333,0.0019575023452844675,-0.019371306496385188,0.0,70.0,255.0,255.0,255.0
470,23.5,-2.16469821592565,11.443898919409154,-8.082504078107029,-0.28295702054386584,0.07306937210932674,-0.6244024551389415,-0.007816800084814446,0.001468522870240463,-0.0196038939067833,0.0,70.0,255.0,255.0,255.0
471,23.55,-2.1788557564301048,11.447554186699318,-8.113748901074407,-0.28335393880229987,0.07313172424643355,-0.6253821851115404,-0.00816388922335598,0.0010893780750365067,-0.019335297791478467,0.0,70.0,255.0,255.0,255.0
472,23.6,-2.19303360980588,11.451212091833797,-8.145042296618183,-0.28377340946620144,0.07317830991683039,-0.6263359849180894,-0.008660225649581577,0.0008548721105228196,-0.01869764804371954,0.0,70.0,255.0,255.0,255.0
473,23.650000000000002,-2.207233097376725,11.454872017691,-8.176382499566216,-0.284219961367258,0.07321721145748583,-0.6272519499159124,-0.009185799942557082,0.0008018700304646131,-0.01795083657203378,0.0,70.0,255.0,255.0,255.0
474,23.700000000000003,-2.2214556059426056,11.458533812979546,-8.207767491609774,-0.28469198946045715,0.07325849691987685,-0.6281310685752928,-0.009623184288187758,0.0009658401452838916,-0.01735362697949938,0.0,70.0,255.0,255.0,255.0
475,23.75,-2.2357022963227706,11.462197867382988,-8.239195606423745,-0.2851822797960768,0.07331379547201422,-0.6289873126138623,-0.009872890341444673,0.0013911738985683542,-0.017172911590357387,0.0,70.0,255.0,255.0,255.0
476,23.8,-2.2499738339222133,11.465865192526747,-8.27066622287116,-0.2856792784946016,0.07339761430973368,-0.6298483597343285,-0.009883080612382855,0.0020808398890181934,-0.01753970864282195,0.0,70.0,255.0,255.0,255.0
477,23.85,-2.264270224172231,11.469537628813962,-8.302180442397178,-0.2861705878573151,0.07352187946091604,-0.6307412834781445,-0.009661924945758571,0.002898294074427099,-0.018291734554232164,0.0,70.0,255.0,255.0,255.0
478,23.900000000000002,-2.278590892707945,11.473217380472839,-8.333740351218974,-0.2866454709891775,0.07368744371717639,-0.6316775331897517,-0.009247945746526653,0.0036126556224758133,-0.01911844635102966,0.0,70.0,255.0,255.0,255.0
479,23.950000000000003,-2.2929347712711485,11.47690637318568,-8.365348195716154,-0.28709538243196775,0.07388314502316362,-0.6326531281132475,-0.008690606113503918,0.003986876001782491,-0.019714325445896463,0.0,70.0,255.0,255.0,255.0
480,24.0,-2.3073004309511416,11.480605694975155,-8.3970056640303,-0.28751453160052787,0.07408613131735464,-0.6336489657343414,-0.008031685169074265,0.003774800182654303,-0.01977252499898441,0.0,70.0,255.0,255.0,255.0
481,24.05,-2.3216862244312013,11.484314986317415,-8.428713092289588,-0.2878985509488752,0.07426062504142905,-0.6346303806131459,-0.007309475972405721,0.0028729500142432585,-0.01914549467567639,0.0,70.0,255.0,255.0,255.0
482,24.1,-2.336090286046029,11.488031757479298,-8.460468702091614,-0.28824547919776844,0.07437342631877897,-0.635563515201909,-0.0066102097658671255,0.0015181986782408785,-0.01802259322687405,0.0,70.0,255.0,255.0,255.0
483,24.150000000000002,-2.350510772350978,11.491752328949293,-8.492269443809779,-0.2885595719254619,0.07441244490925314,-0.6364326399358333,-0.006065960195078546,0.0001429387147311445,-0.016769037698338707,0.0,70.0,255.0,255.0,255.0
484,24.200000000000003,-2.3649462432385753,11.495473001970224,-8.524111966085197,-0.2888520752172763,0.07438772019025208,-0.6372404189717429,-0.005806652330342388,-0.000814509654034623,-0.015748418556071897,0.0,70.0,255.0,255.0,255.0
485,24.25,-2.379395979872706,11.499191100968318,-8.555993485706953,-0.2891402371584961,0.07433099394384968,-0.6380074817914405,-0.005948341009975877,-0.0009144305728625568,-0.015312932468880547,0.0,70.0,255.0,255.0,255.0
486,24.3,-2.393860266954425,11.502906101364609,-8.587912714264341,-0.2894469093182739,0.07429627713296583,-0.6387717122186309,-0.006533840672329205,4.824583594853493e-05,-0.01563868561476056,0.0,70.0,255.0,255.0,255.0
487,24.35,-2.408340670804533,11.506620728681614,-8.619870656928816,-0.28979362122572905,0.07433581852744453,-0.6395713503529166,-0.007451921305667852,0.0017772561999862546,-0.016568009088224755,0.0,70.0,255.0,255.0,255.0
488,24.400000000000002,-2.422839629076998,11.510339683217353,-8.651869849299633,-0.29019210144884067,0.07447400275296445,-0.6404285131274534,-0.008491010675992783,0.0037055662076568296,-0.017774447144702776,0.0,70.0,255.0,255.0,255.0
489,24.450000000000003,-2.4373598809494172,11.514068128956911,-8.683913508241561,-0.2906427222933283,0.07470637514821021,-0.6413487950673868,-0.009424323026951953,0.005259041403249398,-0.018925939725455976,0.0,70.0,255.0,255.0,255.0
490,24.5,-2.4519039013063306,11.517810320732174,-8.716004728806372,-0.29113453375153586,0.07499990689328939,-0.642321107099999,-0.010042922819009092,0.005870987376965786,-0.019703763773293304,0.0,70.0,255.0,255.0,255.0
491,24.55,-2.466473334324571,11.52156811964624,-8.748145618951561,-0.29164701457522924,0.07529347388590679,-0.6433191714447162,-0.01023516133771274,0.0052604069683326315,-0.01993370225861213,0.0,70.0,255.0,255.0,255.0
492,24.6,-2.4810686027638535,11.525339668120765,-8.780336645950843,-0.29215804988530714,0.07552594759012266,-0.6443144773258602,-0.010030216899670208,0.0037080678962908564,-0.01967441470860365,0.0,70.0,255.0,255.0,255.0
493,24.650000000000002,-2.4956891393131015,11.529120714405252,-8.812577066684147,-0.29265003626519626,0.07566428067553588,-0.6452866129155765,-0.009521885213281678,0.0017803442391439717,-0.01908329027244804,0.0,70.0,255.0,255.0,255.0
494,24.700000000000003,-2.510333606390373,11.532906096188318,-8.8448653072424,-0.2931102384066353,0.07570398201403705,-0.646222806353105,-0.008816055562110847,5.097807473930516e-05,-0.018321622077444033,0.0,70.0,255.0,255.0,255.0
495,24.75,-2.525000163153765,11.536691112606656,-8.877199347319458,-0.29353164182140734,0.07566937848300981,-0.6471187751233209,-0.008011995685741624,-0.0009135748776145647,-0.017552012437604958,0.0,70.0,255.0,255.0,255.0
496,24.8,-2.539686770572514,11.54047303403662,-8.909577184754733,-0.29391143797520947,0.0756126245262756,-0.6479780075968655,-0.0071839755147351525,-0.0008172396761096934,-0.01687825360239259,0.0,70.0,255.0,255.0,255.0
497,24.85,-2.554391306951286,11.544252375059283,-8.941997148079144,-0.29425003937288086,0.07558765451539884,-0.6488066004835602,-0.006424413892913705,0.00013601999935275444,-0.016331534875746456,0.0,70.0,255.0,255.0,255.0
498,24.900000000000002,-2.569111774509802,11.54803179948816,-8.974457844803089,-0.29455387936450084,0.07562622652621087,-0.6496111610844402,-0.005866763156525678,0.0015083482100664014,-0.0159377064514743,0.0,70.0,255.0,255.0,255.0
499,24.950000000000003,-2.583846694887736,11.551814997711904,-9.006958264187588,-0.2948367156885334,0.07573848933640548,-0.6504003711287076,-0.005649916263239518,0.0028633866245186823,-0.015732746789254293,0.0,70.0,255.0,255.0,255.0
500,25.0,-2.5985954460786553,11.5556056484218,-9.03949788191596,-0.2951188709908248,0.07591256518866274,-0.6511844357633656,-0.005909094437717144,0.0037713774023728774,-0.01574021444650242,0.0,70.0,255.0,255.0,255.0
501,25.05,-2.6133585819868186,11.55940625423077,-9.072076707763925,-0.29542762513230514,0.07611562707664277,-0.6519743925733579,-0.006690475064452528,0.003996430524111361,-0.01596102226013585,0.0,70.0,255.0,255.0,255.0
502,25.1,-2.628138208591886,11.563217211129464,-9.104695321173295,-0.29578791849727004,0.07631220824107388,-0.6527805379893792,-0.007826812843569897,0.003637828795710618,-0.01635590266602094,0.0,70.0,255.0,255.0,255.0
503,25.150000000000002,-2.6429373738365456,11.567037475054878,-9.137354761562863,-0.29621030641666213,0.07647940995621383,-0.65360998283996,-0.009013859364070953,0.002934607908855469,-0.016847748723236577,0.0,70.0,255.0,255.0,255.0
504,25.200000000000003,-2.657759239233552,11.570865152125085,-9.170056319457291,-0.29668930443367714,0.07660566903195942,-0.6544653128617028,-0.009932531133394207,0.002116361207882278,-0.017341703118489704,0.0,70.0,255.0,255.0,255.0
505,25.25,-2.6726063042799133,11.574698041958074,-9.202801292849033,-0.29720355953000155,0.07669104607700206,-0.6553441531518089,-0.010271626562952108,0.0014040093233802509,-0.017747083155761345,0.0,70.0,255.0,255.0,255.0
506,25.3,-2.687479595186552,11.578534256732786,-9.235590734772472,-0.29771646708997235,0.07674606996429745,-0.656240021177279,-0.00988032469337874,0.0009303520785763908,-0.018011456891819932,0.0,70.0,255.0,255.0,255.0
507,25.35,-2.7023779509889105,11.582372648954504,-9.268425294966761,-0.2981915919993394,0.0767840812848597,-0.6571452988409909,-0.00891821818291838,0.0007080960548577764,-0.018128490823343668,0.0,70.0,255.0,255.0,255.0
508,25.400000000000002,-2.717298754386486,11.586212664861272,-9.301305264656571,-0.2986082889082642,0.07681687956978323,-0.6580528702596133,-0.007708755098478903,0.0007194672418719961,-0.018106823131702754,0.0,70.0,255.0,255.0,255.0
509,25.450000000000003,-2.732238779879737,11.590054336911482,-9.334230581992722,-0.2989624675091873,0.0768560280090469,-0.6589559811541612,-0.0065860198090739175,0.0009568561887718374,-0.017960953558748827,0.0,70.0,255.0,255.0,255.0
510,25.5,-2.747195001137405,11.593898267662176,-9.367200862771988,-0.2992668908891716,0.07691256518866041,-0.6598489656154882,-0.005876380662117597,0.0014206039496755807,-0.01771546225324272,0.0,70.0,255.0,255.0,255.0
511,25.55,-2.762165468968654,11.597745593430348,-9.400215478554271,-0.2995501055753991,0.07699808840401445,-0.6607275273794855,-0.005754286767878369,0.002089900088719787,-0.017392124531312447,0.0,70.0,255.0,255.0,255.0
512,25.6,-2.777150011694945,11.601598076502578,-9.433273615509936,-0.2998423195659594,0.07712155519753239,-0.6615881780686195,-0.0061312701358229305,0.0028489478271609414,-0.017010973201792012,0.0,70.0,255.0,255.0,255.0
513,25.650000000000002,-2.79214970092525,11.605457748950101,-9.466374296361133,-0.30016323258898137,0.07728298318673055,-0.6624286246996647,-0.006801003692036289,0.0035066839634723124,-0.016605797910607123,0.0,70.0,255.0,255.0,255.0
514,25.700000000000003,-2.807166334953843,11.60932637482125,-9.499516477979903,-0.30052241993516304,0.07747222359387962,-0.6632487578596802,-0.007556303383138285,0.003863952962568362,-0.016220170293301805,0.0,70.0,255.0,255.0,255.0
515,25.75,-2.8222019429187664,11.61320497130949,-9.532699172147101,-0.3009188629272952,0.07766937848298738,-0.6640506417289949,-0.008194878760825475,0.0037215935254408805,-0.01588710512638869,0.0,70.0,255.0,255.0,255.0
516,25.8,-2.8372582212465725,11.61709331266955,-9.565921542152802,-0.3013419078112456,0.0778443829464237,-0.664837468372319,-0.008596980449571134,0.002995735212074635,-0.015626758267828222,0.0,70.0,255.0,255.0,255.0
517,25.85,-2.852336133699891,11.620989409604132,-9.599182918984333,-0.3017785609722523,0.07796895200419485,-0.6656133175557777,-0.008761270038304403,0.0018623597236810951,-0.01546491240649317,0.0,70.0,255.0,255.0,255.0
518,25.900000000000002,-2.8674360773437977,11.624890207869969,-9.63248287390838,-0.30221803481507603,0.07803061891879182,-0.6663839596129684,-0.008720983047050268,0.0006492281414693934,-0.015432689190575388,0.0,70.0,255.0,255.0,255.0
519,25.950000000000003,-2.8825579371813985,11.628792471496011,-9.66582131494563,-0.30265065927695733,0.07803387481834179,-0.6671565864748352,-0.008503079012500692,-0.000307120254561255,-0.015551651982903536,0.0,70.0,255.0,255.0,255.0
520,26.0,-2.8977011432714934,11.632693595351803,-9.699198532555863,-0.3030683427163261,0.07799990689333569,-0.6679391248112587,-0.008136085646981428,-0.0006790060247396923,-0.01584007994281933,0.0,70.0,255.0,255.0,255.0
521,26.05,-2.912864771453031,11.636592462185344,-9.732615227426756,-0.3034642678416555,0.07796597421586782,-0.6687405944691172,-0.007650052506402716,-0.0003057546901885644,-0.016295154751233554,0.0,70.0,255.0,255.0,255.0
522,26.1,-2.928047570055659,11.64049019277339,-9.766072592002775,-0.30383334796696637,0.07796933142431683,-0.6695686402863821,-0.007104488871556569,0.0006517298286823348,-0.016848538012048664,0.0,70.0,255.0,255.0,255.0
523,26.150000000000002,-2.9432481062497278,11.644389395327776,-9.799572091455394,-0.30417471672881113,0.07803114719873605,-0.670425448270322,-0.006595903280182114,0.0018654477614177267,-0.017382606165838865,0.0,70.0,255.0,255.0,255.0
524,26.200000000000003,-2.95846504172854,11.648293307493264,-9.833115136829807,-0.3044929382949846,0.07815587620045861,-0.671306900902966,-0.0062303549257070046,0.0029984674490890484,-0.017774247416824096,0.0,70.0,255.0,255.0,255.0
525,26.25,-2.9736974000792262,11.652204982947822,-9.86670278154569,-0.30479775222138183,0.07833099394364496,-0.6722028730120044,-0.006104787975536041,0.003722449219800694,-0.01790856577770228,0.0,70.0,255.0,255.0,255.0
526,26.3,-2.9889448169506783,11.656126406887628,-9.900335424131008,-0.3051034170925382,0.07852812112243868,-0.6730977574807362,-0.006263322345434474,0.003861222942092013,-0.017732109907520055,0.0,70.0,255.0,255.0,255.0
527,26.35,-3.00420774178848,11.660057795060066,-9.934012557293764,-0.3054240844559253,0.07871711623785416,-0.6739760840027564,-0.006656298951002171,0.003499765252179543,-0.017305411070545063,0.0,70.0,255.0,255.0,255.0
528,26.400000000000002,-3.019487225396271,11.663998118511413,-9.967733032531283,-0.3057690469876384,0.07887809764765663,-0.6748282985877907,-0.007179040195870456,0.0028390973652037133,-0.016753249780876445,0.0,70.0,255.0,255.0,255.0
529,26.450000000000003,-3.034784646487244,11.667945604824832,-10.001495387152543,-0.3061419884755123,0.07900102597437453,-0.6756514089808441,-0.007716014105207947,0.0020803367048571886,-0.01621084553047325,0.0,70.0,255.0,255.0,255.0
530,26.5,-3.050101424243822,11.671898221108851,-10.035298173429368,-0.3065406483981592,0.07908613131814235,-0.676449383140838,-0.008156743802789634,0.0014171811713481475,-0.015813675594955612,0.0,70.0,255.0,255.0,255.0
531,26.55,-3.06543871132706,11.675854217956646,-10.069140325466627,-0.3069576628557913,0.07914274409150934,-0.6772327765403396,-0.008437170932218407,0.0009664107055940008,-0.015635892798293582,0.0,70.0,255.0,255.0,255.0
