idx,t,px,py,pz,vx,vy,vz,ax,ay,az,yaw,mode,ledr,ledg,ledb
0,0.0,7.500000000000003,-13.500000000000002,7.845582115685684e-19,0.0005822833725765975,7.513428815997258e-05,0.0013588726423598818,-0.00334855581716198,0.005365771412257914,-0.04105915094906589,0.0,70.0,255.0,255.0,255.0
1,0.05,7.5000291141686315,-13.499996243285594,6.794363211799488e-05,0.00041485558171849846,0.00034342285877286827,-0.0006940849050934128,-0.004804264248559065,0.008177935691833227,-0.061456332554965624,0.0,70.0,255.0,255.0,255.0
2,0.1,7.5000414855581745,-13.499965657714124,-6.94084905093405e-05,0.00010185694772069098,0.0008929278573432953,-0.0047867606131366805,-0.005822833725765975,0.011248657118301253,-0.08158872642359886,0.0,70.0,255.0,255.0,255.0
3,0.15000000000000002,7.500039299863404,-13.49990695049986,-0.00041073242919567317,-0.000167427790858099,0.0014682885706029936,-0.0088529575474533,-0.004948555815609268,0.011765771408889236,-0.08105915094907004,0.0,70.0,255.0,255.0,255.0
4,0.2,7.500024742779089,-13.499818828857064,-0.0009547042452546704,-0.0003929986338402358,0.002069504998232219,-0.012892675708043684,-0.004069362985781311,0.01228702096778278,-0.08052517878626118,0.0,70.0,255.0,255.0,255.0
5,0.25,7.5000000000000195,-13.499700000000036,-0.0017000000000000415,-0.0005743640894362301,0.0026969906673812716,-0.016905475426079418,-0.00316190936260341,0.01283204830659912,-0.07996592566585194,0.0,70.0,255.0,255.0,255.0
6,0.30000000000000004,7.499967306370145,-13.499549129790326,-0.0026452517878626123,-0.0007091895701005768,0.003352709828892131,-0.020889268274628878,-0.002218686032140482,0.013407171177348687,-0.07937467442521151,0.0,70.0,255.0,255.0,255.0
7,0.35000000000000003,7.4999290810430095,-13.499364729017147,-0.003788926827462929,-0.0007962326926502783,0.00403770778511614,-0.02484294286860057,-0.0013037234968926725,0.013958516271728172,-0.07880870414216717,0.0,70.0,255.0,255.0,255.0
8,0.4,7.49988768310088,-13.499145359011814,-0.0051295460747226695,-0.0008395619197898441,0.004748561456064948,-0.028770138688845596,-0.0005192794253261468,0.014400047113127812,-0.07835949035891766,0.0,70.0,255.0,255.0,255.0
9,0.45,7.4998451248510305,-13.49888987287154,-0.006665940696347489,-0.000848160635182893,0.0054777124964289214,-0.03267889190449234,5.321100760014019e-05,0.014659728128840754,-0.07810447139309606,0.0,70.0,255.0,255.0,255.0
10,0.5,7.499802867037362,-13.498597587762172,-0.008397435265171904,-0.00083424081902983,0.0062145342689490235,-0.0365805858281552,0.00036687942372992666,0.014681412861072829,-0.07810737498095653,0.0,70.0,255.0,255.0,255.0
11,0.55,7.4997617007691275,-13.498268419444646,-0.010323999279163009,-0.0008114726928099003,0.006945853782536204,-0.04048962940258799,0.0004060763536095635,0.014446558850700342,-0.07838921258015732,0.0,70.0,255.0,255.0,255.0
12,0.6000000000000001,7.499721719768081,-13.497903002383918,-0.012446398205430703,-0.0007936331836688737,0.007659190154019058,-0.044419507086170935,0.00018092924785051423,0.014009525147962165,-0.0788811306667074,0.0,70.0,255.0,255.0,255.0
13,0.65,7.499682337450761,-13.497502500429244,-0.014765949987780103,-0.0007933797680248489,0.00834680629733242,-0.04837774246925873,-0.00026940299964195447,0.013476463018768925,-0.07945260750836167,0.0,70.0,255.0,255.0,255.0
14,0.7000000000000001,7.499642381791278,-13.497068321754185,-0.017284172452356576,-0.0008205734836330691,0.00900683645589595,-0.0523647678370071,-0.0008778435842238252,0.01296981104026429,-0.0799622111821325,0.0,70.0,255.0,255.0,255.0
15,0.75,7.499600280102397,-13.496601816783654,-0.020002426771480813,-0.0008811641264472314,0.00964378740135885,-0.05637396358747198,-0.0015794058062290617,0.012614395175347681,-0.0802824814281558,0.0,70.0,255.0,255.0,255.0
16,0.8,7.499554265378634,-13.496103943014049,-0.022921568811103774,-0.0009785140642559753,0.010268275973430718,-0.06039301597982268,-0.0023221030629017037,0.012476929153315552,-0.08034407856588217,0.0,70.0,255.0,255.0,255.0
17,0.8500000000000001,7.499502428695972,-13.495574989186311,-0.026041728369463082,-0.0011133744327374018,0.010891480316690405,-0.0644083714440602,-0.0030227906972157825,0.012519746770500717,-0.08015218111641347,0.0,70.0,255.0,255.0,255.0
18,0.9,7.49944292793536,-13.49501479498238,-0.029362405955509794,-0.0012807931339775536,0.01152025065048079,-0.06840823409146403,-0.0035577938920283714,0.01265857633718781,-0.07974467168222851,0.0,70.0,255.0,255.0,255.0
19,0.9500000000000001,7.499374349382574,-13.494422964121263,-0.032882551778609485,-0.001469153821940239,0.012157337950409186,-0.07238283861228305,-0.0038033751326160825,0.012807228178601804,-0.07916668387837236,0.0,70.0,255.0,255.0,255.0
20,1.0,7.499296012553166,-13.493799061187339,-0.0366006898167381,-0.0016611306472391618,0.01280097346834097,-0.07632490247930127,-0.003649256198645645,0.012869025085571195,-0.07845071795444081,0.0,70.0,255.0,255.0,255.0
21,1.05,7.49920823631785,-13.493142866774429,-0.04051504202653961,-0.0018340794418048034,0.013444240458966306,-0.08022791040772713,-0.003056125639755436,0.012792950642825929,-0.07763344751529344,0.0,70.0,255.0,255.0,255.0
22,1.1,7.499112604608985,-13.492454637141442,-0.04462348085751081,-0.0019667432112147054,0.014080268532623563,-0.08408824723083061,-0.002135081144061246,0.012632420170000103,-0.07682828006577297,0.0,70.0,255.0,255.0,255.0
23,1.1500000000000001,7.499011561996729,-13.491734839921167,-0.04892386674962267,-0.002047587556210928,0.014707482475966316,-0.08791073841430443,-0.0010966242305343599,0.012487460070786938,-0.07621224888626418,0.0,70.0,255.0,255.0,255.0
24,1.2000000000000002,7.498907845853364,-13.490983888893846,-0.053414554698941255,-0.0020764056342681414,0.015329014539702257,-0.09170947211945703,-0.0001671174235440276,0.01244836249369996,-0.07596331437663903,0.0,70.0,255.0,255.0,255.0
25,1.25,7.498803921433302,-13.490201938467196,-0.058094813961568376,-0.002064299298565331,0.015952318725336312,-0.09550706985196833,0.00044440262989553503,0.012605448537961195,-0.07626261878206156,0.0,70.0,255.0,255.0,255.0
26,1.3,7.498701415923508,-13.489388657021312,-0.06296526168413809,-0.002031965371278588,0.016589559393498376,-0.09933573399766318,0.0006266056218784399,0.012998354521798205,-0.07717695654777534,0.0,70.0,255.0,255.0,255.0
27,1.35,7.498600724896174,-13.488542982527846,-0.0680283873613347,-0.002001638736377487,0.017252154177516132,-0.10322476550674586,0.0004112271609457707,0.013548800986740162,-0.07848938393517496,0.0,70.0,255.0,255.0,255.0
28,1.4000000000000001,7.49850125204987,-13.48766344160356,-0.07328773823481267,-0.001990842655184011,0.017944439492172393,-0.10718467239118068,-0.00010382107413775543,0.014112515780340118,-0.07980912997550688,0.0,70.0,255.0,255.0,255.0
29,1.4500000000000002,7.4984016406306555,-13.48674853857863,-0.07874685460045276,-0.0020120208437912623,0.018663405755550144,-0.11120567850429655,-0.0008081551722938229,0.014546547955518463,-0.0807350236500387,0.0,70.0,255.0,255.0,255.0
30,1.5,7.498300049965491,-13.485797101028005,-0.08440830608524233,-0.002071658172413393,0.01939909428772424,-0.11525817475618455,-0.0015963263483520507,0.014717199411506954,-0.08087083488935026,0.0,70.0,255.0,255.0,255.0
31,1.55,7.498194474813414,-13.484808629149857,-0.09027267207607122,-0.0021716534786264674,0.02013512569670084,-0.11929276199323158,-0.002391835310433521,0.01455983173581643,-0.08003112722600597,0.0,70.0,255.0,255.0,255.0
32,1.6,7.498082884617628,-13.483783588458335,-0.09633758228456549,-0.0023108417034567452,0.020855077461305882,-0.12326128747878515,-0.0031126247034052312,0.01413685140647658,-0.07846583920517736,0.0,70.0,255.0,255.0,255.0
33,1.6500000000000001,7.4979633906430685,-13.482723121403726,-0.10259880082394973,-0.0024829159489669905,0.021548810837348498,-0.1271393459137493,-0.0036427767869717798,0.01357884044317359,-0.07666125452173711,0.0,70.0,255.0,255.0,255.0
34,1.7000000000000002,7.4978345930227315,-13.4816287073746,-0.10905151687594042,-0.002675119382153923,0.02221296150562324,-0.13092741293095886,-0.0038618003482149277,0.013024932863991978,-0.07511542552204598,0.0,70.0,255.0,255.0,255.0
35,1.75,7.497695878704853,-13.480501825253164,-0.11569154211704562,-0.0028690959837884833,0.022851304123747695,-0.1346508884659539,-0.003659097236585751,0.012613772465286388,-0.0743180043645042,0.0,70.0,255.0,255.0,255.0
36,1.8,7.497547683424353,-13.479343576962226,-0.12251660572253581,-0.0030410291058124983,0.02347433875215188,-0.13835921336740928,-0.0029977259190516747,0.012421805715412404,-0.0745183946880612,0.0,70.0,255.0,255.0,255.0
37,1.85,7.497391775794272,-13.478154391377949,-0.12952746345378655,-0.0031688685756936508,0.024093484695288936,-0.14210272793476003,-0.0020060430326651613,0.012420157023207423,-0.07551373943058964,0.0,70.0,255.0,255.0,255.0
38,1.9000000000000001,7.497230796566783,-13.476934228492697,-0.1367268785160118,-0.0032416334090790144,0.024716354454472622,-0.14591058731046824,-0.0009222745751991113,0.012536597969337038,-0.07687937175106241,0.0,70.0,255.0,255.0,255.0
39,1.9500000000000002,7.497067612453364,-13.475682755932501,-0.14411852218483337,-0.003261096033213562,0.02534714449222264,-0.14979066510986627,-3.104974055645471e-06,0.012699921054881713,-0.0781834141219212,0.0,70.0,255.0,255.0,255.0
40,2.0,7.496904686963462,-13.474399514043474,-0.15170594502699844,-0.003241943906484579,0.025986346559960793,-0.15372892872266036,0.0005006873234236764,0.012835729377869143,-0.07899318494867524,0.0,70.0,255.0,255.0,255.0
41,2.0500000000000003,7.4967434180627155,-13.473084121276505,-0.1594914150570994,-0.0032110273008711943,0.026630717430009554,-0.1576899836047338,0.00046273898792748014,0.012900171508434255,-0.07907645952291431,0.0,70.0,255.0,255.0,255.0
42,2.1,7.496583584233375,-13.471736442300474,-0.16747494338747182,-0.003195670007691831,0.02727636371080422,-0.1616365746749518,-1.5091278182666201e-05,0.012903452899593049,-0.07856917976243882,0.0,70.0,255.0,255.0,255.0
43,2.15,7.496423851061946,-13.470356484905425,-0.17565507252459459,-0.003212536428689461,0.02792106271996886,-0.16554690158097768,-0.0007162368012458842,0.012872996119028812,-0.07776960346236317,0.0,70.0,255.0,255.0,255.0
44,2.2,7.496262330590506,-13.468944336028477,-0.1840296335455696,-0.0032672936878164194,0.0285636633227071,-0.1694135350211881,-0.0014124930427961147,0.012829182451845611,-0.07697180377115587,0.0,70.0,255.0,255.0,255.0
45,2.25,7.496097121693165,-13.467500118573154,-0.1925964260267134,-0.0033537857329690723,0.02920398096515342,-0.17324408195809327,-0.0018636520567660853,0.012791282052582176,-0.07648519989674474,0.0,70.0,255.0,255.0,255.0
46,2.3000000000000003,7.495926952017209,-13.466023937931961,-0.20135404174137891,-0.003453658893493028,0.029842791527965318,-0.17706205501086258,-0.0019409689590688117,0.012770794963223864,-0.07647460171912313,0.0,70.0,255.0,255.0,255.0
47,2.35,7.495751755803815,-13.464515839420358,-0.21030263152779965,-0.0035478826288759535,0.030481060461475806,-0.18089154213000558,-0.0017381606190802756,0.01276603137636556,-0.0768049727550596,0.0,70.0,255.0,255.0,255.0
48,2.4000000000000004,7.495572163754321,-13.462975831885814,-0.21944319595437947,-0.0036274749554010555,0.031119394665601874,-0.18474255228636854,-0.0014465311353184518,0.012771417554802156,-0.07720846148572547,0.0,70.0,255.0,255.0,255.0
49,2.45,7.495389008308275,-13.461403899953797,-0.2287768867564365,-0.0036925357424077987,0.03175820221695602,-0.18861238827857812,-0.0012478086362399665,0.012783349137457378,-0.0774351982993221,0.0,70.0,255.0,255.0,255.0
50,2.5,7.495202910180081,-13.459800011664118,-0.23830443478223728,-0.003752255819025052,0.03239772957934761,-0.19248607211630075,-0.0013340045033949366,0.012799142411878961,-0.07723011802846236,0.0,70.0,255.0,255.0,255.0
51,2.5500000000000003,7.495013782726373,-13.458164126995863,-0.24802549396806658,-0.0038259361927472924,0.03303811645814392,-0.19633540008142436,-0.001798723290669102,0.012816648640523454,-0.07647147392692288,0.0,70.0,255.0,255.0,255.0
52,2.6,7.494820316560806,-13.456496200018304,-0.2579379747903797,-0.003932128148091962,0.03367939444339996,-0.20013321950899304,-0.0025095622833148923,0.012832421595376786,-0.07533540474180533,0.0,70.0,255.0,255.0,255.0
53,2.6500000000000004,7.494620569911564,-13.454796187551523,-0.2680388159189659,-0.004076892421078782,0.0343213586176816,-0.2038689405556049,-0.0032203426211907527,0.012841333660951193,-0.07415291423109871,0.0,70.0,255.0,255.0,255.0
54,2.7,7.494412627318698,-13.453064064156536,-0.2783248688459402,-0.004254162410211038,0.034963527809495076,-0.20754851093210291,-0.0036964122718252668,0.012837420997158233,-0.07324675035087491,0.0,70.0,255.0,255.0,255.0
55,2.75,7.4941951536705425,-13.451299834770573,-0.2887936670121762,-0.004446533648261308,0.03560510071739742,-0.21119361559069239,-0.0037124045213055012,0.012812148299268245,-0.07292626272132341,0.0,70.0,255.0,255.0,255.0
56,2.8000000000000003,7.493967973953872,-13.449503554084796,-0.29944423040500945,-0.004625402862341588,0.0362447426394219,-0.21484113720423526,-0.0031632520973268186,0.0127626104751144,-0.07334038835407619,0.0,70.0,255.0,255.0,255.0
57,2.85,7.493732613384308,-13.447675360506631,-0.3102777807325997,-0.00476285885799399,0.03688136176490886,-0.2185276544261,-0.0021898373335993426,0.012704282242381737,-0.0743244572288082,0.0,70.0,255.0,255.0,255.0
58,2.9000000000000004,7.493491688068072,-13.445815417908305,-0.32129699584761945,-0.004844386595701522,0.037515170863660074,-0.22227358292711608,-0.0010675296156392733,0.012663247802002786,-0.07554715431715708,0.0,70.0,255.0,255.0,255.0
59,2.95,7.493248174724738,-13.443923843420265,-0.3325051390253113,-0.0048696118195579174,0.03814768654510914,-0.2260823698578157,-7.880334846888104e-05,0.012666966874341767,-0.07666553922484609,0.0,70.0,255.0,255.0,255.0
60,3.0,7.493004726886117,-13.442000649253794,-0.343905232833401,-0.00485226693054841,0.03878186755109425,-0.22994013684960068,0.0005036225888765955,0.01275226439059196,-0.07734082176221735,0.0,70.0,255.0,255.0,255.0
61,3.0500000000000003,7.492762948031683,-13.440045656665156,-0.3554991527102714,-0.004819249560670258,0.039422912984168335,-0.23381645203403745,0.0005384449663026203,0.012932909458385211,-0.07739419876405806,0.0,70.0,255.0,255.0,255.0
62,3.1,7.49252280193005,-13.438058357955377,-0.36728687803680476,-0.004798422433918148,0.04007515849693277,-0.2376795567260065,0.00011702350599662736,0.013150449434817801,-0.07693581063207278,0.0,70.0,255.0,255.0,255.0
63,3.1500000000000004,7.4922831057882915,-13.436038140815462,-0.37926710838287203,-0.004807547210070595,0.040737957927650115,-0.24151003309724473,-0.0005576508040228134,0.013305675130759198,-0.0762085850503913,0.0,70.0,255.0,255.0,255.0
64,3.2,7.4920420472090425,-13.433984562162612,-0.39143788134652924,-0.004854187514320429,0.04140572601000869,-0.24530041523104562,-0.0012750876217992868,0.013301424792011574,-0.07545817899675678,0.0,70.0,255.0,255.0,255.0
65,3.25,7.491797687036859,-13.431897568214461,-0.4037971499059766,-0.004935055972250524,0.04206810040685127,-0.2490558509969204,-0.0018220858348350077,0.013030822110771112,-0.0749384222577476,0.0,70.0,255.0,255.0,255.0
66,3.3000000000000003,7.4915485416118175,-13.429777752121927,-0.4163434664462213,-0.00503639609780393,0.0427088082210858,-0.2527942574568204,-0.0020782666953600426,0.01245195215808792,-0.0747883643752778,0.0,70.0,255.0,255.0,255.0
67,3.35,7.491294047427079,-13.427626687392353,-0.42907657565165863,-0.005142882641786528,0.043313295622660064,-0.2565346874344482,-0.0020828254548632685,0.011695691580371204,-0.07492773147836362,0.0,70.0,255.0,255.0,255.0
68,3.4000000000000004,7.491034253347639,-13.425446422559661,-0.4419969351896661,-0.005244678643290257,0.043878377379122924,-0.26028703060465674,-0.0019356200815501268,0.0109931192751489,-0.07518475256754198,0.0,70.0,255.0,255.0,255.0
69,3.45,7.49076957956275,-13.42323884965444,-0.4551052787121243,-0.005336444649941541,0.044412607550174954,-0.2640531626912024,-0.0017284452322741117,0.010573394564161731,-0.07540085900720195,0.0,70.0,255.0,255.0,255.0
70,3.5,7.490500608882645,-13.421005161804644,-0.46840225145878633,-0.005417523166517668,0.0449357168355391,-0.26782711650537694,-0.0015552326296131014,0.010664400544513342,-0.07541756379884634,0.0,70.0,255.0,255.0,255.0
71,3.5500000000000003,7.490227827246098,-13.418745277970887,-0.481887990362662,-0.005491967912902851,0.04547904760462629,-0.271594919071087,-0.0014714387901015868,0.011366880976382276,-0.07515248359500348,0.0,70.0,255.0,255.0,255.0
72,3.6,7.489951412091354,-13.416457257044181,-0.49556174336589504,-0.005564667045527827,0.046072404933177324,-0.2753423648648773,-0.0014647892858654643,0.012500537157755787,-0.07467596741715932,0.0,70.0,255.0,255.0,255.0
73,3.6500000000000004,7.4896713605415455,-13.414138037477569,-0.5094222268491497,-0.005638446841489397,0.04672910132040187,-0.27906251581280295,-0.0015016404318224374,0.013726416534431962,-0.0741297007167574,0.0,70.0,255.0,255.0,255.0
74,3.7,7.4893875674072055,-13.41178434691214,-0.5234679949471753,-0.005714831088710071,0.04744504658662052,-0.282755334936553,-0.001557331915513771,0.014699449165611611,-0.07365167168777442,0.0,70.0,255.0,255.0,255.0
75,3.75,7.4890998774326745,-13.409393532818907,-0.537697760342805,-0.0057941800330407744,0.04819904623696303,-0.2864276829815804,-0.0016090116183420378,0.015083603681809166,-0.07338330389884407,0.0,70.0,255.0,255.0,255.0
76,3.8000000000000003,7.488808149403901,-13.406964442288444,-0.5521107632453334,-0.005875732250544274,0.04895340695480144,-0.29009366532643743,-0.0016426914307920981,0.014713437690261344,-0.07339498795793098,0.0,70.0,255.0,255.0,255.0
77,3.85,7.48851230420762,-13.404498192123427,-0.5667071268754488,-0.005958449176119984,0.04967039000598916,-0.2937671817773735,-0.001658017401773293,0.013752043237857947,-0.07360569489027746,0.0,70.0,255.0,255.0,255.0
78,3.9000000000000004,7.488212304486289,-13.401997403287846,-0.5814874814230707,-0.006041533990721604,0.05032861127858723,-0.2974542348154652,-0.0016578181904591816,0.012532170297596679,-0.07385914852814368,0.0,70.0,255.0,255.0,255.0
79,3.95,7.487908150808548,-13.399465330995568,-0.5964525503569953,-0.006124230995165902,0.05092360703574883,-0.30115309663018786,-0.0016422271066574012,0.011394869379088846,-0.07399916752846014,0.0,70.0,255.0,255.0,255.0
80,4.0,7.487599881386773,-13.39690504258427,-0.6116027910860895,-0.006205756701387344,0.051468098216496116,-0.3048541515683112,-0.0016087208976500733,0.010673166080898966,-0.07385723925384946,0.0,70.0,255.0,255.0,255.0
81,4.05,7.487287575138409,-13.394318521173918,-0.6269379655138264,-0.00628510308493091,0.05199092364383873,-0.3085388205555728,-0.0015577954862955323,0.010545428870400997,-0.0733542778598939,0.0,70.0,255.0,255.0,255.0
82,4.1000000000000005,7.48697137107828,-13.391705950219887,-0.6424566731416468,-0.006361536250016897,0.052522641103536216,-0.3121895793543006,-0.0015031411068733291,0.010922245600220037,-0.07262395698439672,0.0,70.0,255.0,255.0,255.0
83,4.15,7.4866514215134075,-13.389066257063565,-0.6581569234492565,-0.006435417195618243,0.05308314820386073,-0.3158012162540125,-0.0014670868058175301,0.01159478572443362,-0.07191100120804705,0.0,70.0,255.0,255.0,255.0
84,4.2,7.486327829358718,-13.3863976353995,-0.674036794767048,-0.00650824493059865,0.05368211967597958,-0.3193806794751053,-0.0014737596581326784,0.012353987071911376,-0.07145151833830576,0.0,70.0,255.0,255.0,255.0
85,4.25,7.486000597020348,-13.383698045095967,-0.690094991396767,-0.0065827931614315105,0.05431854691105187,-0.32294636808784305,-0.0015561047912449055,0.012995759966294429,-0.07147566449363651,0.0,70.0,255.0,255.0,255.0
86,4.3,7.485669550042575,-13.380965780708395,-0.7063314315758323,-0.006663855409723141,0.05498169567260902,-0.32652824592446894,-0.0017261266238577377,0.01339929904311532,-0.0720887863832953,0.0,70.0,255.0,255.0,255.0
87,4.3500000000000005,7.485334211479375,-13.378199875528706,-0.7227478159892139,-0.006755405823817284,0.0556584768153634,-0.3301552467261726,-0.0019294181705653557,0.013563543127226296,-0.07313223008591496,0.0,70.0,255.0,255.0,255.0
88,4.4,7.484994009460193,-13.37539993302686,-0.7393469562484496,-0.006856797226779676,0.05633804998533165,-0.33384146893306044,-0.0020738345857473917,0.01352243971712852,-0.07430141540428759,0.0,70.0,255.0,255.0,255.0
89,4.45,7.484648531756697,-13.372566070530173,-0.7561319628825199,-0.0069627892823920234,0.05701072078707625,-0.33758538826660134,-0.0020694475478144625,0.01330349468666725,-0.07528921133277411,0.0,70.0,255.0,255.0,255.0
90,4.5,7.484297730531954,-13.369698860948152,-0.7731054950751097,-0.007063741981561122,0.057668399453998376,-0.34137039006633785,-0.0018188879101543876,0.012935775405686911,-0.07581213074360216,0.0,70.0,255.0,255.0,255.0
91,4.55,7.483942157558541,-13.366799230584773,-0.7902690018891537,-0.007144678073407462,0.05830429832764494,-0.34516660134096155,-0.0012838984846830215,0.012449636028044608,-0.07572349035984693,0.0,70.0,255.0,255.0,255.0
92,4.6000000000000005,7.483583262724613,-13.363868431115387,-0.8076221552092059,-0.007192131830029425,0.05891336305680284,-0.34894273910232254,-0.0005809577719340098,0.011904421053543501,-0.07509700612188253,0.0,70.0,255.0,255.0,255.0
93,4.65,7.483222944375538,-13.360907894279093,-0.825163275799386,-0.007202773850600863,0.059494740432999293,-0.3526763019531498,8.335755072863549e-05,0.011396294569543386,-0.07411429288570748,0.0,70.0,255.0,255.0,255.0
94,4.7,7.482862985339553,-13.357918957072087,-0.8428897854045209,-0.007183796074956561,0.060052992513757175,-0.3563541683908933,0.0005054892424638524,0.011031008539319487,-0.07297112351001278,0.0,70.0,255.0,255.0,255.0
95,4.75,7.482504564768043,-13.354902595027717,-0.8607986926384753,-0.007152224926354478,0.06059784128693124,-0.3599734143041511,0.0004917030504536513,0.010905147734519005,-0.07185184982803072,0.0,70.0,255.0,255.0,255.0
96,4.800000000000001,7.4821477628469175,-13.351859172943394,-0.878887126834936,-0.007134625769911196,0.061143507287209076,-0.36353935337369636,-4.58785041956844e-05,0.011062669664063662,-0.07087571371581225,0.0,70.0,255.0,255.0,255.0
97,4.8500000000000005,7.4817911021910515,-13.348788244298996,-0.8971526279758449,-0.007156812776774046,0.06170410825333761,-0.3670609856757323,-0.000980503654357534,0.011454297133539626,-0.07011424426108803,0.0,70.0,255.0,255.0,255.0
98,4.9,7.48143208156924,-13.34568876211806,-0.9155932254025092,-0.007232676135346949,0.06228893700056304,-0.37055077779980516,-0.00206416438173207,0.011976018371129271,-0.06964943170091331,0.0,70.0,255.0,255.0,255.0
99,4.95,7.481067834577517,-13.34255935059894,-0.9342077057558255,-0.007363229214947253,0.06290171009045054,-0.37402592884582364,-0.003040248350671959,0.012512983977330805,-0.06956475616557434,0.0,70.0,255.0,255.0,255.0
100,5.0,7.480695758647745,-13.339398591109015,-0.9529958182870916,-0.007536700970414145,0.06354023539829612,-0.3775072534163626,-0.0036679242927384337,0.012955615006404742,-0.06993646062030123,0.0,70.0,255.0,255.0,255.0
101,5.050000000000001,7.480314164480475,-13.33620532705911,-0.9719584310974617,-0.007730021644221097,0.06419727159109101,-0.38101957490785376,-0.003819300784613233,0.013240198135555659,-0.07077570605894534,0.0,70.0,255.0,255.0,255.0
102,5.1000000000000005,7.479922756483323,-13.332978863949906,-0.9910977757778769,-0.007918631048875469,0.06486425521185168,-0.38458482402225713,-0.0035451394981400597,0.013362026776064795,-0.07192163454933231,0.0,70.0,255.0,255.0,255.0
103,5.15,7.479522301375588,-13.329718901537925,-1.0104169134996874,-0.008084535594035103,0.06553347426869749,-0.388211738362787,-0.0029785881356936272,0.013335156423543992,-0.07308900595176526,0.0,70.0,255.0,255.0,255.0
104,5.2,7.47911430292392,-13.326425516523036,-1.0299189496141556,-0.008216489862444831,0.06619777085420608,-0.39189372461743366,-0.0022644958397322057,0.01317756837231343,-0.07397190310969304,0.0,70.0,255.0,255.0,255.0
105,5.25,7.478700652389343,-13.323099124452504,-1.0496062859614308,-0.008310985178008323,0.06685123110592883,-0.3956089286737563,-0.0015520338517482912,0.012916401561646751,-0.07427027971869116,0.0,70.0,255.0,255.0,255.0
106,5.300000000000001,7.478283204406119,-13.319740393412443,-1.0694798424815313,-0.00837169324761966,0.06748941101037076,-0.3993207525893028,-0.0009353798955835657,0.012575512151791202,-0.07384094922795459,0.0,70.0,255.0,255.0,255.0
107,5.3500000000000005,7.477863483064581,-13.316350183351467,-1.089538361220361,-0.00840452316756668,0.06810878232110795,-0.40299302359655176,-0.00043614115012857724,0.012178434923093562,-0.07284910099143449,0.0,70.0,255.0,255.0,255.0
108,5.4,7.477442752089362,-13.312929515180333,-1.1097791448411864,-0.008415307362632518,0.06870725450268012,-0.4066056626884462,-6.679776074491883e-05,0.01176419509665294,-0.07162550020309855,0.0,70.0,255.0,255.0,255.0
109,5.45,7.477021952328318,-13.3094794579012,-1.1301989274892057,-0.008411202943641172,0.06928520183077325,-0.4101555736168616,0.00015305688458866484,0.01138243018043994,-0.07051369200166135,0.0,70.0,255.0,255.0,255.0
110,5.5,7.476601631794998,-13.306000994997255,-1.1507947022028726,-0.008400001674173652,0.06984549752072411,-0.41365703188861236,0.00022403172730278698,0.011074816041833913,-0.0698544018567615,0.0,70.0,255.0,255.0,255.0
111,5.550000000000001,7.476181952160901,-13.302494908149127,-1.171564630678067,-0.008388799770910893,0.07039268343495664,-0.41714101380253776,0.00015308143925807371,0.010864466543303308,-0.06982655763538848,0.0,70.0,255.0,255.0,255.0
112,5.6000000000000005,7.475762751817907,-13.29896172665376,-1.1925088035831264,-0.008384693530247844,0.07093194417505444,-0.4206396876521512,-6.675277735013196e-05,0.01076152956986931,-0.07031291719592492,0.0,70.0,255.0,255.0,255.0
113,5.65,7.475343482807876,-13.295401713731621,-1.213628599443282,-0.008395475048645906,0.07146883639194357,-0.42417230552213026,-0.00043608562370067716,0.010770767151946359,-0.07105887668574784,0.0,70.0,255.0,255.0,255.0
114,5.7,7.4749232043130425,-13.291814843014565,-1.2349260341353394,-0.008428302092617912,0.07200902089024908,-0.427745575320726,-0.000935330766527187,0.010885997618714782,-0.07181295592315617,0.0,70.0,255.0,255.0,255.0
115,5.75,7.474500652598614,-13.288200811642596,-1.2564031569753547,-0.008489008125298625,0.07255743615381505,-0.4313536011144459,-0.0015520184650341662,0.011088296975003686,-0.07233616879833704,0.0,70.0,255.0,255.0,255.0
116,5.800000000000001,7.474074303500513,-13.284559099399184,-1.278061394246784,-0.008583503939121329,0.07311785058774944,-0.4349791922005597,-0.0022645449289093733,0.01136093402980265,-0.07249347291133912,0.0,70.0,255.0,255.0,255.0
117,5.8500000000000005,7.473642302204702,-13.280889026583822,-1.2999010761954106,-0.008715462618189562,0.07369352955679531,-0.4386029484055798,-0.002978712542667239,0.01169460763801311,-0.0723055705511344,0.0,70.0,255.0,255.0,255.0
118,5.9,7.473202757238694,-13.277189746443504,-1.321921689087342,-0.008881375193388052,0.07428731135155076,-0.44220974925567313,-0.0035453166214338694,0.01207189713401391,-0.07185181356674786,0.0,70.0,255.0,255.0,255.0
119,5.95,7.472754164685363,-13.273460295448666,-1.344122051120978,-0.00906999428033295,0.0749007192701967,-0.44578812976225457,-0.0038194727459917033,0.012467891697198752,-0.07120828383941902,0.0,70.0,255.0,255.0,255.0
120,6.0,7.47229575781066,-13.269699674516485,-1.3665005020635674,-0.009263322467987223,0.07553410052127063,-0.44933057763961504,-0.0036679858385291197,0.012875958762670336,-0.07043691362580429,0.0,70.0,255.0,255.0,255.0
121,6.050000000000001,7.4718278324385645,-13.26590688539654,-1.3890551088849394,-0.009436792864185861,0.07618831514646374,-0.452831821124835,-0.003040076548899151,0.013285084052228058,-0.06959181179173601,0.0,70.0,255.0,255.0,255.0
122,6.1000000000000005,7.471352078524242,-13.262080843001838,-1.411783684176051,-0.009567330122877138,0.07686260892649344,-0.45628975881878864,-0.002063711737676499,0.013622743841779084,-0.06878293579766215,0.0,70.0,255.0,255.0,255.0
123,6.15,7.470871099426277,-13.25822062450389,-1.4346840847668183,-0.009643164037953511,0.07755058953064164,-0.4597101147046012,-0.0009798506876990132,0.013778940348352364,-0.06817741217064466,0.0,70.0,255.0,255.0,255.0
124,6.2,7.470387762120446,-13.254325784048774,-1.457754695646511,-0.00966531519164704,0.07824050296132867,-0.4631075000358531,-4.52397879158184e-05,0.013655862163908239,-0.06794616979137746,0.0,70.0,255.0,255.0,255.0
125,6.25,7.469904567907112,-13.250396574207757,-1.4809948347704036,-0.009647688016745093,0.07891617574703247,-0.46650473168373896,0.0004919338470799062,0.013155933243247375,-0.06826414872642683,0.0,70.0,255.0,255.0,255.0
126,6.300000000000001,7.469422993318772,-13.24643416647407,-1.504405168814885,-0.009616121806939049,0.07955609628565341,-0.4699339149084958,0.0005048511243721521,0.012250617874265401,-0.06919410509660384,0.0,70.0,255.0,255.0,255.0
127,6.3500000000000005,7.468942955726418,-13.242440964579192,-1.5279882262612532,-0.009597202904307878,0.08014123753445901,-0.47342414219339934,8.167138147996411e-05,0.011097027716644448,-0.07051737157310889,0.0,70.0,255.0,255.0,255.0
128,6.4,7.468463273028341,-13.238420042720625,-1.5517475830342249,-0.009607954668791052,0.08066579905731786,-0.4769856520658067,-0.000583392515629555,0.009972248231271408,-0.07184133495363731,0.0,70.0,255.0,255.0,255.0
129,6.45,7.467982160259539,-13.23437438467346,-1.5756867914678339,-0.009655542155870833,0.08113846235758615,-0.4806082756887631,-0.0012862813888681046,0.009160407898356482,-0.07276200202983585,0.0,70.0,255.0,255.0,255.0
130,6.5,7.467497718812754,-13.230306196484866,-1.5998084106031012,-0.009736582807677863,0.0815818398471535,-0.48426185226879026,-0.0018197495499805427,0.008936298941719656,-0.0728785194401338,0.0,70.0,255.0,255.0,255.0
131,6.550000000000001,7.467008501978771,-13.226216200688745,-1.6241129766947129,-0.009837517110868887,0.08203209225175812,-0.48789612763277646,-0.002067066876154655,0.009426756806973913,-0.07200416875430271,0.0,70.0,255.0,255.0,255.0
132,6.6000000000000005,7.466513967101667,-13.22210298725969,-1.6485980233663788,-0.009943289495293328,0.0825245155278509,-0.49146226914422053,-0.0020675425520089163,0.010460194242511989,-0.07039923292200267,0.0,70.0,255.0,255.0,255.0
133,6.65,7.466014173029242,-13.21796374913596,-1.673259203609135,-0.010044271366069779,0.08307811167600931,-0.4949360509249767,-0.0019203321642180526,0.01169933945188717,-0.06856727132484863,0.0,70.0,255.0,255.0,255.0
134,6.7,7.46550953996506,-13.21379517609209,-1.6980916284588765,-0.010135322711715133,0.08369444947303961,-0.4983189962767054,-0.001717233725173628,0.012790245169291836,-0.06702465658781076,0.0,70.0,255.0,255.0,255.0
135,6.75,7.4650006407580705,-13.209594304188656,-1.7230911032368055,-0.010215994738587142,0.0843571361929385,-0.5016385165837578,-0.0015528890269678186,0.013374861667614368,-0.06628573621685341,0.0,70.0,255.0,255.0,255.0
136,6.800000000000001,7.4644879404912015,-13.205359462472796,-1.7482554801172523,-0.010290611614411915,0.08503193563980105,-0.5049475698983907,-0.0014826442257920291,0.013269581006447595,-0.06660908002606991,0.0,70.0,255.0,255.0,255.0
137,6.8500000000000005,7.463971579596629,-13.201091110624676,-1.7735858602266446,-0.010364259161166345,0.08568409429358326,-0.5082994245863648,-0.0014905687717003957,0.012631239601113009,-0.06775217692553959,0.0,70.0,255.0,255.0,255.0
138,6.9,7.463451514575085,-13.196791053043437,-1.7990854225758888,-0.010439668491581955,0.08629505959991235,-0.5117227875909447,-0.0015370503890999032,0.011780510509318276,-0.06922309956067796,0.0,70.0,255.0,255.0,255.0
139,6.95,7.462927612747471,-13.192461604664684,-1.824758138985739,-0.010517964200076335,0.08686214534451508,-0.5152217345424326,-0.0015909841775574307,0.011038984384725836,-0.07052622476562131,0.0,70.0,255.0,255.0,255.0
140,7.0,7.462399718155077,-13.188104838508986,-1.850607596030132,-0.010598766909337698,0.08739895803838493,-0.5187754100675068,-0.001620722314221723,0.010740198446157478,-0.07116660096020411,0.0,70.0,255.0,255.0,255.0
141,7.050000000000001,7.461867736056537,-13.183721708860846,-1.8766356799924897,-0.010680036431498507,0.08793616518913083,-0.522338394638453,-0.0016090695072357164,0.011054266488486064,-0.07088687710892216,0.0,70.0,255.0,255.0,255.0
142,7.1000000000000005,7.461331714511927,-13.179311221990073,-1.9028414354939773,-0.01075967386006127,0.08850438468723354,-0.525864097778399,-0.0015701823607550125,0.011808507026067616,-0.0698838076278685,0.0,70.0,255.0,255.0,255.0
143,7.15,7.460791768670531,-13.174871270392122,-1.9292220897703296,-0.010837054667574009,0.0891170158917376,-0.5293267754012398,-0.0015314662786813926,0.012665797994770855,-0.06856774301984281,0.0,70.0,255.0,255.0,255.0
144,7.2,7.46024800904517,-13.170399520400899,-1.9557741130341013,-0.010912820487929409,0.08977096448671062,-0.5327208720803833,-0.0015188295648727035,0.013300157617734953,-0.06734410402322588,0.0,70.0,255.0,255.0,255.0
145,7.25,7.459700486621738,-13.165894173943451,-1.982494176978368,-0.010988937624061279,0.09044703165351109,-0.5360611858035624,-0.0015642217173095219,0.013384437790797676,-0.06661578535007706,0.0,70.0,255.0,255.0,255.0
146,7.300000000000001,7.459149115282764,-13.161354817235548,-2.0093802316144576,-0.011069242659660361,0.09110940826579039,-0.539382450615391,-0.0016810777450970704,0.012759693366248825,-0.06659604557099907,0.0,70.0,255.0,255.0,255.0
147,7.3500000000000005,7.458593562355772,-13.156783233116872,-2.036432422039907,-0.011157045398570986,0.09172300099013597,-0.5427207903606623,-0.0018287017845786124,0.011621911780501648,-0.06714354827419555,0.0,70.0,255.0,255.0,255.0
148,7.4,7.458033410742907,-13.152182517136534,-2.063652310650524,-0.011252112838118222,0.09227159944384056,-0.5460968054428106,-0.0019370844966282164,0.010349957184807579,-0.06795581180969457,0.0,70.0,255.0,255.0,255.0
149,7.45,7.45746835107196,-13.147556073172488,-2.091042102584188,-0.011350753848233808,0.09275799670861673,-0.5495163715416318,-0.0019404108495990613,0.009319732463630714,-0.06873698618088397,0.0,70.0,255.0,255.0,255.0
150,7.5,7.456898335358083,-13.142906717465673,-2.118603947804687,-0.011446153923078128,0.09320357269020363,-0.552970504060899,-0.001774418788436094,0.008897994447565338,-0.06919431358332062,0.0,70.0,255.0,255.0,255.0
151,7.550000000000001,7.456323735679653,-13.138235715903468,-2.146339152990278,-0.011528195727077417,0.09364779615337326,-0.5564358028999639,-0.0014128199778973283,0.00926733300747884,-0.0691695932876879,0.0,70.0,255.0,255.0,255.0
152,7.6000000000000005,7.455745515785376,-13.133541937850335,-2.1742475280946834,-0.011587435920867861,0.09413030599095151,-0.5598874633896678,-0.0009167820627098422,0.010253962401662875,-0.06874833960210935,0.0,70.0,255.0,255.0,255.0
153,7.65,7.455164992087566,-13.128822685304373,-2.2023278993292448,-0.011619873933348401,0.09467319239353955,-0.5633106368601748,-0.0003992633355487385,0.01150341755504769,-0.06812183025459717,0.0,70.0,255.0,255.0,255.0
154,7.7,7.454583528392041,-13.124074618610981,-2.230578591780701,-0.011627362254422735,0.09528064774645628,-0.5666996464151275,2.7699070859199537e-05,0.012654851920501642,-0.067475037500353,0.0,70.0,255.0,255.0,255.0
155,7.75,7.4540022558621235,-13.119294620529727,-2.2589978639707575,-0.011617104026262481,0.09593867758558972,-0.5700581406102101,0.00026991551989041795,0.01335160306616956,-0.06699092302016041,0.0,70.0,255.0,255.0,255.0
156,7.800000000000001,7.4534218179894145,-13.114480750852422,-2.287584405841722,-0.011600370702433693,0.09661580805307324,-0.5733987387171435,0.00027855812287924664,0.013404913999082169,-0.06677164188402251,0.0,70.0,255.0,255.0,255.0
157,7.8500000000000005,7.45284221879188,-13.10963303972442,-2.316337737842472,-0.011589248213974557,0.09727916898549793,-0.5767353047986123,6.030556036762391e-05,0.012931282903494434,-0.06677945695408027,0.0,70.0,255.0,255.0,255.0
158,7.9,7.452262893168017,-13.104752833953873,-2.345257936321583,-0.011594340146396931,0.09790893634342268,-0.5800766844125516,-0.00034949852514287727,0.012186489144738744,-0.06692134269679073,0.0,70.0,255.0,255.0,255.0
159,7.95,7.45168278477724,-13.099842146090078,-2.374345406283727,-0.011624198066488844,0.0984978178999718,-0.5834274390682914,-0.0009041849678759206,0.011427946099118458,-0.06710906428391006,0.0,70.0,255.0,255.0,255.0
160,8.0,7.451100473361368,-13.094903052163875,-2.4036006802284122,-0.011684758643184523,0.09905173095333453,-0.5867875908409426,-0.0015651966706720088,0.010923565315046346,-0.06725001298368838,0.0,70.0,255.0,255.0,255.0
161,8.05,7.450514308912922,-13.089936972994744,-2.4330241653678213,-0.011780717733556045,0.09959017443147644,-0.5901524403666603,-0.002295724868073279,0.010818558783576293,-0.06729106528342577,0.0,70.0,255.0,255.0,255.0
162,8.1,7.4499224015880126,-13.084944034720728,-2.4626159242650782,-0.01191433112999185,0.10013358683169216,-0.5935166973692851,-0.0030063049810458153,0.011016337220759453,-0.06725476498257166,0.0,70.0,255.0,255.0,255.0
163,8.15,7.449322875799923,-13.079923614311575,-2.49237583510475,-0.012081348231660627,0.10069180815355239,-0.5968779168649174,-0.003559199439973071,0.011316872951283585,-0.0671910273962073,0.0,70.0,255.0,255.0,255.0
164,8.200000000000001,7.4487142667648465,-13.074874853905373,-2.52230371595157,-0.012270251073989158,0.10126527412682051,-0.6002358001089059,-0.0038186981263343966,0.011532477901887717,-0.06714250489787688,0.0,70.0,255.0,255.0,255.0
165,8.25,7.448095850692524,-13.069797086898893,-2.5523994151156404,-0.012463218044294067,0.10184505594374116,-0.6035921673547051,-0.0036611568098976477,0.011466210265353993,-0.06715699707311451,0.0,70.0,255.0,255.0,255.0
166,8.3,7.447467944960417,-13.064690348310998,-2.5826629326870405,-0.012636366754978923,0.10241189515335591,-0.6069514998162173,-0.00304083347675288,0.011020990726962054,-0.06725738369550704,0.0,70.0,255.0,255.0,255.0
167,8.35,7.446832214017026,-13.059555897383557,-2.613094565097262,-0.012767301391969355,0.10294715501643736,-0.6103179057242558,-0.00208040032143586,0.010326072177946344,-0.06740148311572547,0.0,70.0,255.0,255.0,255.0
168,8.4,7.44619121482122,-13.054395632809355,-2.643694723259466,-0.012844406787122509,0.10344450237115055,-0.6136916481277899,-0.0010109065119223715,0.00962331508684855,-0.06751454771842802,0.0,70.0,255.0,255.0,255.0
169,8.450000000000001,7.445547773338314,-13.049211447146442,-2.674463729910041,-0.012868392043161592,0.10390948652512222,-0.6170693604960986,-7.948406448576861e-05,0.009142002432582785,-0.06752762941149015,0.0,70.0,255.0,255.0,255.0
170,8.5,7.444904375616904,-13.044004684156842,-2.705401659309076,-0.012852355193571086,0.10435870261440883,-0.6204444110689389,0.0004777959386359498,0.009099519031252612,-0.06737402669578785,0.0,70.0,255.0,255.0,255.0
171,8.55,7.444262537818957,-13.038775576885001,-2.736508171016935,-0.012820612449297997,0.10481943842824748,-0.6238067631656774,0.0005390587742404307,0.009598364088070355,-0.0670256004003722,0.0,70.0,255.0,255.0,255.0
172,8.6,7.443622314371974,-13.033522740314018,-2.7677823356256437,-0.012798449316147043,0.10531853902321586,-0.6271469711089761,0.00017601815383017083,0.01051312698283624,-0.06654107411621091,0.0,70.0,255.0,255.0,255.0
173,8.65,7.442982692887342,-13.02824372298268,-2.7992228681278326,-0.01280301063391498,0.1058707511265311,-0.6304608705772985,-0.0004452864005521917,0.011594435466477648,-0.06602984932944089,0.0,70.0,255.0,255.0,255.0
174,8.700000000000001,7.442342013308583,-13.022935665201365,-2.8308284226833735,-0.012842977956202262,0.10647798256986363,-0.6337499560419202,-0.0011500789010021606,0.012587251294426949,-0.06560646463595887,0.0,70.0,255.0,255.0,255.0
175,8.75,7.441698395091722,-13.017595924725693,-2.8625978637320246,-0.012918018524015196,0.1071294762559738,-0.6370215170408944,-0.0017700269437703753,0.013255713610504927,-0.0653909054675772,0.0,70.0,255.0,255.0,255.0
176,8.8,7.441050211456181,-13.012222717575767,-2.894530574387463,-0.0130199806505793,0.10780355393091412,-0.6402890465886779,-0.0022031405488398548,0.013472266206804306,-0.0654402147028943,0.0,70.0,255.0,255.0,255.0
177,8.85,7.440396397026664,-13.006815569332602,-2.9266267683908924,-0.013138332578899181,0.10847670287665423,-0.6435655385111838,-0.0024282410590714676,0.013269531778803412,-0.06567151645677782,0.0,70.0,255.0,255.0,255.0
178,8.9,7.439736378198291,-13.001375047288102,-2.9588871282385814,-0.013262804756486446,0.10913050710879446,-0.6468561982343557,-0.002441700799504787,0.01275083116016873,-0.0659287589265034,0.0,70.0,255.0,255.0,255.0
179,8.950000000000001,7.439070116551015,-12.995902518621723,-2.991312388214328,-0.01338250265884966,0.1097517859926711,-0.6501584144038342,-0.0022345126858169806,0.012028992389367943,-0.06605322533141944,0.0,70.0,255.0,255.0,255.0
180,9.0,7.438398127932406,-12.990399868688835,-3.0239029696789648,-0.013486256025068144,0.11033340634773126,-0.6534615207674976,-0.0017896695148955644,0.01120965449867839,-0.06587037008189967,0.0,70.0,255.0,255.0,255.0
181,9.05,7.437721490948508,-12.98486917798695,-3.0566585402910778,-0.013561469610339216,0.11087275144253894,-0.6567454514120241,-0.001118757651408231,0.010371032622202847,-0.06530025407460727,0.0,70.0,255.0,255.0,255.0
182,9.1,7.437041980971372,-12.97931259354458,-3.089577514820167,-0.013598131790208967,0.11137050960995154,-0.6599915461749584,-0.0003438930788135508,0.009605948698343525,-0.06449556401908474,0.0,70.0,255.0,255.0,255.0
183,9.15,7.436361677769487,-12.973732127025954,-3.1226576949085736,-0.013595858918220571,0.1118333463123733,-0.6631950078139326,0.0003312504388119919,0.009047554580199346,-0.06373241100194882,0.0,70.0,255.0,255.0,255.0
184,9.200000000000001,7.43568239507955,-12.968129258913343,-3.1558970156015604,-0.013565006746327768,0.11227526506797147,-0.6663647872751532,0.0006958685712987744,0.008835240687865564,-0.06328049417883008,0.0,70.0,255.0,255.0,255.0
185,9.25,7.435005177094855,-12.962504600519157,-3.189294173636089,-0.013526272061090694,0.11271687038115985,-0.6695230572318156,0.0005367236505016137,0.009105668391740096,-0.06341553961282109,0.0,70.0,255.0,255.0,255.0
186,9.3,7.434329767873441,-12.956857571875227,-3.222849321324742,-0.013511334381277607,0.11318583190714548,-0.6727063412364354,-0.0002361411991280704,0.009905141763866254,-0.0642596547788088,0.0,70.0,255.0,255.0,255.0
187,9.35,7.433654043656727,-12.951186017328443,-3.2565648077597324,-0.013549886181003501,0.11370738455754648,-0.6759490227096965,-0.001429939538954983,0.011061358744157701,-0.06557998038037027,0.0,70.0,255.0,255.0,255.0
188,9.4,7.432974779255341,-12.945486833419473,-3.2904442235957116,-0.013654328335173105,0.11429196778156125,-0.6792643392744724,-0.002687869720041647,0.012261747723840699,-0.06694616583082791,0.0,70.0,255.0,255.0,255.0
189,9.450000000000001,7.43228861082321,-12.939756820550286,-3.3244912416871797,-0.013818673153007666,0.11493355932993055,-0.6826436392927793,-0.003643413814735652,0.013178296608629125,-0.06792596345484014,0.0,70.0,255.0,255.0,255.0
190,9.5,7.43159291194004,-12.93399347748648,-3.3587085875249896,-0.01401866971664667,0.11560979744242417,-0.6860569356199564,-0.003929253059808957,0.013487671932033152,-0.0680915274109406,0.0,70.0,255.0,255.0,255.0
191,9.55,7.430886743851545,-12.928195840806044,-3.3930969352491753,-0.014211598458988561,0.11628232652313386,-0.6894527920338733,-0.003369591303847841,0.013034600786454575,-0.06724024102879866,0.0,70.0,255.0,255.0,255.0
192,9.600000000000001,7.430171752094141,-12.922365244834166,-3.427653866728377,-0.014355628847031454,0.11691325752106962,-0.6927809597228363,-0.0021862322142851554,0.01199849977666645,-0.06563616947068418,0.0,70.0,255.0,255.0,255.0
193,9.65,7.429451180966842,-12.916504515053937,-3.462375031221459,-0.014430221680417077,0.1174821765008005,-0.6960164089809417,-0.0008107272702950752,0.010736410237299765,-0.06379294898541943,0.0,70.0,255.0,255.0,255.0
194,9.700000000000001,7.4287287299261,-12.910617027184086,-3.497255507626471,-0.014436701574060962,0.1179868985447996,-0.6991602546213782,0.000318439367497092,0.009617633484815258,-0.0622344865010227,0.0,70.0,255.0,255.0,255.0
195,9.75,7.428007510809436,-12.904705825199457,-3.5322910566835968,-0.014398377743667368,0.11844393984928203,-0.702239857631044,0.0007603352087492965,0.009015625231079127,-0.061482313447136505,0.0,70.0,255.0,255.0,255.0
196,9.8,7.427288892151733,-12.898772633199158,-3.5674794933895755,-0.014360668053186032,0.11888846106790751,-0.7053084859660919,0.00029464627449016234,0.009122515694848232,-0.06179924124558589,0.0,70.0,255.0,255.0,255.0
197,9.850000000000001,7.426571444004117,-12.892816979092666,-3.602821905280206,-0.014368913116218351,0.11935619141876685,-0.7084197817556026,-0.0008543157528073664,0.009775597859196239,-0.06294182192294606,0.0,70.0,255.0,255.0,255.0
198,9.9,7.425852000840111,-12.886837014057281,-3.6383214715651357,-0.014446099628466769,0.11986602085382714,-0.7116026681583865,-0.0022400370488284693,0.010642494776469391,-0.06441555804159727,0.0,70.0,255.0,255.0,255.0
199,9.950000000000001,7.42512683404127,-12.880830377007284,-3.6739821720960446,-0.014592916821101198,0.1204204408964138,-0.7148613375597623,-0.0034171968017027154,0.011390796493593314,-0.06572294368862863,0.0,70.0,255.0,255.0,255.0
200,10.0,7.424392709158001,-12.87479496996764,-3.709807605321112,-0.01478781930863704,0.12100510050318647,-0.7181749625272493,-0.003944162368085813,0.011673883087759407,-0.06636728406790304,0.0,70.0,255.0,255.0,255.0
201,10.05,7.423648052110407,-12.868729866956965,-3.7457996683487695,-0.01498733305790978,0.12158782920518973,-0.7214980659665526,-0.0035958469418062577,0.01131598911392473,-0.06609015995562295,0.0,70.0,255.0,255.0,255.0
202,10.100000000000001,7.42289397585221,-12.862636187047121,-3.7819574119177672,-0.015147404002817666,0.12213669941457894,-0.7247839785228116,-0.0025673206249798852,0.01050544911347373,-0.06508829108939906,0.0,70.0,255.0,255.0,255.0
203,10.15,7.422133311710125,-12.856516197015507,-3.8182780662010507,-0.015244065120407768,0.12263837411653711,-0.7280068950754925,-0.0012583086826722933,0.009606431169117968,-0.06377223143609889,0.0,70.0,255.0,255.0,255.0
204,10.200000000000001,7.421369569340169,-12.850372349635467,-3.8547581014253165,-0.015273234871084895,0.12309734253149074,-0.7311612016664215,-6.951229991614127e-05,0.00897284021359468,-0.06254739841842216,0.0,70.0,255.0,255.0,255.0
205,10.25,7.420605988223016,-12.844206462762358,-3.891394186367693,-0.015251016350399382,0.12353565813789658,-0.7342616349173348,0.0005963608829873124,0.008968749177640234,-0.061816475688347694,0.0,70.0,255.0,255.0,255.0
206,10.3,7.419844467705129,-12.838018783821678,-3.92818426491705,-0.015213598782786164,0.12399421744925476,-0.7373428492352563,0.0005293941725881268,0.009767187524900578,-0.06179275296425146,0.0,70.0,255.0,255.0,255.0
207,10.350000000000001,7.419084628344738,-12.831807041017433,-3.9651284712912185,-0.01519807693314057,0.12451237689038663,-0.7404409102137599,-0.0001073574581234027,0.011115426202223944,-0.062335969431082106,0.0,70.0,255.0,255.0,255.0
208,10.4,7.418324660011815,-12.825567546132639,-4.002228355938426,-0.015224334528598504,0.12510576006947716,-0.7435764461783645,-0.00097661167002272,0.012538120872029879,-0.06314539966441046,0.0,70.0,255.0,255.0,255.0
209,10.450000000000001,7.417562194891878,-12.819296465010485,-4.039486115909055,-0.015295738100142842,0.12576618897758962,-0.746755450180201,-0.0017443810380157743,0.013565208616483915,-0.06392708967730698,0.0,70.0,255.0,255.0,255.0
210,10.5,7.416795086201801,-12.81299092723488,-4.076903900956446,-0.015398772632400082,0.12646228093112555,-0.7499691551460952,-0.002065337108358989,0.013727204117408576,-0.06439086912184422,0.0,70.0,255.0,255.0,255.0
211,10.55,7.416022317628638,-12.806650236917372,-4.1144830314236644,-0.01550227181097874,0.12713890938933048,-0.7531945370923854,-0.0017623824295043278,0.012801088293556973,-0.06437948086777112,0.0,70.0,255.0,255.0,255.0
212,10.600000000000001,7.415244859020703,-12.800277036295947,-4.152223354665685,-0.015575010875350515,0.12774238976048125,-0.7564071032328723,-0.00100958986832822,0.011084501091396248,-0.06397417151307039,0.0,70.0,255.0,255.0,255.0
213,10.65,7.414464816541103,-12.793875997941324,-4.190123741746952,-0.015603230797811563,0.1282473594984701,-0.7595919542436924,-0.00014806515027387945,0.009151108652361017,-0.06335899041927107,0.0,70.0,255.0,255.0,255.0
214,10.700000000000001,7.413684535940922,-12.7874523003461,-4.228182550090054,-0.015589817390377902,0.12865750062571735,-0.7627430022747994,0.0004933767780990195,0.007578446530231986,-0.06271132911983557,0.0,70.0,255.0,255.0,255.0
215,10.75,7.412905834802065,-12.781010247878752,-4.266398041974432,-0.01555389312000166,0.1290052041514933,-0.765863087155676,0.0005850807903939881,0.006934369085342951,-0.062204010528166265,0.0,70.0,255.0,255.0,255.0
216,10.8,7.412129146628922,-12.77455177993095,-4.304768858805621,-0.015531309311338504,0.12935093753425164,-0.768963403327616,-3.352412853985243e-05,0.007502118975288852,-0.061935384169853336,0.0,70.0,255.0,255.0,255.0
217,10.850000000000001,7.411352703870931,-12.768075154125327,-4.343294382307193,-0.015557245532855646,0.1297554160490222,-0.7720566255726613,-0.0011671035808014096,0.009011278057080574,-0.06188370815314315,0.0,70.0,255.0,255.0,255.0
218,10.9,7.410573422075636,-12.761576238326048,-4.381974521362888,-0.015648019669418645,0.1302520653399597,-0.7751517741429303,-0.0024374680550387495,0.01091189673303461,-0.06198311418348368,0.0,70.0,255.0,255.0,255.0
219,10.950000000000001,7.409787901903989,-12.755049947591331,-4.420809559721486,-0.01580099233835952,0.13084660572232565,-0.7782549369910097,-0.0034697787550719283,0.01264837122914031,-0.06217379430966119,0.0,70.0,255.0,255.0,255.0
220,11.0,7.4089933228418,-12.748491577753816,-4.4598000150619885,-0.015994997544925837,0.13151690246287373,-0.7813691535738965,-0.003899041996913155,0.013679375486930212,-0.06240110741373428,0.0,70.0,255.0,255.0,255.0
221,11.05,7.408188402149497,-12.741898257345044,-4.498946475078876,-0.016190896538050836,0.13221454327101867,-0.7844950477323831,-0.0035431480963410422,0.013717801773083238,-0.06262620855910228,0.0,70.0,255.0,255.0,255.0
222,11.100000000000001,7.407374233187995,-12.735270123426714,-4.538249519835227,-0.01634931235455994,0.13288868264018205,-0.7876317744298067,-0.0025718792588058648,0.012924838892125479,-0.06281192827524151,0.0,70.0,255.0,255.0,255.0
223,11.15,7.406553470914041,-12.728609389081026,-4.577709652521857,-0.016448084463931423,0.13350702716023122,-0.7907762405599073,-0.0013330183403326146,0.011666013040390055,-0.06290678128602067,0.0,70.0,255.0,255.0,255.0
224,11.200000000000001,7.405729424741602,-12.721919420710691,-4.617327143891218,-0.016482614188593203,0.13405528394422106,-0.7939224525584088,-0.00018032236361875675,0.010308441515682887,-0.0628540064621319,0.0,70.0,255.0,255.0,255.0
225,11.25,7.4049052094951815,-12.715203860686604,-4.6571018977776975,-0.0164661167002933,0.1345378713117995,-0.7970616412061204,0.0005391058460091358,0.00921209167152881,-0.06259155981673814,0.0,70.0,255.0,255.0,255.0
226,11.3,7.404082813071573,-12.708465633579511,-4.69703330801183,-0.01642870360399229,0.13497649311137394,-0.8001816085400826,0.0006400559073860279,0.008584995609872692,-0.06209926877236427,0.0,70.0,255.0,255.0,255.0
227,11.350000000000001,7.403262339134782,-12.701706211375466,-4.737120058631706,-0.016402111109554696,0.13539637087278678,-0.8032715680833569,0.0002236649038422911,0.008401161245430444,-0.061470350307324395,0.0,70.0,255.0,255.0,255.0
228,11.4,7.402442601960617,-12.694925996492232,-4.777360464820165,-0.01640633711360806,0.13581660923591699,-0.806328643570815,-0.00048034203263824793,0.008554773716085151,-0.06086882827238682,0.0,70.0,255.0,255.0,255.0
229,11.450000000000001,7.4016217054234215,-12.688124550451874,-4.817752922988787,-0.01645014531281852,0.1362518482443953,-0.8093584509105956,-0.0012418455432872122,0.008949750819020608,-0.06046295373494104,0.0,70.0,255.0,255.0,255.0
230,11.5,7.400797587429335,-12.681300811667793,-4.858296309911225,-0.01653052166793678,0.13671158431781905,-0.8123749389443091,-0.0018294093591109117,0.009488295122217494,-0.06042463467075265,0.0,70.0,255.0,255.0,255.0
231,11.55,7.399968653256628,-12.674453392020093,-4.898990416883218,-0.01663308624872961,0.13720067775661704,-0.8154009143776708,-0.0021115277466954296,0.010097180824431007,-0.060830515885168523,0.0,70.0,255.0,255.0,255.0
232,11.600000000000001,7.399134278804462,-12.667580743892131,-4.939836401348992,-0.016741674442606325,0.13772130240026215,-0.818457990532826,-0.0021273491220163976,0.010710609367414747,-0.061542194971320185,0.0,70.0,255.0,255.0,255.0
233,11.65,7.398294485812367,-12.660681261780066,-4.980836215936501,-0.01684582116093125,0.13827173869335851,-0.8215551338748028,-0.0019793664433720437,0.011232281370787689,-0.06230154198769711,0.0,70.0,255.0,255.0,255.0
234,11.700000000000001,7.397449696688369,-12.653753570022795,-5.021991914736472,-0.01693961108694353,0.13884453053734092,-0.8246881447315957,-0.001759894530817263,0.011547380382026518,-0.06284811799215362,0.0,70.0,255.0,255.0,255.0
235,11.75,7.396600524703673,-12.646796808726332,-5.06330503040966,-0.017021810614012978,0.13942647673156117,-0.8278399456740182,-0.001561421788309758,0.011538690543133612,-0.0629259387967096,0.0,70.0,255.0,255.0,255.0
236,11.8,7.395747515626968,-12.639810922349639,-5.104775909303874,-0.017095753265774505,0.13999839959165428,-0.8309807386112666,-0.0014400055253993571,0.011159054985832029,-0.062411581440002806,0.0,70.0,255.0,255.0,255.0
237,11.850000000000001,7.394890949377095,-12.632796968767167,-5.146403104270787,-0.017165811166552913,0.14054238223014437,-0.8340811038180185,-0.0013933360168749687,0.010520876810282687,-0.06144804929446579,0.0,70.0,255.0,255.0,255.0
238,11.9,7.394030934510313,-12.625756684126625,-5.188184019685676,-0.017235086867462,0.14105048727268255,-0.8371255435407132,-0.0014039637569851493,0.009832464437842248,-0.06031866344970993,0.0,70.0,255.0,255.0,255.0
239,11.950000000000001,7.393167440690349,-12.618691920039899,-5.230115658624858,-0.01730620754225143,0.1415256286739286,-0.8401129701629895,-0.0014647767990538796,0.009313501546692748,-0.05931063490258737,0.0,70.0,255.0,255.0,255.0
240,12.0,7.392300313756087,-12.611604121259232,-5.272195316701975,-0.01738156454736739,0.14198183742735182,-0.843056607030972,-0.0015769314585689642,0.009192933378798784,-0.05869958217079585,0.0,70.0,255.0,255.0,255.0
241,12.05,7.391429284235612,-12.604493736297163,-5.3144213193279555,-0.017463900688108325,0.14244492201180847,-0.845982928380069,-0.0017351634375550873,0.00957988594567638,-0.05862973178176745,0.0,70.0,255.0,255.0,255.0
242,12.100000000000001,7.390553923687277,-12.597359629058051,-5.356793609539982,-0.0175550808911229,0.14293982602191946,-0.8489195802091487,-0.0018993068118255962,0.010320475468184043,-0.05901749596306516,0.0,70.0,255.0,255.0,255.0
243,12.15,7.3896737761465,-12.590199753694971,-5.39931327734887,-0.017653831369290884,0.14347696955862688,-0.8518846779763756,-0.0020047785294963205,0.011123268802926134,-0.059671916100612066,0.0,70.0,255.0,255.0,255.0
244,12.200000000000001,7.3887885405503475,-12.583011932102188,-5.441982077337619,-0.01775555874407253,0.14405215290221207,-0.8548867718192099,-0.0019877115591704353,0.011698753291433661,-0.060396055684108774,0.0,70.0,255.0,255.0,255.0
245,12.25,7.387898220272093,-12.57579453840475,-5.484801954530791,-0.017852602525207928,0.14464684488777024,-0.8579242835447864,-0.0017828803487773826,0.011757641207310598,-0.060995732520385815,0.0,70.0,255.0,255.0,255.0
246,12.3,7.387003280297827,-12.568547247613411,-5.527774505692098,-0.01793384677895027,0.14522791702294313,-0.8609863450712485,-0.0013655411895463487,0.011161028270834095,-0.061357230360492565,0.0,70.0,255.0,255.0,255.0
247,12.350000000000001,7.386104835594198,-12.561271746702456,-5.570900589037916,-0.017989156644162563,0.14576294771485365,-0.8640600065808357,-0.0008112082983124935,0.01008440080667583,-0.061486535617838456,0.0,70.0,255.0,255.0,255.0
248,12.4,7.3852043646334105,-12.553970952841926,-5.6141805063501815,-0.018014967608781518,0.14623635710361071,-0.8671349986330323,-0.00025598972568374734,0.008868120023386439,-0.061427425061388874,0.0,70.0,255.0,255.0,255.0
249,12.450000000000001,7.38430333883332,-12.546648110992095,-5.657614088901219,-0.018014755616730938,0.1466497597171923,-0.8702027490869746,0.00016284914297060027,0.007850832606237645,-0.061219454715910615,0.0,70.0,255.0,255.0,255.0
250,12.5,7.383402889071737,-12.539305976870207,-5.701200781258879,-0.017998682694484458,0.14702144036423448,-0.8732569441046234,0.0003164715026926501,0.0073524458475304755,-0.06090946909971251,0.0,70.0,255.0,255.0,255.0
251,12.55,7.382503470563871,-12.531945966955671,-5.744939783311682,-0.017983108466461672,0.14738500430194534,-0.8762936959969458,0.00014352866219979887,0.007536373930783213,-0.06053360784807893,0.0,70.0,255.0,255.0,255.0
252,12.600000000000001,7.381604578225091,-12.524567476440012,-5.7888301508585736,-0.017984329828264478,0.1477750777573128,-0.8793103048894313,-0.00029138447041887616,0.008292037855817114,-0.060117200726583775,0.0,70.0,255.0,255.0,255.0
253,12.65,7.380705037581045,-12.51716845917994,-5.832870813800625,-0.01801224691350356,0.14821420808752706,-0.8823054160696042,-0.0008548989315571021,0.00937329539301146,-0.05969922281456874,0.0,70.0,255.0,255.0,255.0
254,12.700000000000001,7.379803353533741,-12.50974605563126,-5.877060692465534,-0.01806981972142019,0.14871240729661395,-0.8852802271708882,-0.001404197833743126,0.010525142391237807,-0.05933181309787372,0.0,70.0,255.0,255.0,255.0
255,12.75,7.378898055608903,-12.502297218450279,-5.921398836517714,-0.018152666696877873,0.14926672232665084,-0.8882385973793916,-0.001794987013781224,0.011508566077900184,-0.05906242837667719,0.0,70.0,255.0,255.0,255.0
256,12.8,7.377988086864053,-12.494819383398594,-5.965884552203473,-0.01824931842279831,0.14986326390440396,-0.8911864700085559,-0.0019490862793070107,0.012181214933448814,-0.0589150515334147,0.0,70.0,255.0,255.0,255.0
257,12.850000000000001,7.377073123766623,-12.487310892059838,-6.010517483518569,-0.018347575324808574,0.15048484381999572,-0.8941301025327331,-0.0019068901833563245,0.012514720498124632,-0.058881957513445826,0.0,70.0,255.0,255.0,255.0
258,12.9,7.376153329331572,-12.479770899016595,-6.055297562456746,-0.018440007441133943,0.15111473595421643,-0.8970746657599005,-0.0017599390245592872,0.01250974735587107,-0.058938387643614476,0.0,70.0,255.0,255.0,255.0
259,12.950000000000001,7.3752291230225095,-12.472199418464417,-6.100224950094559,-0.018523569227264503,0.15173581855558282,-0.9000239412970945,-0.0015998573426934115,0.012169623470548174,-0.05905329289266348,0.0,70.0,255.0,255.0,255.0
260,13.0,7.374300972408846,-12.464597317161036,-6.145299956586456,-0.018599993175403284,0.15233169830127125,-0.9029799950491668,-0.001528504798642416,0.011501308487638084,-0.05919680806956151,0.0,70.0,255.0,255.0,255.0
261,13.05,7.373369123704969,-12.45696624863429,-6.190522949599476,-0.018676419707128744,0.15288594940434663,-0.9059436221040507,-0.0015999574365821445,0.010536715052111845,-0.059346698838069756,0.0,70.0,255.0,255.0,255.0
262,13.100000000000001,7.372433330438133,-12.449308722220602,-6.235894318796861,-0.0187599889190615,0.15338536980648243,-0.9089146649329738,-0.0017601223951224654,0.009410758474892589,-0.05947590162032057,0.0,70.0,255.0,255.0,255.0
263,13.15,7.371493124813063,-12.441627711653641,-6.281414416092773,-0.01885243194664099,0.1538270252518359,-0.9118912122660827,-0.0019071165329620499,0.008349393505469038,-0.05954545504991415,0.0,70.0,255.0,255.0,255.0
264,13.200000000000001,7.370548087243469,-12.433926019695418,-6.327083440023469,-0.018950700572357704,0.15422030915702933,-0.9148692104379652,-0.0019492865490633449,0.007594312444325624,-0.05951552815242067,0.0,70.0,255.0,255.0,255.0
265,13.25,7.369598054755827,-12.426205680737938,-6.37290133713657,-0.019047360601547325,0.15458645649626845,-0.9178427650813248,-0.0017950497352536843,0.007374218620270767,-0.05935033934516554,0.0,70.0,255.0,255.0,255.0
266,13.3,7.368643351183314,-12.418467374045791,-6.418867716531602,-0.019130205545883072,0.1549577310190564,-0.9208042443724818,-0.0014039977266122605,0.007792950498952678,-0.05903764029318026,0.0,70.0,255.0,255.0,255.0
267,13.350000000000001,7.367685034201239,-12.410709907636033,-6.464981761573818,-0.01918776037420855,0.15536575154616372,-0.9237465291106428,-0.000854391798110754,0.008713294552187278,-0.05861620756695274,0.0,70.0,255.0,255.0,255.0
268,13.4,7.366724575145893,-12.402930798891175,-6.511242369442666,-0.019215644725694148,0.15582906047427514,-0.926665865129177,-0.0002906624432696958,0.009859951349078244,-0.05815885975613,0.0,70.0,255.0,255.0,255.0
269,13.450000000000001,7.36576346972867,-12.395127001588605,-6.557648348086736,-0.01921682661853552,0.15635174668107155,-0.9295624150862558,0.00014422964653704184,0.010940865680986178,-0.05774408167678047,0.0,70.0,255.0,255.0,255.0
270,13.5,7.36480289248404,-12.387295624223068,-6.604198610951292,-0.019201221761040443,0.15692314704237376,-0.9324402732968551,0.00031672238840485534,0.011677807708210253,-0.057445843873971114,0.0,70.0,255.0,255.0,255.0
271,13.55,7.3638433475525655,-12.379434686884368,-6.650892375416421,-0.019185154379695035,0.15751952745189257,-0.9353069994736529,0.00016214880860232483,0.011918709058988952,-0.057302739989761875,0.0,70.0,255.0,255.0,255.0
272,13.600000000000001,7.36288437704607,-12.371543671477879,-6.697729310898657,-0.01918500688018021,0.15811501794827265,-0.9381705472958313,-0.0002578348882842363,0.011705107603710019,-0.05729656414894535,0.0,70.0,255.0,255.0,255.0
273,13.65,7.3619248468645475,-12.36362318508954,-6.744709430146004,-0.01921093786852346,0.15869003821226357,-0.9410366558885475,-0.0008138700572146718,0.011160917648034285,-0.05738180988785757,0.0,70.0,255.0,255.0,255.0
274,13.700000000000001,7.360963283259218,-12.355674667656652,-6.791832976487512,-0.019266393885901678,0.15923110971307608,-0.943908728284617,-0.0013681448578495292,0.010416024367643217,-0.05750814514051683,0.0,70.0,255.0,255.0,255.0
275,13.75,7.359998207475957,-12.347700074118233,-6.839100302974466,-0.019347752354308412,0.1597316406490279,-0.9467874704025991,-0.0017838211695320183,0.009594550547475933,-0.057622275835456094,0.0,70.0,255.0,255.0,255.0
276,13.8,7.359028508023787,-12.33970150359175,-6.8865117235277715,-0.01944477600285488,0.16019056476782367,-0.9496709558681626,-0.0019851103279400206,0.008783961514602368,-0.057691912569168835,0.0,70.0,255.0,255.0,255.0
277,13.850000000000001,7.358053729875672,-12.33168101764145,-6.934067398561282,-0.019546263387102414,0.16061003680048813,-0.952556661659516,-0.0019979050136953447,0.008063477828557097,-0.057718468237322185,0.0,70.0,255.0,255.0,255.0
278,13.9,7.357073881685077,-12.3236404999117,-6.981767389693723,-0.019644566504224414,0.16099691255067938,-0.9554428026918949,-0.0018893818039877885,0.007541692745860473,-0.057712129129328105,0.0,70.0,255.0,255.0,255.0
279,13.950000000000001,7.356089273225249,-12.315581326386383,-7.029611678830472,-0.019735201567501193,0.16136420607507418,-0.9583278745724488,-0.0017254497487684262,0.007333498389527904,-0.05767713729536439,0.0,70.0,255.0,255.0,255.0
280,14.0,7.355100361528327,-12.307504079304193,-7.077600177150968,-0.019817111479101257,0.16173026238963217,-0.9612105164214313,-0.0015734190612626264,0.007543990101943621,-0.057613024812752656,0.0,70.0,255.0,255.0,255.0
281,14.05,7.354107562077339,-12.29940830014742,-7.125732730472615,-0.019892543473627455,0.16211860508526854,-0.9640891770537241,-0.00147448138889672,0.008206983341452201,-0.05752289644780362,0.0,70.0,255.0,255.0,255.0
282,14.100000000000001,7.353111107180964,-12.291292218795666,-7.17400909485634,-0.01996455961799093,0.1625509607237774,-0.9669628060662117,-0.0014296126567003853,0.009195666395456215,-0.057429562901401,0.0,70.0,255.0,255.0,255.0
283,14.15,7.35211110611554,-12.283153204075042,-7.222429011079236,-0.020035504739297494,0.16303817172481416,-0.9698321333438642,-0.001430374289412839,0.010275108572876945,-0.05736967359304401,0.0,70.0,255.0,255.0,255.0
284,14.200000000000001,7.351107556707034,-12.274988401623185,-7.270992308190727,-0.020107597046932213,0.1635784715810651,-0.9726997734255161,-0.0014762566130421817,0.011191520537146005,-0.057383305677927154,0.0,70.0,255.0,255.0,255.0
285,14.25,7.350100346410847,-12.266795356916935,-7.319698988421788,-0.020183130400601712,0.16415732377852876,-0.9755704639116569,-0.0015745305564252021,0.011697461073367776,-0.057525624914678275,0.0,70.0,255.0,255.0,255.0
286,14.3,7.349089243666974,-12.258572669245332,-7.3685493545818925,-0.020265050102574733,0.16474821768840187,-0.9784523359169839,-0.0017236774040085834,0.011668105118367578,-0.05781650164058405,0.0,70.0,255.0,255.0,255.0
287,14.350000000000001,7.3480738414005895,-12.250320535148095,-7.417544222013486,-0.02035549814100257,0.16532413429036552,-0.9813521140757153,-0.0018836443597791686,0.011201968476015622,-0.05816328015697536,0.0,70.0,255.0,255.0,255.0
288,14.4,7.347053693852874,-12.242040255816296,-7.466684565989464,-0.02045341453855265,0.16586841453600343,-0.9842686639326814,-0.001989121037304642,0.010509761074928292,-0.058409176497598025,0.0,70.0,255.0,255.0,255.0
289,14.450000000000001,7.346028499946734,-12.233733693694495,-7.515971088406754,-0.020554410244733035,0.16637511039785835,-0.9871930317254751,-0.0019762370865095136,0.009813706175876291,-0.05840306656548222,0.0,70.0,255.0,255.0,255.0
290,14.5,7.3449982528284,-12.22540274477651,-7.565403869162012,-0.0206510382472036,0.16684978515359106,-0.9901089705892296,-0.0017804866851989232,0.009346165604640078,-0.057988531473007754,0.0,70.0,255.0,255.0,255.0
291,14.55,7.343963396122014,-12.217048715179136,-7.614981985465677,-0.020732458913252927,0.16730972695832236,-0.9929918848727759,-0.0013770094612119976,0.009232857256691318,-0.057103497923538526,0.0,70.0,255.0,255.0,255.0
292,14.600000000000001,7.342925006937075,-12.208671772080677,-7.664703057649289,-0.0207887391933248,0.1677730708792602,-0.9958193203815835,-0.0008375814662286984,0.0093918909360724,-0.05592085959440496,0.0,70.0,255.0,255.0,255.0
293,14.65,7.341884522202681,-12.20027140809121,-7.714563917503836,-0.020816217059875797,0.1682489160519296,-0.9985839708322164,-0.00029220915997996144,0.009652094214906981,-0.05475175561411305,0.0,70.0,255.0,255.0,255.0
294,14.700000000000001,7.3408433852310875,-12.191846880475484,-7.764561454732511,-0.020817960109322797,0.1687382803007509,-1.0012944959429948,0.00012843106658166903,0.009852768978824145,-0.05390997584502344,0.0,70.0,255.0,255.0,255.0
295,14.75,7.339802726191749,-12.183397580061134,-7.814693367098135,-0.02080337395321763,0.169234192949812,-1.0039749684167187,0.00030449594525805423,0.009829951099327161,-0.053704211896921095,0.0,70.0,255.0,255.0,255.0
296,14.8,7.338763047835766,-12.174923461180503,-7.864958951574183,-0.020787510514796992,0.1697212754106836,-1.006664917132687,0.00017791571380598725,0.009500605714762855,-0.05427710573311373,0.0,70.0,255.0,255.0,255.0
297,14.850000000000001,7.337723975140269,-12.166425452520066,-7.915359858811404,-0.02078558238183703,0.1701842535212883,-1.0094026789900301,-0.000201554250889302,0.008953171742653865,-0.05542433041725303,0.0,70.0,255.0,255.0,255.0
298,14.9,7.336684489597582,-12.157905035828374,-7.965899219473186,-0.020807665939885922,0.170616592584949,-1.0122073501744122,-0.0007256786846099317,0.00835915810117882,-0.05675107377349775,0.0,70.0,255.0,255.0,255.0
299,14.950000000000001,7.335643208546281,-12.149363793261571,-8.016580593828845,-0.020858150250298024,0.17102016933140618,-1.0150777863673799,-0.0012780000004930514,0.007881791336039612,-0.057851482268400645,0.0,70.0,255.0,255.0,255.0
300,15.0,7.334598674572552,-12.140803018895234,-8.067406998109924,-0.020935465939935227,0.17140477171855295,-1.0179924984012523,-0.0017494784485094783,0.007673983379952176,-0.058322639587071734,0.0,70.0,255.0,255.0,255.0
301,15.05,7.333549661952287,-12.132223316089716,-8.11837984366897,-0.021033098095148972,0.1717875676694014,-1.020910050326087,-0.0020751662146878402,0.007811806130675336,-0.0579615057166194,0.0,70.0,255.0,255.0,255.0
302,15.100000000000001,7.332495364763037,-12.123624262128294,-8.169498003142532,-0.02114298256140401,0.17218595233162048,-1.0237886489729142,-0.002239837894180141,0.008230946567877595,-0.056952634587226214,0.0,70.0,255.0,255.0,255.0
303,15.15,7.331435363696147,-12.115004720856554,-8.220758708566262,-0.021257081884566986,0.17261066232618916,-1.0266053137848097,-0.002240600576719487,0.008794909744125334,-0.055673133442724065,0.0,70.0,255.0,255.0,255.0
304,15.200000000000001,7.330369656574581,-12.106363195895675,-8.272158534521013,-0.02136704261907596,0.17306544330603302,-1.0293559623171866,-0.0020769438851431232,0.009360578498451844,-0.05450395522146323,0.0,70.0,255.0,255.0,255.0
305,15.25,7.329298659434239,-12.09769817652595,-8.32369430479798,-0.0214647762730813,0.17354672017603434,-1.032055709306956,-0.001750591475158103,0.00978609673332187,-0.053825183133504595,0.0,70.0,255.0,255.0,255.0
306,15.3,7.3282231789472725,-12.089008523878071,-8.375364105451709,-0.02154210176659177,0.1740440529793652,-1.034738480630537,-0.0012762252133313723,0.009992682582904422,-0.05383621871946076,0.0,70.0,255.0,255.0,255.0
307,15.350000000000001,7.32714444925758,-12.080293771228014,-8.427168152861034,-0.021592398794414436,0.17454598843432478,-1.037439331178902,-0.0007199333339258374,0.010006678347984632,-0.05439608694501885,0.0,70.0,255.0,255.0,255.0
308,15.4,7.326063939067831,-12.071553925034639,-8.4791080385696,-0.021614095099984354,0.17504472081416367,-1.040178089325039,-0.0001927581701366421,0.009896727397240568,-0.05520627590662741,0.0,70.0,255.0,255.0,255.0
309,15.450000000000001,7.324983039747582,-12.062789299146598,-8.531185961793538,-0.0216116746114281,0.17553566117404884,-1.0429599587695648,0.00018680118269998047,0.009729694206050965,-0.05597232388563356,0.0,70.0,255.0,255.0,255.0
310,15.5,7.323902771606688,-12.054000358917234,-8.583404034446556,-0.021595414981714356,0.17601769023476876,-1.0457753217136023,0.00030783502493747505,0.009573611039748187,-0.056400683822133146,0.0,70.0,255.0,255.0,255.0
311,15.55,7.32282349824941,-12.04518753012312,-8.635763493964898,-0.021580891108934352,0.17649302227802366,-1.0486000271517781,0.00011955424801257664,0.00947023742892128,-0.05633427208628916,0.0,70.0,255.0,255.0,255.0
312,15.600000000000001,7.321744682495795,-12.036351056689432,-8.688264037161733,-0.021583459556913098,0.1769647139776609,-1.0514087489222312,-0.00031595324454514184,0.009421407636800438,-0.05586935795900416,0.0,70.0,255.0,255.0,255.0
313,15.65,7.320665152293719,-12.027491058725355,-8.740904368857121,-0.021612486433388867,0.1774351630417037,-1.0541869629476786,-0.0008720031073217172,0.009419952229627881,-0.05521458344333041,0.0,70.0,255.0,255.0,255.0
314,15.700000000000001,7.319583433852456,-12.018607540385261,-8.793682733456501,-0.02167065986764527,0.17790670920062368,-1.0569302072665643,-0.001410773666599141,0.009466845145844616,-0.054573835482862876,0.0,70.0,255.0,255.0,255.0
315,15.75,7.318498086306954,-12.009700387805292,-8.846597389583778,-0.02175356380004878,0.17838184755628816,-1.0596443464959648,-0.001792729976557439,0.009571487079007568,-0.05415604428140597,0.0,70.0,255.0,255.0,255.0
316,15.8,7.317408077472451,-12.000769355629632,-8.899647168106098,-0.021849932865301014,0.17886385790852444,-1.0623458116947049,-0.0019425045992171874,0.00973308098686232,-0.05407275354194496,0.0,70.0,255.0,255.0,255.0
317,15.850000000000001,7.316313093020424,-11.99181400201444,-8.952831970753248,-0.0219478142599705,0.1793551556549744,-1.0650516218501593,-0.0018998900511491001,0.00990769110362777,-0.054242844856489114,0.0,70.0,255.0,255.0,255.0
318,15.9,7.315213296046454,-11.982833840064135,-9.006152330291114,-0.022039921870415924,0.17985462701888721,-1.0677700961803538,-0.0017547538762485715,0.01002346368643714,-0.054499865843737894,0.0,70.0,255.0,255.0,255.0
319,15.950000000000001,7.314109100833383,-11.973828539312551,-9.059608980371284,-0.022123289647595357,0.1803575020236181,-1.0705016084345331,-0.0015975060501105531,0.010009638498509332,-0.054685247936170356,0.0,70.0,255.0,255.0,255.0
320,16.0,7.3130009670816944,-11.964798089861773,-9.113202491134567,-0.02219967247542698,0.18085559086873815,-1.0732386209739708,-0.0015288964709370134,0.009792468613412098,-0.054635185673213016,0.0,70.0,255.0,255.0,255.0
321,16.05,7.31188913358584,-11.955742980225677,-9.16693284246868,-0.022276179294689058,0.18133674888495932,-1.0759651270018544,-0.0016023097437312117,0.00934363909017577,-0.054268140318214364,0.0,70.0,255.0,255.0,255.0
322,16.1,7.3107733491522255,-11.946664414973277,-9.220799003834752,-0.0223599034498001,0.18178995477775572,-1.0786654350057923,-0.0017635541498250973,0.008749599511581607,-0.053681966578622564,0.0,70.0,255.0,255.0,255.0
323,16.150000000000002,7.30965314324086,-11.937563984747902,-9.27479938596926,-0.022452534709671568,0.18221170883611748,-1.0813333236597167,-0.0019107529499073905,0.008165260624259929,-0.05306324921967587,0.0,70.0,255.0,255.0,255.0
324,16.2,7.308528095681258,-11.928443244089665,-9.328932336200724,-0.02255097874479084,0.18260648084018172,-1.0839717599277598,-0.001952115886183492,0.007747374753286351,-0.05259174619745011,0.0,70.0,255.0,255.0,255.0
325,16.25,7.307398045366381,-11.919303336663884,-9.383196561962036,-0.022647746298289917,0.18298644631144612,-1.0865924982794617,-0.001795740083831987,0.007650619818022619,-0.05244316640453661,0.0,70.0,255.0,255.0,255.0
326,16.3,7.306263321051429,-11.91014459945852,-9.43759158602867,-0.022730552753174038,0.18337154282198398,-1.0892160765682135,-0.0014011701779281793,0.007946162185845651,-0.05270177143206212,0.0,70.0,255.0,255.0,255.0
327,16.35,7.3051249900910635,-11.900966182381685,-9.492118169618857,-0.022787863316082735,0.18378106253003068,-1.091862675422668,-0.0008476649107080902,0.008529435326742885,-0.05326481330616417,0.0,70.0,255.0,255.0,255.0
328,16.400000000000002,7.303984534719821,-11.891766493205518,-9.546777853570937,-0.022815319244244847,0.18422448635465827,-1.09454255789883,-0.00028130192299968826,0.009199130180981285,-0.053930773642996144,0.0,70.0,255.0,255.0,255.0
329,16.45,7.302843458166639,-11.88254373374622,-9.60157242540874,-0.022815993508382704,0.1847009755481288,-1.0972557527869675,0.0001531957020795005,0.009748088594463411,-0.05449499338006092,0.0,70.0,255.0,255.0,255.0
330,16.5,7.301702935368983,-11.873296395650705,-9.656503428849634,-0.022799999674036897,0.1851992952141046,-1.099992057236836,0.00031987545261458195,0.00996906143697629,-0.054756158029256596,0.0,70.0,255.0,255.0,255.0
331,16.55,7.300563458199235,-11.864023804224809,-9.711571631132424,-0.022784005963121245,0.18569788169182644,-1.1027313685898932,0.00015319092137033863,0.009758425454009512,-0.05461148724013043,0.0,70.0,255.0,255.0,255.0
332,16.6,7.299424534772671,-11.854726607481522,-9.766776565708623,-0.022784680581899863,0.18617513775950556,-1.105453205960849,-0.00028131068079417787,0.00921806710802997,-0.05414418812481614,0.0,70.0,255.0,255.0,255.0
333,16.650000000000002,7.298284990141045,-11.845406290448858,-9.822116951728509,-0.022812137031200663,0.18661968840262944,-1.1081457874023748,-0.000847675722059904,0.008552810726136784,-0.053528248283818414,0.0,70.0,255.0,255.0,255.0
334,16.7,7.297143321069551,-11.83606463864126,-9.87759114444886,-0.022869448154105854,0.18703041883211924,-1.110806030789231,-0.001401179743343306,0.007966844295026476,-0.05294156699502395,0.0,70.0,255.0,255.0,255.0
335,16.75,7.295998045325635,-11.826703248565646,-9.933197554807432,-0.022952255005534994,0.18741637283213208,-1.1134399441018772,-0.001795743078858436,0.007657097136437585,-0.052568192152868676,0.0,70.0,255.0,255.0,255.0
336,16.8,7.294848095568997,-11.817323001358046,-9.988935138859048,-0.023049022461991697,0.187796128545763,-1.1160628500045178,-0.0019521063286731533,0.0077267094244604095,-0.05250505350122836,0.0,70.0,255.0,255.0,255.0
337,16.85,7.293693143079436,-11.80792363571107,-10.044803839807884,-0.02314746563840231,0.18818904377457812,-1.118690449452,-0.0019107287287489783,0.00811288831865653,-0.05267479783253037,0.0,70.0,255.0,255.0,255.0
338,16.900000000000002,7.292533349005157,-11.798504096980588,-10.100804183804248,-0.023240095334866595,0.18860741737762865,-1.1213303297877708,-0.00176351966434396,0.008675034840699425,-0.052920708745318734,0.0,70.0,255.0,255.0,255.0
339,16.95,7.291369133545949,-11.789062893973307,-10.15693687278666,-0.023323817604836705,0.18905654725864807,-1.123982520326532,-0.0016022762629575027,0.009271247509978764,-0.05309165239246738,0.0,70.0,255.0,255.0,255.0
340,17.0,7.290200967244673,-11.779598442254724,-10.213202435836902,-0.023400322961162345,0.18953454212862653,-1.1266394950270175,-0.001528884488077864,0.00976655934117332,-0.05303111997836396,0.0,70.0,255.0,255.0,255.0
341,17.05,7.289029101249833,-11.770109439760445,-10.269600822289362,-0.02347670605364449,0.1900332031927654,-1.1292856323243683,-0.0015975394996203818,0.010081962956398627,-0.05266172532927271,0.0,70.0,255.0,255.0,255.0
342,17.1,7.287853296639309,-11.760595121935447,-10.326130999069338,-0.023560076911124384,0.1905427384242664,-1.1319056675599448,-0.0017548420050417235,0.010214015980025692,-0.05207932450854713,0.0,70.0,255.0,255.0,255.0
343,17.150000000000002,7.28667309355872,-11.751055165918018,-10.382791389045357,-0.023652190254148664,0.19105460479076797,-1.134493564775223,-0.0019000171826100143,0.010182574386874421,-0.05146621277045682,0.0,70.0,255.0,255.0,255.0
344,17.2,7.285488077613894,-11.74148966145637,-10.43958035554686,-0.023750078629385385,0.19156099586295383,-1.1370522888369905,-0.001942628956275172,0.010008678486705946,-0.05099839686213414,0.0,70.0,255.0,255.0,255.0
345,17.25,7.284298085695782,-11.731899066331723,-10.496496617929056,-0.02384645314977618,0.19205547263943856,-1.1395934044614364,-0.001792774912079409,0.00972067482294392,-0.05084728131379279,0.0,70.0,255.0,255.0,255.0
346,17.3,7.283103432298916,-11.722284114192426,-10.553539695993004,-0.023929356120593326,0.19253306334524822,-1.1421370169683698,-0.0014106494260701652,0.009344413107825744,-0.051095131428091634,0.0,70.0,255.0,255.0,255.0
347,17.35,7.281905150083722,-11.712645759997198,-10.610710319625893,-0.023987518092383198,0.19298991395022114,-1.1447029176042456,-0.0008716748132187035,0.008911886920159873,-0.05164342860979332,0.0,70.0,255.0,255.0,255.0
348,17.400000000000002,7.280704680489678,-11.702985122797404,-10.668009987753429,-0.024016523601915196,0.1934242520372642,-1.147301359829349,-0.000315479204537894,0.008475506773208963,-0.05229807653694962,0.0,70.0,255.0,255.0,255.0
349,17.45,7.279503497723531,-11.693303334793471,-10.725440455608828,-0.024019066012836987,0.19383746462754203,-1.1499327252579405,0.00012001819484908083,0.008099726191446166,-0.052861986265106964,0.0,70.0,255.0,255.0,255.0
350,17.5,7.278302773888394,-11.68360137633465,-10.783003260279223,-0.024004521782430288,0.19423422465640883,-1.1525875584558598,0.0003080027846991129,0.007846778663100906,-0.05314376409017996,0.0,70.0,255.0,255.0,255.0
351,17.55,7.277103045545288,-11.67387991232783,-10.840699211454414,-0.023988265734367076,0.19462214249385212,-1.1552471016669585,0.00018633767062681272,0.007747097896704247,-0.053044462246099044,0.0,70.0,255.0,255.0,255.0
352,17.6,7.275903947314958,-11.664139162085265,-10.898527970445919,-0.023985888015367607,0.19500893444607925,-1.1578920046804697,-0.00019398321740027313,0.007775732375137068,-0.05263236897850021,0.0,70.0,255.0,255.0,255.0
353,17.650000000000002,7.274704456743751,-11.654379018883223,-10.95648841192246,-0.024007664056107103,0.19539971573136583,-1.1605103385648086,-0.0007217023630268216,0.007878102484681904,-0.05205607315694749,0.0,70.0,255.0,255.0,255.0
354,17.7,7.273503180909347,-11.644599190512128,-11.0145790043024,-0.02405805825167029,0.19579674469454744,-1.1630976119961645,-0.0012779566445964008,0.007992416751001485,-0.051466944789879676,0.0,70.0,255.0,255.0,255.0
355,17.75,7.272298650918584,-11.634799344413768,-11.072798173122077,-0.024135459720566743,0.19619895740646598,-1.1656570330437965,-0.0017512175785050488,0.008048201199706284,-0.05101365300124172,0.0,70.0,255.0,255.0,255.0
356,17.8,7.27108963493729,-11.624979294771482,-11.13114470760678,-0.024233180009520794,0.19660156481451807,-1.1681989772962886,-0.002075214076224796,0.008007708122725887,-0.05077979348069306,0.0,70.0,255.0,255.0,255.0
357,17.85,7.269875332917632,-11.615139187932316,-11.189618070851706,-0.024342981128189223,0.19699972821873857,-1.1707350123918658,-0.00223602868079098,0.007906115979494643,-0.05074345911086908,0.0,70.0,255.0,255.0,255.0
358,17.900000000000002,7.268655336824471,-11.605279321949608,-11.248218208845966,-0.024456782877599892,0.19739217641246753,-1.1732733232073755,-0.0022332358185828127,0.007810311727496355,-0.05084210635999398,0.0,70.0,255.0,255.0,255.0
359,17.95,7.267429654629872,-11.59539997029107,-11.306945403172444,-0.024566304710047504,0.1977807593914882,-1.1758192230278652,-0.002068704437174773,0.0077776930538675515,-0.05101643504286102,0.0,70.0,255.0,255.0,255.0
360,18.0,7.2661987063534665,-11.585501246010459,-11.365800131148752,-0.02466365332131737,0.1981699457178543,-1.1783749667116616,-0.00174714179461688,0.007856360594615808,-0.05120964255276306,0.0,70.0,255.0,255.0,255.0
361,18.05,7.26496328929774,-11.575582975719284,-11.42478289984361,-0.024741018889509192,0.19856639545094978,-1.1809401872831415,-0.0012844557245372812,0.008069155857981514,-0.05138358993814762,0.0,70.0,255.0,255.0,255.0
362,18.1,7.263724604464516,-11.565644606465364,-11.483894149877067,-0.024792098893771097,0.19897686130365244,-1.1835133257054764,-0.0007427412210603279,0.00839803214347512,-0.051514726977508474,0.0,70.0,255.0,255.0,255.0
363,18.150000000000002,7.262484079408363,-11.555685289588919,-11.543134232414157,-0.024815293011615225,0.1994061986652973,-1.1860916599808924,-0.00022619352373354218,0.00880158300606837,-0.051573729841614124,0.0,70.0,255.0,255.0,255.0
364,18.2,7.261243075163354,-11.545703986598834,-11.602503315875156,-0.02481471824614445,0.19985701960425928,-1.1886706986896378,0.00015380003457465818,0.009237323856225998,-0.05152782786055354,0.0,70.0,255.0,255.0,255.0
365,18.25,7.260002607583749,-11.535699587628493,-11.662001302283121,-0.02479991300815776,0.2003299310509199,-1.1912444427669477,0.0002957754333010598,0.009682347098127764,-0.051347776786059285,0.0,70.0,255.0,255.0,255.0
366,18.3,7.258763083862538,-11.525670993493742,-11.72162776015185,-0.024785140702814346,0.20082525431407205,-1.1938054763682437,0.00015252415401789676,0.010115668443333448,-0.05102533394580888,0.0,70.0,255.0,255.0,255.0
367,18.35,7.257524093513467,-11.515617062197085,-11.781381849919946,-0.02478466059275597,0.20134149789525324,-1.1963469761615286,-0.0002285309113503331,0.010464459410286509,-0.050599404543127946,0.0,70.0,255.0,255.0,255.0
368,18.400000000000002,7.256284617803263,-11.505536843704217,-11.841262457768003,-0.02480799379394938,0.2018717002551007,-1.1988654168225565,-0.0007456264500937948,0.010620652286164045,-0.0501420418723697,0.0,70.0,255.0,255.0,255.0
369,18.45,7.255043294134072,-11.495429892171575,-11.901268391602201,-0.02485922323776535,0.20240356312386965,-1.2013611803487656,-0.0012870085208227522,0.010486438092804917,-0.0497317406928488,0.0,70.0,255.0,255.0,255.0
370,18.5,7.253798695479486,-11.48529648739183,-11.96139857580288,-0.024936694646031654,0.2029203440643812,-1.2038385908918414,-0.0017479412910859082,0.009962316280542893,-0.04944325962767948,0.0,70.0,255.0,255.0,255.0
371,18.55,7.252549624669469,-11.475137857765137,-12.021652250691385,-0.02503401736687394,0.20339979475192393,-1.2063055063115335,-0.0020661537122990126,0.00902005848146814,-0.04931507427876625,0.0,70.0,255.0,255.0,255.0
372,18.6,7.251295293742799,-11.464956507916638,-12.082029126434033,-0.025143310017261555,0.203822349912528,-1.208770098319718,-0.0022267714967050267,0.007826740937844079,-0.04932495088638689,0.0,70.0,255.0,255.0,255.0
373,18.650000000000002,7.250035293667743,-11.454755622773884,-12.142529260523357,-0.025256694516544442,0.20418246884570834,-1.2112380014001722,-0.002226825151563361,0.006675714609194472,-0.04942080663159487,0.0,70.0,255.0,255.0,255.0
374,18.7,7.248769624291144,-11.444538261032067,-12.20315292657405,-0.02536599253241789,0.20448992137344746,-1.2137121789828775,-0.0020662787717284914,0.005868672025144406,-0.04954520936877316,0.0,70.0,255.0,255.0,255.0
375,18.75,7.247498694414501,-11.43430663063654,-12.263900478421645,-0.02546332239371729,0.20476933604822278,-1.2161925223370496,-0.001748019592895389,0.0057043784559951405,-0.049635175379236784,0.0,70.0,255.0,255.0,255.0
376,18.8,7.246223292051773,-11.424061327427244,-12.324772178807756,-0.02554079449170743,0.20506035921904697,-1.2186756965208012,-0.001286883663986771,0.006318409984729101,-0.049654881758876,0.0,70.0,255.0,255.0,255.0
377,18.85,7.2449446149653305,-11.413800594714635,-12.385768048073725,-0.02559201076011597,0.2054011770466957,-1.2211580105129372,-0.0007452222628323568,0.007499625789719744,-0.049621724313020366,0.0,70.0,255.0,255.0,255.0
378,18.900000000000002,7.243664090975761,-11.403521209722575,-12.44688797985905,-0.025615316717990666,0.20581032179801895,-1.2236378689521032,-0.00022791210465555878,0.008843762005206202,-0.04957296004093337,0.0,70.0,255.0,255.0,255.0
379,18.95,7.242383083293531,-11.393219562534833,-12.508131834968935,-0.025614801970581524,0.2062855532472163,-1.2261153065170305,0.00015314924963760745,0.009933326020572508,-0.04954122136560102,0.0,70.0,255.0,255.0,255.0
380,19.0,7.241102610778703,-11.382892654397853,-12.569499510510752,-0.025600001793026905,0.2068036544000762,-1.2285919910886633,0.0002960103389071378,0.01034818854321884,-0.049564010882896525,0.0,70.0,255.0,255.0,255.0
381,19.05,7.239823083114229,-11.372539197094826,-12.630991034077802,-0.02558520093669081,0.2073203721015382,-1.2310717076053201,0.000153175547357165,0.009879728153450174,-0.04965868539841267,0.0,70.0,255.0,255.0,255.0
382,19.1,7.238544090685034,-11.3621606171877,-12.692606681271284,-0.02558468423829119,0.20779162721542122,-1.2335578596285046,-0.00022786392754881035,0.008745571754786852,-0.04978815186102992,0.0,70.0,255.0,255.0,255.0
383,19.150000000000002,7.2372646146904,-11.351760034373283,-12.754346820040652,-0.02560798732944569,0.20819492927701688,-1.2360505227914231,-0.0007451627940469052,0.0073784215190997315,-0.049887353206301555,0.0,70.0,255.0,255.0,255.0
384,19.200000000000003,7.235983291952089,-11.341341124259998,-12.816211733550427,-0.02565920051769588,0.2085294693673312,-1.2385465949491348,-0.0012868310469649202,0.006211170742886907,-0.04989661845549165,0.0,70.0,255.0,255.0,255.0
385,19.25,7.23469869463863,-11.33090708743655,-12.878201479535566,-0.025736670434142184,0.20881604635130557,-1.2410401846369723,-0.0017480031138994434,0.005670792778822431,-0.049760809060117595,0.0,70.0,255.0,255.0,255.0
386,19.3,7.233409624908675,-11.320459519624867,-12.940315752014124,-0.025834000829085824,0.20909654864521343,-1.2435226758551465,-0.002066331346117778,0.005975824257653528,-0.049456577113637934,0.0,70.0,255.0,255.0,255.0
387,19.35,7.232115294555721,-11.309997432572029,-13.00255374712108,-0.02594330356875396,0.20941362877707093,-1.245985842348336,-0.0022269583910272672,0.006947271340784766,-0.04902743980483848,0.0,70.0,255.0,255.0,255.0
388,19.400000000000002,7.2308152945518,-11.29951815674716,-13.064914336248957,-0.02605669666818855,0.2097912757792919,-1.2484254198356304,-0.0022269611954506274,0.008213367768306057,-0.04855669473400326,0.0,70.0,255.0,255.0,255.0
389,19.450000000000003,7.229509624888903,-11.2890183049941,-13.127396289104643,-0.026165999688299024,0.21023496555390153,-1.2508415118217364,-0.00206633788257804,0.009402130865687752,-0.04813179199132378,0.0,70.0,255.0,255.0,255.0
390,19.5,7.22819869458297,-11.27849466019177,-13.189998487431131,-0.026263330456446354,0.21073148886586068,-1.2532385990347628,-0.0017480072061815122,0.010148686961031217,-0.047836762199615634,0.0,70.0,255.0,255.0,255.0
391,19.55,7.226883291843258,-11.267945156107514,-13.25272014900812,-0.026340800408917175,0.21124983425000465,-1.255625188041698,-0.0012868245212516172,0.010257627499221655,-0.04771500614744184,0.0,70.0,255.0,255.0,255.0
392,19.6,7.225564614542078,-11.25736967676677,-13.315561006235301,-0.026392012908571516,0.21175725161578285,-1.258010099649507,-0.0007451416696113711,0.009834387170926107,-0.04773938495628016,0.0,70.0,255.0,255.0,255.0
393,19.650000000000002,7.224244090552401,-11.246769430945935,-13.37852115897307,-0.026415314575878313,0.21223327296709726,-1.260399126537326,-0.00022783158595274244,0.009118223957038651,-0.04784857182063007,0.0,70.0,255.0,255.0,255.0
394,19.700000000000003,7.22292308308449,-11.23614634947006,-13.441600918889034,-0.02641479606716679,0.21266907401148671,-1.26279495683157,0.00015320821766806603,0.00834739204123025,-0.04797621358125781,0.0,70.0,255.0,255.0,255.0
395,19.75,7.221602610945684,-11.225502523544787,-13.504800654656227,-0.026399993754111506,0.2130680121712203,-1.2651967478954518,0.00029602261610861547,0.007762431404323422,-0.04804813281626963,0.0,70.0,255.0,255.0,255.0
396,19.8,7.220283083709079,-11.214839548252938,-13.568120593678579,-0.02638519380555593,0.21344531715191906,-1.267599770113197,0.00015311661130112952,0.007499213530337556,-0.04802391111518034,0.0,70.0,255.0,255.0,255.0
397,19.85,7.2189640915651285,-11.204157991829595,-13.631560631667547,-0.026384682092981393,0.21381793352425404,-1.2699991390069698,-0.00022799940717632694,0.007510611212246943,-0.04793595277252649,0.0,70.0,255.0,255.0,255.0
398,19.900000000000002,7.217644615499781,-11.193457754900512,-13.695120507579276,-0.02640799374627356,0.21419637827314375,-1.2723933653904496,-0.0007453488250597218,0.007679983490938014,-0.04784724642288296,0.0,70.0,255.0,255.0,255.0
399,19.950000000000003,7.216323292190501,-11.18273835400228,-13.758799968206592,-0.026459216975487365,0.21458593187334785,-1.274783863649258,-0.001287007808858931,0.0079007018994659,-0.047817153217089015,0.0,70.0,255.0,255.0,255.0
400,20.0,7.214998693802232,-11.171999161713178,-13.822598893944201,-0.026536694527159455,0.21498644846309034,-1.2771750807121585,-0.0017480646091527774,0.008061634042100252,-0.04791867856148713,0.0,70.0,255.0,255.0,255.0
401,20.05,7.213669622737785,-11.161239709155971,-13.886517476277808,-0.026634023436402643,0.21539209527755787,-1.2795757315054068,-0.002066154743829429,0.008099457774513041,-0.04818263610548712,0.0,70.0,255.0,255.0,255.0
402,20.1,7.212335291458592,-11.150459952185422,-13.950556467094742,-0.026743310001542397,0.21579639424054164,-1.2819933443227072,-0.002226497065471733,0.008044100380821817,-0.04851680395550062,0.0,70.0,255.0,255.0,255.0
403,20.150000000000002,7.210995291737631,-11.139660069731917,-14.014716810710079,-0.026856673142949816,0.21619650531564005,-1.2844274119009569,-0.0022262975894804526,0.007960070519175133,-0.048762442485994484,0.0,70.0,255.0,255.0,255.0
404,20.200000000000003,7.209649624144297,-11.128840301653858,-14.078999208284838,-0.026965939760490443,0.21659240129245916,-1.2868695885713066,-0.002065689803298909,0.007903599893666069,-0.048768600123239025,0.0,70.0,255.0,255.0,255.0
405,20.25,7.208298697761582,-11.118000829602671,-14.14340376956721,-0.027063242123279707,0.21698686530500666,-1.2893042719132808,-0.0017477735030801966,0.007939004453128007,-0.04838120888202013,0.0,70.0,255.0,255.0,255.0
406,20.3,7.206943299931969,-11.107141615123357,-14.207929635476166,-0.027140717110798462,0.21738630173777196,-1.2917077094595086,-0.0012874719949707014,0.008096242086885752,-0.04753794539542611,0.0,70.0,255.0,255.0,255.0
407,20.35,7.205584626050502,-11.096262199428894,-14.27257454051316,-0.027191989322776777,0.21779648951369524,-1.2940580664528234,-0.0007468514918507196,0.008312987265313154,-0.04640037453054191,0.0,70.0,255.0,255.0,255.0
408,20.400000000000002,7.204224100999691,-11.085361966171988,-14.337335442121448,-0.027215402259983534,0.21821760046430327,-1.2963477469125628,-0.00023029997722190387,0.008479734431432462,-0.04526111883134121,0.0,70.0,255.0,255.0,255.0
409,20.450000000000003,7.202863085824504,-11.074440439382464,-14.402209315204416,-0.027215019320498968,0.21864446295683848,-1.2985841783359575,0.0001507926620902822,0.008491611812466715,-0.0444139940745103,0.0,70.0,255.0,255.0,255.0
410,20.5,7.201502599067641,-11.063497519876304,-14.467193859955044,-0.027200322993774506,0.21906676164554995,-1.3007891463200139,0.00029514929673624124,0.00823437611643385,-0.04414044861213995,0.0,70.0,255.0,255.0,255.0
411,20.55,7.200143053525126,-11.052533763217909,-14.532288229836418,-0.027185504390825344,0.21946790056848187,-1.3029982231971715,0.00015552990415557133,0.007661774344569494,-0.04457318138104682,0.0,70.0,255.0,255.0,255.0
412,20.6,7.198784048628559,-11.041550729819456,-14.597493682274761,-0.02718477000335895,0.2198329390800069,-1.3052464644581185,-0.00022162144226456348,0.006905722121253177,-0.04555274687660926,0.0,70.0,255.0,255.0,255.0
413,20.650000000000002,7.19742457652479,-11.030550469309908,-14.66281287628223,-0.0272076665350518,0.22015847278060718,-1.3075534978848324,-0.0007361388654203438,0.006200059354100063,-0.04676035491666397,0.0,70.0,255.0,255.0,255.0
414,20.700000000000003,7.196063281975054,-11.019534882541395,-14.728249032063244,-0.027258383889900983,0.2204529450154169,-1.309922499949785,-0.0012779936663598335,0.005776013461300522,-0.047863162505557,0.0,70.0,255.0,255.0,255.0
415,20.75,7.1946987381358,-11.008505174808366,-14.793805126277208,-0.027335465901687783,0.22073607412673724,-1.3123398141353881,-0.0017448050363633172,0.00586344446134035,-0.048532987342220224,0.0,70.0,255.0,255.0,255.0
416,20.8,7.193329735384885,-10.997461275128721,-14.859483013476783,-0.027432864393537315,0.22103928946155094,-1.314775798684007,-0.0020751604414392943,0.006564259602548361,-0.048596555186541934,0.0,70.0,255.0,255.0,255.0
417,20.85,7.191955451696447,-10.986401245862211,-14.925282706145609,-0.027542981945831713,0.22139250008699207,-1.3171994696540423,-0.002250299102435349,0.007697877162371469,-0.04815768225547856,0.0,70.0,255.0,255.0,255.0
418,20.900000000000002,7.190575437190302,-10.975322025120022,-14.991202960442187,-0.02765789430378085,0.22180907717778808,-1.3195915669095548,-0.002260669036857621,0.00892459691765879,-0.0474475780533723,0.0,70.0,255.0,255.0,255.0
419,20.950000000000003,7.1891896622660685,-10.964220338144433,-15.057241862836564,-0.027769048849517475,0.22228495977875795,-1.3219442274593796,-0.0020993308175398795,0.009898786556838957,-0.04670044215036029,0.0,70.0,255.0,255.0,255.0
420,21.0,7.18779853230535,-10.953093529142146,-15.123397383188125,-0.027867827385534838,0.22279895583347198,-1.3242616111245908,-0.0017599384751321168,0.01028387401049713,-0.04615557404683557,0.0,70.0,255.0,255.0,255.0
421,21.05,7.186402879527515,-10.941940442561085,-15.189668023949023,-0.027945042697030686,0.22331334717980766,-1.3265597848640631,-0.0012538624962310507,0.009914100999175446,-0.045946145656294846,0.0,70.0,255.0,255.0,255.0
422,21.1,7.185004028035647,-10.930762194424165,-15.256053361674532,-0.027993213635157943,0.22379036593338952,-1.3288562256902203,-0.0006580213087303832,0.008952652677862716,-0.04601195533648905,0.0,70.0,255.0,255.0,255.0
423,21.150000000000002,7.183603558163999,-10.919561405967746,-15.322553646518045,-0.028010844827903725,0.22420861244759394,-1.331160980397712,-0.00010202414921778313,0.007732508685620587,-0.0462155799572983,0.0,70.0,255.0,255.0,255.0
424,21.200000000000003,7.1822029435528565,-10.908341333179406,-15.389169459714303,-0.02800341605007972,0.22456361680195158,-1.3334777836859502,0.0002763425772656092,0.006594900917988866,-0.04643418311296443,0.0,70.0,255.0,255.0,255.0
425,21.25,7.180803216558991,-10.897105044287551,-15.45590142488664,-0.027983210570177164,0.22486810253939282,-1.3358043987090085,0.00034054961384200055,0.0058730408495577535,-0.0465567910625353,0.0,70.0,255.0,255.0,255.0
426,21.3,7.179404622495839,-10.885854522925467,-15.522749899585204,-0.02796936108869552,0.22515092088690736,-1.3381334627922037,3.0097606540380184e-05,0.005745397006684527,-0.04651900204706294,0.0,70.0,255.0,255.0,255.0
427,21.35,7.178006280450122,-10.87458995219886,-15.58971477116586,-0.027980200809523126,0.22544264224006128,-1.3404562989137148,-0.0005531401388481072,0.00612246783546766,-0.04631720035952469,0.0,70.0,255.0,255.0,255.0
428,21.400000000000002,7.1766066024148865,-10.86331025870146,-15.656795529476575,-0.028024675102580332,0.22576316767045412,-1.3427651828281562,-0.0012148707312142903,0.006795251788460632,-0.045967398155610795,0.0,70.0,255.0,255.0,255.0
429,21.450000000000003,7.175203812939864,-10.852013635431815,-15.723991289448676,-0.028101687882644555,0.22612216741890734,-1.3450530387292758,-0.0017532655985696977,0.007554523524966328,-0.04548282539964532,0.0,70.0,255.0,255.0,255.0
430,21.5,7.173796433626622,-10.84069804195957,-15.791300833349503,-0.028200001662437302,0.22651862002295076,-1.3473134653681207,-0.001966269302400292,0.008195990565340594,-0.044861271026341853,0.0,70.0,255.0,255.0,255.0
431,21.55,7.17238381277362,-10.82936177342952,-15.858722635985488,-0.028298314812884584,0.2269417664754414,-1.34953916583191,-0.00175324121629572,0.008598763188238934,-0.0441173333339151,0.0,70.0,255.0,255.0,255.0
432,21.6,7.1709666021453335,-10.818003865312026,-15.926254749932694,-0.028375325784066874,0.22737849634177465,-1.3517251987015122,-0.0012148260630340246,0.008762044743448882,-0.04335831082400432,0.0,70.0,255.0,255.0,255.0
433,21.650000000000002,7.169546280195213,-10.806623923795343,-15.99389515585564,-0.028419797419187987,0.22781797094978629,-1.3538749969143105,-0.0005530850009094479,0.008720237075188209,-0.04275659898365092,0.0,70.0,255.0,255.0,255.0
434,21.700000000000003,7.168124622403415,-10.795222068217047,-16.061642249624125,-0.02843063428415782,0.22825052004929347,-1.3560008585998773,3.0146391249985527e-05,0.008501317337383796,-0.04248057589553156,0.0,70.0,255.0,255.0,255.0
435,21.75,7.1667032167667974,-10.783798871790413,-16.129495241715627,-0.028416782780062988,0.22866810268352467,-1.3581230545038636,0.0003405648921983584,0.0081349782400153,-0.04269406888681715,0.0,70.0,255.0,255.0,255.0
436,21.8,7.1652829441254084,-10.772355257948695,-16.19745455507451,-0.028396577794937983,0.229064017873295,-1.360270265488559,0.00027629383216876136,0.007651811312214818,-0.04345977650537236,0.0,70.0,255.0,255.0,255.0
437,21.85,7.163863558987304,-10.760892470003084,-16.265522268264483,-0.028389153396846112,0.22943328381474615,-1.3624690321544008,-0.00010214768426664023,0.0071101923522221,-0.044604241659484956,0.0,70.0,255.0,255.0,255.0
438,21.900000000000002,7.162444028785724,-10.74941192956722,-16.33370145828995,-0.028406792563364647,0.2297750371085172,-1.3647306896545075,-0.0006581971908836692,0.006604639073515273,-0.0458090031134617,0.0,70.0,255.0,255.0,255.0
439,21.950000000000003,7.161022879730967,-10.737914966292232,-16.401995337229934,-0.02845497311593448,0.23009374772209767,-1.367049932465747,-0.001254033252529041,0.00623918148416891,-0.04674312276655712,0.0,70.0,255.0,255.0,255.0
440,22.0,7.15959853147413,-10.72640255479501,-16.470406451536526,-0.02853219588861755,0.2303989552569341,-1.3694050019311632,-0.0017599995896233622,0.006108105795910035,-0.04708245342648354,0.0,70.0,255.0,255.0,255.0
441,22.05,7.158169660142105,-10.714875070766539,-16.53893583742305,-0.028630973074896815,0.23070455830168868,-1.3717581778083954,-0.0020991602196929193,0.006254504382674497,-0.04666976110918597,0.0,70.0,255.0,255.0,255.0
442,22.1,7.156735434166641,-10.703332098964841,-16.607582269317366,-0.028742111910586843,0.23102440569520155,-1.3740719780420818,-0.002260219564576005,0.006632710323728475,-0.045674605986079087,0.0,70.0,255.0,255.0,255.0
443,22.150000000000002,7.155295448951047,-10.691772630197018,-16.67634303522726,-0.028856995031354415,0.23136782933406153,-1.3763256384070033,-0.0022496507111391395,0.007144842996353873,-0.04443834427689808,0.0,70.0,255.0,255.0,255.0
444,22.200000000000003,7.153849734663505,-10.680195316031435,-16.745214833158066,-0.028967076981700757,0.23173888999483694,-1.3785158124697716,-0.002074526200779303,0.007682469546388404,-0.043312993645372444,0.0,70.0,255.0,255.0,255.0
445,22.25,7.152398741252877,-10.668598741197535,-16.814194616474236,-0.029064447651432346,0.23213607628870037,-1.3806569377715405,-0.001744575857376418,0.008144579926749884,-0.042648098757425146,0.0,70.0,255.0,255.0,255.0
446,22.3,7.150943289898362,-10.656981708402565,-16.88328052693522,-0.0291415345674384,0.23255334798751193,-1.3827806223455141,-0.0012786273134501869,0.00847068397842321,-0.042627239662706984,0.0,70.0,255.0,255.0,255.0
447,22.35,7.149484587796133,-10.645343406398784,-16.952472678708787,-0.029192310382777364,0.2329831446865427,-1.3849196617378112,-0.0007378132192314979,0.008642602716335546,-0.04312829010544306,0.0,70.0,255.0,255.0,255.0
448,22.400000000000002,7.148024058860084,-10.63368339393391,-17.021772493109,-0.02921531588936155,0.23341760825914548,-1.3870934513560584,-0.00022403912449675545,0.008651513416069179,-0.043887503229811387,0.0,70.0,255.0,255.0,255.0
449,22.450000000000003,7.146563056207197,-10.622001645572869,-17.091182023844393,-0.02921471429522704,0.2338482960281496,-1.3893084120607924,0.00015316369790241424,0.00849145315200417,-0.044644529692661195,0.0,70.0,255.0,255.0,255.0
450,22.5,7.145102587430562,-10.610298564331096,-17.16070333431508,-0.029199999519571307,0.2342667535743459,-1.3915579043253246,0.00029429369448052967,0.008157583821066794,-0.0451492074873272,0.0,70.0,255.0,255.0,255.0
451,22.55,7.1436430562552395,-10.598574970215434,-17.230337814276925,-0.029185284925778987,0.23466405441025628,-1.393823332809525,0.00015315665180537508,0.00766173406159254,-0.045261932921292214,0.0,70.0,255.0,255.0,255.0
452,22.6,7.142184058937984,-10.58683215889007,-17.300085667596033,-0.02918468385439077,0.23503292698050515,-1.3960840976174538,-0.0002240520335483609,0.007077717971881725,-0.04501857391829844,0.0,70.0,255.0,255.0,255.0
453,22.650000000000002,7.1407245878698005,-10.575071677517384,-17.36994622403867,-0.029207690129133823,0.23537182620744446,-1.398325190201355,-0.0007378291540405257,0.006529942500321795,-0.04452446331555393,0.0,70.0,255.0,255.0,255.0
454,22.700000000000003,7.13926328992507,-10.563294976269326,-17.43991818661617,-0.029258466769794822,0.23568592123053733,-1.4005365439490092,-0.0012786414115950606,0.006150692204798247,-0.04388268711821297,0.0,70.0,255.0,255.0,255.0
455,22.75,7.137798741192821,-10.55150308539433,-17.50999987843357,-0.02933555427029333,0.23598689542792428,-1.4027134589131762,-0.001744580272688978,0.006069094113314577,-0.043191061969949374,0.0,70.0,255.0,255.0,255.0
456,22.8,7.136329734498041,-10.539696286726533,-17.580189532507486,-0.02943292479706372,0.2362928306418688,-1.404855650146004,-0.002074512114091931,0.006342892595334604,-0.0425172897259074,0.0,70.0,255.0,255.0,255.0
457,22.85,7.134855448713115,-10.527873802330143,-17.650485443448172,-0.029543005481702522,0.23662118468745774,-1.406965187885767,-0.002249615010097017,0.006882049871670404,-0.04191554942103437,0.0,70.0,255.0,255.0,255.0
458,22.900000000000002,7.133375433949871,-10.516034168257788,-17.720886051296063,-0.02965788629807342,0.23698103562903583,-1.4090472050881075,-0.0022601687351908595,0.007512352945582279,-0.04145818662912859,0.0,70.0,255.0,255.0,255.0
459,22.950000000000003,7.131889660083307,-10.50417569876724,-17.791390163956983,-0.029769022355221608,0.23737241998201597,-1.4111110065486798,-0.002099110871789378,0.008053004136243658,-0.04122369619068422,0.0,70.0,255.0,255.0,255.0
460,23.0,7.130398531714349,-10.492296926259586,-17.86199715195093,-0.02986779738525236,0.2377863360426602,-1.413169574707176,-0.001759981927929033,0.00833004905107515,-0.04128654463535497,0.0,70.0,255.0,255.0,255.0
461,23.05,7.128902880344782,-10.480397065162974,-17.9327071214277,-0.02994502054801451,0.23820542488712348,-1.4152396610122153,-0.0012540825546913936,0.00825340884382797,-0.04166993381886641,0.0,70.0,255.0,255.0,255.0
462,23.1,7.127404029659547,-10.468476383770874,-18.003521118052152,-0.0299932056407215,0.238611676927043,-1.4173365680890626,-0.0006583270861781898,0.007879490466500272,-0.042275685271420116,0.0,70.0,255.0,255.0,255.0
463,23.150000000000002,7.12590355978071,-10.45653589747027,-18.074440778236607,-0.03001085325663233,0.2389933739337735,-1.4194672295393573,-0.0001023350661100153,0.0073352377908619815,-0.04292465496646969,0.0,70.0,255.0,255.0,255.0
464,23.200000000000003,7.124402944333884,-10.444577046377496,-18.145467841006088,-0.0300034391473325,0.2393452007061292,-1.4216290335857096,0.00027611053941001273,0.00675057796417633,-0.04342355376074636,0.0,70.0,255.0,255.0,255.0
465,23.25,7.122903215865977,-10.432601377399656,-18.216603681595178,-0.02998324220269133,0.23966843173019114,-1.423809584915432,0.0003404986602006943,0.0062467003594690595,-0.0435747408428,0.0,70.0,255.0,255.0,255.0
466,23.3,7.121404620113615,-10.420610203204477,-18.28784879949763,-0.02996938928131243,0.2399698707420761,-1.4259865076699896,3.0329512412663462e-05,0.00589624592119975,-0.043282975000735746,0.0,70.0,255.0,255.0,255.0
467,23.35,7.119906276937845,-10.408604390325449,-18.359202332362177,-0.029980209251450063,0.24025805632231112,-1.4281378824155055,-0.0005526011201517633,0.005716351897966376,-0.042667117417849454,0.0,70.0,255.0,255.0,255.0
468,23.400000000000002,7.11840659918847,-10.396584397572246,-18.43066258773918,-0.030024649393327607,0.24054150593187273,-1.4302532194117745,-0.0012141273638910377,0.005711171415789806,-0.04195778557729568,0.0,70.0,255.0,255.0,255.0
469,23.450000000000003,7.116903811998513,-10.384550239732262,-18.502227654303354,-0.030101621987839167,0.2408291734638901,-1.4323336609732351,-0.0017525573928978133,0.005884171187275911,-0.04138866219420834,0.0,70.0,255.0,255.0,255.0
470,23.5,7.115396436989686,-10.372501480225857,-18.573895953836505,-0.03019990513261739,0.24112992305060033,-1.4343920856311954,-0.0019660220369033254,0.006239140185471115,-0.041198454697521925,0.0,70.0,255.0,255.0,255.0
471,23.55,7.113883821485251,-10.360437247427202,-18.645666862866474,-0.0302982241915295,0.2414530874824372,-1.4364535064429873,-0.0017539487815909638,0.006762633111989658,-0.04150473960251588,0.0,70.0,255.0,255.0,255.0
472,23.6,7.112366614570533,-10.348356171477613,-18.717541304480804,-0.030375300010776485,0.2418061863617993,-1.438542559591447,-0.001216676359039326,0.007374262782633423,-0.04217043713090618,0.0,70.0,255.0,255.0,255.0
473,23.650000000000002,7.110846291484173,-10.336256628791022,-18.78952111882562,-0.030419891827433432,0.24219051376070055,-1.440670550156078,-0.0005557475538431333,0.007939237386089815,-0.04292961065246459,0.0,70.0,255.0,255.0,255.0
474,23.700000000000003,7.1093246253877895,-10.324137120101543,-18.86160835949641,-0.030430874766160798,0.24260011010040827,-1.4428355206566934,2.7545606773315967e-05,0.008313762927336654,-0.043521937326573834,0.0,70.0,255.0,255.0,255.0
475,23.75,7.107803204007557,-10.31199661778098,-18.933804670891288,-0.0304171372667561,0.24302189005343422,-1.4450227438887353,0.0003396267841182521,0.008352729572713713,-0.04369950563365421,0.0,70.0,255.0,255.0,255.0
476,23.8,7.106282911661114,-10.2998349310962,-19.006110633885285,-0.030396912087748973,0.24343538305767964,-1.4472054712200588,0.0002788921861451854,0.007992708810355964,-0.043337693625389306,0.0,70.0,255.0,255.0,255.0
477,23.85,7.104763512798782,-10.287653079475213,-19.078525218013294,-0.03038924804814158,0.24382116093446982,-1.4493565132512742,-9.528551823123621e-05,0.007351072497741029,-0.04253831354645854,0.0,70.0,255.0,255.0,255.0
478,23.900000000000002,7.1032439868563,-10.275452815002753,-19.151046285210413,-0.030406440639572097,0.24417049030745375,-1.4514593025747047,-0.0006482903457616374,0.006648242676909888,-0.04151743148810283,0.0,70.0,255.0,255.0,255.0
479,23.950000000000003,7.101722868734825,-10.263236030444467,-19.223671148270764,-0.030454077082717745,0.2444859852021608,-1.4535082564000845,-0.0012443383216265147,0.00611355099540134,-0.040496362393227514,0.0,70.0,255.0,255.0,255.0
480,24.0,7.100198579148028,-10.251004216482537,-19.29639711085042,-0.030530874471734748,0.24478184540699388,-1.4555089388140274,-0.0017564944232439927,0.005985932198804278,-0.03968352276793041,0.0,70.0,255.0,255.0,255.0
481,24.05,7.098669781287652,-10.238757845903768,-19.369222042152167,-0.030629726525042145,0.24508457842204123,-1.4574766086768776,-0.002108846069681647,0.006379818359292244,-0.039197259786405425,0.0,70.0,255.0,255.0,255.0
482,24.1,7.097135606495524,-10.226495758640333,-19.44214477171811,-0.030741759078702913,0.2454198272429231,-1.459428664792668,-0.0022858179321794125,0.007136039300625896,-0.039029968354853395,0.0,70.0,255.0,255.0,255.0
483,24.150000000000002,7.095595605379781,-10.214215863179476,-19.515164908631434,-0.030858308318260086,0.24579818235210382,-1.461379605512363,-0.0022866155386935816,0.007953199832755331,-0.03912784288431226,0.0,70.0,255.0,255.0,255.0
484,24.200000000000003,7.094049775663698,-10.201915940405122,-19.588282732269345,-0.03097042063257227,0.24621514722619864,-1.4633414490810992,-0.0021107051405344635,0.008532172951980499,-0.039432100284031435,0.0,70.0,255.0,255.0,255.0
485,24.25,7.092498563316524,-10.189594348456856,-19.661499053539544,-0.031069378832313532,0.24665139964730187,-1.465322815540766,-0.0017576584155243324,0.008571606899998585,-0.03987838464567517,0.0,70.0,255.0,255.0,255.0
486,24.3,7.090942837780466,-10.177250800440392,-19.73481501382342,-0.031146186474124704,0.2470723079161985,-1.4673292875456667,-0.0012424822665835222,0.007927644791116961,-0.04041480568517386,0.0,70.0,255.0,255.0,255.0
487,24.35,7.089383944669112,-10.164887117665236,-19.80823198229411,-0.031193627058971884,0.24744416412641357,-1.4693642961092834,-0.0006422819130769142,0.006791949785700524,-0.04098190627139786,0.0,70.0,255.0,255.0,255.0
488,24.400000000000002,7.087823475074569,-10.15250638402775,-19.88175144343435,-0.031210414665432396,0.24775150289476855,-1.4714274781728065,-8.608666037801527e-05,0.005532617666048623,-0.04148858625541152,0.0,70.0,255.0,255.0,255.0
489,24.450000000000003,7.086262903202568,-10.14011196737576,-19.95537473011139,-0.031202235725009686,0.24799742589301843,-1.4735131547348246,0.0002881845245994441,0.004517104517631765,-0.04183006164986125,0.0,70.0,255.0,255.0,255.0
490,24.5,7.084703251502068,-10.127706641438449,-20.029102758907833,-0.03118159621297245,0.24820321334653173,-1.4756104843377926,0.0003431187615809961,0.004103584258707826,-0.04190690135281727,0.0,70.0,255.0,255.0,255.0
491,24.55,7.083144743581271,-10.115291646041106,-20.10293577854517,-0.031167923848851586,0.2484077843188892,-1.4777038448701063,1.826231512680465e-05,0.004469975435128504,-0.04167629136233586,0.0,70.0,255.0,255.0,255.0
492,24.6,7.081586459117183,-10.10286586300656,-20.176873143394843,-0.03117976998145977,0.24865021089004458,-1.4797781134740262,-0.0005805788910073773,0.005446278104415114,-0.04120688208217871,0.0,70.0,255.0,255.0,255.0
493,24.650000000000002,7.080026766583125,-10.090426624952102,-20.250913589892573,-0.031225981737952324,0.24895241212933072,-1.4818245330783242,-0.0012526741834939514,0.006685373792514326,-0.04063417573441086,0.0,70.0,255.0,255.0,255.0
494,24.700000000000003,7.078463860943388,-10.077970621793627,-20.325055596702676,-0.031305037399809166,0.249318748269296,-1.4838415310474673,-0.001789259065709814,0.007833348372265903,-0.04010714029654139,0.0,70.0,255.0,255.0,255.0
495,24.75,7.076896262843144,-10.065494750125172,-20.39929774299732,-0.031404907644523306,0.24973574696655731,-1.4858352471079783,-0.001978825954207508,0.008542074714767978,-0.039782028587254104,0.0,70.0,255.0,255.0,255.0
496,24.8,7.0753233701789355,-10.052997047096971,-20.473639121413473,-0.03150291999522992,0.2501729557407728,-1.4878197339061927,-0.0017172802792231323,0.008626392862609578,-0.039739516045855794,0.0,70.0,255.0,255.0,255.0
497,24.85,7.073745970843621,-10.040477454551095,-20.54807971638794,-0.03157663567244562,0.2505983862528183,-1.489809198712564,-0.001120810449162235,0.008191982083616267,-0.0399069290352827,0.0,70.0,255.0,255.0,255.0
498,24.900000000000002,7.072165706611691,-10.02793720847169,-20.62262004128473,-0.03161500104014614,0.25099215394913443,-1.491810426809721,-0.000417808681429932,0.007476003714046442,-0.04013918633525293,0.0,70.0,255.0,255.0,255.0
499,24.950000000000003,7.070584470739607,-10.015378239156181,-20.69726075906891,-0.03161841654058861,0.2513459866242229,-1.4938231173460892,0.00016227831158843742,0.006716588241495458,-0.040294290920073195,0.0,70.0,255.0,255.0,255.0
500,25.0,7.069003864957632,-10.002802609809267,-20.77200235301934,-0.031598773208987296,0.251663812773284,-1.4958398559017283,0.0003882223515994099,0.006156088910458379,-0.04022503091256624,0.0,70.0,255.0,255.0,255.0
501,25.05,7.067424593418708,-9.990211857878853,-20.846844744659084,-0.03157959430542867,0.25196159551526875,-1.4978456204373458,0.0001442853767130714,0.0059300008995677445,-0.03985907102759256,0.0,70.0,255.0,255.0,255.0
502,25.1,7.065845905527089,-9.97760645025774,-20.921786915063073,-0.03158434467131599,0.25225681286324075,-1.4998257630044876,-0.00045077138723925714,0.005981224794560092,-0.03928810573903263,0.0,70.0,255.0,255.0,255.0
503,25.150000000000002,7.064266158951576,-9.964986176592529,-20.996827320959532,-0.0316246714441526,0.25255971799472476,-1.501774431011249,-0.0011614990178543394,0.006176858437534349,-0.038686374962892955,0.0,70.0,255.0,255.0,255.0
504,25.200000000000003,7.062683438382674,-9.952350478458268,-21.071964358164198,-0.03170049457310142,0.2528744987069942,-1.5036944005007769,-0.0017532807539133444,0.0063926995967023,-0.0382222694543799,0.0,70.0,255.0,255.0,255.0
505,25.25,7.061096109494266,-9.93969872672183,-21.14719676100961,-0.03179999951954393,0.253198987954395,-1.505596657956687,-0.0019901007478395627,0.006493616263192337,-0.03805780113914636,0.0,70.0,255.0,255.0,255.0
506,25.3,7.05950343843072,-9.927030579662828,-21.222524023959867,-0.03189950464788538,0.2535238603333134,-1.5075001806146915,-0.0017532878006321084,0.006407542932507226,-0.03827128608939745,0.0,70.0,255.0,255.0,255.0
507,25.35,7.057906159029478,-9.914346340688498,-21.29794677907108,-0.03197532829960714,0.2538397422476457,-1.5094237865656268,-0.0011615119270835805,0.00620405113966882,-0.03877617248413401,0.0,70.0,255.0,255.0,255.0
508,25.400000000000002,7.056305905600759,-9.901646605438064,-21.37346640261643,-0.03201565584059374,0.2541442654472803,-1.5113777978631049,-0.00045078732222592066,0.006014790973374318,-0.0393989501763059,0.0,70.0,255.0,255.0,255.0
509,25.450000000000003,7.054704593445418,-9.88893191414377,-21.44908455885739,-0.032020407031829734,0.25444122134498315,-1.5133636815832574,0.00014427127785765492,0.005959699618784953,-0.0399638573718164,0.0,70.0,255.0,255.0,255.0
510,25.5,7.053103864897576,-9.876202483303565,-21.524802770774755,-0.03200122871280797,0.2547402354091588,-1.5153741836002865,0.00038821793566512497,0.006165390091616985,-0.04030777385430895,0.0,70.0,255.0,255.0,255.0
511,25.55,7.051504470574137,-9.863457890602854,-21.60062197721742,-0.03198158523826322,0.25505776035414485,-1.5173944589686883,0.0001622923988087166,0.006686913618203505,-0.040342497901235674,0.0,70.0,255.0,255.0,255.0
512,25.6,7.04990570637375,-9.85069670726815,-21.676542216671624,-0.0319849994729271,0.25540892677097915,-1.51940843339041,-0.00041777297861145257,0.00740079908698732,-0.04009261224879879,0.0,70.0,255.0,255.0,255.0
513,25.650000000000002,7.048305970626845,-9.837916997925756,-21.75256282055646,-0.03202336253612437,0.2557978402628436,-1.5214037201935682,-0.0011207596181783686,0.008084910068539841,-0.03963241640825288,0.0,70.0,255.0,255.0,255.0
514,25.700000000000003,7.046703370120137,-9.825116923241866,-21.82868258869098,-0.03209707543474494,0.25621741777783313,-1.5233716750312354,-0.0017172309298985056,0.008522441321368035,-0.03904230106037687,0.0,70.0,255.0,255.0,255.0
515,25.75,7.04509626308337,-9.812295256147973,-21.904899988059583,-0.03219508562911422,0.2566500843949804,-1.5253079502996059,-0.0019788082917138183,0.008504869990488828,-0.03839912209002705,0.0,70.0,255.0,255.0,255.0
516,25.8,7.043483861557226,-9.799451914802368,-21.98121338372094,-0.03229495626391632,0.257067904776882,-1.527211587240238,-0.0017893083697373413,0.00793720352838534,-0.03775769666525264,0.0,70.0,255.0,255.0,255.0
517,25.85,7.041866767456979,-9.786588465670285,-22.057621146783607,-0.03237401646608795,0.2574438047478189,-1.5290837199661311,-0.0012528040831405463,0.006958999598971616,-0.03717151371631644,0.0,70.0,255.0,255.0,255.0
518,25.900000000000002,7.040246459910617,-9.773707534327587,-22.134121755717555,-0.032420236672230374,0.2577638047367792,-1.5309287386118697,-0.0005807662790680013,0.005840999986617135,-0.0367149273149181,0.0,70.0,255.0,255.0,255.0
519,25.950000000000003,7.0386247437897556,-9.760812085196607,-22.210714020644794,-0.03243209309399475,0.25802790474648063,-1.532755212697623,1.8079015795535724e-05,0.004862796167870442,-0.036465912749505947,0.0,70.0,255.0,255.0,255.0
520,26.0,7.0370032506012175,-9.747904743852938,-22.287397276987317,-0.03241842877065082,0.2582500843535662,-1.5345753298868203,0.00034305252736288594,0.00429512994628567,-0.03649573778439219,0.0,70.0,255.0,255.0,255.0
521,26.05,7.0353829009126905,-9.73498707676125,-22.364171553633476,-0.03239778784125846,0.2584574177411092,-1.5364047864760622,0.00028836765215700666,0.00427755898222415,-0.03682774107538478,0.0,70.0,255.0,255.0,255.0
522,26.1,7.033763471817092,-9.722059002078828,-22.441037755634923,-0.03238959200543512,0.25867784025178864,-1.5382581039943588,-8.560276318902993e-05,0.004715090629048291,-0.0373777897593186,0.0,70.0,255.0,255.0,255.0
523,26.150000000000002,7.032143941712147,-9.709119292736071,-22.51799736403291,-0.032406348117577366,0.258928926804014,-1.540142565451994,-0.0006415831901307456,0.005399201872258175,-0.03798973913831105,0.0,70.0,255.0,255.0,255.0
524,26.200000000000003,7.030522837005334,-9.696166109398426,-22.595052012180123,-0.032453750324448194,0.25921776043901446,-1.54205707790819,-0.001241798420448248,0.006113087294146169,-0.03849507358566484,0.0,70.0,255.0,255.0,255.0
525,26.25,7.028898566679702,-9.68319751669217,-22.67220307182373,-0.03253052795962219,0.25954023553342864,-1.5439920728105605,-0.0017574111420337601,0.006634610225653148,-0.038729908121126755,0.0,70.0,255.0,255.0,255.0
526,26.3,7.027269784209372,-9.670212085845083,-22.74945121946118,-0.03262949143865157,0.25988122146157977,-1.5459300687203026,-0.0021113883459378258,0.0068402994701344255,-0.03861133902987035,0.0,70.0,255.0,255.0,255.0
527,26.35,7.025635617535837,-9.657209394546012,-22.82679607869576,-0.03274166679421597,0.2602242654804421,-1.5478532067135475,-0.002288421227358839,0.006785206647386133,-0.03820273516943473,0.0,70.0,255.0,255.0,255.0
528,26.400000000000002,7.02399561752995,-9.644189659297039,-22.904236540132533,-0.032858333561387454,0.2605597421263184,-1.549750342237246,-0.002288425435903463,0.0065959454383701654,-0.037640708210773255,0.0,70.0,255.0,255.0,255.0
529,26.450000000000003,7.022349784179698,-9.63115342033338,-22.981771112919485,-0.03297050933780632,0.2608838600242791,-1.5516172775346249,-0.0021113981552467465,0.006392453725112546,-0.03706707962471967,0.0,70.0,255.0,255.0,255.0
530,26.5,7.020698566596169,-9.618101273294611,-23.059398267885996,-0.03306947337691213,0.26119898749882964,-1.553457050199718,-0.0017574172835210788,0.006306382531207078,-0.03662062040277192,0.0,70.0,255.0,255.0,255.0
531,26.55,7.019042836842007,-9.605033521583497,-23.137116817939457,-0.03314625106615843,0.2615144982773998,-1.555279339574902,-0.0012417886268600853,0.006407303742683723,-0.03637967669547493,0.0,70.0,255.0,255.0,255.0
532,26.6,7.017383941489554,-9.591949823466871,-23.214926201843486,-0.03319365223959814,0.261839717873098,-1.5570950178692655,-0.0006415514876678685,0.006623150380491438,-0.036327633202049014,0.0,70.0,255.0,255.0,255.0
533,26.650000000000002,7.015723471618047,-9.578849549796187,-23.292826319726384,-0.033210406214925214,0.26217681331544895,-1.558912102895107,-8.555422743583563e-05,0.006818787935358728,-0.03641190354564117,0.0,70.0,255.0,255.0,255.0
