idx,t,px,py,pz,vx,vy,vz,ax,ay,az,yaw,mode,ledr,ledg,ledb
0,0.0,-13.500000000000012,-1.5000000000000002,5.2303880771237895e-19,0.000274008540408488,-3.9393821538169504e-10,0.0005513857803989951,-0.017026723602597826,0.004000002626280974,-0.02847590520265994,0.0,70.0,255.0,255.0,255.0
1,0.05,-13.499986299572992,-1.5000000000196971,2.756928901995028e-05,-0.0005773276397214033,0.00019999973737583332,-0.000872409479734002,-0.025711744953582638,0.006000003611106308,-0.04285436965365743,0.0,70.0,255.0,255.0,255.0
2,0.1,-13.500057732763985,-1.4999800000262626,-8.724094797339967e-05,-0.002297165954949776,0.0005999999671724154,-0.003734051184966748,-0.03474008540393925,0.00800000393936795,-0.05751385780398994,0.0,70.0,255.0,255.0,255.0
3,0.15000000000000002,-13.500216016168487,-1.49994000002298,-0.0003458358294767245,-0.004051336180115328,0.0010000001313126283,-0.006623795260132996,-0.03542672360534738,0.00800000262586309,-0.05807590520266316,0.0,70.0,255.0,255.0,255.0
4,0.2,-13.500462866381996,-1.4998800000131314,-0.0007496204739866993,-0.0058398383154845135,0.0014000002297587244,-0.009541641705233065,-0.03612105351429307,0.008000001285224378,-0.05864303051878864,0.0,70.0,255.0,255.0,255.0
5,0.25,-13.500800000000035,-1.499800000000004,-0.0013000000000000312,-0.007663441531544635,0.0018000002598350662,-0.01248809831201186,-0.03685961075312605,0.007999999786911793,-0.0592393538602717,0.0,70.0,255.0,255.0,255.0
6,0.30000000000000004,-13.50122921053515,-1.4996999999871479,-0.001998430305187885,-0.009525799390797118,0.0022000002084499037,-0.015465577091260235,-0.037654146557386525,0.007999998087271365,-0.0598726331565683,0.0,70.0,255.0,255.0,255.0
7,0.35000000000000003,-13.501752579939115,-1.499579999979159,-0.0028465577091260547,-0.011428856187283287,0.0026000000685622027,-0.01847536162766869,-0.03840445502927281,0.007999996545726695,-0.06047671442750405,0.0,70.0,255.0,255.0,255.0
8,0.4,-13.502372096153879,-1.4994399999802916,-0.0038459664679547545,-0.0133662448937244,0.0029999998630225733,-0.02151324853401064,-0.038950505853385664,0.007999995736152066,-0.060945948779364545,0.0,70.0,255.0,255.0,255.0
9,0.45,-13.503089204428488,-1.4992799999928568,-0.004997882562527119,-0.015323906772621854,0.0033999996421774092,-0.024569956505605145,-0.03915347687648563,0.007999996227425754,-0.061188819158184,0.0,70.0,255.0,255.0,255.0
10,0.5,-13.503904486831141,-1.499100000016074,-0.006302962118515269,-0.017281592581372962,0.0037999994857651487,-0.02763213044982904,-0.03888597283161488,0.007999998818508658,-0.06112184218155417,0.0,70.0,255.0,255.0,255.0
11,0.55,-13.504817363686625,-1.4989000000442803,-0.007761095607510023,-0.01921250405578334,0.004199999524028275,-0.030682140723760562,-0.03810611901702288,0.008000003769548236,-0.060717572560694405,0.0,70.0,255.0,255.0,255.0
12,0.6000000000000001,-13.50582573723672,-1.498680000063671,-0.009371176190891325,-0.02109220448307525,0.004599999862719972,-0.03370388770589848,-0.036978000422394075,0.008000009553121856,-0.06008263419289263,0.0,70.0,255.0,255.0,255.0
13,0.65,-13.506926584134932,-1.4984400000580083,-0.011131484378099871,-0.02291030409802275,0.005000000479340461,-0.036690404143049825,-0.03579963441193712,0.00800001360117264,-0.05941105450818142,0.0,70.0,255.0,255.0,255.0
14,0.7000000000000001,-13.508116767646522,-1.498180000015737,-0.013040216605196308,-0.024672167924268962,0.005400001222837236,-0.03964499315671662,-0.034884295593329284,0.008000013204800815,-0.05891125296535564,0.0,70.0,255.0,255.0,255.0
15,0.75,-13.50939380092736,-1.4978999999357245,-0.015095983693771534,-0.026398733657355677,0.005800001799820542,-0.04258152943958539,-0.03453610867314438,0.008000004726027576,-0.05880064992180266,0.0,70.0,255.0,255.0,255.0
16,0.8,-13.510756641012257,-1.497599999835755,-0.017298369549154848,-0.0281257787915834,0.006200001695439994,-0.04552505814889689,-0.034902868618935656,0.007999986807405435,-0.05918215451810718,0.0,70.0,255.0,255.0,255.0
17,0.8500000000000001,-13.512206378806518,-1.4972799997661805,-0.019648489508661222,-0.029889020519249243,0.006600000480561086,-0.04849974489139611,-0.03583365983299558,0.00799996524176727,-0.05990734087551915,0.0,70.0,255.0,255.0,255.0
18,0.9,-13.513745543064182,-1.4969399997876989,-0.022148344038294458,-0.03170914477488296,0.006999998219616721,-0.0515157922364488,-0.03702000078629197,0.007999949859183175,-0.06069524111331839,0.0,70.0,255.0,255.0,255.0
19,0.9500000000000001,-13.515377293284006,-1.4965799999442189,-0.024800068732306103,-0.03359102059787844,0.007399995466479403,-0.054569269002727946,-0.038143280142577396,0.007999950953418988,-0.06126630884053484,0.0,70.0,255.0,255.0,255.0
20,1.0,-13.51710464512397,-1.496200000241051,-0.027605270938567253,-0.0355234727891407,0.00779999331495862,-0.05764242312050229,-0.038897611123367426,0.007999982277251405,-0.06134362339929936,0.0,70.0,255.0,255.0,255.0
21,1.05,-13.51892964056292,-1.495800000612723,-0.03056431104435633,-0.03748078171021518,0.008199993694204544,-0.06070363134265788,-0.039116345901746286,0.008000049000700393,-0.060793436406504225,0.0,70.0,255.0,255.0,255.0
22,1.1,-13.520852723294992,-1.4953800008716305,-0.03367563407283304,-0.039435107379315326,0.008599998215028659,-0.06372176676115271,-0.038856404535536626,0.008000129479857065,-0.05977518179221333,0.0,70.0,255.0,255.0,255.0
23,1.1500000000000001,-13.522873151300852,-1.4949400007912201,-0.0369364877204716,-0.041366422163768846,0.00900000664219025,-0.06668114952187922,-0.03827047899367386,0.0080001869623203,-0.058601640712206415,0.0,70.0,255.0,255.0,255.0
24,1.2000000000000002,-13.524989365511368,-1.4944800002074115,-0.04034374902502096,-0.04326215527868271,0.009400016911260689,-0.06958193083237335,-0.03751638337075036,0.00800018298159344,-0.05758957227856923,0.0,70.0,255.0,255.0,255.0
25,1.25,-13.52719936682872,-1.493999999100094,-0.04389468080370894,-0.04511806050084388,0.009800024940349594,-0.07244010674973614,-0.036753446832626935,0.008000066164770558,-0.05705282850897095,0.0,70.0,255.0,255.0,255.0
26,1.3,-13.529501171561453,-1.4934999977133765,-0.047587759699994577,-0.046937499961945406,0.010200023527737745,-0.07528721368327045,-0.0360834960249079,0.007999817189818792,-0.05715067328244325,0.0,70.0,255.0,255.0,255.0
27,1.35,-13.531893116824914,-1.4929799967473203,-0.05142340217203598,-0.04872641010333467,0.010600006659331473,-0.07815517407798046,-0.03553792482264839,0.007999516838852472,-0.057743820067516355,0.0,70.0,255.0,255.0,255.0
28,1.4000000000000001,-13.534373812571786,-1.4924399970474433,-0.05540327710779262,-0.050491292444210245,0.010999975211622992,-0.08106159569002208,-0.03514339792438648,0.007999302291517019,-0.058546307925976676,0.0,70.0,255.0,255.0,255.0
29,1.4500000000000002,-13.536942246069335,-1.491879999226158,-0.05952956174103819,-0.05224074989577332,0.011399936888483175,-0.08400980487057813,-0.03493636119937804,0.007999317120099825,-0.05926882861861729,0.0,70.0,255.0,255.0,255.0
30,1.5,-13.539597887561364,-1.491300003358595,-0.06380425759485044,-0.05398492856414805,0.011799906923632975,-0.08698847855188381,-0.03494062951787669,0.007999753063558934,-0.059617090536838446,0.0,70.0,255.0,255.0,255.0
31,1.55,-13.54234073892575,-1.4907000085337947,-0.06822840959622657,-0.05573481284756099,0.012199912194839069,-0.08997151392426198,-0.035157408925456934,0.008000682240183465,-0.0594378098576577,0.0,70.0,255.0,255.0,255.0
32,1.6,-13.54517136884612,-1.4900800121391111,-0.07280140898727663,-0.05750066945669374,0.012599975147651321,-0.09293225953764958,-0.035548353051240156,0.00800180316482546,-0.05885587826406635,0.0,70.0,255.0,255.0,255.0
33,1.6500000000000001,-13.54809080587142,-1.4894400110190296,-0.07752163554999153,-0.059289648152685004,0.013000092511321615,-0.09585710175066861,-0.03603779411101016,0.008002603871615221,-0.058125948096721114,0.0,70.0,255.0,255.0,255.0
34,1.7000000000000002,-13.551100333661388,-1.488780002887979,-0.0823871191623435,-0.06110444886779476,0.013400235534812843,-0.09874485434732169,-0.03653248418462596,0.008002548537922038,-0.057495486207337354,0.0,70.0,255.0,255.0,255.0
35,1.75,-13.554201250758199,-1.4880999874655483,-0.0873961209847237,-0.0629428965711476,0.013800347365113819,-0.10160665037140235,-0.036943988476600964,0.008000921580908482,-0.057210744075596176,0.0,70.0,255.0,255.0,255.0
36,1.8,-13.557394623318503,-1.4873999681514676,-0.09254778419948373,-0.06479884771545485,0.014200327692903691,-0.10446592875488131,-0.03722066780795785,0.00799745384953976,-0.05739794742678078,0.0,70.0,255.0,255.0,255.0
37,1.85,-13.560681135529745,-1.486679954696258,-0.09784271386021183,-0.06666496335194338,0.014600092750067795,-0.10734644511408042,-0.03735229933568007,0.007993270501915894,-0.057947258950828695,0.0,70.0,255.0,255.0,255.0
38,1.9000000000000001,-13.564061119653697,-1.4859399588764608,-0.10328242871089177,-0.06853407764902286,0.014999654743095281,-0.11026065464996418,-0.037340950107811466,0.007990282222003486,-0.05863530761255481,0.0,70.0,255.0,255.0,255.0
39,1.9500000000000002,-13.567534543294647,-1.4851799892219484,-0.10886877932520825,-0.07039905836272453,0.015399120972268143,-0.1132099758753359,-0.037194214881708376,0.007990488728215617,-0.05924265312543947,0.0,70.0,255.0,255.0,255.0
40,2.0,-13.57110102548997,-1.484400046779234,-0.11460342629842536,-0.0722534991371937,0.015798703615916843,-0.11618491996250813,-0.03692742589862519,0.007996560612766324,-0.05955597045680938,0.0,70.0,255.0,255.0,255.0
41,2.0500000000000003,-13.574759893208366,-1.4836001188603567,-0.12048727132145906,-0.07409180095258705,0.016198777033544776,-0.11916557292101684,-0.03655889420279834,0.008009502361439047,-0.05946382700866004,0.0,70.0,255.0,255.0,255.0
42,2.1,-13.578510205585228,-1.4827801690758795,-0.12651998359052705,-0.07590938855747353,0.016599653852060747,-0.12213130266337413,-0.036123288766631845,0.008025114827558966,-0.05904049385802995,0.0,70.0,255.0,255.0,255.0
43,2.15,-13.582350832064114,-1.4819401534751506,-0.13270040158779647,-0.07770412982925023,0.017001288516300672,-0.12506962230681984,-0.03567924461904681,0.008036267240640882,-0.058447413527654146,0.0,70.0,255.0,255.0,255.0
44,2.2,-13.586280618568153,-1.4810800402242494,-0.13902694582120903,-0.07947731301937822,0.017403280576124835,-0.12797604401613955,-0.03529634393526493,0.008035496549108068,-0.05784718800418698,0.0,70.0,255.0,255.0,255.0
45,2.25,-13.590298563366051,-1.4801998254175381,-0.14549800598941043,-0.08123376422277673,0.01780483817121148,-0.13085434110723854,-0.035042345224312044,0.008012835967874388,-0.057401364773149166,0.0,70.0,255.0,255.0,255.0
46,2.3000000000000003,-13.594403994990431,-1.4792995564071283,-0.15211237993193288,-0.08298154754180942,0.018204564172912274,-0.13371618049345446,-0.034950468667460655,0.007964536704729852,-0.057199518431361174,0.0,70.0,255.0,255.0,255.0
47,2.35,-13.598596718120232,-1.478379369000247,-0.15886962403875587,-0.08472881108952279,0.018601291841684464,-0.13657429295037465,-0.03499184163384683,0.007906270187940656,-0.05720712925341709,0.0,70.0,255.0,255.0,255.0
48,2.4000000000000004,-13.602876876099383,-1.4774394272229598,-0.16576980922697035,-0.0864807317051941,0.01899519119170634,-0.13943689341879617,-0.03510477537922441,0.007864648815592012,-0.057339513801304975,0.0,70.0,255.0,255.0,255.0
49,2.45,-13.607244791290752,-1.4764798498810763,-0.1728133133806355,-0.08823928862744523,0.019387756723243665,-0.14230824433050515,-0.035220409379377315,0.007867525075244686,-0.05751479532402071,0.0,70.0,255.0,255.0,255.0
50,2.5,-13.611700804962128,-1.4755006515506355,-0.18000063366002086,-0.09000277264313183,0.01978194369923081,-0.14518837295119824,-0.03525918387889959,0.007952095515451063,-0.057646589098611645,0.0,70.0,255.0,255.0,255.0
51,2.5500000000000003,-13.616245068555065,-1.4745016555111532,-0.18733215067575532,-0.09176520701533519,0.02018296627478877,-0.14807290324036632,-0.03517974394657841,0.00813235081984498,-0.0576853253731191,0.0,70.0,255.0,255.0,255.0
52,2.6,-13.620877325663661,-1.4734823549231566,-0.1948079239840575,-0.09352074703778968,0.020595178781215306,-0.15095690548851015,-0.03503027709914619,0.00834980442090405,-0.057651921529242034,0.0,70.0,255.0,255.0,255.0
53,2.6500000000000004,-13.625597143258844,-1.4724421376330317,-0.20242784122460633,-0.09526823472524981,0.021017946716879177,-0.15383809539329052,-0.03489988230391816,0.008505137496839232,-0.05759275970536604,0.0,70.0,255.0,255.0,255.0
54,2.7,-13.630404149136186,-1.4713805602514687,-0.21019173352338655,-0.09701073526818149,0.02144569253089923,-0.15671618145904676,-0.034869104795376415,0.008501116436643308,-0.057547430233531593,0.0,70.0,255.0,255.0,255.0
55,2.75,-13.635298216785662,-1.4702975683799417,-0.218099459370511,-0.09875514520478745,0.021868058360543507,-0.15959283841664368,-0.0350168633140413,0.008230809942233464,-0.05756025086035288,0.0,70.0,255.0,255.0,255.0
56,2.8000000000000003,-13.640279663656665,-1.4691937544154143,-0.22615101736505092,-0.10051242159958562,0.022268773525122576,-0.16247220654508204,-0.03537764179171177,0.00765226048196066,-0.057652466789423484,0.0,70.0,255.0,255.0,255.0
57,2.85,-13.64534945894562,-1.4680706910274295,-0.2343466800250192,-0.10229290938395863,0.022633284408739573,-0.16535808509558603,-0.035885278408365195,0.006896283690349669,-0.05778518462962179,0.0,70.0,255.0,255.0,255.0
58,2.9000000000000004,-13.650508954595061,-1.4669304259745404,-0.24268682587460952,-0.10410094944042214,0.022958401894157543,-0.16825072500804422,-0.036416627806801216,0.006193868796344759,-0.057889447377265646,0.0,70.0,255.0,255.0,255.0
59,2.95,-13.655759553889663,-1.4657748508380137,-0.25117175252582363,-0.10593457216463875,0.02325267128837405,-0.1711470298333126,-0.036850397546395186,0.0057740697844366196,-0.05790219702858923,0.0,70.0,255.0,255.0,255.0
60,3.0,-13.661102411811525,-1.464605158845703,-0.2598015288579408,-0.10778598919506166,0.023535808872601205,-0.17404094471090314,-0.03708138151274909,0.005864618095396956,-0.057764435431975625,0.0,70.0,255.0,255.0,255.0
61,3.0500000000000003,-13.666538152809169,-1.4634212699507536,-0.26857584699691395,-0.10964271031591366,0.023839133097913745,-0.17692347337651015,-0.037055889352011206,0.006566206319580381,-0.05745100793536073,0.0,70.0,255.0,255.0,255.0
62,3.1,-13.672066682843116,-1.4622212455359116,-0.2774938761955918,-0.11149157813026278,0.024192429504559243,-0.17978604550443922,-0.03679308479185295,0.007698813731327192,-0.05700911151406696,0.0,70.0,255.0,255.0,255.0
63,3.1500000000000004,-13.677687310622195,-1.4610020270002977,-0.28655445154735787,-0.11332201879509896,0.024609014471046464,-0.18262438452791685,-0.03634997010575347,0.00892395608251828,-0.05652851838466311,0.0,70.0,255.0,255.0,255.0
64,3.2,-13.683398884722626,-1.459760344088807,-0.2957563146483835,-0.11512657514083813,0.02508482511281107,-0.18543889734290553,-0.03579550548558075,0.009897056640362223,-0.05610326883157546,0.0,70.0,255.0,255.0,255.0
65,3.25,-13.689199968136279,-1.4584935444890166,-0.3050983412816484,-0.11690156934365703,0.025598720135082687,-0.1882347114110744,-0.03519765725545909,0.010282745648293456,-0.055826016735749384,0.0,70.0,255.0,255.0,255.0
66,3.3000000000000003,-13.695089041656992,-1.4572004720752987,-0.3145797857894909,-0.11864634086638404,0.026113099677640417,-0.19102149901648047,-0.03460448844538888,0.009915827992434956,-0.05574350146916318,0.0,70.0,255.0,255.0,255.0
67,3.35,-13.701064602222917,-1.4558822345212525,-0.32420049118329647,-0.12036201818819592,0.026590302934326182,-0.19380906155799071,-0.034060517621981035,0.008958344833986942,-0.05581566535139415,0.0,70.0,255.0,255.0,255.0
68,3.4000000000000004,-13.707125243475812,-1.454541441781866,-0.33396069194529,-0.12205239262858214,0.02700893416103911,-0.19660306555161988,-0.03362703489386831,0.0077412625845152405,-0.055959183046777605,0.0,70.0,255.0,255.0,255.0
69,3.45,-13.713269841485776,-1.4531813411051486,-0.34386079773845846,-0.12372472167758275,0.027364429192777706,-0.19940497986266847,-0.03336655487000684,0.006603764260382228,-0.05608472764510597,0.0,70.0,255.0,255.0,255.0
70,3.5,-13.71949771564357,-1.4518049988625883,-0.35390118993155684,-0.12538904811558282,0.027669310587077334,-0.20221153831613048,-0.0333279894658034,0.005876380663449865,-0.05608748830103205,0.0,70.0,255.0,255.0,255.0
71,3.5500000000000003,-13.725808746297334,-1.450414410046441,-0.3640819515700715,-0.1270575206241631,0.027952067259122693,-0.20501372869277168,-0.033527182508485964,0.005736542316547855,-0.055915499008524217,0.0,70.0,255.0,255.0,255.0
72,3.6,-13.732203467705986,-1.449009792136676,-0.374402562800834,-0.12874176636643142,0.02824296481873212,-0.2078030882169829,-0.033921301597139575,0.006098762643658162,-0.055649159481252486,0.0,70.0,255.0,255.0,255.0
73,3.6500000000000004,-13.738682922933977,-1.4475901135645677,-0.3848622603917698,-0.13044965078387705,0.02856194352348851,-0.21057864464089693,-0.03442375512072715,0.0067608770292881815,-0.05543297786645418,0.0,70.0,255.0,255.0,255.0
74,3.7,-13.745248432784374,-1.4461535977843272,-0.3954604272649237,-0.13218414187850414,0.028919052521660937,-0.21334638600362832,-0.03493258738700433,0.007520800071114664,-0.055404906835110346,0.0,70.0,255.0,255.0,255.0
75,3.75,-13.751901337121827,-1.4446982083124016,-0.4061968989921326,-0.13394290952257748,0.029314023530599975,-0.21611913532440796,-0.03535033826054246,0.008183759670066237,-0.05571997411605856,0.0,70.0,255.0,255.0,255.0
76,3.8000000000000003,-13.758642723736632,-1.4432221954312672,-0.4170723407973645,-0.13571917570455838,0.02973742848866756,-0.21891838341523417,-0.03562058105597288,0.008632454955637137,-0.056441588743799675,0.0,70.0,255.0,255.0,255.0
77,3.85,-13.765473254692283,-1.4417244654635348,-0.42808873733365604,-0.13750496762817477,0.03017726902616369,-0.22176329419878793,-0.03573791235300661,0.008851173355894915,-0.05738592516183472,0.0,70.0,255.0,255.0,255.0
78,3.9000000000000004,-13.772393220499449,-1.4402044685286508,-0.4392486702172433,-0.13929296693985904,0.030622545824257053,-0.22465697593141765,-0.03571346909794215,0.008848982212139589,-0.05822983788842384,0.0,70.0,255.0,255.0,255.0
79,3.95,-13.77940255138627,-1.4386622108811091,-0.4505544349267978,-0.14107631453796898,0.031062167247377648,-0.22758627798763031,-0.03556360840182293,0.008627347809575525,-0.058656297695092174,0.0,70.0,255.0,255.0,255.0
80,4.0,-13.786500851953246,-1.437098251803913,-0.4620072980160063,-0.14284932778004134,0.031485280605214605,-0.23052260570092686,-0.03531466681714335,0.00818056200844186,-0.058344689826722584,0.0,70.0,255.0,255.0,255.0
81,4.05,-13.793687484164273,-1.4355136828205877,-0.4736066954968905,-0.14460778121968332,0.031880223448221834,-0.23342074697030257,-0.034989467627966064,0.00752589893311395,-0.05715674741484933,0.0,70.0,255.0,255.0,255.0
82,4.1000000000000005,-13.800961630075214,-1.4339102294590909,-0.4853493727130366,-0.14634827454283794,0.032237870498526,-0.2362382804424118,-0.034607888151150235,0.006777383093425904,-0.05537515851947172,0.0,70.0,255.0,255.0,255.0
83,4.15,-13.808322311618557,-1.432289895770735,-0.4972305235411317,-0.14806857003479834,0.032557961757564424,-0.23895826282224975,-0.034203207648353384,0.006124033282950414,-0.05352216941442167,0.0,70.0,255.0,255.0,255.0
84,4.2,-13.815768487078694,-1.4306544332833344,-0.5092451989952615,-0.14976859530767328,0.03285027382682104,-0.24159049738385396,-0.03381866665073119,0.0057620697629712225,-0.05212822406280848,0.0,70.0,255.0,255.0,255.0
85,4.25,-13.823299171149324,-1.429004868388053,-0.5213895732795171,-0.15145043669987146,0.033134168733861546,-0.2441710852285306,-0.03348703176637713,0.005885973648278586,-0.05172121995696277,0.0,70.0,255.0,255.0,255.0
86,4.3,-13.830913530748681,-1.4273410164099483,-0.5336623075181146,-0.153117298484311,0.0334388711916489,-0.24676261937955024,-0.033228261719742136,0.006578261666301266,-0.052552307377706775,0.0,70.0,255.0,255.0,255.0
87,4.3500000000000005,-13.838610900997756,-1.425660981268888,-0.5460658352174721,-0.15477326287184567,0.03379199490049167,-0.24942631596630127,-0.03306783108083522,0.007673047183942572,-0.05429908178593568,0.0,70.0,255.0,255.0,255.0
88,4.4,-13.846390857035866,-1.423961816919899,-0.5586049391147447,-0.15642408159239451,0.03420617591004316,-0.2521925275581438,-0.033036404270525566,0.008859453420417829,-0.05633416510655298,0.0,70.0,255.0,255.0,255.0
89,4.45,-13.854253309156995,-1.4222403636778838,-0.5712850879732865,-0.15807690329889823,0.034677940242533456,-0.25505973247695657,-0.03315501170551016,0.009818825353180571,-0.05801868484149875,0.0,70.0,255.0,255.0,255.0
90,4.5,-13.862198547365756,-1.4204940228956457,-0.5841109123624404,-0.15973958276294553,0.035188058445361214,-0.2579943960422937,-0.03344116882164627,0.010247571370469721,-0.05871448628951281,0.0,70.0,255.0,255.0,255.0
91,4.55,-13.87022726743329,-1.4187215578333476,-0.5970845275775158,-0.16142102018106286,0.03570269737958043,-0.26093118110590785,-0.033891797849427974,0.009993968154509147,-0.058100876221223174,0.0,70.0,255.0,255.0,255.0
92,4.6000000000000005,-13.878340649383862,-1.4169237531576877,-0.6102040304730312,-0.16312876254788833,0.03618745526081213,-0.263804483664416,-0.034439948365339035,0.00918031162080446,-0.05648473811299404,0.0,70.0,255.0,255.0,255.0
93,4.65,-13.886540143688078,-1.4151028123072664,-0.6234649759439574,-0.16486501501759676,0.036620728541660874,-0.26657965491720725,-0.03497033610884159,0.008069108746266984,-0.05448494638318202,0.0,70.0,255.0,255.0,255.0
94,4.7,-13.894827150885622,-1.4132616803035216,-0.6368619959647519,-0.1666257961587725,0.03699436613543883,-0.2692529783027342,-0.035362312166320464,0.0069354027171897314,-0.052723470137594486,0.0,70.0,255.0,255.0,255.0
95,4.75,-13.903202723303956,-1.4114033756937225,-0.6503902737742309,-0.1684012462342288,0.03731426881337985,-0.2718520019309667,-0.035504283622600497,0.006047750193927115,-0.05182475096883188,0.0,70.0,255.0,255.0,255.0
96,4.800000000000001,-13.911667275509044,-1.4095302534221836,-0.6640471961578486,-0.17017622452103254,0.03759914115483154,-0.2744354533996174,-0.03534403406462161,0.005558126787708062,-0.05211010848341635,0.0,70.0,255.0,255.0,255.0
97,4.8500000000000005,-13.920220345756059,-1.4076434615782394,-0.6778338191141926,-0.17193564964069097,0.03787008149215065,-0.27706301277930834,-0.03493685098199251,0.005438433605742254,-0.05330751354762908,0.0,70.0,255.0,255.0,255.0
98,4.9,-13.928860840473114,-1.4057432452729686,-0.6917534974357794,-0.1736699096192318,0.038142984515405765,-0.2797662047543803,-0.034398614929465055,0.005593062643538538,-0.054861340735989916,0.0,70.0,255.0,255.0,255.0
99,4.95,-13.937587336717982,-1.4038291631266988,-0.7058104395896306,-0.17537551113363747,0.03842938775650451,-0.28254914685290733,-0.03385522680865449,0.005925251423533062,-0.05622048822123693,0.0,70.0,255.0,255.0,255.0
100,5.0,-13.946398391586477,-1.4019003064973181,-0.7200084121210701,-0.17705543230009724,0.03873550965775907,-0.285388253576504,-0.03342971533584205,0.006325437177845394,-0.056826603075177395,0.0,70.0,255.0,255.0,255.0
101,5.050000000000001,-13.955292879947992,-1.399955612160923,-0.734349264947281,-0.17871848266722168,0.03906193147428905,-0.28823180716042507,-0.03319155307384136,0.006721776443097127,-0.056392769099200546,0.0,70.0,255.0,255.0,255.0
102,5.1000000000000005,-13.9642702398532,-1.3979941133498892,-0.7488315928371126,-0.18037458760748137,0.03940768730206878,-0.29102753048642405,-0.033129011342758474,0.007106047196425713,-0.055176955948266215,0.0,70.0,255.0,255.0,255.0
103,5.15,-13.97333033870874,-1.396014843430716,-0.7634520179959234,-0.18203138380149753,0.03977253619393162,-0.2937495027552517,-0.03319967969552806,0.007476029956676733,-0.0536971032602529,0.0,70.0,255.0,255.0,255.0
104,5.2,-13.98247337823335,-1.394016859730496,-0.7782065431126378,-0.18369455557703418,0.04015529029773646,-0.29639724081244934,-0.03336298106528801,0.007811703476612308,-0.052461523364433216,0.0,70.0,255.0,255.0,255.0
105,5.25,-13.991699794266443,-1.3919993144009424,-0.7930917420771684,-0.18536768190802633,0.04055370654159285,-0.298995655091695,-0.03358487368227969,0.008102435826784493,-0.05198473416634375,0.0,70.0,255.0,255.0,255.0
106,5.300000000000001,-14.001010146424152,-1.3899614890763368,-0.8081061086218073,-0.18705304294526215,0.040965533880414906,-0.3015957142290837,-0.03383697974772559,0.0083413408665578,-0.052525248686252635,0.0,70.0,255.0,255.0,255.0
107,5.3500000000000005,-14.01040509856097,-1.3879027610129009,-0.8232513135000767,-0.1887513798827989,0.04138784062824863,-0.3042481799603203,-0.03406803604733,0.008500081571294338,-0.05381384680845924,0.0,70.0,255.0,255.0,255.0
108,5.4,-14.019885284412432,-1.385822705013512,-0.8385309266178393,-0.19045984654999515,0.04181554203754434,-0.30697709890992964,-0.03420089472587762,0.008540113567012675,-0.055321062073765415,0.0,70.0,255.0,255.0,255.0
109,5.45,-14.02945108321597,-1.3837212068091465,-0.8539490233910697,-0.19217146935538665,0.042241851984949896,-0.3097802861676968,-0.034153361750988154,0.008434647956767627,-0.05652698475464568,0.0,70.0,255.0,255.0,255.0
110,5.5,-14.03910243134797,-1.381598519815017,-0.869508955234609,-0.19387518272509396,0.0426590068332211,-0.3126297973853942,-0.03383078993461908,0.008160856811012529,-0.056918562823549124,0.0,70.0,255.0,255.0,255.0
111,5.550000000000001,-14.048838601488479,-1.3794553061258243,-0.8852120031296091,-0.19555454834884856,0.04305793766605115,-0.31547214245005173,-0.0332000151162859,0.007718547736135228,-0.05623928976891124,0.0,70.0,255.0,255.0,255.0
112,5.6000000000000005,-14.058657886182855,-1.3772927260484118,-0.9010561694796142,-0.19719518423672255,0.043430861606834625,-0.3182537263622853,-0.032400616029626406,0.007174465679282704,-0.05474024423050006,0.0,70.0,255.0,255.0,255.0
113,5.65,-14.06855811991215,-1.3751122199651409,-0.9170373757658377,-0.1987946099518112,0.04377538423397942,-0.32094616687310173,-0.03167580899869904,0.006644354936291563,-0.052926900192828974,0.0,70.0,255.0,255.0,255.0
114,5.7,-14.078537347178036,-1.3729151876250139,-0.9331507861669244,-0.20036276513659246,0.04409529710046378,-0.3235464163815682,-0.031269632538410974,0.0062486790554538985,-0.05130317164955267,0.0,70.0,255.0,255.0,255.0
115,5.75,-14.08859439642581,-1.3707026902550945,-0.9493920174039945,-0.2019215732056523,0.04440025213952481,-0.326076484038057,-0.03143191996013428,0.0060981462530529384,-0.05035294927140388,0.0,70.0,255.0,255.0,255.0
116,5.800000000000001,-14.098729504498602,-1.3684751624110614,-0.9657584345707301,-0.20350595713260589,0.044705111725769076,-0.3285817113087086,-0.032270558855351794,0.006244981009118078,-0.050330739091397625,0.0,70.0,255.0,255.0,255.0
117,5.8500000000000005,-14.10894499213907,-1.3662321790825176,-0.9822501885348653,-0.20514862909118747,0.04502475024043662,-0.33110955794719676,-0.033563252746304784,0.006637580187329739,-0.051091656456048185,0.0,70.0,255.0,255.0,255.0
118,5.9,-14.11924436740772,-1.3639726873870177,-0.9988693903654497,-0.20686228240723636,0.04536886974450205,-0.33369087695431343,-0.034900438042662074,0.007166103051647887,-0.05230485696831044,0.0,70.0,255.0,255.0,255.0
119,5.95,-14.129631220379794,-1.3616952921080674,-1.0156192762302967,-0.20863867289545368,0.045741360545601406,-0.3363400436440278,-0.03586927359755521,0.007711148641753596,-0.05363375522056124,0.0,70.0,255.0,255.0,255.0
120,6.0,-14.140108234697266,-1.3593985513324576,-1.0325033947298525,-0.21044920976699188,0.04613998460867741,-0.33905425247636956,-0.0360655861701531,0.008158539528713149,-0.0547536494148293,0.0,70.0,255.0,255.0,255.0
121,6.050000000000001,-14.150676141356493,-1.3570812936471996,-1.0495247014779336,-0.212245231512469,0.04655721449847272,-0.34181540858551074,-0.03529686368111129,0.008442041047818094,-0.055472718900451135,0.0,70.0,255.0,255.0,255.0
122,6.1000000000000005,-14.161332757848513,-1.3547428298826103,-1.0666849355884036,-0.213978896135103,0.04698418871345922,-0.34460152436641467,-0.033798027993725555,0.008558849935114132,-0.055781335073579186,0.0,70.0,255.0,255.0,255.0
123,6.15,-14.172074030970004,-1.3523828747758537,-1.083984853914575,-0.21562503431184155,0.047413099491984134,-0.34739354209286866,-0.03203246214180666,0.008526757332871782,-0.05572294932325583,0.0,70.0,255.0,255.0,255.0
124,6.2,-14.182895261279697,-1.3500015199334119,-1.1014242897976905,-0.21718214234928368,0.0478368644467464,-0.35017381929874025,-0.030472107571810625,0.008367239197926146,-0.05533663264307709,0.0,70.0,255.0,255.0,255.0
125,6.25,-14.193792245204932,-1.347599188331179,-1.1190022358444491,-0.2186722450690226,0.04824982341177675,-0.35292720535717637,-0.029569698062203997,0.008111704956070831,-0.0546684437451983,0.0,70.0,255.0,255.0,255.0
126,6.300000000000001,-14.204762485786599,-1.3451765375922342,-1.136717010333408,-0.22013911215550408,0.04864803494235348,-0.3556406636732601,-0.029561846559467142,0.00778582915854642,-0.053769620737886825,0.0,70.0,255.0,255.0,255.0
127,6.3500000000000005,-14.215806156420483,-1.3427343848369437,-1.1545663022117751,-0.22162842972496932,0.04902840632763139,-0.35830416743096505,-0.03031111546540899,0.007407859233032887,-0.05274468157139278,0.0,70.0,255.0,255.0,255.0
128,6.4,-14.226925328759096,-1.340273696959471,-1.1725474270765046,-0.22317022370204498,0.04938882086565677,-0.36091513183039936,-0.03150323320415538,0.0070077067778173685,-0.05176502406050165,0.0,70.0,255.0,255.0,255.0
129,6.45,-14.238123178790687,-1.337795502750378,-1.190657815394815,-0.22477875304538486,0.04972917700541313,-0.3634806698370152,-0.032815722688539495,0.006625582212094194,-0.051024376211694644,0.0,70.0,255.0,255.0,255.0
130,6.5,-14.249403204063634,-1.3353007792589298,-1.2088954940602061,-0.22645179597089893,0.05005137908686619,-0.3660175694515688,-0.03393963090623231,0.006290677943110445,-0.05071262222440254,0.0,70.0,255.0,255.0,255.0
131,6.550000000000001,-14.260768358387777,-1.3327903648416914,-1.227259572339972,-0.2281727161360081,0.05035824479972417,-0.36855193205945547,-0.034690715115459625,0.0060213556047683525,-0.05091602425535413,0.0,70.0,255.0,255.0,255.0
132,6.6000000000000005,-14.272220475677235,-1.3302649547789573,-1.2457506872661517,-0.2299208674824449,0.05065351464734302,-0.37110917187710424,-0.0350457152714867,0.005847009169923645,-0.051512759153538035,0.0,70.0,255.0,255.0,255.0
133,6.65,-14.283760445136021,-1.3277250133769571,-1.2643704895276824,-0.23167728766315676,0.05094294571671654,-0.37370320797480927,-0.03502388243106225,0.005805119518531576,-0.05226329476109015,0.0,70.0,255.0,255.0,255.0
134,6.7,-14.295388204443551,-1.3251706602072857,-1.2831210080636326,-0.23342325572555112,0.05123402659919618,-0.37633550135321325,-0.034639826849414135,0.005923718666900335,-0.05291308861743449,0.0,70.0,255.0,255.0,255.0
135,6.75,-14.307102770708577,-1.3226016107170375,-1.3020040396630037,-0.23514127034809817,0.05153531758340657,-0.3789945168365527,-0.033907768990459886,0.006229545975555695,-0.05320106735695607,0.0,70.0,255.0,255.0,255.0
136,6.800000000000001,-14.31890233147836,-1.320017128448945,-1.3210204597472879,-0.2368140326245971,0.05185698119675175,-0.38165560808890886,-0.03286652841101301,0.006723060776936407,-0.05299350834802041,0.0,70.0,255.0,255.0,255.0
137,6.8500000000000005,-14.330784173971036,-1.3174159125973623,-1.3401696004718946,-0.23842792318919948,0.05220762366110021,-0.38429386767135476,-0.03166770176861178,0.00732326492636215,-0.0524106221409415,0.0,70.0,255.0,255.0,255.0
138,6.9,-14.34274512379728,-1.314796366082835,-1.3594498465144234,-0.23998080280145828,0.052589307689387965,-0.386896670303003,-0.030562915392273737,0.007890975986923898,-0.05169461740790471,0.0,70.0,255.0,255.0,255.0
139,6.95,-14.354782254251182,-1.3121569818284236,-1.378859267502195,-0.24148421472842685,0.0529967212597926,-0.38946332941214523,-0.029822918631694506,0.008280568761342977,-0.05108364227903728,0.0,70.0,255.0,255.0,255.0
140,7.0,-14.366893545270123,-1.3094966939568558,-1.3983961794556379,-0.24296309466462773,0.05341736456552226,-0.39200503453090674,-0.029717311779364763,0.008347128830776818,-0.0508150430796217,0.0,70.0,255.0,255.0,255.0
141,7.050000000000001,-14.379078563717645,-1.3068152453718713,-1.4180597709552856,-0.24445594590636333,0.05383143414287028,-0.3945448337201074,-0.030364196883958527,0.00802588846697816,-0.05100980249237441,0.0,70.0,255.0,255.0,255.0
142,7.1000000000000005,-14.39133913986076,-1.3041135505425687,-1.4378506628276486,-0.24599951435302359,0.05421995341222008,-0.3971060147801442,-0.031554526606214495,0.0074244066490924965,-0.05155934435729925,0.0,70.0,255.0,255.0,255.0
143,7.15,-14.403678515152947,-1.3013932500306493,-1.4577703724333,-0.24761139856698478,0.05457387480777953,-0.3997007681558373,-0.03289172872431578,0.006747340169988014,-0.05224364353266786,0.0,70.0,255.0,255.0,255.0
144,7.2,-14.416100279717458,-1.2986561630617908,-1.4778207396432324,-0.24928868722545516,0.05489468742921888,-0.40233037913341096,-0.033962950836574635,0.006206780180639804,-0.05284576883997083,0.0,70.0,255.0,255.0,255.0
145,7.25,-14.428607383875493,-1.2959037812877274,-1.498003410346641,-0.25100769365064224,0.05519455282584351,-0.4049853450398344,-0.034351002540944364,0.006017929377533093,-0.05315479762051378,0.0,70.0,255.0,255.0,255.0
146,7.300000000000001,-14.441201049082522,-1.2931367077792064,-1.5183192741472158,-0.2527237874795496,0.05549648036697219,-0.40764585889546234,-0.03385011062739807,0.006286672068278598,-0.05306070825572551,0.0,70.0,255.0,255.0,255.0
147,7.3500000000000005,-14.453879762623448,-1.2903541332510302,-1.5387679962361873,-0.25439270471338205,0.05582322003267137,-0.41029141586540696,-0.032685007658095344,0.006893700551735549,-0.052637408355282744,0.0,70.0,255.0,255.0,255.0
148,7.4,-14.46664031955386,-1.2875543857759393,-1.5593484157337565,-0.25599228824535913,0.056185850422145744,-0.4129095997309906,-0.031299353859282064,0.0076050712586095415,-0.05204540053622697,0.0,70.0,255.0,255.0,255.0
149,7.45,-14.479478991447984,-1.2847355482088156,-1.5800589562092864,-0.25752264009931025,0.056583727158532326,-0.41549595591902966,-0.03013842487380458,0.008185737089627665,-0.05144656907449807,0.0,70.0,255.0,255.0,255.0
150,7.5,-14.492392583563792,-1.281896013060086,-1.6008980113256595,-0.2590061307327396,0.05700442413110851,-0.4180542566384404,-0.029646603465849353,0.00839719095515612,-0.051001757114121915,0.0,70.0,255.0,255.0,255.0
151,7.550000000000001,-14.505379604521258,-1.2790351057957048,-1.6218643818731304,-0.2604873004458952,0.05742344625404794,-0.42059613163044185,-0.030048507460200824,0.008120849833326282,-0.05080013837743813,0.0,70.0,255.0,255.0,255.0
152,7.6000000000000005,-14.518441313608381,-1.2761536684346813,-1.6429576244887036,-0.2620109814787597,0.05781650911444114,-0.42313427047618424,-0.03113462690986779,0.0074861990692287605,-0.050807385858187004,0.0,70.0,255.0,255.0,255.0
153,7.65,-14.531580702669133,-1.2732534548842607,-1.6641778089207488,-0.26360076313688197,0.058172066160970815,-0.42567687021626055,-0.03248167168923288,0.006746966870063709,-0.050939229846935774,0.0,70.0,255.0,255.0,255.0
154,7.7,-14.54480138992207,-1.2703364618185842,-1.6855253115103297,-0.26525914864768296,0.05849120580144751,-0.4282281934608778,-0.03367020281537236,0.006156844887605928,-0.051114155328013666,0.0,70.0,255.0,255.0,255.0
155,7.75,-14.558106617533902,-1.267404334304116,-1.7070006282668366,-0.2669677834184192,0.05878775064973141,-0.4307882857490619,-0.03429465818776123,0.005977269505974547,-0.05124619257081964,0.0,70.0,255.0,255.0,255.0
156,7.800000000000001,-14.571498168263911,-1.264457686753611,-1.7286041400852359,-0.2686886144664591,0.059088932752044965,-0.4333528127179598,-0.03414271267860869,0.006336502024861801,-0.05128596434180732,0.0,70.0,255.0,255.0,255.0
157,7.8500000000000005,-14.584975478980548,-1.2614954410289114,-1.7503359095386326,-0.27038205468628007,0.05942140085221759,-0.43591688218324265,-0.03334730055399859,0.0070760952457282755,-0.05125398061323061,0.0,70.0,255.0,255.0,255.0
158,7.9,-14.59853637373254,-1.2585155466683893,-1.7721958283035602,-0.27202334452185895,0.05979654227661779,-0.43847821077928284,-0.03220314353225007,0.007892469186554507,-0.0511959085142788,0.0,70.0,255.0,255.0,255.0
159,7.95,-14.612177813432734,-1.2555157868012496,-1.794183730616561,-0.2736023690395051,0.06021064777087304,-0.44103647303467053,-0.031007337290844816,0.008487023220293821,-0.051150609147043724,0.0,70.0,255.0,255.0,255.0
160,8.0,-14.62589661063649,-1.252494481891302,-1.8162994756070272,-0.2751240782509434,0.060645244598647174,-0.4435932716939872,-0.030046745135869912,0.00856179628911935,-0.051161444630554165,0.0,70.0,255.0,255.0,255.0
161,8.05,-14.639690221257828,-1.249451262341385,-1.8385430577859596,-0.27660704355309207,0.06106682739978497,-0.44615261749772595,-0.029486189610317126,0.007972769106756594,-0.05124929096858022,0.0,70.0,255.0,255.0,255.0
162,8.1,-14.653557314991799,-1.2463877991513235,-1.8609147373567998,-0.27807269721197514,0.061442521509322834,-0.44871820079084523,-0.029308898147029083,0.006896599434891293,-0.05137669168888692,0.0,70.0,255.0,255.0,255.0
163,8.15,-14.667497490979025,-1.2433070101904526,-1.8834148778650441,-0.279537933367795,0.0617564873432741,-0.45129028666661464,-0.029434705231423663,0.005676816057387235,-0.05147713609601201,0.0,70.0,255.0,255.0,255.0
164,8.200000000000001,-14.681511108328579,-1.240212150416996,-1.9060437660234613,-0.2810161677351175,0.06201020311506156,-0.45386591440044644,-0.02978613566639865,0.004654409550730598,-0.051490121370534325,0.0,70.0,255.0,255.0,255.0
165,8.25,-14.695599107752537,-1.2371059898789465,-1.9288014693050888,-0.28251654693443484,0.06222192829834716,-0.45643929880366807,-0.030282370592260577,0.004151489393389163,-0.05136005687904621,0.0,70.0,255.0,255.0,255.0
166,8.3,-14.709762763022022,-1.2339899575871613,-1.951687695903828,-0.28404440479434356,0.062425352054400474,-0.45900192008835106,-0.03086078062874975,0.004332794508310478,-0.05106307225002382,0.0,70.0,255.0,255.0,255.0
167,8.35,-14.724003548231972,-1.2308634546735064,-1.9747016613139239,-0.2856026249973098,0.06265520774917821,-0.46154560602867045,-0.031457200099360705,0.005087623564903332,-0.05064102419287675,0.0,70.0,255.0,255.0,255.0
168,8.4,-14.738323025521753,-1.2277244368122435,-1.9978422565066951,-0.28719012480427963,0.0629341144108908,-0.46406602250763873,-0.031975424819918885,0.006169310873027634,-0.05017461470084861,0.0,70.0,255.0,255.0,255.0
169,8.450000000000001,-14.7527225607124,-1.2245700432324174,-2.0211082635646878,-0.2888001674793017,0.06327213883648097,-0.4665630674987553,-0.032302945216500234,0.007322564684075772,-0.04974839255063035,0.0,70.0,255.0,255.0,255.0
170,8.5,-14.767203042269683,-1.2213972229285954,-2.0444985632565706,-0.29042041932592966,0.06366637087929838,-0.46904086176270177,-0.0323277351983009,0.00830823681332582,-0.04944233717727453,0.0,70.0,255.0,255.0,255.0
171,8.55,-14.781764602644992,-1.2182034061444875,-2.068012349740958,-0.2920329409991318,0.06410296251781356,-0.47150730121648277,-0.03200346176939206,0.008983791787731121,-0.049298420031007595,0.0,70.0,255.0,255.0,255.0
172,8.6,-14.796406336369596,-1.214986926676814,-2.091649293378219,-0.29362076550286886,0.0645647500580715,-0.4739707037658025,-0.0314267769798704,0.009320179032767939,-0.04929650757681259,0.0,70.0,255.0,255.0,255.0
173,8.65,-14.81112667919528,-1.2117469311386804,-2.115409420117538,-0.29517561869711884,0.06503498042109035,-0.476436951974164,-0.03077995912335041,0.009316989401431108,-0.04938710906334798,0.0,70.0,255.0,255.0,255.0
174,8.700000000000001,-14.825923898239308,-1.208483428634705,-2.1392929885756353,-0.2966987614152039,0.06549644899821461,-0.4789094146721373,-0.030254857360922927,0.00897635735392921,-0.04951630842708887,0.0,70.0,255.0,255.0,255.0
175,8.75,-14.8407965553368,-1.205197286238859,-2.163300361584752,-0.29820110443321113,0.06593261615648327,-0.4813885828168729,-0.03004267929149762,0.008303582001545351,-0.049626585087914066,0.0,70.0,255.0,255.0,255.0
176,8.8,-14.85574400868263,-1.2018901670190567,-2.1874318468573226,-0.29970302934435367,0.06632680719836914,-0.48387207318092873,-0.03023865900679823,0.00732998705883503,-0.049683760446228575,0.0,70.0,255.0,255.0,255.0
177,8.85,-14.870766858271235,-1.198564605519022,-2.211687568902845,-0.30122497033389095,0.06666561486236677,-0.48635695886149577,-0.030750284054725796,0.006193338625481992,-0.04969387790061397,0.0,70.0,255.0,255.0,255.0
178,8.9,-14.885866505716018,-1.19522360553282,-2.236067542743472,-0.30277805774982625,0.06694614106091734,-0.4888414609709901,-0.03139014661250883,0.005124409842793831,-0.049675177484154176,0.0,70.0,255.0,255.0,255.0
179,8.950000000000001,-14.901044664046218,-1.1918699914129303,-2.260571714999944,-0.30436398499514183,0.06717805584664616,-0.4913244766099112,-0.0319710519143257,0.00436995461821077,-0.04964017327515613,0.0,70.0,255.0,255.0,255.0
180,9.0,-14.916302904215533,-1.1885057999481554,-2.2851999904044633,-0.3059751629412588,0.06738313652273842,-0.49380547829850574,-0.03231758493065229,0.004165453828663956,-0.049599294498969826,0.0,70.0,255.0,255.0,255.0
181,9.05,-14.931642180340344,-1.1851316777606564,-2.3099522628297944,-0.30759574348820706,0.06759460122951255,-0.49628440605980817,-0.032335328775623395,0.004617285618091493,-0.04955982489707189,0.0,70.0,255.0,255.0,255.0
182,9.1,-14.947062478564353,-1.1817463398252042,-2.334828431010444,-0.30920869581882116,0.06784486508454757,-0.49876146078821293,-0.03205749472616759,0.005577515416299583,-0.0495279808207183,0.0,70.0,255.0,255.0,255.0
183,9.15,-14.962563049922226,-1.1783471912522017,-2.3598284089086157,-0.3108014929608238,0.06815235277114251,-0.50123720414188,-0.03157404650355744,0.006752643954555104,-0.049512181000332944,0.0,70.0,255.0,255.0,255.0
184,9.200000000000001,-14.978142627860436,-1.17493110454809,-2.384952151424632,-0.3123661004691769,0.06852012948000308,-0.5037126788882462,-0.03098093498312693,0.007831563100890726,-0.049522998472584234,0.0,70.0,255.0,255.0,255.0
185,9.25,-14.993799659969143,-1.1714951783042014,-2.4101996767974403,-0.3138995864591365,0.06893550908123158,-0.5061895039891384,-0.03037499963269852,0.008510593359867258,-0.04957623691592694,0.0,70.0,255.0,255.0,255.0
186,9.3,-15.00953258650635,-1.1680375536399668,-2.435571101823546,-0.31540360043244675,0.0693711888159898,-0.5086703025798389,-0.029819000249098337,0.008628096576135391,-0.04967693996507094,0.0,70.0,255.0,255.0,255.0
187,9.35,-15.025340020012388,-1.1645580594226024,-2.461066707055424,-0.31688148648404635,0.06979831873884512,-0.5111571979856455,-0.02933787223806661,0.008265643998228711,-0.04979419881627756,0.0,70.0,255.0,255.0,255.0
188,9.4,-15.041220735154754,-1.1610577217660822,-2.4866868216221105,-0.3183373876562534,0.07019775321581267,-0.5136497224614667,-0.028957210498248287,0.0076151308888716684,-0.04987609851481167,0.0,70.0,255.0,255.0,255.0
189,9.450000000000001,-15.057173758778013,-1.157538284101021,-2.512431679301571,-0.3197772075338712,0.07055983182773229,-0.5161448078371267,-0.028704182512306886,0.0068708792254179585,-0.04987454612197517,0.0,70.0,255.0,255.0,255.0
190,9.5,-15.073198455908141,-1.154001738583309,-2.538301302405823,-0.3212078059074841,0.07088484113835447,-0.5186371770736642,-0.02858241653687088,0.006220144760082924,-0.049747785808929024,0.0,70.0,255.0,255.0,255.0
191,9.55,-15.089294539368762,-1.1504497999871857,-2.5642953970089373,-0.32263544918755827,0.07118184630374058,-0.5211195864180196,-0.02858969586903015,0.005775875862878976,-0.049478615708187235,0.0,70.0,255.0,255.0,255.0
192,9.600000000000001,-15.105462000826897,-1.146883553952935,-2.590413261047625,-0.3240667754943871,0.07146242872464237,-0.5235850386444829,-0.02874747319854265,0.005555339826202044,-0.049096995476149985,0.0,70.0,255.0,255.0,255.0
193,9.65,-15.1217012169182,-1.1433035571147214,-2.6166539008733856,-0.32551019650741253,0.07173738028636079,-0.5260292859656346,-0.029078976306884385,0.0055530795761926655,-0.04866249253998589,0.0,70.0,255.0,255.0,255.0
194,9.700000000000001,-15.138013020477638,-1.1397098159242989,-2.6430161896441886,-0.32697467312507555,0.07201773668226163,-0.5284512878984815,-0.02958993403510135,0.005770607643107439,-0.048238304219427874,0.0,70.0,255.0,255.0,255.0
195,9.75,-15.154398684230708,-1.1361017834464953,-2.6694990296632337,-0.32846918991092267,0.07231444105067153,-0.5308531163875774,-0.030303259626407453,0.006216846247775187,-0.04787662917173918,0.0,70.0,255.0,255.0,255.0
196,9.8,-15.17085993946873,-1.1324783718192317,-2.6961015012829463,-0.3300049990877163,0.07263942130703915,-0.5332389508156554,-0.031209815342059244,0.006876138899913897,-0.04760859720156496,0.0,70.0,255.0,255.0,255.0
197,9.850000000000001,-15.18739918413948,-1.1288378413157913,-2.7228229247447993,-0.3315901714451286,0.07300205494066292,-0.5356139761077339,-0.032154099770309585,0.007632157536141548,-0.047455115316763496,0.0,70.0,255.0,255.0,255.0
198,9.9,-15.204018956613243,-1.1251781663251654,-2.7496628988937197,-0.33322040906474726,0.07340263706065331,-0.5379844623473318,-0.03288334115154612,0.008291711645647126,-0.047436635288455875,0.0,70.0,255.0,255.0,255.0
199,9.950000000000001,-15.220721225045954,-1.121497577609726,-2.7766213709795324,-0.3348785055602832,0.07383122610522763,-0.5403576396365795,-0.03315053355983366,0.008654429130006136,-0.04756552371389944,0.0,70.0,255.0,255.0,255.0
200,10.0,-15.237506807169272,-1.1177950437146427,-2.8036986628573777,-0.3365354624207306,0.07426807997365392,-0.5427410147187217,-0.032708600901720786,0.008520488896812672,-0.04784966020769943,0.0,70.0,255.0,255.0,255.0
201,10.05,-15.254374771288028,-1.1140707696123606,-2.8308954724514046,-0.3381493656504553,0.0746832749949089,-0.5451426056573494,-0.03146241805556116,0.007805256183046616,-0.04828130783938178,0.0,70.0,255.0,255.0,255.0
202,10.100000000000001,-15.271321743734317,-1.1103267162151518,-2.8582129234231126,-0.33968170422628674,0.07504860559195858,-0.5475691455026599,-0.029683213966258393,0.006682277115488411,-0.04880170409617968,0.0,70.0,255.0,255.0,255.0
203,10.15,-15.288342941710656,-1.1065659090531648,-2.8856523870016706,-0.3411176870470811,0.07535150270645774,-0.5500227760669674,-0.027863929483018524,0.005475505076724119,-0.04931012714575189,0.0,70.0,255.0,255.0,255.0
204,10.200000000000001,-15.305433512439025,-1.102791565944506,-2.9132152010298094,-0.3424680971745886,0.075596156099631,-0.5525001582172351,-0.02651245387035317,0.004517223622535482,-0.04970062656579621,0.0,70.0,255.0,255.0,255.0
205,10.25,-15.322589751428115,-1.0990062934432017,-2.940902402823394,-0.34376893243411644,0.07580322506871129,-0.554992838723547,-0.026134318118131716,0.004129170192923581,-0.049880720672978995,0.0,70.0,255.0,255.0,255.0
206,10.3,-15.339810405682437,-1.0952112434376349,-2.968714484902164,-0.34508152898640176,0.07600907311892335,-0.557488230284533,-0.026968111503400394,0.004469922614758204,-0.04980565862058306,0.0,70.0,255.0,255.0,255.0
207,10.350000000000001,-15.357097904326755,-1.0914053861313093,-2.9966512258518474,-0.3464657435844565,0.07625021733018711,-0.5599734045856053,-0.028698685390615708,0.005388850551879543,-0.04950254382354302,0.0,70.0,255.0,255.0,255.0
208,10.4,-15.374456980040883,-1.0875862217046162,-3.0247118253607246,-0.34795139752546334,0.07654795817411131,-0.5624384846668873,-0.0307136215679904,0.0065753123365652755,-0.049039219764868136,0.0,70.0,255.0,255.0,255.0
209,10.450000000000001,-15.391893044079302,-1.0837505903138982,-3.052895074318536,-0.3495371057412555,0.07690774856384364,-0.5648773265620921,-0.03238752974734638,0.007710615773981466,-0.04849817048846461,0.0,70.0,255.0,255.0,255.0
210,10.5,-15.409410690615008,-1.0798954468482318,-3.081199558016934,-0.351190150500198,0.07731901975150945,-0.5672883017157337,-0.033098182570512336,0.00849084897969199,-0.04796750372051406,0.0,70.0,255.0,255.0,255.0
211,10.55,-15.427012059129321,-1.0760186883387473,-3.1096239044901095,-0.35284692399830675,0.07775683346181284,-0.5696740769341435,-0.03253198907771093,0.00874899275180585,-0.04750174532439644,0.0,70.0,255.0,255.0,255.0
212,10.600000000000001,-15.444695383014839,-1.0721197635020505,-3.138166965710348,-0.35444334940796907,0.07819391902669004,-0.5720384762481734,-0.030978268248205154,0.008531364965769228,-0.047106255807527475,0.0,70.0,255.0,255.0,255.0
213,10.65,-15.462456394070118,-1.0681992964360782,-3.166827752114927,-0.35594475082312726,0.07860996995838976,-0.5743847025148963,-0.02902536046818227,0.00797336212696731,-0.046776536918402556,0.0,70.0,255.0,255.0,255.0
214,10.700000000000001,-15.480289858097152,-1.0642587665062115,-3.1956054359618378,-0.3573458854547873,0.07899125523938677,-0.5767161299400136,-0.027263860707371634,0.007214112815523421,-0.0465123791259181,0.0,70.0,255.0,255.0,255.0
215,10.75,-15.498190982615597,-1.0603001709121396,-3.224499365108928,-0.35867113689386443,0.0793313812399421,-0.5790359404274881,-0.026276867683705518,0.006387433888543903,-0.04630129241696146,0.0,70.0,255.0,255.0,255.0
216,10.8,-15.516156971786538,-1.0563256283822173,-3.2535090300045866,-0.35997357222315784,0.07962999862824116,-0.5813462591817098,-0.026369852930763216,0.0055858546297749,-0.04613458618956123,0.0,70.0,255.0,255.0,255.0
217,10.850000000000001,-15.534188339837913,-1.0523371710493155,-3.282633991027099,-0.36130812218694075,0.07988996670291959,-0.5836493990464442,-0.027333789402916864,0.004882892382207515,-0.046030661384444116,0.0,70.0,255.0,255.0,255.0
218,10.9,-15.552287784005232,-1.0483366317119254,-3.311873969909231,-0.36270695116344953,0.08011828786646191,-0.5859493253201542,-0.02872022793454221,0.004376553840867992,-0.046015564962287314,0.0,70.0,255.0,255.0,255.0
219,10.950000000000001,-15.570459034954258,-1.0443253422626693,-3.3412289235591146,-0.36418014498039497,0.08032762208700639,-0.5882509555426729,-0.03008336774801279,0.004171394502172632,-0.04609939925477313,0.0,70.0,255.0,255.0,255.0
220,11.0,-15.588705798503272,-1.0403038695032247,-3.3706990654634983,-0.3657152879382508,0.08053542731667918,-0.5905592652456315,-0.030982411963442757,0.004359415466037575,-0.04627926134346261,0.0,70.0,255.0,255.0,255.0
221,11.05,-15.607030563748083,-1.0362717995310013,-3.4002848500836778,-0.36727838617673925,0.08076356363361015,-0.5928788816770192,-0.031176477987493456,0.0049691271908791634,-0.046547508985472774,0.0,70.0,255.0,255.0,255.0
222,11.100000000000001,-15.625433637120945,-1.0322275131398637,-3.4299869536312,-0.36883293573700016,0.08103234003576709,-0.5952140161441788,-0.030776550829791915,0.005891750820108399,-0.04689025949362602,0.0,70.0,255.0,255.0,255.0
223,11.15,-15.643913857321783,-1.0281685655274246,-3.4598062516980956,-0.37035604125971844,0.08135273871562099,-0.5975679076263818,-0.03004207278269888,0.006923219712340334,-0.04728036407124492,0.0,70.0,255.0,255.0,255.0
224,11.200000000000001,-15.662469241246917,-1.0240922392683016,-3.4897437443938384,-0.37183714301527004,0.08172466200700113,-0.5999420525513033,-0.02922355407903865,0.00784184763729101,-0.04768433620960799,0.0,70.0,255.0,255.0,255.0
225,11.25,-15.68109757162331,-1.0199960993267245,-3.519800456953226,-0.3732783966676223,0.08213692347935009,-0.6023363412473426,-0.028569428519453766,0.008442876275149835,-0.048085624913030145,0.0,70.0,255.0,255.0,255.0
226,11.3,-15.69979708091368,-1.0158785469203666,-3.5499773785185726,-0.3746940858672154,0.08256894963451611,-0.6047506150426063,-0.028223069619848218,0.008617636606822465,-0.04846866458199095,0.0,70.0,255.0,255.0,255.0
227,11.350000000000001,-15.718566980210031,-1.011739204363273,-3.5802755184574866,-0.3761007036296071,0.08299868714003233,-0.6071832077055417,-0.02815543851149016,0.00839821622555803,-0.04877100460398687,0.0,70.0,255.0,255.0,255.0
228,11.4,-15.73740715127664,-1.0075786782063634,-3.610695699289127,-0.37750962971836444,0.08340877125707191,-0.609627715503005,-0.028277728022274573,0.007882455421703849,-0.04890027479009795,0.0,70.0,255.0,255.0,255.0
229,11.450000000000001,-15.756317943181868,-1.0033983272375657,-3.641238290007787,-0.3789284764318346,0.08378693268220272,-0.6120732351845515,-0.028514816869495974,0.007181214948670522,-0.0487766824801561,0.0,70.0,255.0,255.0,255.0
230,11.5,-15.775299998919824,-0.9991999849381431,-3.671903022807582,-0.38036111140531403,0.08412689275193896,-0.6145053837510206,-0.028799920578492788,0.00640110740524058,-0.04832630427196172,0.0,70.0,255.0,255.0,255.0
231,11.55,-15.7943540543224,-0.9949856379623718,-3.702688828382889,-0.38180846848968386,0.08442704342272678,-0.6169058656117477,-0.029085182925037145,0.00561878792023629,-0.047529720798555886,0.0,70.0,255.0,255.0,255.0
232,11.600000000000001,-15.813480845768792,-0.9907572805958704,-3.7335936093687567,-0.38326962969781775,0.0846887715439626,-0.6192583558308762,-0.02932262752377568,0.0049125870749899825,-0.0465083328132998,0.0,70.0,255.0,255.0,255.0
233,11.65,-15.832681017292181,-0.9865167608079756,-3.7646146639659768,-0.38474073124206143,0.08491830213022578,-0.6215566988930776,-0.029445243567671753,0.004392273286280002,-0.04547844352851271,0.0,70.0,255.0,255.0,255.0
234,11.700000000000001,-15.851954918892998,-0.9822654503828478,-3.7957492792580645,-0.3862141540545849,0.0851279988725906,-0.6238062001837275,-0.029377691262766348,0.004171754106441217,-0.04466739540824882,0.0,70.0,255.0,255.0,255.0
235,11.75,-15.87130243269764,-0.9780039609207165,-3.8269952839843495,-0.38767850036833806,0.0853354775408699,-0.6260234384339025,-0.029030889166925533,0.004352694103715304,-0.04429717664646837,0.0,70.0,255.0,255.0,255.0
236,11.8,-15.890722768929832,-0.9737319026287609,-3.8583516231014547,-0.3891172429712775,0.08556326828296212,-0.6282359178483743,-0.028375685860915212,0.004968750173706127,-0.04447296504435094,0.0,70.0,255.0,255.0,255.0
237,11.850000000000001,-15.910214156994767,-0.9694476340924203,-3.889818875769187,-0.3905160689544296,0.08583235255824051,-0.6304707349383376,-0.027555822955527276,0.0059061207893451595,-0.04506848465593016,0.0,70.0,255.0,255.0,255.0
238,11.9,-15.929774375825275,-0.9651486673729368,-3.9213986965952885,-0.3918728252668302,0.08615388036189664,-0.6327427663139673,-0.026820365306434724,0.006951248636066776,-0.04583229142229861,0.0,70.0,255.0,255.0,255.0
239,11.950000000000001,-15.94940143952145,-0.9608322460562306,-3.9530931524005837,-0.39319810548507306,0.08652747742184719,-0.6350539640805675,-0.02642047868395281,0.007873307086991854,-0.04650096199432241,0.0,70.0,255.0,255.0,255.0
240,12.0,-15.969094186373782,-0.9564959196307521,-3.9849040930033452,-0.3945148731352255,0.08694121107059583,-0.6373928625133995,-0.026616476133867195,0.008456088207675627,-0.04680498914155784,0.0,70.0,255.0,255.0,255.0
241,12.05,-15.988852926834973,-0.952138124949171,-4.016832438651924,-0.3958597530984598,0.08737308624261475,-0.6397344629947233,-0.027519672700471176,0.008586211384908893,-0.046605645131148066,0.0,70.0,255.0,255.0,255.0
242,12.100000000000001,-16.00868016168363,-0.9477586110064906,-4.048877539302818,-0.3972668404052726,0.08779983220908671,-0.6420534270265144,-0.028887833566138,0.008311041655961748,-0.04602406888971622,0.0,70.0,255.0,255.0,255.0
243,12.15,-16.0285796108755,-0.9433581417282624,-4.081037781354575,-0.3987485364550736,0.08820419040821093,-0.6443368698836949,-0.030277863971406305,0.007754620281263946,-0.045305211294799363,0.0,70.0,255.0,255.0,255.0
244,12.200000000000001,-16.048555015329136,-0.9389381919656695,-4.113311226291187,-0.40029462680241323,0.08857529423721311,-0.6465839481559943,-0.031241559504735505,0.007055017545565256,-0.044689129574937425,0.0,70.0,255.0,255.0,255.0
245,12.25,-16.06860907355574,-0.9345006123045411,-4.1456961761701745,-0.4018726924055471,0.08890969216276745,-0.6488057828411886,-0.031327262241021,0.006354981037748342,-0.04441480151937682,0.0,70.0,255.0,255.0,255.0
246,12.3,-16.08874228456969,-0.9300472227493928,-4.178191804575306,-0.40342735302651533,0.08921079234098794,-0.651025428307932,-0.03032473755659737,0.005744865824963696,-0.04460431457085079,0.0,70.0,255.0,255.0,255.0
247,12.350000000000001,-16.108951808858393,-0.9255795330704423,-4.210798719000968,-0.40490516616120686,0.08948417874526382,-0.6532662142982737,-0.02854449779050583,0.005246915384049533,-0.04514983185961441,0.0,70.0,255.0,255.0,255.0
248,12.4,-16.12923280118581,-0.9210988048748664,-4.243518426005133,-0.4062818028055659,0.0897354838793929,-0.6555404114938934,-0.02657820211595663,0.004875584924235454,-0.04583227132375356,0.0,70.0,255.0,255.0,255.0
249,12.450000000000001,-16.14957998913895,-0.916605984682503,-4.276352760150357,-0.4075629863728025,0.08997173723768737,-0.657849441430649,-0.025025404511325178,0.004651797555910164,-0.046435946279732576,0.0,70.0,255.0,255.0,255.0
250,12.5,-16.16998909982309,-0.9121016311510977,-4.309303370148198,-0.40878434325669843,0.09020066363498391,-0.6601840061218667,-0.024486409634150164,0.004576015613511064,-0.0467518420772528,0.0,70.0,255.0,255.0,255.0
251,12.55,-16.19045842346462,-0.9075859183190046,-4.342371160762544,-0.41001162733621754,0.09042933879903847,-0.6625246256383743,-0.025255036746330006,0.00464206424282132,-0.04667052315907583,0.0,70.0,255.0,255.0,255.0
252,12.600000000000001,-16.210990262556713,-0.9030586972711938,-4.375555832712036,-0.41130984693133144,0.09066487005926605,-0.6648510584377743,-0.026998883898343706,0.004857753684217592,-0.04626201159707577,0.0,70.0,255.0,255.0,255.0
253,12.65,-16.231589408157753,-0.898519431313078,-4.408856266606321,-0.4127115157260519,0.09091511416746023,-0.6671508267980819,-0.029063779777160903,0.005224904823775134,-0.0456802954843738,0.0,70.0,255.0,255.0,255.0
254,12.700000000000001,-16.25226141412932,-0.8939671858544478,-4.442270915391844,-0.4142162249090475,0.09118736054164356,-0.6694190879862116,-0.03079090170352572,0.00572539129841676,-0.0450803720193349,0.0,70.0,255.0,255.0,255.0
255,12.75,-16.273011030648657,-0.8894006952589136,-4.475798175404942,-0.4157906058964045,0.09148765329730191,-0.6716588640000154,-0.03152318313901503,0.006348881916240501,-0.04461382084741672,0.0,70.0,255.0,255.0,255.0
256,12.8,-16.29384047471896,-0.8848184205247176,-4.509436801791845,-0.41736854322294903,0.09182224873326761,-0.6738804700709533,-0.0309286818897192,0.007074476271329289,-0.04436636668581073,0.0,70.0,255.0,255.0,255.0
257,12.850000000000001,-16.314747884970952,-0.8802184703855869,-4.543186222412038,-0.4188834740853764,0.09219510092443484,-0.6760955006685965,-0.02931619039436839,0.007803934680794544,-0.0443184853889278,0.0,70.0,255.0,255.0,255.0
258,12.9,-16.335728822127496,-0.8755989104322741,-4.577046351858705,-0.42030016226238587,0.09260264220134706,-0.6783123186098461,-0.027310455000773004,0.008381252657063687,-0.04441102226335758,0.0,70.0,255.0,255.0,255.0
259,12.950000000000001,-16.35677790119719,-0.8709582061654522,-4.611017454273022,-0.4216145195854537,0.0930332261901412,-0.6805366028949322,-0.025537422239807483,0.008654376178207634,-0.044588766108866196,0.0,70.0,255.0,255.0,255.0
260,13.0,-16.37789027408604,-0.86629558781326,-4.645100012148198,-0.4228539044863666,0.09346807981916783,-0.6827711952207327,-0.02462477389144624,0.008480484693673684,-0.044800893180596546,0.0,70.0,255.0,255.0,255.0
261,13.05,-16.399063291645827,-0.8616113981835354,-4.6792945737950955,-0.42407699697459833,0.09388127465950857,-0.6850166922129919,-0.024896156440235018,0.007805205497068979,-0.04501123620501701,0.0,70.0,255.0,255.0,255.0
262,13.100000000000001,-16.4202979737835,-0.8569074603473091,-4.713601681369497,-0.4253435201303901,0.09424860036887472,-0.6872723188412344,-0.02608190231363494,0.006771822277773509,-0.04518497924879128,0.0,70.0,255.0,255.0,255.0
263,13.15,-16.441597643658866,-0.8521865381466479,-4.748021805679219,-0.4266851872059618,0.09455845688728592,-0.689535190137871,-0.027629691595620898,0.005647287345100782,-0.045273843900872635,0.0,70.0,255.0,255.0,255.0
264,13.200000000000001,-16.462966492504098,-0.8474516146585805,-4.7825552003832845,-0.4281064892899522,0.0948133291033848,-0.6917997032313217,-0.02899246294809643,0.004715565527280141,-0.04522507636517403,0.0,70.0,255.0,255.0,255.0
265,13.25,-16.48440829258786,-0.8427052052363094,-4.817201776002351,-0.42958443350077147,0.09503001344001394,-0.6940576977743884,-0.02961781453514334,0.00426120728109769,-0.04498260642957774,0.0,70.0,255.0,255.0,255.0
266,13.3,-16.505924935854175,-0.8379486133145791,-4.851960970160723,-0.43106827074346654,0.09523944983149457,-0.6962979638742794,-0.02922077160363301,0.004424701740401993,-0.0445281756739746,0.0,70.0,255.0,255.0,255.0
267,13.350000000000001,-16.52751511966221,-0.83318126025316,-4.886831572389779,-0.43250651066113477,0.09547248361405414,-0.6985105153417859,-0.028047948604381645,0.005060664319977981,-0.043943369177412706,0.0,70.0,255.0,255.0,255.0
268,13.4,-16.54917558692029,-0.8284013649531737,-4.921812021694902,-0.4338730656039047,0.09574551626349237,-0.7006923007920207,-0.026598191204030286,0.005877709850665713,-0.043372669731933655,0.0,70.0,255.0,255.0,255.0
269,13.450000000000001,-16.5709024262226,-0.8236067086268107,-4.956900802468981,-0.4351663297815378,0.09606025459912071,-0.7028477823149792,-0.025359672352465168,0.006576788286150048,-0.042963702323550734,0.0,70.0,255.0,255.0,255.0
270,13.5,-16.592692219898442,-0.8187953394932617,-4.9920967999264,-0.4364090328391512,0.09640319509210737,-0.7049886710243758,-0.024819865403813424,0.006846714153907474,-0.04286066245304809,0.0,70.0,255.0,255.0,255.0
271,13.55,-16.614543329506514,-0.8139663891176,-5.027399669571419,-0.43764831632191914,0.09674492601451146,-0.707133848560284,-0.02522719071187396,0.006529926935250341,-0.04312986063288449,0.0,70.0,255.0,255.0,255.0
272,13.600000000000001,-16.636457051530634,-0.8091208468918105,-5.062810184782428,-0.4389317519103386,0.09705618778563241,-0.7093016570876642,-0.026355487419138512,0.005791860768689094,-0.04367706851713393,0.0,70.0,255.0,255.0,255.0
273,13.65,-16.658436504697548,-0.8042607703390368,-5.098329835280185,-0.440283865063833,0.09732411209138037,-0.7115015554119974,-0.02774835943846199,0.004954693765069074,-0.044319113535262744,0.0,70.0,255.0,255.0,255.0
274,13.700000000000001,-16.680485438037017,-0.7993884356826725,-5.133960340323628,-0.4417065878541848,0.09755165716213932,-0.7137335684411905,-0.028955700787491878,0.004330941001762234,-0.04486734044775176,0.0,70.0,255.0,255.0,255.0
275,13.75,-16.702607163482966,-0.7945056046228228,-5.169703192124304,-0.4431794351425822,0.09775720619155659,-0.7159882894567726,-0.02953479844194362,0.004231842863178237,-0.04513875308242987,0.0,70.0,255.0,255.0,255.0
276,13.8,-16.724803381551276,-0.7896127150635168,-5.205559169269305,-0.4446600676983792,0.09797484144845714,-0.7182474437494335,-0.029257318696807033,0.004809250192272518,-0.04503909508173365,0.0,70.0,255.0,255.0,255.0
277,13.850000000000001,-16.747073170252804,-0.7847081204779771,-5.2415279364992475,-0.4461051670122629,0.09823813121078384,-0.720492198964946,-0.02830091757282105,0.005884713118120555,-0.04463376467906954,0.0,70.0,255.0,255.0,255.0
278,13.9,-16.769413898252502,-0.7797889019424384,-5.2776083891658,-0.4474901594556613,0.0985633127602692,-0.7227108202173405,-0.02703755518922435,0.007109855415399213,-0.04406546820119317,0.0,70.0,255.0,255.0,255.0
279,13.950000000000001,-16.79182218619837,-0.7748517892019502,-5.313799018520982,-0.4488089225311853,0.09894911675232376,-0.7248987457850653,-0.02583738463464158,0.008140100387388216,-0.04348022259899054,0.0,70.0,255.0,255.0,255.0
280,14.0,-16.81429479050562,-0.7698939902672061,-5.350098263744306,-0.45007389791912544,0.09937732279900802,-0.7270588424772395,-0.02506089420784008,0.008649970337448742,-0.043020315893738115,0.0,70.0,255.0,255.0,255.0
281,14.05,-16.836829575990283,-0.7649140569220494,-5.3865049027687055,-0.4513150119519693,0.09981411378606864,-0.7292007773744391,-0.02490288182173117,0.008472699335293488,-0.04276653293260324,0.0,70.0,255.0,255.0,255.0
282,14.100000000000001,-16.859426291700817,-0.7599125788885992,-5.42301834148175,-0.45256418610129856,0.10022459273253737,-0.7313354957704998,-0.025271798005022106,0.007719170208708714,-0.04270423640244658,0.0,70.0,255.0,255.0,255.0
283,14.15,-16.882085994600413,-0.7548915976487957,-5.4596384523457555,-0.45384219175247154,0.10058603080693951,-0.7334712010146838,-0.02595130325353523,0.006636840284324208,-0.042783489184650136,0.0,70.0,255.0,255.0,255.0
284,14.200000000000001,-16.904810510876064,-0.7498539758079052,-5.496365461583219,-0.4551593164266521,0.10088827676096979,-0.7356138446889648,-0.026727674423909775,0.0054814313414253135,-0.042957969623014236,0.0,70.0,255.0,255.0,255.0
285,14.25,-16.927601926243078,-0.7448027699726987,-5.533199836814652,-0.4565149591948625,0.10113417394108204,-0.7377669979769852,-0.02739365269768257,0.004492285110990757,-0.043188001990390745,0.0,70.0,255.0,255.0,255.0
286,14.3,-16.95046200679555,-0.739740558413797,-5.570142161380917,-0.45789868169642034,0.10133750527206886,-0.7399326448880039,-0.02782560623266761,0.0038122135389007106,-0.043441999294024924,0.0,70.0,255.0,255.0,255.0
287,14.350000000000001,-16.97339179441272,-0.7346690194454918,-5.607193101303452,-0.4592975198181293,0.10151539529497211,-0.7421111979063877,-0.028016459173230146,0.0034713333198155283,-0.04367022211253513,0.0,70.0,255.0,255.0,255.0
288,14.4,-16.996391758777364,-0.7295890188842998,-5.644353281171556,-0.46070032761374335,0.10168463860405041,-0.7442996670992574,-0.027990984708736733,0.0034717344961521235,-0.04379880349896226,0.0,70.0,255.0,255.0,255.0
289,14.450000000000001,-17.019461827174094,-0.7245005555850867,-5.681623068013378,-0.46209661828900295,0.10186256874458732,-0.7464910782562839,-0.027766230024184324,0.0038131486058801123,-0.043748411729360726,0.0,70.0,255.0,255.0,255.0
290,14.5,-17.042601420606264,-0.7194027620098411,-5.719002388997184,-0.4634769506161618,0.10206595346463843,-0.7486745082721935,-0.02735647635390137,0.004492870570593777,-0.04342767614478049,0.0,70.0,255.0,255.0,255.0
291,14.55,-17.06580952223571,-0.7142939602386229,-5.7564905188405975,-0.4648322659243931,0.1023118558016467,-0.750833845870762,-0.02678695432081213,0.005480497791188199,-0.04280495707051912,0.0,70.0,255.0,255.0,255.0
292,14.600000000000001,-17.089084647198703,-0.7091715764296764,-5.794085773584261,-0.466155646048243,0.10261400324375725,-0.7529550039792454,-0.02614320446205909,0.006633818190360241,-0.04201664670944183,0.0,70.0,255.0,255.0,255.0
293,14.65,-17.112425086840535,-0.7040325599142472,-5.831786019238522,-0.467446586370599,0.10297523762068272,-0.7550355105417061,-0.025565597069743262,0.007714543409320651,-0.041300364418273006,0.0,70.0,255.0,255.0,255.0
294,14.700000000000001,-17.135829305835763,-0.6988740526676082,-5.869589324638431,-0.4687122057552173,0.10338545758468931,-0.7570850404210727,-0.02520637983849383,0.008468025517116562,-0.040894444065298075,0.0,70.0,255.0,255.0,255.0
295,14.75,-17.159296307416056,-0.6936940141557782,-5.907494523280629,-0.4699672243544484,0.10382204017239438,-0.759124954948236,-0.025224451214000965,0.008648213958617479,-0.04104124681081345,0.0,70.0,255.0,255.0,255.0
296,14.8,-17.182826028271208,-0.6884918486503687,-5.945501820133255,-0.4712346508766174,0.10425027898055106,-0.7611891651021541,-0.025687089306458688,0.00814476965533828,-0.04184577149120017,0.0,70.0,255.0,255.0,255.0
297,14.850000000000001,-17.20641977250372,-0.6832689862577231,-5.983613439790845,-0.47253593328509425,0.10463651713792821,-0.763309532097356,-0.026446247451161753,0.007122344967713801,-0.04309694396376074,0.0,70.0,255.0,255.0,255.0
298,14.9,-17.230079621599717,-0.6780281969365759,-6.02183277334299,-0.4738792756217336,0.10496251347732244,-0.7654988594985301,-0.027230263373212438,0.0059028191392695994,-0.0444043075929379,0.0,70.0,255.0,255.0,255.0
299,14.950000000000001,-17.25380770006589,-0.6727727349099909,-6.060163325740698,-0.4752589596224155,0.10522679905185517,-0.7677499628566498,-0.027762190016389354,0.004827010397900899,-0.0453749775100043,0.0,70.0,255.0,255.0,255.0
300,15.0,-17.27760551756196,-0.6675055170313904,-6.098607769628655,-0.47665549462337253,0.10544521451711253,-0.7700363572495306,-0.027761756087230083,0.00423828291894468,-0.045631392556177985,0.0,70.0,255.0,255.0,255.0
301,15.05,-17.30147324952823,-0.6622282134582796,-6.137166961465651,-0.4780351352311385,0.10565062734374964,-0.7723131021122676,-0.027097602206893612,0.004313197480254605,-0.044991071183897446,0.0,70.0,255.0,255.0,255.0
302,15.100000000000001,-17.325409031085073,-0.6569404542970154,-6.175839079839882,-0.4793652548440619,0.10587653426513799,-0.7745354643679203,-0.025958985219887154,0.0049077576496969755,-0.04364723244725255,0.0,70.0,255.0,255.0,255.0
303,15.15,-17.349409775012635,-0.6516405600317658,-6.214620507902443,-0.4806310337531272,0.10614140310871933,-0.7766778253569928,-0.02470700910990331,0.005724063483480979,-0.04199242852021001,0.0,70.0,255.0,255.0,255.0
304,15.200000000000001,-17.373472134460386,-0.6463263139861435,-6.253506862375581,-0.4818359557550522,0.10644894061348609,-0.7787347072199413,-0.023704207416841427,0.0064635599309581515,-0.040431193679246746,0.0,70.0,255.0,255.0,255.0
305,15.25,-17.39759337058814,-0.6409956659704172,-6.292493978624437,-0.48300145449481136,0.10678775910181515,-0.7807209447249175,-0.023304468492924002,0.006822710309684066,-0.03934917364070145,0.0,70.0,255.0,255.0,255.0
306,15.3,-17.421772279909867,-0.635647538075962,-6.331578956848073,-0.4841664026043446,0.1071312116444545,-0.7826696245840115,-0.023682874826391753,0.00664309310431932,-0.03895600438035274,0.0,70.0,255.0,255.0,255.0
307,15.350000000000001,-17.446010010848575,-0.6302825448059718,-6.370760941082838,-0.48536974197745053,0.10745206841224708,-0.7846165451629528,-0.024667928220623025,0.006052964759761803,-0.0391823779953171,0.0,70.0,255.0,255.0,255.0
308,15.4,-17.47030925410761,-0.6249023312347373,-6.410040611364368,-0.48663319542640693,0.10773650812043067,-0.7865878623835432,-0.025910744475510228,0.00531374743957258,-0.039838565738126164,0.0,70.0,255.0,255.0,255.0
309,15.450000000000001,-17.494673330391215,-0.6195088939939287,-6.449419727321192,-0.48796081642500155,0.10798344315620434,-0.7886004017367654,-0.027054919711133607,0.004679122838746608,-0.04072644823951421,0.0,70.0,255.0,255.0,255.0
310,15.5,-17.519105335750112,-0.6141039869191168,-6.488900651538045,-0.4893386873975203,0.10820442040430533,-0.7906605072074946,-0.02774838858776718,0.004402810574288818,-0.04164790355751791,0.0,70.0,255.0,255.0,255.0
311,15.55,-17.543607199130967,-0.6086884519534982,-6.528485778041942,-0.49073565528377827,0.10842372421363322,-0.7927651920925172,-0.02780483788065169,0.004614290242277441,-0.04247367586289741,0.0,70.0,255.0,255.0,255.0
312,15.600000000000001,-17.56817890127849,-0.6032616144977535,-6.568177170747297,-0.49211917118558546,0.10866584942853308,-0.7949078747937843,-0.027338346188443552,0.005194975385802714,-0.04314698517511317,0.0,70.0,255.0,255.0,255.0
313,15.65,-17.592819116249526,-0.5978218670106449,-6.60797656552132,-0.4934694899026226,0.10894322175221349,-0.7970798906100285,-0.02660012953619173,0.005906354683649084,-0.04360622228034572,0.0,70.0,255.0,255.0,255.0
314,15.700000000000001,-17.617525850268752,-0.5923672923225322,-6.6478851598082995,-0.49477918413920463,0.10925648489689799,-0.7992684970218189,-0.025843199985686738,0.006513375287553469,-0.04377835135791486,0.0,70.0,255.0,255.0,255.0
315,15.75,-17.642297034663446,-0.5868962185209551,-6.687903415223502,-0.4960538099011913,0.10959455928096884,-0.80145772574582,-0.025329949184893508,0.006782084689149759,-0.04360718415679088,0.0,70.0,255.0,255.0,255.0
316,15.8,-17.66713123125887,-0.5814078363944353,-6.7280309323828815,-0.497312179057694,0.10993469336581296,-0.803629215437498,-0.025203321434830173,0.006593172499991251,-0.04308104041941263,0.0,70.0,255.0,255.0,255.0
317,15.850000000000001,-17.692028252569216,-0.5759027491843738,-6.768266336767252,-0.4985741420446743,0.11025387653096796,-0.8057658297877612,-0.0253741182628886,0.006052541622436625,-0.04227499599052109,0.0,70.0,255.0,255.0,255.0
318,15.9,-17.71698864546334,-0.5703824487413385,-6.808607515361658,-0.49984959088398284,0.11053994752805663,-0.8078567150365501,-0.025654984465717234,0.00537542590041129,-0.04133374793839906,0.0,70.0,255.0,255.0,255.0
319,15.950000000000001,-17.742013211657614,-0.5648487544315681,-6.849052008270907,-0.501139640491246,0.1107914191210091,-0.8098992045816011,-0.02587139456373677,0.004773949437697489,-0.04042532115287045,0.0,70.0,255.0,255.0,255.0
320,16.0,-17.767102609512463,-0.5593033068292376,-6.889597435819818,-0.5024367303403565,0.11101734247182637,-0.8118992471518371,-0.02584388926507586,0.004452813372979314,-0.0397074157588051,0.0,70.0,255.0,255.0,255.0
321,16.05,-17.79225688469165,-0.5537470201843855,-6.930241932986091,-0.5037240294177536,0.11123670045830703,-0.8138699461574816,-0.02548201623859825,0.004519593184237891,-0.039268362926137,0.0,70.0,255.0,255.0,255.0
322,16.1,-17.81747501245424,-0.5481796367834069,-6.970984430435566,-0.5049849319642163,0.11146930179025016,-0.8158260834444508,-0.02488788472518877,0.004909450199119814,-0.039106690536794275,0.0,70.0,255.0,255.0,255.0
323,16.150000000000002,-17.84275537788807,-0.5426000900053605,-7.011824541330536,-0.5062128178902725,0.111727645478219,-0.8177806152111611,-0.024257228641033635,0.0054773496402482635,-0.03918596545391395,0.0,70.0,255.0,255.0,255.0
324,16.2,-17.868096294243266,-0.537006872235585,-7.052762491956682,-0.5074106548283197,0.11201703675427499,-0.8197446799898422,-0.02377779518489831,0.006077540248472513,-0.03945985120878959,0.0,70.0,255.0,255.0,255.0
325,16.25,-17.893496443370903,-0.531398386329933,-7.09379900932952,-0.5085905974087623,0.11233539950306626,-0.82172660033204,-0.023634447132536707,0.006570671142769324,-0.03987513415877331,0.0,70.0,255.0,255.0,255.0
326,16.3,-17.918955353984142,-0.5257733322852783,-7.134935151989886,-0.5097740995415734,0.11267410386855192,-0.8237321934057196,-0.023915699855692196,0.006875680870166434,-0.04038704633924084,0.0,70.0,255.0,255.0,255.0
327,16.35,-17.94447385332506,-0.5201309759430778,-7.176172228670092,-0.5109821673943316,0.1130229675900829,-0.8257653049659641,-0.02450986731332705,0.006993293944801415,-0.04093833510330214,0.0,70.0,255.0,255.0,255.0
328,16.400000000000002,-17.970053570723575,-0.51447103552627,-7.2175116824864824,-0.5122250862729061,0.11337343326303206,-0.8278260269160498,-0.025199737336834005,0.0069507000140967,-0.041439779523244624,0.0,70.0,255.0,255.0,255.0
329,16.45,-17.99569636195235,-0.5087936326167746,-7.258954831361697,-0.513502141128015,0.11371803759149257,-0.8299092829182886,-0.025764650805015776,0.00677640238896382,-0.041790099185679,0.0,70.0,255.0,255.0,255.0
330,16.5,-18.021403784836377,-0.5030992317671208,-7.300502610778311,-0.5148015513534077,0.11405107350192845,-0.8320050368346177,-0.025982331528240366,0.006508511379982318,-0.041896010309994125,0.0,70.0,255.0,255.0,255.0
331,16.55,-18.047176517087692,-0.4973885252665817,-7.342155335045159,-0.516100374280839,0.1143688887294908,-0.834098883949288,-0.02574189762221124,0.006176657694012544,-0.04171622561122135,0.0,70.0,255.0,255.0,255.0
332,16.6,-18.07301382226446,-0.4916623428941717,-7.38391249917324,-0.5173757411156288,0.1146687392713297,-0.8361766593957398,-0.025158053946228165,0.005798213182550693,-0.04130444457404181,0.0,70.0,255.0,255.0,255.0
333,16.650000000000002,-18.098914091199255,-0.48592165133944876,-7.425773000984733,-0.5186161796754618,0.11494871004774587,-0.8382293284066922,-0.02445841409084437,0.005400689464196695,-0.0407712800887694,0.0,70.0,255.0,255.0,255.0
334,16.7,-18.124875440232007,-0.4801674718893971,-7.467735432013909,-0.5198215825247132,0.11520880821774937,-0.8402537874046168,-0.02387017502023525,0.0050225378413260025,-0.040239239227801704,0.0,70.0,255.0,255.0,255.0
335,16.75,-18.150896249451726,-0.4744007705176738,-7.509798379725194,-0.5210031971774853,0.11545096383187847,-0.8422532523294723,-0.023620189455542118,0.004691320633348761,-0.03982884324997826,0.0,70.0,255.0,255.0,255.0
336,16.8,-18.176975759949755,-0.4686223755062093,-7.551960757246857,-0.5221836014702674,0.11567794028108425,-0.8442366717296146,-0.02382328308421222,0.00442440164046265,-0.039607538395447506,0.0,70.0,255.0,255.0,255.0
337,16.85,-18.203114609598753,-0.4628329764895654,-7.594222046898156,-0.5233855254859066,0.11589340399592474,-0.8462140061690171,-0.024372508976000518,0.004251149362394235,-0.0395602502358372,0.0,70.0,255.0,255.0,255.0
338,16.900000000000002,-18.229314312498346,-0.4570330351066168,-7.636582157863758,-0.5246208523678675,0.11610305521732367,-0.8481926967531983,-0.02505201422451364,0.004209246091890773,-0.039639575646877034,0.0,70.0,255.0,255.0,255.0
339,16.95,-18.25557669483554,-0.45122267096783303,-7.679041316573476,-0.5258907269083579,0.11631432860511381,-0.8501779637337048,-0.025648075685680283,0.00432673295888697,-0.039799144369467854,0.0,70.0,255.0,255.0,255.0
340,17.0,-18.28190338518918,-0.4454016022461054,-7.721599954237129,-0.5271856599364355,0.11653572851321237,-0.8521726111901451,-0.025952947945384608,0.004630168790542566,-0.03999663533766906,0.0,70.0,255.0,255.0,255.0
341,17.05,-18.308295260829183,-0.4395690981165118,-7.76425857769249,-0.5284860217028964,0.11677734548416807,-0.8541776272674717,-0.02585839661826128,0.005120048098455898,-0.040200846913940325,0.0,70.0,255.0,255.0,255.0
342,17.1,-18.33475198735947,-0.4337238676976886,-7.807017716963876,-0.5297714995982616,0.11704773332305796,-0.8561926958815391,-0.02543731807520544,0.005716350207102261,-0.04037548688291537,0.0,70.0,255.0,255.0,255.0
343,17.150000000000002,-18.36127241078901,-0.427864324784206,-7.849877847280644,-0.5310297535104169,0.1173489805048783,-0.8582151759557632,-0.024848121083564934,0.006281487007492315,-0.04046864576308096,0.0,70.0,255.0,255.0,255.0
344,17.2,-18.387854962710513,-0.4219889696472008,-7.892839234559452,-0.5322563117066181,0.11767588202380719,-0.8602395604578472,-0.02425080894923326,0.006671555964055109,-0.040424696115515246,0.0,70.0,255.0,255.0,255.0
345,17.25,-18.41449804195967,-0.4160967365818253,-7.935901803326429,-0.5334548344053403,0.11801613610128381,-0.8622576455673148,-0.023804009440553386,0.006743994880392679,-0.04018461539887497,0.0,70.0,255.0,255.0,255.0
346,17.3,-18.441200446151047,-0.4101873560370724,-7.979064999116184,-0.5346367126506735,0.11835028151184646,-0.8642580219977347,-0.023595904337625484,0.006434893145229603,-0.03972856112808287,0.0,70.0,255.0,255.0,255.0
347,17.35,-18.46796171322474,-0.40426170843064063,-8.022327605526202,-0.5358144248391028,0.11865962541580677,-0.866230501680123,-0.023594582358299476,0.005847925333712922,-0.03913957379371169,0.0,70.0,255.0,255.0,255.0
348,17.400000000000002,-18.494781888634957,-0.3983213934954917,-8.065688049284196,-0.5369961708865034,0.11893507404521775,-0.8681719793771059,-0.02371997696428707,0.005181169514528738,-0.038564908900529105,0.0,70.0,255.0,255.0,255.0
349,17.45,-18.52166133031339,-0.39236820102611886,-8.109144803463913,-0.5381864225355315,0.11917774236725964,-0.870086992570176,-0.023894888982312068,0.004639817077628505,-0.038154845061377785,0.0,70.0,255.0,255.0,255.0
350,17.5,-18.54860053088851,-0.38640361925876576,-8.152696748541214,-0.5393856597847346,0.1193990557529806,-0.8719874638832437,-0.024039032942013705,0.004429842363851133,-0.038056884417869696,0.0,70.0,255.0,255.0,255.0
351,17.55,-18.575599896291862,-0.3804282954508208,-8.196343549852237,-0.5405903258297329,0.11962072660364476,-0.8738926810119629,-0.024105212139602372,0.004653666033910264,-0.03833870810723283,0.0,70.0,255.0,255.0,255.0
352,17.6,-18.602659563471484,-0.3744415465984013,-8.24008601664241,-0.5417961809986949,0.11986442235637162,-0.875821334693967,-0.024105284891007273,0.005206540532670667,-0.038901742418495644,0.0,70.0,255.0,255.0,255.0
353,17.650000000000002,-18.629779514391732,-0.36844185321518363,-8.283925683321634,-0.5430008543188336,0.12014138065691182,-0.8777828552538125,-0.024070199497927547,0.005879242859890832,-0.039555354999265546,0.0,70.0,255.0,255.0,255.0
354,17.7,-18.656959648903367,-0.3624274085327101,-8.327864302167791,-0.5442032009484876,0.12045234664236071,-0.8797768701938935,-0.024023434655617848,0.006462602298840103,-0.040103149745363,0.0,70.0,255.0,255.0,255.0
355,17.75,-18.68419983448658,-0.35639661855094756,-8.371903370341023,-0.5454031977843954,0.12078764088679583,-0.8817931702283488,-0.02398783081929423,0.00675267296011417,-0.04035185625355098,0.0,70.0,255.0,255.0,255.0
356,17.8,-18.711499968681807,-0.3503486444440305,-8.416043619190626,-0.546601984030417,0.12112761393837213,-0.8838120558192486,-0.023976533817560153,0.006643869292505267,-0.040203319729670284,0.0,70.0,255.0,255.0,255.0
357,17.85,-18.738860032889622,-0.34428385715711035,-8.460284575922948,-0.5478008511661514,0.12145202781604636,-0.8858135022013158,-0.023984278078259536,0.006211320461124714,-0.03973886445862718,0.0,70.0,255.0,255.0,255.0
358,17.900000000000002,-18.766280053798422,-0.3382034416624259,-8.504624969410758,-0.549000411838243,0.1217487459844846,-0.8877859422651113,-0.02399922504316976,0.00561645112062692,-0.03912826317815643,0.0,70.0,255.0,255.0,255.0
359,17.95,-18.793760074073447,-0.3321089825586619,-8.54906317014946,-0.5502007736704684,0.12201367292810905,-0.8897263285191315,-0.024011372396159913,0.005023060440256799,-0.03854584266882455,0.0,70.0,255.0,255.0,255.0
360,18.0,-18.82130013116547,-0.326002074369615,-8.59359760226267,-0.551401549077859,0.12225105202851028,-0.8916405265319938,-0.02400964378139747,0.004595456471523374,-0.03817168124342629,0.0,70.0,255.0,255.0,255.0
361,18.05,-18.848900228981233,-0.31988387735581086,-8.638227222802659,-0.5526017380486081,0.12247321857526139,-0.8935434966434741,-0.023988652587192405,0.004423630688782376,-0.03810078686630192,0.0,70.0,255.0,255.0,255.0
362,18.1,-18.87656030497033,-0.31375475251208884,-8.682951951927018,-0.5538004143365782,0.12269341509738851,-0.895450605218624,-0.023957602796542687,0.0044645412593524725,-0.03825916338389135,0.0,70.0,255.0,255.0,255.0
363,18.150000000000002,-18.90428027041489,-0.307614535846072,-8.727772283324521,-0.5549974983282624,0.12291967270119664,-0.8973694129818632,-0.023932900330336793,0.004619428182195406,-0.038496067814186574,0.0,70.0,255.0,255.0,255.0
364,18.2,-18.932060054803156,-0.3014627852419692,-8.772688893225205,-0.5561937043696119,0.12315535791560805,-0.8993002120000426,-0.0239310757603306,0.0047913564062473935,-0.03866639333125477,0.0,70.0,255.0,255.0,255.0
365,18.25,-18.95989964085185,-0.2952990000545112,-8.817702304524525,-0.5573906059042955,0.12339880834182138,-0.9012360523149887,-0.023973594056059255,0.004873519801673609,-0.03862146539237443,0.0,70.0,255.0,255.0,255.0
366,18.3,-18.987799115393585,-0.28912290440778704,-8.862812498456703,-0.5585910637752178,0.12364270989577542,-0.9031623585392801,-0.024068855830705616,0.004808834059549794,-0.038286959378197594,0.0,70.0,255.0,255.0,255.0
367,18.35,-19.015758747229373,-0.28293472906493367,-8.908018540378453,-0.559797491487366,0.12387969174777635,-0.9050647482528085,-0.02418531073473673,0.0046514469025316085,-0.03774718596947224,0.0,70.0,255.0,255.0,255.0
368,18.400000000000002,-19.043778864542322,-0.2767349352330094,-8.953318973281984,-0.5610095948486915,0.12410785458602858,-0.9069370771362273,-0.024269173637136987,0.004504064588917167,-0.03716476160331439,0.0,70.0,255.0,255.0,255.0
369,18.45,-19.071859706714243,-0.2705239436063308,-8.998712248092076,-0.5622244088510797,0.12433009820666807,-0.9087812244131399,-0.024271037849743493,0.004458600181733718,-0.03669515743123242,0.0,70.0,255.0,255.0,255.0
370,18.5,-19.10000130542743,-0.2643019254123426,-9.044197095723298,-0.5634366986336659,0.12455371460420195,-0.9106065928793505,-0.02414800796692873,0.0046064083776442555,-0.03648241056666279,0.0,70.0,255.0,255.0,255.0
371,18.55,-19.12820337657761,-0.2580685721459106,-9.089772907380011,-0.5646392096477726,0.1247907390444325,-0.9124294654698062,-0.023882124555996143,0.004988119320123441,-0.036598461867320964,0.0,70.0,255.0,255.0,255.0
372,18.6,-19.156465226392207,-0.25182285150789935,-9.135440042270279,-0.5658249110892655,0.1250525265362143,-0.9142664390660826,-0.023502925825980014,0.005527899568857908,-0.03698761721402377,0.0,70.0,255.0,255.0,255.0
373,18.650000000000002,-19.184785867686536,-0.24556331949228918,-9.18119955128662,-0.5669895022303706,0.1253435290013183,-0.9161282271912086,-0.02306947271826232,0.006085245863143851,-0.03752852213825264,0.0,70.0,255.0,255.0,255.0
374,18.7,-19.213164176615244,-0.23928849860776752,-9.2270528649894,-0.5681318583610917,0.12566105112252868,-0.9180192912799079,-0.02264426002049902,0.006521468973935685,-0.03809348976453464,0.0,70.0,255.0,255.0,255.0
375,18.75,-19.241599053522645,-0.23299721438003632,-9.27300148041461,-0.5692539282324205,0.12599567589871186,-0.919937576167662,-0.022278383404028546,0.006708865335683378,-0.03856087369182859,0.0,70.0,255.0,255.0,255.0
376,18.8,-19.270089569438486,-0.22668893101789633,-9.319046622606166,-0.5703596967014946,0.12633193765609702,-0.9218753786490907,-0.02200264594556245,0.006584889126165505,-0.03885970597217181,0.0,70.0,255.0,255.0,255.0
377,18.85,-19.298635023192794,-0.22036402061442661,-9.36518901827952,-0.5714541928269767,0.1266541648113284,-0.9238235467648792,-0.02184028199678778,0.006201430346575165,-0.03898598153817545,0.0,70.0,255.0,255.0,255.0
378,18.900000000000002,-19.327234988721184,-0.2140235145367635,-9.411428977282654,-0.5725437249011733,0.12695208069075453,-0.9257739768029083,-0.021815639449229707,0.00567131559493228,-0.03895667432001204,0.0,70.0,255.0,255.0,255.0
379,18.95,-19.35588939568291,-0.20766881254535116,-9.45776641595981,-0.5736357567718997,0.12722129637082163,-0.9277192141968804,-0.021945208779783343,0.0051150111019721,-0.03879139633138351,0.0,70.0,255.0,255.0,255.0
380,19.0,-19.384598564398374,-0.20130138489968133,-9.504200898702342,-0.5747382457791517,0.12746358180095174,-0.9296531164360466,-0.022242421123763734,0.00464614892757842,-0.03851810399027045,0.0,70.0,255.0,255.0,255.0
381,19.05,-19.413363220260827,-0.194922454365256,-9.550731727603415,-0.5758599988842761,0.12768591126357948,-0.9315710245959075,-0.02270160401920407,0.0043318113546936265,-0.03816168860311109,0.0,70.0,255.0,255.0,255.0
382,19.1,-19.4421845642868,-0.18853279377332338,-9.597358001161933,-0.5770084061810721,0.1278967629364211,-0.9334692852963578,-0.02325510702689826,0.004182742681269058,-0.03774929579325459,0.0,70.0,255.0,255.0,255.0
383,19.150000000000002,-19.471064060878934,-0.18213277807161388,-9.64407865613305,-0.5781855095869659,0.12810418553170638,-0.9353459541752329,-0.023787130321295535,0.004193967281684863,-0.03732561974167936,0.0,70.0,255.0,255.0,255.0
384,19.200000000000003,-19.500003115245498,-0.17572237522015274,-9.690892596579456,-0.5793871192132016,0.1283161596645896,-0.9372018472705257,-0.024175930499481524,0.00435797379763625,-0.03694661255515541,0.0,70.0,255.0,255.0,255.0
385,19.25,-19.529002772800254,-0.16930116210515492,-9.737798840860103,-0.5806031026369141,0.12853998291147,-0.9390406154307485,-0.02430792277792193,0.004662529629900769,-0.03666274764473343,0.0,70.0,255.0,255.0,255.0
386,19.3,-19.55806342550919,-0.16286837692900574,-9.78479665812253,-0.5818179114909938,0.12878241262757967,-0.940868122034999,-0.024130425158475077,0.005088891096077797,-0.03650025290351522,0.0,70.0,255.0,255.0,255.0
387,19.35,-19.587184563949354,-0.15642292084239695,-9.831885653063603,-0.5830161451527616,0.1290488720210778,-0.9426906407211,-0.023703765421245748,0.005586759767556293,-0.03645413132353781,0.0,70.0,255.0,255.0,255.0
388,19.400000000000002,-19.616365040024466,-0.14996348972689796,-9.87906572219464,-0.5841882880331184,0.1293410886043353,-0.9445135351673528,-0.023152202901499663,0.0060719761175387355,-0.036503550675348606,0.0,70.0,255.0,255.0,255.0
389,19.450000000000003,-19.645603392752665,-0.14348881198196342,-9.926337006580338,-0.5853313654429115,0.12965606963283166,-0.9463409957886348,-0.0226105564003376,0.006454119348503484,-0.03662215345023867,0.0,70.0,255.0,255.0,255.0
390,19.5,-19.674898176568757,-0.1369978827636148,-9.973699821773504,-0.5864493436731522,0.12998650053918565,-0.9481757505123767,-0.02221390641281573,0.006659723228732983,-0.036786896106733025,0.0,70.0,255.0,255.0,255.0
391,19.55,-19.70424832711998,-0.13049016192804486,-10.021154581631576,-0.5875527560841931,0.13032204195570496,-0.9500196853993081,-0.022036182526363746,0.006652111440444419,-0.03697781260214583,0.0,70.0,255.0,255.0,255.0
392,19.6,-19.733653452177176,-0.1239656785680443,-10.068701790313435,-0.5886529619257885,0.1306517116832301,-0.9518735317725913,-0.022046194922964446,0.006434693772998379,-0.03715511131261451,0.0,70.0,255.0,255.0,255.0
393,19.650000000000002,-19.76311362331256,-0.11742499075972185,-10.116341934808835,-0.5897573755764896,0.1309655113330048,-0.9537351965305696,-0.02216853359762183,0.0060344918846017,-0.03725840599617669,0.0,70.0,255.0,255.0,255.0
394,19.700000000000003,-19.792629189734825,-0.11086912743474382,-10.164075309966492,-0.5908698152855507,0.13125516087169026,-0.9555993723722089,-0.02232804436843594,0.005491749274588731,-0.03722528646559198,0.0,70.0,255.0,255.0,255.0
395,19.75,-19.822200604841115,-0.10429947467255282,-10.211901872046056,-0.5919901800133331,0.13151468626046367,-0.9574577251771288,-0.022444470219440404,0.004838624075133302,-0.036989667927578296,0.0,70.0,255.0,255.0,255.0
396,19.8,-19.85182820773616,-0.09771765880869746,-10.259821082484205,-0.5931142623074948,0.1317390232792036,-0.9592983391649668,-0.02247207083989622,0.004108350787780657,-0.0365279838675292,0.0,70.0,255.0,255.0,255.0
397,19.85,-19.881512031071864,-0.09112557234463246,-10.307831705962553,-0.5942373870973228,0.13192552133924174,-0.9611105235638817,-0.022432387287096844,0.003392600338592011,-0.03592719498772823,0.0,70.0,255.0,255.0,255.0
398,19.900000000000002,-19.91125194644589,-0.08452510667477328,-10.355932134840593,-0.5953575010362044,0.1320782833130628,-0.9628910586637396,-0.02237189114673299,0.0028335994676650933,-0.035341892938767216,0.0,70.0,255.0,255.0,255.0
399,19.950000000000003,-19.941047781175484,-0.07791774401332618,-10.404120811828927,-0.5964745762119961,0.13220888128600825,-0.9646447128577584,-0.022331065660097238,0.002571144625462818,-0.03492947458099138,0.0,70.0,255.0,255.0,255.0
400,20.0,-19.97089940406709,-0.07130421854617246,-10.452396606126369,-0.5975906076022142,0.13233539777560907,-0.9663840061218387,-0.02235618473882539,0.0027337524986320583,-0.03484641353477258,0.0,70.0,255.0,255.0,255.0
401,20.05,-20.000806841935706,-0.06468420423576528,-10.50075921244111,-0.5987101946858786,0.13248225653587145,-0.9681293542112357,-0.022468820827725722,0.003369310583189178,-0.035164051461045176,0.0,70.0,255.0,255.0,255.0
402,20.1,-20.030770423535678,-0.05805599289258531,-10.549209541547492,-0.5998374896849867,0.132672328833928,-0.9699004112679432,-0.02262425593038131,0.004349590187328889,-0.035771633212533516,0.0,70.0,255.0,255.0,255.0
403,20.150000000000002,-20.060790590904205,-0.05141697135237248,-10.597749253567905,-0.6009726202789167,0.13291721555460434,-0.971706517532489,-0.02274390181327135,0.005433907447603137,-0.03645765861257644,0.0,70.0,255.0,255.0,255.0
404,20.200000000000003,-20.09086768556357,-0.04476427133712488,-10.646380193300741,-0.6021118798663139,0.1332157195786883,-0.9735461771292009,-0.02275440627563796,0.006365210685160827,-0.0370040413164574,0.0,70.0,255.0,255.0,255.0
405,20.25,-20.121001778890836,-0.03809539939450365,-10.695103871280825,-0.6032480609064805,0.13355373662312042,-0.9754069216641348,-0.022582818800387372,0.006894337958250618,-0.037188687255884645,0.0,70.0,255.0,255.0,255.0
406,20.3,-20.151192491654218,-0.031408897674812836,-10.743920885467155,-0.6043701617463526,0.13390515337451336,-0.9772650458547893,-0.022198846313870035,0.0068944068793860835,-0.036902523576465285,0.0,70.0,255.0,255.0,255.0
407,20.35,-20.18143879506547,-0.02470488405705231,-10.792830375866304,-0.6054679455378675,0.13424317731105903,-0.9790971740217813,-0.021672360551505676,0.006457150800205647,-0.03627168008932813,0.0,70.0,255.0,255.0,255.0
408,20.400000000000002,-20.211739286208005,-0.017984579943706933,-10.841830602869333,-0.6065373978015032,0.13455086845453393,-0.9808922138637222,-0.02113156919882897,0.005782658853884515,-0.0355420646839022,0.0,70.0,255.0,255.0,255.0
409,20.450000000000003,-20.24209253484562,-0.011249797211598918,-10.890919597252676,-0.6075811024577504,0.13482144319644748,-0.9826513804901715,-0.020704083129885476,0.00508129934724405,-0.03496093357835406,0.0,70.0,255.0,255.0,255.0
410,20.5,-20.27249739645378,-0.004502435624062185,-10.94009574091835,-0.6086078061144917,0.13505899838925833,-0.9843883072215576,-0.020504521414821397,0.004568895668303763,-0.034782800145549686,0.0,70.0,255.0,255.0,255.0
411,20.55,-20.30295331545707,0.0022561026273269147,-10.989358427974832,-0.6096315545992326,0.13527833276327786,-0.9861296605047265,-0.020589593450637267,0.004365322971446872,-0.035132427662176724,0.0,70.0,255.0,255.0,255.0
412,20.6,-20.333460551913703,0.009025397652265602,-11.038708706968823,-0.6106667654595554,0.13549553068640302,-0.9879015499877752,-0.02092182633859352,0.00441723784727982,-0.035856238505971305,0.0,70.0,255.0,255.0,255.0
413,20.650000000000002,-20.364019992003026,0.01580565569596722,-11.08814858297361,-0.6117237372330919,0.13572005654800584,-0.9897152843553236,-0.021413457755770082,0.004601704223185787,-0.03665949057474194,0.0,70.0,255.0,255.0,255.0
414,20.700000000000003,-20.394632925637012,0.022597403307066187,-11.137680235404355,-0.6128081112351325,0.1359557011087216,-0.9915674990452494,-0.02196977402704192,0.004801992858327886,-0.03725236423033351,0.0,70.0,255.0,255.0,255.0
415,20.75,-20.42530080312654,0.02940122580683938,-11.187305332878134,-0.6139207146357961,0.13620025583383863,-0.993440520778357,-0.02251107689161813,0.004890125988516181,-0.0373481774298412,0.0,70.0,255.0,255.0,255.0
416,20.8,-20.45602499710059,0.03621742889045005,-11.23702428748219,-0.6150592189242943,0.13644471370757322,-0.9953023167882336,-0.022983292701539426,0.004798240628687278,-0.03680739281470835,0.0,70.0,255.0,255.0,255.0
417,20.85,-20.48680672501897,0.0430456971775967,-11.286835564556958,-0.6162190439059501,0.13668007989670736,-0.9971212600598278,-0.023323970458832832,0.004594830211608891,-0.0357905453753915,0.0,70.0,255.0,255.0,255.0
418,20.900000000000002,-20.517646901491187,0.04988543688012079,-11.336736413488174,-0.6173916159701776,0.1369041967287341,-0.9988813713257727,-0.023450124252732962,0.004408752691678064,-0.03461363268986162,0.0,70.0,255.0,255.0,255.0
419,20.950000000000003,-20.548545886615987,0.056736116850470114,-11.386723701689535,-0.6185640563312234,0.13712095516587516,-1.000582623328814,-0.023284046870131192,0.004357815466592974,-0.03359567010576825,0.0,70.0,255.0,255.0,255.0
420,21.0,-20.57950330712431,0.0635975323967083,-11.436794675821055,-0.6197200206571907,0.1373399782753934,-1.0022409383363495,-0.022747208317497325,0.004566544433512454,-0.03305246216331881,0.0,70.0,255.0,255.0,255.0
421,21.05,-20.610517888681706,0.07047011467800945,-11.48694779552317,-0.6208387771629731,0.1375776096092264,-1.0038878695451459,-0.021822410564453776,0.0050888007608149155,-0.03314457450631636,0.0,70.0,255.0,255.0,255.0
422,21.1,-20.641587184840606,0.07735529335763094,-11.53718346277557,-0.621902261713636,0.1378488583514749,-1.0055553957869812,-0.02066490254577502,0.005801669744513738,-0.033733468104557573,0.0,70.0,255.0,255.0,255.0
423,21.150000000000002,-20.67270811485307,0.08425500051315694,-11.587503335101868,-0.6229052674175506,0.13815777658367778,-1.0072612163556016,-0.019545951995780797,0.006484217411109605,-0.034534090552362784,0.0,70.0,255.0,255.0,255.0
424,21.200000000000003,-20.70387771158236,0.09117107101599872,-11.63790958441113,-0.6238568569132141,0.13849728009258586,-1.0090088048422174,-0.01874578674510019,0.006920684669302346,-0.035258381919511805,0.0,70.0,255.0,255.0,255.0
425,21.25,-20.73509380054439,0.09810472852241553,-11.68840421558609,-0.6247798460920606,0.13884984505060802,-1.0107870545475528,-0.01853608051405331,0.00690374289741974,-0.035614001890493796,0.0,70.0,255.0,255.0,255.0
426,21.3,-20.766355696191567,0.10505605552105952,-11.738988289865885,-0.6257104649646195,0.13918765438232783,-1.0125702050312668,-0.01904137739465739,0.006338957260375311,-0.03544824855499229,0.0,70.0,255.0,255.0,255.0
427,21.35,-20.797664847040853,0.11202349396064831,-11.789661236089216,-0.6266839838315263,0.13948374077664555,-1.014331879403052,-0.020087468308105372,0.005364737896573768,-0.03488192253158218,0.0,70.0,255.0,255.0,255.0
428,21.400000000000002,-20.82902409457472,0.11900442959872408,-11.84042147780619,-0.62771921179543,0.1397241281719852,-1.016058397284425,-0.021333340492901698,0.0042498088994050165,-0.03416282561179429,0.0,70.0,255.0,255.0,255.0
429,21.450000000000003,-20.860436768220396,0.12599590677784683,-11.891267075817659,-0.6288173178808165,0.13990872166658605,-1.0177481619642315,-0.02242054507846092,0.0032717069285398415,-0.03353117517743698,0.0,70.0,255.0,255.0,255.0
430,21.5,-20.8919058263628,0.13299530176538268,-11.942196294002613,-0.6299612663032761,0.1400512988648392,-1.0194115148021687,-0.022984460301600507,0.0026984839767305036,-0.03322346500755913,0.0,70.0,255.0,255.0,255.0
431,21.55,-20.923432894850723,0.14000103666433075,-11.993208227297876,-0.6311157639109766,0.1401785700642591,-1.0210705084649874,-0.022839305964339474,0.002668656910886913,-0.03336229141215341,0.0,70.0,255.0,255.0,255.0
432,21.6,-20.9550174027539,0.1470131587718086,-12.044303344849112,-0.63224519689971,0.14031816455592788,-1.022747743943384,-0.02215426851002178,0.00309126678107452,-0.03385343384429973,0.0,70.0,255.0,255.0,255.0
433,21.650000000000002,-20.986657414540694,0.15403285311992354,-12.095483001692214,-0.6333311907619787,0.14048769674236655,-1.0244558518494173,-0.021270802581696557,0.00376465887945987,-0.03450001492755206,0.0,70.0,255.0,255.0,255.0
434,21.700000000000003,-21.018350521830097,0.16106192844604525,-12.146748930034054,-0.6343722771578797,0.14069463044387387,-1.0261977454361393,-0.020532405901363404,0.004479200903334535,-0.03511034394527712,0.0,70.0,255.0,255.0,255.0
435,21.75,-21.050094642256482,0.16810231616431093,-12.198102776235828,-0.6353844313521151,0.1409356168327,-1.027966886243945,-0.020302022337048697,0.005022321195577439,-0.035508175375476014,0.0,70.0,255.0,255.0,255.0
436,21.8,-21.08188896496531,0.17515549012931525,-12.249545618658448,-0.6364024793915846,0.1411968625634316,-1.0297485629736869,-0.020760746070180858,0.0052741540237211115,-0.035596012367378194,0.0,70.0,255.0,255.0,255.0
437,21.85,-21.11373489019564,0.1822220024206541,-12.301077632533197,-0.6374605059591332,0.14146303223507212,-1.0315264874806829,-0.021689117323830942,0.005274763743720601,-0.03538975001564637,0.0,70.0,255.0,255.0,255.0
438,21.900000000000002,-21.145635015561222,0.18930179335282246,-12.352698267406517,-0.6385713911239677,0.14172433893780367,-1.0332875379752515,-0.02267062866501135,0.005125308496581327,-0.03495170675389403,0.0,70.0,255.0,255.0,255.0
439,21.950000000000003,-21.177592029308038,0.19639443631443446,-12.404406386330722,-0.6397275688256343,0.14197556308473025,-1.0350216581560723,-0.02330288492871091,0.00491908852577605,-0.03434744904176057,0.0,70.0,255.0,255.0,255.0
440,22.0,-21.209607772443785,0.2034993496612955,-12.456200433222124,-0.6409016796168387,0.14221624779038128,-1.0367222828794276,-0.023179571561016132,0.004752184620868127,-0.03363185213771658,0.0,70.0,255.0,255.0,255.0
441,22.05,-21.24168219726972,0.21061606109347258,-12.508078614618665,-0.6420455259817359,0.14245078154681706,-1.038384843369844,-0.022110250548834642,0.004680787600180869,-0.032852633476743165,0.0,70.0,255.0,255.0,255.0
442,22.1,-21.27381232504196,0.2177444278159772,-12.560038917559108,-0.6431127046717222,0.14268432655039937,-1.040007546227102,-0.020378213244853782,0.004688745843114961,-0.032105701291484934,0.0,70.0,255.0,255.0,255.0
443,22.150000000000002,-21.305993467736894,0.22488449374851252,-12.612079369241375,-0.6440833473062213,0.14291965613112856,-1.0415954134989924,-0.01851941003110369,0.004735878696110474,-0.031536701181700266,0.0,70.0,255.0,255.0,255.0
444,22.200000000000003,-21.33822065977258,0.23203639342909005,-12.664198458909008,-0.6449646456748326,0.1431579144200104,-1.043161216345272,-0.017068175596079982,0.004790645459795684,-0.03129212096038003,0.0,70.0,255.0,255.0,255.0
445,22.25,-21.370489932304377,0.23920028519051356,-12.716395490875902,-0.6457901648658293,0.14339872067710813,-1.0447246255950304,-0.01654761682736705,0.004820968292904015,-0.031512388100018995,0.0,70.0,255.0,255.0,255.0
446,22.3,-21.402799676259164,0.24637626549680086,-12.76867092146851,-0.6466194073575693,0.14364001124930081,-1.0463124551552738,-0.01721242423009528,0.004809408862210818,-0.03224827890004889,0.0,70.0,255.0,255.0,255.0
447,22.35,-21.435151873040134,0.25356428631544364,-12.82102673639143,-0.6475114072888388,0.1438796615633292,-1.0479494534850353,-0.01878367072087883,0.004770252883812276,-0.03334213013364007,0.0,70.0,255.0,255.0,255.0
448,22.400000000000002,-21.467550816988048,0.2607642316531338,-12.873465866817014,-0.6484977744296572,0.14411703653768204,-1.0496466681686378,-0.020704411862837446,0.0047311767190583165,-0.034504285722469774,0.0,70.0,255.0,255.0,255.0
449,22.450000000000003,-21.5000016504831,0.26797598996921185,-12.925991403208293,-0.6495818484751226,0.14435277923523504,-1.0513998820572823,-0.02240557818886657,0.004718329635100549,-0.03543231886435905,0.0,70.0,255.0,255.0,255.0
450,22.5,-21.53250900183556,0.2751995095766573,-12.978605855022742,-0.6507383322485438,0.1445888695011921,-1.0531899000550737,-0.023321989099400753,0.004763942207458571,-0.035838595461790135,0.0,70.0,255.0,255.0,255.0
451,22.55,-21.565075483707954,0.28243487691933106,-13.0313103932138,-0.6519140473850626,0.1448291734559809,-1.0549837416034613,-0.023160705210756305,0.004881576950932498,-0.035580451390160306,0.0,70.0,255.0,255.0,255.0
452,22.6,-21.597700406574067,0.2896824269222554,-13.084104229183088,-0.6530544027696195,0.14507702719628535,-1.0567479451940898,-0.022141556088683956,0.005030242621606451,-0.034775661623953624,0.0,70.0,255.0,255.0,255.0
453,22.650000000000002,-21.630380923984916,0.2969425796389596,-13.13698518773321,-0.654128202993931,0.14533219771814154,-1.0584613077658567,-0.020727651143559456,0.005139414427690614,-0.03367711164017351,0.0,70.0,255.0,255.0,255.0
454,22.700000000000003,-21.66311322687346,0.30421564669406953,-13.189950359959674,-0.6551271678839754,0.1455909686390544,-1.0601156563581071,-0.019383171320797032,0.00514274928662406,-0.032551377474732135,0.0,70.0,255.0,255.0,255.0
455,22.75,-21.695893640773313,0.31150167650286503,-13.24299675336902,-0.6560665201260107,0.14584647264680395,-1.0617164455133299,-0.01857636150646158,0.004975290849212888,-0.031657239376059465,0.0,70.0,255.0,255.0,255.0
456,22.8,-21.72871987888606,0.3188002939587499,-13.296122004511007,-0.6569848040346216,0.1460884977239757,-1.063281380295713,-0.01855687613918633,0.00461048380015483,-0.031142176613130346,0.0,70.0,255.0,255.0,255.0
457,22.85,-21.761592121176776,0.3261105262752626,-13.349324891398592,-0.6579222077399294,0.14630752102681943,-1.064830663174643,-0.019160128234219087,0.00411054819158263,-0.030987950644068007,0.0,70.0,255.0,255.0,255.0
458,22.900000000000002,-21.794512099660054,0.33343104606143187,-13.402605070828471,-0.6589008168580435,0.14649955254313396,-1.0663801753601199,-0.020036638576215182,0.0035902331693427048,-0.031116218763216352,0.0,70.0,255.0,255.0,255.0
459,22.950000000000003,-21.82748220286258,0.340760481529576,-13.455962908934604,-0.6599258715975509,0.1466665443437537,-1.0679422850509646,-0.020847564033132926,0.0031634471112540474,-0.03144785887965185,0.0,70.0,255.0,255.0,255.0
460,23.0,-21.86050468681981,0.34809770049580724,-13.509399299333568,-0.6609855732613568,0.14681589725425936,-1.069524961248085,-0.021248648786453828,0.0029268757475553464,-0.03189645636041405,0.0,70.0,255.0,255.0,255.0
461,23.05,-21.893580760188716,0.35544207125500193,-13.562915405059412,-0.6620507364761963,0.14695923191850924,-1.071131930687006,-0.0210591561998541,0.002930287382113539,-0.03239909390746476,0.0,70.0,255.0,255.0,255.0
462,23.1,-21.92670976046743,0.36279362368765816,-13.616512492402268,-0.6630914888813422,0.14710892599247072,-1.0727648706388315,-0.020424271304264607,0.0031630890876432893,-0.03291262903797332,0.0,70.0,255.0,255.0,255.0
463,23.150000000000002,-21.95988990907685,0.370152963854249,-13.670191892123295,-0.6640931636066227,0.14727554082727357,-1.0744231935908033,-0.01963861506553144,0.003583289258674016,-0.03337540258332439,0.0,70.0,255.0,255.0,255.0
464,23.200000000000003,-21.99311907682809,0.3775211777703855,-13.723954811761349,-0.6650553503878953,0.14746725491833812,-1.076102410897164,-0.01898694550597213,0.004137261802195091,-0.03371201218165254,0.0,70.0,255.0,255.0,255.0
465,23.25,-22.02639544411564,0.3848996893460828,-13.777802133213012,-0.66599185815722,0.14768926700749307,-1.0777943948089685,-0.018760978077381196,0.004777159540442222,-0.033860897888082775,0.0,70.0,255.0,255.0,255.0
466,23.3,-22.059718262643813,0.3922901044711348,-13.831734251242246,-0.6669314481956334,0.14794497087238234,-1.0794885006859722,-0.01910635920054915,0.005462679025625139,-0.0337942216502185,0.0,70.0,255.0,255.0,255.0
467,23.35,-22.093088588935203,0.39969418643332105,-13.885750983281609,-0.6679024940772749,0.1482355349100556,-1.0811738169739904,-0.019857378626397804,0.006118960259726691,-0.03352600872794653,0.0,70.0,255.0,255.0,255.0
468,23.400000000000002,-22.12650851205154,0.4071136579621404,-13.939851632939645,-0.6689171860582732,0.148556866898355,-1.082841101558767,-0.020694309089464014,0.0066330666724956355,-0.033098534540698665,0.0,70.0,255.0,255.0,255.0
469,23.450000000000003,-22.15998030754103,0.41454987312315655,-13.994035093437486,-0.6699719249862213,0.14889884157730515,-1.0844836704280603,-0.021304793801846245,0.006895244607763029,-0.03257029285936852,0.0,70.0,255.0,255.0,255.0
470,23.5,-22.193505704550162,0.4220035421198709,-14.04829999998245,-0.6710476654384578,0.14924639135913131,-1.0860981308447037,-0.02137550417096179,0.006816514062646384,-0.03199999870648895,0.0,70.0,255.0,255.0,255.0
471,23.55,-22.227085074084876,0.4294745122590697,-14.102644906521956,-0.6721094754033174,0.1495804929835698,-1.0876836702987092,-0.02075503403773382,0.006364171340483837,-0.031429707136965135,0.0,70.0,255.0,255.0,255.0
472,23.6,-22.260716652090494,0.4369615914182279,-14.157068367012322,-0.6731231688422312,0.1498828084931797,-1.0892411015584003,-0.01963339367669903,0.005606384558731747,-0.030901471249045187,0.0,70.0,255.0,255.0,255.0
473,23.650000000000002,-22.2943973909691,0.44446279310838765,-14.211569016677796,-0.6740728147709873,0.15014113143944297,-1.0907738174236137,-0.018377808250491512,0.004681646848625487,-0.030474002379499154,0.0,70.0,255.0,255.0,255.0
474,23.700000000000003,-22.328123933567593,0.4519757045621722,-14.266145748754683,-0.6749609496672804,0.15035097317804225,-1.0922885017963502,-0.017353226605720806,0.0037469345920582153,-0.030205790739934457,0.0,70.0,255.0,255.0,255.0
475,23.75,-22.361893485935827,0.4594978904261919,-14.320797866857431,-0.6758081374315594,0.1505158248986488,-1.0937943964976071,-0.016912949294223267,0.0029408401529540384,-0.03013910728419944,0.0,70.0,255.0,255.0,255.0
476,23.8,-22.39570474731075,0.46702728705203705,-14.375525188404444,-0.6766522445967027,0.15064505719333765,-1.0953024125247701,-0.01723387760890205,0.0023468360785317,-0.030287975441645187,0.0,70.0,255.0,255.0,255.0
477,23.85,-22.429558710395497,0.47456239614552564,-14.430328108109908,-0.6775315251924496,0.15075050850650196,-1.0968231940417716,-0.0181591632152589,0.002009161178989638,-0.030624563152059636,0.0,70.0,255.0,255.0,255.0
478,23.900000000000002,-22.463457899829994,0.48210233790268725,-14.48520750780862,-0.6784681609182286,0.15084597331123661,-1.098364868839976,-0.0193635021986438,0.001967525420260019,-0.031087320745371017,0.0,70.0,255.0,255.0,255.0
479,23.950000000000003,-22.49740552648732,0.4896469934766493,-14.540164594993906,-0.679467875412314,0.15094726104852796,-1.0999319261163087,-0.020516239171897155,0.0022497909168750496,-0.03160085653632905,0.0,70.0,255.0,255.0,255.0
480,24.0,-22.531404687371225,0.49719706400754005,-14.595200700420252,-0.6805197848354183,0.15107095240292412,-1.101524954493609,-0.021300717299865823,0.002880078705430611,-0.032103525534310506,0.0,70.0,255.0,255.0,255.0
481,24.05,-22.565457504970862,0.5047540887169417,-14.650317090443266,-0.6815979471423006,0.15123526891907102,-1.1031422786697398,-0.021543394919021353,0.0038438223406545013,-0.03255219062996417,0.0,70.0,255.0,255.0,255.0
482,24.1,-22.599564482085455,0.5123205908994471,-14.705514928287226,-0.6826741243273204,0.15145533463698957,-1.1047801735566054,-0.02129899775127342,0.00499529240358676,-0.032883912506775914,0.0,70.0,255.0,255.0,255.0
483,24.150000000000002,-22.633724917403594,0.5198996221806407,-14.760795107798927,-0.6837278469174279,0.1517347981594297,-1.1064306699204174,-0.020718299508004634,0.006086573148711416,-0.03301223911442719,0.0,70.0,255.0,255.0,255.0
484,24.200000000000003,-22.667937266777198,0.5274940707153901,-14.816157995279267,-0.6847459542781209,0.1520639919518607,-1.1080813974680481,-0.01995561624070774,0.006855953022599781,-0.03285800922299131,0.0,70.0,255.0,255.0,255.0
485,24.25,-22.702199512831406,0.5351060213758267,-14.871603247545732,-0.6857234085414987,0.15242039346168967,-1.1097164708427165,-0.01916418150429422,0.007050826377297259,-0.03234282787438758,0.0,70.0,255.0,255.0,255.0
486,24.3,-22.736509607631348,0.5427361100615591,-14.92712964236354,-0.6866623724285503,0.15276907458959044,-1.1113156802554869,-0.018444290965291543,0.006556848917793623,-0.031448436863001916,0.0,70.0,255.0,255.0,255.0
487,24.35,-22.77086575007426,0.5503829288347858,-14.98273481557128,-0.6875678376380279,0.15307607835346904,-1.1128613145290167,-0.017842048575644753,0.005538620255518545,-0.03032239754308108,0.0,70.0,255.0,255.0,255.0
488,24.400000000000002,-22.80526639139515,0.558043717896906,-15.03841577381644,-0.6884465772861148,0.1533229366151423,-1.114347920009795,-0.01740861445718167,0.004318909257661208,-0.029223629557684205,0.0,70.0,255.0,255.0,255.0
489,24.450000000000003,-22.839710407802873,0.5657152224963,-15.09416960757226,-0.689308699083746,0.15350796927923516,-1.1157836774847851,-0.0172064706898567,0.0032386580651522223,-0.028418854824785456,0.0,70.0,255.0,255.0,255.0
490,24.5,-22.874197261303525,0.5733945148248295,-15.14999414156492,-0.6901672243551005,0.1536468024216575,-1.1171898054922735,-0.017294584653271272,0.0026406251092958577,-0.02816115364296934,0.0,70.0,255.0,255.0,255.0
491,24.55,-22.908727130238383,0.5810799027384658,-15.205888588121487,-0.6910381575490732,0.15377203179016474,-1.118599792849082,-0.017687180147163417,0.0027015558808352047,-0.02856837427103187,0.0,70.0,255.0,255.0,255.0
492,24.6,-22.943301077058432,0.588771718003846,-15.261854120849828,-0.6919359423698168,0.15391695800974103,-1.1200466429193767,-0.01828926482296822,0.0032811822853084927,-0.0294975462717062,0.0,70.0,255.0,255.0,255.0
493,24.650000000000002,-22.977920724475364,0.5964715985394399,-15.317893252413425,-0.69286708403137,0.1541001500186956,-1.1215495474762527,-0.01892910746832399,0.004087673270580794,-0.030660515383473808,0.0,70.0,255.0,255.0,255.0
494,24.700000000000003,-23.01258778546157,0.6041817330057155,-15.374009075597453,-0.6938288531166492,0.1543257253367991,-1.123112694457724,-0.01941952664274993,0.004829041756493346,-0.03175431040691734,0.0,70.0,255.0,255.0,255.0
495,24.75,-23.04730360978703,0.6119041710731198,-15.430204521859197,-0.694809036695645,0.15458305419434493,-1.1247249785169444,-0.019569461232649132,0.005210729129445646,-0.03248854822714975,0.0,70.0,255.0,255.0,255.0
496,24.8,-23.082068689131134,0.61964003842515,-15.486481573449147,-0.6957857992399141,0.15484679824974368,-1.126361549280439,-0.019286988440470054,0.005077580239432056,-0.03270529215821938,0.0,70.0,255.0,255.0,255.0
497,24.85,-23.11688218971102,0.6273888508980942,-15.542840676787241,-0.696737735539692,0.15509081221828813,-1.1279955077327664,-0.018686300061432348,0.004542990929712332,-0.032456461660501645,0.0,70.0,255.0,255.0,255.0
498,24.900000000000002,-23.151742462685103,0.6351491196469788,-15.599281124222424,-0.6976544292460574,0.1553010973427149,-1.1296071954464892,-0.01798954774940853,0.003843218172894236,-0.031884425460404486,0.0,70.0,255.0,255.0,255.0
499,24.950000000000003,-23.186647632635626,0.6429189606323656,-15.65580139633189,-0.6985366903146328,0.15547513403557756,-1.1311839502788068,-0.017421996161459674,0.0032055478692338824,-0.03113770308260655,0.0,70.0,255.0,255.0,255.0
500,25.0,-23.221596131716566,0.6506966330505366,-15.712399519250305,-0.6993966288622033,0.1556216521296383,-1.13272096575475,-0.01721153311677881,0.002848393104726288,-0.030364653446746104,0.0,70.0,255.0,255.0,255.0
501,25.05,-23.256587295521847,0.6584811258453295,-15.769073492907365,-0.7002578436263107,0.15575997334605018,-1.1342204156234814,-0.0174714395164699,0.002887983301214092,-0.029662205345815096,0.0,70.0,255.0,255.0,255.0
502,25.1,-23.291621916079198,0.6662726303851416,-15.825821560812653,-0.7011437728138503,0.1559104504597597,-1.1356871862893314,-0.018080127009412195,0.003261446070601526,-0.029073809884216928,0.0,70.0,255.0,255.0,255.0
503,25.150000000000002,-23.32670167280323,0.6740721708913054,-15.882642211536298,-0.7020658563272519,0.15608611795311034,-1.137127796611903,-0.018798109463347146,0.0038248619633973746,-0.028647097462553006,0.0,70.0,255.0,255.0,255.0
504,25.200000000000003,-23.361828501711923,0.6818812421804527,-15.939534340473843,-0.703023583760185,0.15629293665609945,-1.1385518960355867,-0.01938591528194422,0.004435480053244234,-0.028440052089351298,0.0,70.0,255.0,255.0,255.0
505,25.25,-23.39700403117925,0.6897014645569154,-15.996497401139857,-0.7040044478554464,0.15652966595843476,-1.1399718018208382,-0.019600443594214312,0.004959707775509248,-0.028504865955092384,0.0,70.0,255.0,255.0,255.0
506,25.3,-23.432228946497467,0.6975342087762961,-16.053531520655927,-0.7049836281196065,0.15678890743365037,-1.141402382631096,-0.019320680067735907,0.00531771266288894,-0.028853625384250847,0.0,70.0,255.0,255.0,255.0
507,25.35,-23.46750239399121,0.7053803553002804,-16.110637639402967,-0.70593651586222,0.15706143722472365,-1.1428571643592633,-0.018678599825960873,0.005494861151622565,-0.029404755680495498,0.0,70.0,255.0,255.0,255.0
508,25.400000000000002,-23.50282259808369,0.7132403524987685,-16.167817237091853,-0.7068514881022026,0.15733839354881263,-1.1443428581991455,-0.017932606473181067,0.005492858449140936,-0.030009049491397377,0.0,70.0,255.0,255.0,255.0
509,25.450000000000003,-23.53818754280143,0.7211141946551617,-16.22507192522288,-0.707729776509538,0.15761072306963775,-1.145858069308403,-0.01734091614054023,0.005313044738242123,-0.03050311420054186,0.0,70.0,255.0,255.0,255.0
510,25.5,-23.573595575734643,0.7290014248057323,-16.282403044022693,-0.7085855797162566,0.15786969802263684,-1.1473931696191997,-0.01717065520843164,0.004956785117116169,-0.03072786408608863,0.0,70.0,255.0,255.0,255.0
511,25.55,-23.609046100773057,0.7369011644574254,-16.3398112421848,-0.7094468420303812,0.15810640158134937,-1.148930855717012,-0.017552413635968378,0.0044401404062255345,-0.030603293119213504,0.0,70.0,255.0,255.0,255.0
512,25.6,-23.64454025993768,0.7448120649638672,-16.397296129594395,-0.7103408210798534,0.1583137120632594,-1.150453498931121,-0.018320065763788307,0.003839948483819189,-0.03019257531882147,0.0,70.0,255.0,255.0,255.0
513,25.650000000000002,-23.680080182881042,0.7527325356637513,-16.454856592077913,-0.71127884860676,0.15849039642973128,-1.151950113248894,-0.019156872568970584,0.0032845434009054486,-0.029631296643728433,0.0,70.0,255.0,255.0,255.0
514,25.700000000000003,-23.715668144798357,0.7606611046068403,-16.512491140919284,-0.7122565083367505,0.15864216640334994,-1.1534166285954939,-0.01975056001519704,0.0029113153528159685,-0.0290607778211438,0.0,70.0,255.0,255.0,255.0
515,25.75,-23.751305833714717,0.7685967523040863,-16.570198254937463,-0.7132539046082798,0.15878152796501288,-1.1548561910310084,-0.019785000841565648,0.0028571610799610347,-0.02861966837883756,0.0,70.0,255.0,255.0,255.0
516,25.8,-23.786993535259185,0.7765392574033416,-16.627976760022385,-0.714235008420907,0.15892788251134604,-1.1562785954333776,-0.019109292427188507,0.003182238532606352,-0.028385976033717952,0.0,70.0,255.0,255.0,255.0
517,25.85,-23.822729334556808,0.7844895405552209,-16.6858261144808,-0.7151648338509986,0.15909975181827352,-1.1576947886343802,-0.01792831660658578,0.003780869388647634,-0.028341306679635636,0.0,70.0,255.0,255.0,255.0
518,25.900000000000002,-23.858510018644285,0.792449232585169,-16.743746238885823,-0.7160278400815656,0.1593059694502108,-1.1591127261013412,-0.01663356292311846,0.0044526043110115765,-0.028430239455801143,0.0,70.0,255.0,255.0,255.0
519,25.950000000000003,-23.894332118564964,0.800420137500242,-16.801737387090935,-0.7168281901433105,0.15954501224937467,-1.1605378125799604,-0.015616191118539291,0.004988919957860105,-0.028599974979215403,0.0,70.0,255.0,255.0,255.0
520,26.0,-23.930192837658616,0.8084037338101064,-16.85980002014382,-0.7175894591934195,0.15980486144599682,-1.1619727235992627,-0.015265285483678781,0.005178579886877532,-0.028801481047224797,0.0,70.0,255.0,255.0,255.0
521,26.05,-23.966091064484306,0.8164006236448417,-16.91793465945086,-0.7183547186916783,0.16006287023806243,-1.1634179606846828,-0.01577078961432221,0.0049176187499000434,-0.02900002885795061,0.0,70.0,255.0,255.0,255.0
522,26.1,-24.002028309527784,0.8244100208339127,-16.976141816212287,-0.7191665381548518,0.16029662332098682,-1.1648727264850578,-0.016916784357690062,0.004321981887045467,-0.029163130364651124,0.0,70.0,255.0,255.0,255.0
523,26.150000000000002,-24.03800771829979,0.8324302859769404,-17.034421932099367,-0.7200463971274473,0.16049506842676697,-1.166334273721148,-0.018277920026932293,0.0036196314297964882,-0.029245973967917394,0.0,70.0,255.0,255.0,255.0
524,26.200000000000003,-24.07403294924053,0.8404595276765894,-17.092775243584402,-0.720994330157545,0.16065858646396647,-1.1677973238818495,-0.019425328194699887,0.0030395782424252893,-0.029199835078230763,0.0,70.0,255.0,255.0,255.0
525,26.25,-24.110107151315546,0.848496144623337,-17.15120166448755,-0.7219889299469173,0.1607990262510095,-1.169254257228971,-0.019933903845625878,0.002812482076319789,-0.028974407433679517,0.0,70.0,255.0,255.0,255.0
526,26.3,-24.14623184223522,0.8565394303016903,-17.2097006693073,-0.7229877205421076,0.16093983467159845,-1.1706947646252175,-0.019587688972322326,0.003053859894297517,-0.028553395720365415,0.0,70.0,255.0,255.0,255.0
527,26.35,-24.182405923369757,0.8645901280904968,-17.268271140950073,-0.7239476988441496,0.16110441224043925,-1.1721095968010076,-0.01857536181013586,0.003645795137818819,-0.02800794342192603,0.0,70.0,255.0,255.0,255.0
528,26.400000000000002,-24.218626612119635,0.8726498715257343,-17.3269116289874,-0.7248452567231212,0.16130441418538033,-1.17349555896741,-0.017283941120282975,0.004354277895224357,-0.027464932269793962,0.0,70.0,255.0,255.0,255.0
529,26.450000000000003,-24.25489044904207,0.8807205695090349,-17.385620696846814,-0.7256760929561779,0.1615398400299617,-1.174856090027987,-0.01610235624660561,0.004946193645871677,-0.027053458598658153,0.0,70.0,255.0,255.0,255.0
530,26.5,-24.291194221415253,0.8888038555287304,-17.4443972379902,-0.7264554923477817,0.1617990335499675,-1.176200904827276,-0.015419052515142084,0.005187529103800603,-0.026892870568318017,0.0,70.0,255.0,255.0,255.0
531,26.55,-24.327535998276847,0.8969004728640316,-17.503240787329542,-0.7272179982076921,0.16205859294034175,-1.1775453770848188,-0.015437801811302165,0.004960368246342828,-0.027040187798377247,0.0,70.0,255.0,255.0,255.0
532,26.6,-24.363916021236022,0.9050097148227646,-17.56215177569868,-0.727999272528912,0.16229507037460178,-1.1789049236071136,-0.016012724109515375,0.004380245487212164,-0.027440620423035966,0.0,70.0,255.0,255.0,255.0
533,26.650000000000002,-24.40033592552974,0.9131299799014918,-17.621131279690253,-0.7288192706186436,0.16249661748906297,-1.1802894391271224,-0.016836198944503167,0.003677849063943306,-0.027977933318013015,0.0,70.0,255.0,255.0,255.0
