idx,t,px,py,pz,vx,vy,vz,ax,ay,az,yaw,mode,ledr,ledg,ledb
0,0.0,13.500000000000016,13.500000000000007,7.845582115685684e-19,-0.0006271459444562311,0.00020956885116163448,0.000995909030863741,0.015380972963185968,0.0010028743254508754,-0.019439393539091594,0.0,70.0,255.0,255.0,255.0
1,0.05,13.499968642702793,13.500010478442565,4.979545154318784e-05,0.00014190270370306735,0.00025971256743417825,2.3939353909161203e-05,0.02294883782401058,0.0014789521975089315,-0.02892916611625094,0.0,70.0,255.0,255.0,255.0
2,0.1,13.500014190270386,13.50002597125675,2.3939353909169046e-06,0.001667737837944827,0.00035746407091252763,-0.0018970075807613533,0.030271459444008997,0.00190431148840986,-0.0379590903086374,0.0,70.0,255.0,255.0,255.0
3,0.15000000000000002,13.500135416486588,13.500046224849656,-0.0001399053065329475,0.003169048648103967,0.00045014371627516425,-0.003771969676954579,0.029780972965376407,0.00180287432876014,-0.03703939353909348,0.0,70.0,255.0,255.0,255.0
4,0.2,13.500331095135197,13.500070985628378,-0.00037480303230454104,0.004645835134482468,0.0005377515037885416,-0.005600946934670702,0.029286909844472575,0.0016993091133343796,-0.03611382900515207,0.0,70.0,255.0,255.0,255.0
5,0.25,13.500600000000036,13.500100000000035,-0.0007000000000000178,0.0060977396325512245,0.0006200746276086022,-0.0073833525774697865,0.02877228104107843,0.001583507591185196,-0.03515452482592956,0.0,70.0,255.0,255.0,255.0
6,0.30000000000000004,13.500940869098452,13.500132993091139,-0.0011131382900515198,0.007523063238590311,0.0006961022629070612,-0.009116399417263658,0.02823162225702447,0.0014522185830756484,-0.03415251636138301,0.0,70.0,255.0,255.0,255.0
7,0.35000000000000003,13.501352306323895,13.500169610226326,-0.0016116399417263837,0.008920901858253671,0.0007652964859161671,-0.010798604213608088,0.027711529152085745,0.0013331658779591748,-0.0331842475421157,0.0,70.0,255.0,255.0,255.0
8,0.4,13.501832959284277,13.50020952273973,-0.0021929987114123286,0.010294216153798885,0.0008294188507029787,-0.012434824171475229,0.02728641569120782,0.001270624782989671,-0.032371800466253486,0.0,70.0,255.0,255.0,255.0
9,0.45,13.502381727939275,13.500252552111396,-0.0028551223588739066,0.011649543427374454,0.0008923589642151342,-0.014035784260233436,0.02701677252190393,0.0013018617647020392,-0.03181630240451002,0.0,70.0,255.0,255.0,255.0
10,0.5,13.502997913627015,13.500298758636152,-0.0035965771374356723,0.012995893405989278,0.0009596050271731826,-0.015616454411926231,0.02694254596367074,0.0014567022269318386,-0.03159225418870726,0.0,70.0,255.0,255.0,255.0
11,0.55,13.503681317279874,13.500348512614114,-0.00441676780006653,0.014343798023741527,0.001038029186908318,-0.017195009679104162,0.02707700256774359,0.001744988032292838,-0.03172430436292707,0.0,70.0,255.0,255.0,255.0
12,0.6000000000000001,13.504432293429389,13.500402561554843,-0.005316078105346089,0.015703593662763637,0.0011341038304024664,-0.01878888484821894,0.027396755961639485,0.002136189709212033,-0.0321494956124764,0.0,70.0,255.0,255.0,255.0
13,0.65,13.50525167664615,13.500461922997154,-0.006295656284888424,0.017083473619905476,0.0012516481578295213,-0.020409959240351803,0.02784773118591488,0.0025715991446517705,-0.032739842879899346,0.0,70.0,255.0,255.0,255.0
14,0.7000000000000001,13.50614064079138,13.500527726370626,-0.007357074029381269,0.018488366781355126,0.0013912637448676435,-0.022062869136208873,0.028362421164551677,0.002987412401900258,-0.033341286395851995,0.0,70.0,255.0,255.0,255.0
15,0.75,13.507100513324286,13.50060104937164,-0.008501943198509311,0.019919715736360644,0.0015503893980195471,-0.023744087879937002,0.028889769526685427,0.00332918177061714,-0.0337948993290876,0.0,70.0,255.0,255.0,255.0
16,0.8,13.508132612365015,13.500682765310428,-0.00973148281737497,0.02137734373402367,0.0017241819219293575,-0.025442359069117633,0.029390590364641866,0.0035657012309897596,-0.03401199749011121,0.0,70.0,255.0,255.0,255.0
17,0.8500000000000001,13.509238247697688,13.500773467563834,-0.011046179105421074,0.02285877477282483,0.001906959521118523,-0.027145287628948123,0.029785083365041487,0.003684779247770109,-0.03402233877254756,0.0,70.0,255.0,255.0,255.0
18,0.9,13.510418489842298,13.50087346126254,-0.012446011580269782,0.024355852070527817,0.0020926598467063684,-0.02884459294637239,0.02995818403892514,0.003680274674877637,-0.03390258092790411,0.0,70.0,255.0,255.0,255.0
19,0.9500000000000001,13.51167383290474,13.500982733548504,-0.013930638400058313,0.025854593176717344,0.002274986988606287,-0.030535545721738534,0.029800768927046306,0.0035552019136630975,-0.033726151079681264,0.0,70.0,255.0,255.0,255.0
20,1.0,13.51300394915997,13.5011009599614,-0.015499566152443635,0.027335928963232448,0.002448180038072678,-0.032217208054340515,0.029194413226640847,0.0033226079887427318,-0.03356810187489456,0.0,70.0,255.0,255.0,255.0
21,1.05,13.514407425801064,13.501227551552311,-0.017152359205492365,0.02877403449938143,0.00260724778748056,-0.03389235590922799,0.02810581079959462,0.0029978946887609936,-0.03347376628268943,0.0,70.0,255.0,255.0,255.0
22,1.1,13.515881352609908,13.501361684740148,-0.018888801743366435,0.03014651004319191,0.0027479695069487775,-0.03556458468260946,0.026745521300597375,0.002605532460187021,-0.03344021689640091,0.0,70.0,255.0,255.0,255.0
23,1.1500000000000001,13.517422076805383,13.501502348503006,-0.02070881767375331,0.031448586629441166,0.002867801033499262,-0.03723637759886808,0.025479439417885885,0.0021881413179158926,-0.03345160497025927,0.0,70.0,255.0,255.0,255.0
24,1.2000000000000002,13.519026211272852,13.501648464843498,-0.022612439503253243,0.0326944539849805,0.0029667836387403668,-0.038909745179635385,0.024679538092264863,0.0017974675872167722,-0.0335003097516242,0.0,70.0,255.0,255.0,255.0
25,1.25,13.520691522203881,13.50179902686688,-0.02459979219171685,0.03391654043866765,0.0030475477922209393,-0.0405864085740305,0.024716540270119935,0.001476423571133978,-0.03358472114335931,0.0,70.0,255.0,255.0,255.0
26,1.3,13.522417865316719,13.50195321962272,-0.026671080360656293,0.03516610801199249,0.0031144259958537646,-0.042268217293971316,0.025754278325074154,0.001249433301175884,-0.033699650665846084,0.0,70.0,255.0,255.0,255.0
27,1.35,13.52420813300508,13.502110469466466,-0.02882661392111398,0.03649196827117507,0.0031724911223385277,-0.04395637364061511,0.027502108821941817,0.001130386947245654,-0.033816793641849516,0.0,70.0,255.0,255.0,255.0
28,1.4000000000000001,13.526067062143836,13.502270468734954,-0.031066717724717804,0.037916318894186674,0.00322746469057833,-0.04564989665815627,0.029412263418393536,0.0011298640181678365,-0.033890999191061796,0.0,70.0,255.0,255.0,255.0
29,1.4500000000000002,13.5279997648945,13.502433215935524,-0.03339160358692961,0.03943319461301442,0.0032854775241553114,-0.04734547355972129,0.030922757026274894,0.0012482144503778159,-0.03387932320053459,0.0,70.0,255.0,255.0,255.0
30,1.5,13.530010381605138,13.50259901648737,-0.03580126508068993,0.04100859459681416,0.0033522861356161116,-0.04903782897820973,0.03147546298851722,0.0014756604302945675,-0.033745041523691385,0.0,70.0,255.0,255.0,255.0
31,1.55,13.53210062435418,13.502768444549085,-0.03829538648475058,0.042580740911866144,0.003433043567184768,-0.05071997771209043,0.030796702939817067,0.0017986844612849495,-0.03347383152012967,0.0,70.0,255.0,255.0,255.0
32,1.6,13.534268455696324,13.502942320844088,-0.040873262851898975,0.04408826489079587,0.0035321545817446065,-0.052385212130222694,0.029181334786620994,0.0021920805885145,-0.03309438009797688,0.0,70.0,255.0,255.0,255.0
33,1.6500000000000001,13.53650945084326,13.50312166000726,-0.04353390769777285,0.04549887439052824,0.003652251626036218,-0.054029415721888116,0.027217054693728926,0.002611563449583798,-0.03266346586456095,0.0,70.0,255.0,255.0,255.0
34,1.7000000000000002,13.538818343135377,13.503307546006692,-0.04627620442408779,0.04680997036016876,0.0037933109267029863,-0.05565155871667879,0.025502067835248,0.003003986965843808,-0.032241884625718725,0.0,70.0,255.0,255.0,255.0
35,1.75,13.541190447879277,13.50350099109993,-0.04909906356944073,0.04804908117405304,0.003952650322620599,-0.05725360418445999,0.024637551832817906,0.0033248974116162344,-0.03187912208588439,0.0,70.0,255.0,255.0,255.0
36,1.8,13.543623251252782,13.503702811038954,-0.052001564842533786,0.04927372554345055,0.00412580066786461,-0.05883947092526723,0.02493154394862529,0.00354911556783577,-0.03160502325364328,0.0,70.0,255.0,255.0,255.0
37,1.85,13.546117820433622,13.503913571166716,-0.05498301066196745,0.05054223556891557,0.004307561879404176,-0.06041410650982432,0.02611809981516444,0.0036639946614513974,-0.03144298200353918,0.0,70.0,255.0,255.0,255.0
38,1.9000000000000001,13.548677474809674,13.504133567226894,-0.05804297549351622,0.051885535524967,0.0044922001340097495,-0.061983769125621146,0.0276548091816764,0.00366117822085954,-0.03141784131339212,0.0,70.0,255.0,255.0,255.0
39,1.9500000000000002,13.551306373986119,13.504362791180117,-0.06118138757452957,0.05330771648708321,0.00467367970149013,-0.06355589064116353,0.029002025247137908,0.003542550971680214,-0.031546425009876256,0.0,70.0,255.0,255.0,255.0
40,2.0,13.554008246458382,13.504600935197043,-0.06439856455763257,0.05478573804968079,0.004846455231177771,-0.06513841162660877,0.029614422920865024,0.003320787218186183,-0.03184243283674351,0.0,70.0,255.0,255.0,255.0
41,2.0500000000000003,13.556784947791087,13.504847436703235,-0.06769522873719044,0.056269158779169715,0.005005758423308748,-0.06674013392483788,0.0292112005181977,0.003010540914161197,-0.03230038781961708,0.0,70.0,255.0,255.0,255.0
42,2.1,13.5596351623363,13.505101511039374,-0.07107257795011636,0.05770685810150056,0.005147509322593891,-0.06836845040857048,0.02803801420405705,0.0026327799265146723,-0.032852852727018045,0.0,70.0,255.0,255.0,255.0
43,2.15,13.562555633601237,13.505362187635495,-0.07453207377804749,0.05907296019957542,0.0052690364159602154,-0.07002541919753968,0.026591121168273446,0.002224562827812804,-0.033384329721024286,0.0,70.0,255.0,255.0,255.0
44,2.2,13.565542458356257,13.50562841468097,-0.07807511986987033,0.0603659702183279,0.005369965605375171,-0.07170688338067291,0.02535677756352328,0.0018314967944021987,-0.03377344097580809,0.0,70.0,255.0,255.0,255.0
45,2.25,13.56859223062307,13.505899184196032,-0.08170276211611478,0.06160863795592775,0.005452186095400435,-0.0734027632951205,0.024820653919199742,0.0014879910100518146,-0.03390713724313876,0.0,70.0,255.0,255.0,255.0
46,2.3000000000000003,13.57170332215185,13.50617363329051,-0.08541539619938238,0.06284803561024788,0.0055187647063803524,-0.07509759710498679,0.02523008754327094,0.001215434061307974,-0.03373291264737455,0.0,70.0,255.0,255.0,255.0
47,2.35,13.574877034184095,13.50645106066667,-0.08921252182661346,0.06413164671025484,0.005573729501531233,-0.07677605455985795,0.02635902751837449,0.001042181670563025,-0.033310082612852954,0.0,70.0,255.0,255.0,255.0
48,2.4000000000000004,13.578116486822875,13.506731006240663,-0.09309300165536817,0.06548393836208533,0.005622982873436655,-0.07842860536627208,0.027751521998808926,0.0010032744304666608,-0.03276120343887329,0.0,70.0,255.0,255.0,255.0
49,2.45,13.581425428020303,13.507013358954014,-0.09705538236324067,0.06690679891013573,0.005674056944577899,-0.08005217490374528,0.028957717644750858,0.0011247485664611645,-0.03221929826639491,0.0,70.0,255.0,255.0,255.0
50,2.5,13.584807166713889,13.507298411935121,-0.1010982191457427,0.06837971012656041,0.005735457730082771,-0.08165053519291157,0.029535035992545033,0.0014312114460679481,-0.03181703683873133,0.0,70.0,255.0,255.0,255.0
51,2.5500000000000003,13.588263399032959,13.507586904727022,-0.10522043588253183,0.06986030250939024,0.005817178089184694,-0.08323387858761841,0.02925530245541097,0.0019220351919813083,-0.03162744877035911,0.0,70.0,255.0,255.0,255.0
52,2.6,13.591793196964828,13.50788012974404,-0.10942160700450454,0.07130524037210151,0.005927661249280902,-0.08481328006994748,0.02829669157407011,0.002517654230693722,-0.031623180457915345,0.0,70.0,255.0,255.0,255.0
53,2.6500000000000004,13.59539392307017,13.50817967085195,-0.11370176388952657,0.07268997166679725,0.006068943512254066,-0.08639619663340994,0.02703197498696852,0.0030815002892481402,-0.03173533204797602,0.0,70.0,255.0,255.0,255.0
54,2.7,13.599062194131507,13.508487024095265,-0.11806122666784553,0.07400843787079836,0.006235811278205716,-0.08798681327474508,0.025832211995968635,0.0034705345807850563,-0.031895566424833266,0.0,70.0,255.0,255.0,255.0
55,2.75,13.602794766857249,13.50880325197977,-0.12250044521700108,0.07527319286639411,0.0064159969703325714,-0.08958575327589327,0.025059155489870477,0.003543153883711625,-0.03203273404993878,0.0,70.0,255.0,255.0,255.0
56,2.8000000000000003,13.606589513418147,13.509128623792298,-0.12701980199543486,0.07651435341978541,0.006590126666576879,-0.09119008667973896,0.02490804995645135,0.0032359123496306097,-0.03210451837840217,0.0,70.0,255.0,255.0,255.0
57,2.85,13.610446202199228,13.509462264646428,-0.13161945388497498,0.07776399786203925,0.006739588205295632,-0.09279620511373349,0.02528516189741481,0.002651676931009206,-0.03211812795642782,0.0,70.0,255.0,255.0,255.0
58,2.9000000000000004,13.61436591320435,13.509802582612828,-0.1362994225068082,0.07904286960952689,0.006855294359677799,-0.09440189947538175,0.02597046150327742,0.001987088047172847,-0.03209569680746871,0.0,70.0,255.0,255.0,255.0
59,2.95,13.61835048916018,13.510147794082396,-0.14105964383251315,0.08036104401236699,0.006938297010012917,-0.09600577479448036,0.026746348121342578,0.0014458870015943148,-0.03205223556807524,0.0,70.0,255.0,255.0,255.0
60,3.0,13.622402017605587,13.51049641231383,-0.14589999998625625,0.08171750442166115,0.006999883059837231,-0.09760712303218927,0.02740037001824902,0.0012321636983614326,-0.0319999989894626,0.0,70.0,255.0,255.0,255.0
61,3.0500000000000003,13.626522239602346,13.51084778238838,-0.15082035613573208,0.08310108101419189,0.00706151337984906,-0.09920577469342662,0.02780694993749222,0.0014476021238607473,-0.031947764429304804,0.0,70.0,255.0,255.0,255.0
62,3.1,13.630712125707007,13.511202563651814,-0.1558205774555989,0.08449819941541037,0.0071446432722233055,-0.10080189947511975,0.027967229602587906,0.001990230118309455,-0.03190430771639052,0.0,70.0,255.0,255.0,255.0
63,3.1500000000000004,13.634972059543887,13.511562246715602,-0.16090054608324406,0.08589780397445068,0.007260536391680006,-0.10239620546506567,0.02791993191113562,0.002655555446651192,-0.03188188072215936,0.0,70.0,255.0,255.0,255.0
64,3.2,13.639301906104452,13.511928617290982,-0.16606019800210547,0.08729019260652393,0.007410198816888425,-0.10399008754733569,0.02769670787099443,0.0032393439862943296,-0.031895491302860735,0.0,70.0,255.0,255.0,255.0
65,3.25,13.64370107880454,13.512303266597291,-0.17129955483797762,0.08866747476155012,0.007584470790309439,-0.10558575459535174,0.027331345788716987,0.0035442286193898553,-0.03196726999220301,0.0,70.0,255.0,255.0,255.0
66,3.3000000000000003,13.648168653580607,13.512687064370013,-0.17661877346164065,0.09002332718539563,0.00776462167882741,-0.10718681454655599,0.02685641136839223,0.003467105728738318,-0.03210442390437218,0.0,70.0,255.0,255.0,255.0
67,3.35,13.65270341152308,13.513079728765174,-0.18201823629263322,0.09135311589838935,0.00793118136318327,-0.10879619698578896,0.02632675885436697,0.003072810521409508,-0.03226464117801753,0.0,70.0,255.0,255.0,255.0
68,3.4000000000000004,13.657303965170446,13.513480182506331,-0.18749839316021955,0.09265600307083233,0.008071902730968361,-0.11041327866435774,0.025830650011116063,0.002505282238907114,-0.03237678030390545,0.0,70.0,255.0,255.0,255.0
69,3.45,13.661969011830163,13.51388691903827,-0.193059564159069,0.09393618089950095,0.008181709587073982,-0.11203387501617951,0.025465794752399518,0.0019100237661717756,-0.03237251250719497,0.0,70.0,255.0,255.0,255.0
70,3.5,13.666697583260396,13.514298353465039,-0.1987017806618375,0.09520258254607228,0.008262905107585539,-0.11365052991507724,0.025318256150441698,0.0014269125029997554,-0.03218294901373986,0.0,70.0,255.0,255.0,255.0
71,3.5500000000000003,13.67148927008477,13.51471320954903,-0.20442461715057672,0.09646800651454512,0.008324400837373958,-0.11525216991755349,0.02542791741060313,0.001136748855223857,-0.03178074041940426,0.0,70.0,255.0,255.0,255.0
72,3.6,13.67634438391185,13.515130793548776,-0.21022699765359285,0.09774537428713259,0.008376579993107924,-0.11682860395701766,0.025761259456480445,0.0010348914315727598,-0.031238899133320674,0.0,70.0,255.0,255.0,255.0
73,3.6500000000000004,13.681263807513483,13.51555086754834,-0.2161074775462785,0.09904413246019317,0.008427889980531234,-0.11837605983088556,0.026241104407809246,0.0010877911195805723,-0.030690065661290178,0.0,70.0,255.0,255.0,255.0
74,3.7,13.68624879715787,13.51597358254683,-0.2220646036366814,0.10036948472791352,0.008485359105065982,-0.11989761052314668,0.026780625938549463,0.001260048127349478,-0.03026723256112085,0.0,70.0,255.0,255.0,255.0
75,3.75,13.691300755986274,13.516399403458847,-0.22809723859859315,0.10172219505404811,0.008553894793266181,-0.12140278308699765,0.027307610960392026,0.001504112046823991,-0.03009291530481628,0.0,70.0,255.0,255.0,255.0
76,3.8000000000000003,13.696421016663274,13.516828972026156,-0.23420488194538117,0.10310024582395272,0.00863577030974838,-0.12290690205362831,0.027772431812067566,0.0017869244926416172,-0.030226413951828235,0.0,70.0,255.0,255.0,255.0
77,3.85,13.70161078056867,13.517262980489821,-0.24038792880395599,0.10449943823525487,0.008732587242530343,-0.12442542448218047,0.02811183968294273,0.0021067845905164972,-0.030615286764235083,0.0,70.0,255.0,255.0,255.0
78,3.9000000000000004,13.7068709604868,13.517702230750409,-0.2466474243935992,0.10591142979224699,0.00884644876880003,-0.12596843073005182,0.02824045683134102,0.0024627141218758197,-0.031146593414574375,0.0,70.0,255.0,255.0,255.0
79,3.95,13.712201923547894,13.518147625366701,-0.25298477187696117,0.10732348391838897,0.008978858654717925,-0.1275400838236379,0.02807892760241515,0.0028440960788245206,-0.03169907006881911,0.0,70.0,255.0,255.0,255.0
80,4.0,13.717603308878639,13.51860011661588,-0.259401432775963,0.1087193225524885,0.009130858376682482,-0.12913833773693373,0.027547337304589803,0.00326060201292222,-0.03215737111895156,0.0,70.0,255.0,255.0,255.0
81,4.05,13.723073855803143,13.51906071120437,-0.26589860565065454,0.11007821764884795,0.009304918856010147,-0.13075582093553306,0.026627530165868052,0.003708839886762405,-0.03245411659379971,0.0,70.0,255.0,255.0,255.0
82,4.1000000000000005,13.728611130643523,13.519530608501482,-0.2724770148695163,0.11138207556907531,0.009501742365358723,-0.1323837493963137,0.025473992534408296,0.004100674168050489,-0.032583590173407284,0.0,70.0,255.0,255.0,255.0
83,4.15,13.73421206336005,13.520010885440906,-0.2791369805902859,0.11262561690228878,0.009714986272815196,-0.1340141799528738,0.024356975025519034,0.00429864843223271,-0.03255908515594208,0.0,70.0,255.0,255.0,255.0
84,4.2,13.739873692333752,13.520502107128763,-0.2858784328648037,0.11381777307162722,0.009931607208581994,-0.1356396579119079,0.0235554119038639,0.004176994133153755,-0.03239699998410783,0.0,70.0,255.0,255.0,255.0
85,4.25,13.745593840667214,13.521004046161764,-0.2927009463814767,0.11498115809267517,0.010132685686130571,-0.13725387995128457,0.02333903049880348,0.0036015451680526667,-0.032121609543378504,0.0,70.0,255.0,255.0,255.0
86,4.3,13.75137180814302,13.521515375697376,-0.29960382085993215,0.11615167612150756,0.01029176172538726,-0.13885181886624576,0.02383175987787922,0.0025296040700339972,-0.03175609403193724,0.0,70.0,255.0,255.0,255.0
87,4.3500000000000005,13.757209008279364,13.522033222334302,-0.3065861282681013,0.1173643340804631,0.010385646093133971,-0.1404294893544783,0.024863239130468173,0.0011731294602412845,-0.03133119170299903,0.0,70.0,255.0,255.0,255.0
88,4.4,13.763108241551066,13.52255394030669,-0.31364676979538,0.11863800003455438,0.010409074671411389,-0.14198493803654566,0.026098915794570132,-9.74010891496846e-05,-0.030897905122501124,0.0,70.0,255.0,255.0,255.0
89,4.45,13.76907280828282,13.523074129801444,-0.32078462207175584,0.11997422565992011,0.010375905984219003,-0.1435192798667284,0.027187163709285755,-0.000907037647124298,-0.030518617640440393,0.0,70.0,255.0,255.0,255.0
90,4.5,13.775105664117058,13.523591530905112,-0.3279986977820528,0.12135671640548296,0.01031837090669896,-0.1450367998005897,0.027772531376335508,-0.0008828199824506555,-0.03025222800356886,0.0,70.0,255.0,255.0,255.0
91,4.55,13.781208479923368,13.524105966892114,-0.3352883020518148,0.12275147879755366,0.010287623985973937,-0.1465445026670853,0.0276726564287344,0.0001408557217530415,-0.030128220565139863,0.0,70.0,255.0,255.0,255.0
92,4.6000000000000005,13.787380811996814,13.524620293303709,-0.34265314804876135,0.1241239820483564,0.010332456478874263,-0.14804962185710369,0.027042095232765462,0.0018760853814470124,-0.03012893905190439,0.0,70.0,255.0,255.0,255.0
93,4.65,13.793620878128204,13.525139212540001,-0.3500932642375252,0.1254556883208302,0.010475232524118638,-0.14955739657227574,0.026197478349310188,0.0037791610534299025,-0.0302119983167759,0.0,70.0,255.0,255.0,255.0
94,4.7,13.799926380828897,13.52566781655612,-0.3576088877059889,0.12674372988328741,0.010710372584217254,-0.15107082168878128,0.025456306219240332,0.005292834774905941,-0.030328529454126674,0.0,70.0,255.0,255.0,255.0
95,4.75,13.806295251116532,13.526210249798423,-0.3652003464064033,0.12800131894275424,0.011004516001609232,-0.1525902495176884,0.025146788048857616,0.005865772056345975,-0.030425469118311455,0.0,70.0,255.0,255.0,255.0
96,4.800000000000001,13.812726512723172,13.526768268156282,-0.37286791265775776,0.12925840868817318,0.011296949789851851,-0.15411336860061242,0.025436961725588958,0.005226600084995425,-0.030471536528037246,0.0,70.0,255.0,255.0,255.0
97,4.8500000000000005,13.81922109198535,13.527339944777408,-0.38061168326646455,0.13054501511531313,0.011527176010108775,-0.15563740317049213,0.026162039613808474,0.0036578203905790474,-0.030473984490347883,0.0,70.0,255.0,255.0,255.0
98,4.9,13.825781014234703,13.527920985757293,-0.388431652974807,0.13187461264955402,0.011662731828909756,-0.1571607670496472,0.02699835029762454,0.0017263046604654164,-0.03045233004859149,0.0,70.0,255.0,255.0,255.0
99,4.95,13.832408553250305,13.528506217960299,-0.39632775997142927,0.1332448501450756,0.011699806476155317,-0.15868263617535128,0.027633951739503004,8.332578893543996e-06,-0.030421064076840976,0.0,70.0,255.0,255.0,255.0
100,5.0,13.83910549924921,13.529090966404908,-0.4042999165923421,0.13463800782350432,0.01166356508679911,-0.1602028734573313,0.027760409665233965,-0.0009243241873235775,-0.030393867551120612,0.0,70.0,255.0,255.0,255.0
101,5.050000000000001,13.845872354032656,13.529672574468979,-0.4123480473171624,0.13602089111159898,0.011607374057422959,-0.16172202293046334,0.02722583699501513,-0.0007746220278548321,-0.03037892003598386,0.0,70.0,255.0,255.0,255.0
102,5.1000000000000005,13.85270758836037,13.53025170381065,-0.42047211888538844,0.13736059152300584,0.011586102884013627,-0.1632407654609297,0.026196925801791338,0.00023818084038396137,-0.030375122986753267,0.0,70.0,255.0,255.0,255.0
103,5.15,13.859608413184956,13.53083118475738,-0.42867212386325537,0.13864058369177812,0.011631192141461355,-0.16475953522913867,0.025002780133398517,0.001650911679362821,-0.03037868148889067,0.0,70.0,255.0,255.0,255.0
104,5.2,13.866571646729549,13.531414823024797,-0.4369480724083023,0.1398608695363457,0.01175119405194991,-0.16627863360981876,0.023973947427258224,0.003000175237843905,-0.030387214238519755,0.0,70.0,255.0,255.0,255.0
105,5.25,13.87359450013859,13.532006304162575,-0.44529998722423725,0.14103797843450394,0.011931209665245746,-0.16779825665299064,0.023439545318382216,0.00381958996182874,-0.030399060677116507,0.0,70.0,255.0,255.0,255.0
106,5.300000000000001,13.880675444572999,13.532607943991321,-0.45372789807360137,0.1422048240681839,0.012133153048132783,-0.1693185396775304,0.02356626372144177,0.003859766813896215,-0.030412783327998794,0.0,70.0,255.0,255.0,255.0
107,5.3500000000000005,13.88781498254541,13.533219619467388,-0.4622318411919903,0.14339460480664812,0.012317186346635367,-0.17083953498579052,0.024202145291774002,0.0032794329355212426,-0.030425523562721546,0.0,70.0,255.0,255.0,255.0
108,5.4,13.895014905053664,13.533839662625985,-0.4708118515721804,0.1446250385973613,0.012461096341684907,-0.17236109203380257,0.0250386410568737,0.0024183936107036175,-0.030432943995917228,0.0,70.0,255.0,255.0,255.0
109,5.45,13.902277486405145,13.534465729101557,-0.47946795039537055,0.1458984689123355,0.012559025707705729,-0.17388282938538224,0.025763685123791902,0.0016051389662763427,-0.030430078969079233,0.0,70.0,255.0,255.0,255.0
110,5.5,13.909604751944897,13.535095565196755,-0.48820013451071864,0.1472014071097405,0.012621610238312542,-0.1754040999307105,0.026053437032658167,0.0011698804241788707,-0.030409889740301566,0.0,70.0,255.0,255.0,255.0
111,5.550000000000001,13.91699762711612,13.535727890125388,-0.4970083603884416,0.1485038126156013,0.012676013750123616,-0.1769238183594124,0.025743047514303896,0.0012881888039828482,-0.030369946652014645,0.0,70.0,255.0,255.0,255.0
112,5.6000000000000005,13.924455133206457,13.536363166571768,-0.5058925163466599,0.1497757118611709,0.012750429118710827,-0.17844109459591195,0.02500083335839065,0.0018377470883734759,-0.0303227827624597,0.0,70.0,255.0,255.0,255.0
113,5.65,13.931975198302236,13.53700293303726,-0.5148524698480328,0.15100389595144037,0.012859788458960963,-0.17995609663565837,0.024155476152465383,0.0025626933656042183,-0.030289542527478508,0.0,70.0,255.0,255.0,255.0
114,5.7,13.939555522801601,13.537649145417664,-0.5238881260102257,0.15219125947641743,0.013006698455271248,-0.1814700488486598,0.023524971751420765,0.003218895939482991,-0.030292469885118134,0.0,70.0,255.0,255.0,255.0
115,5.75,13.947194324249878,13.538303602882786,-0.5329994747328988,0.15335639312658245,0.013181678052909263,-0.18298534362417018,0.023426613309496247,0.003568953609622838,-0.03036138036157654,0.0,70.0,255.0,255.0,255.0
116,5.800000000000001,13.95489116211426,13.538967313222955,-0.5421866603726427,0.15453392080736705,0.013363593816233532,-0.18450618688481746,0.024015205894656333,0.0034876178299114713,-0.030507430063997365,0.0,70.0,255.0,255.0,255.0
117,5.8500000000000005,13.962647716330615,13.53963996226441,-0.5514500934213805,0.15575791371604808,0.01353043983590041,-0.18603608663056992,0.02510734178784446,0.003054986634332124,-0.030683345387572114,0.0,70.0,255.0,255.0,255.0
118,5.9,13.970466953485865,13.540320357206545,-0.5607902690356997,0.1570446549861515,0.013669092479666745,-0.18757452142357467,0.0263457946607204,0.0024454250006300526,-0.0308088858940736,0.0,70.0,255.0,255.0,255.0
119,5.95,13.97835218182923,13.541006871512376,-0.570207545563738,0.15839249318212012,0.013774982335963415,-0.18911697521997728,0.027377080551893584,0.0018325639906890956,-0.030806754777035206,0.0,70.0,255.0,255.0,255.0
120,6.0,13.986306202804077,13.541697855440141,-0.5797019665576975,0.15978236304134086,0.013852348878735654,-0.1906551969012782,0.02786416567150951,0.001390295814296394,-0.030596616785460995,0.0,70.0,255.0,255.0,255.0
121,6.050000000000001,13.994330418133364,13.54239210640025,-0.5892730652538658,0.16117890974927107,0.013914011917393054,-0.19217663689852338,0.027635755946064933,0.0012141137689880566,-0.030146533558295108,0.0,70.0,255.0,255.0,255.0
122,6.1000000000000005,14.002424093779004,13.54308925663188,-0.5989196302475498,0.16254593863594735,0.01397376025563446,-0.1936698502571077,0.026819682941336964,0.0012586700092853675,-0.029545607249048533,0.0,70.0,255.0,255.0,255.0
123,6.15,14.010585011996959,13.543789482425813,-0.6086400502795766,0.16386087804340477,0.014039878918321591,-0.19513119762342823,0.025692300915025612,0.0014200821572885047,-0.02895398149520556,0.0,70.0,255.0,255.0,255.0
124,6.2,14.018810181583344,13.544493244523713,-0.6184327500098926,0.1651151687274499,0.01411576847136331,-0.19656524840662826,0.024539479931995345,0.0015970485655714128,-0.028533284899456834,0.0,70.0,255.0,255.0,255.0
125,6.25,14.027096528869704,13.54520105927295,-0.6282965751202394,0.1663148260366043,0.014199583774878732,-0.19798452611337392,0.023640733330410058,0.0016778817796492262,-0.028444133848604114,0.0,70.0,255.0,255.0,255.0
126,6.300000000000001,14.035441664187005,13.5459132029012,-0.63823120262123,0.16747924206049092,0.014283556649328233,-0.19940966179148867,0.02315403139476757,0.001603153200591123,-0.028760235236680032,0.0,70.0,255.0,255.0,255.0
127,6.3500000000000005,14.043844453075753,13.546629414937883,-0.6482375412993883,0.16863022917608106,0.014359899094937845,-0.20086054963704192,0.023046653716818355,0.001431265729934239,-0.02936975009177889,0.0,70.0,255.0,255.0,255.0
128,6.4,14.052304687104613,13.547349192810694,-0.6583172575849342,0.16978390743217275,0.014426683222321657,-0.20234663680066656,0.023213952727907383,0.0012724748090775506,-0.03005882448874342,0.0,70.0,255.0,255.0,255.0
129,6.45,14.06082284381897,13.548072083260115,-0.6684722049794549,0.1709516244488718,0.0144871465758456,-0.20386643208591626,0.023550687366657996,0.0012263279941748806,-0.030607331732257492,0.0,70.0,255.0,255.0,255.0
130,6.5,14.0693998495495,13.548797907468279,-0.6787039007935258,0.17213897616883855,0.014549316021739145,-0.2054073699738923,0.02393691033191203,0.0013941211216561555,-0.030790857144080697,0.0,70.0,255.0,255.0,255.0
131,6.550000000000001,14.078036741435854,13.549527014862289,-0.6890129419768442,0.173345315482063,0.014626558688011215,-0.20694551780032433,0.024296370223453323,0.001820359675619443,-0.030499238781844795,0.0,70.0,255.0,255.0,255.0
132,6.6000000000000005,14.086734381097706,13.55026056333708,-0.6993984525735583,0.17456861319118389,0.01473135198930109,-0.20845729385207679,0.02463379542891886,0.002414495510016934,-0.029860800309300384,0.0,70.0,255.0,255.0,255.0
133,6.65,14.095493602754972,13.551000150061219,-0.7098586713620518,0.1758086950249549,0.014868008239012909,-0.20993159783125437,0.024969277450814786,0.0030109510081643975,-0.02912531262436735,0.0,70.0,255.0,255.0,255.0
134,6.7,14.104315250600202,13.551747364160981,-0.7203916123566837,0.17706554093626536,0.015032447090117529,-0.21136982511451352,0.02530588249101129,0.0034448655647167925,-0.028543961598037626,0.0,70.0,255.0,255.0,255.0
135,6.75,14.113200156848599,13.55250339477023,-0.7309956538735032,0.17833928327405602,0.015212494795484588,-0.21278599399105813,0.025663560075450675,0.003553652381604877,-0.02837640027902877,0.0,70.0,255.0,255.0,255.0
136,6.800000000000001,14.122149178927607,13.55326861364053,-0.7416702117557895,0.17963189694381043,0.015387812328278017,-0.2142074651424164,0.02604706113800148,0.0032616085642089843,-0.028749383062520728,0.0,70.0,255.0,255.0,255.0
137,6.8500000000000005,14.13116334654298,13.554042176003058,-0.7524164003877448,0.18094398938785616,0.015538655651905486,-0.2156609322973102,0.02638086852773114,0.0026752277531016944,-0.029501640745588364,0.0,70.0,255.0,255.0,255.0
138,6.9,14.140243577866393,13.55482247920572,-0.7632363049855205,0.18226998379658355,0.015655335103588186,-0.21715762921697523,0.026546233506508088,0.0020000847932521992,-0.030325332939229455,0.0,70.0,255.0,255.0,255.0
139,6.95,14.149390344922638,13.555607709513417,-0.7741321633094423,0.18359861273850697,0.015738664131230706,-0.21869346559123315,0.026439209243633854,0.0014469836406405534,-0.030916961735771853,0.0,70.0,255.0,255.0,255.0
140,7.0,14.158603439140244,13.556396345618843,-0.7851056515446438,0.18491390472094693,0.01580003346765224,-0.22024932539055242,0.02595691463369576,0.0012272600292462243,-0.03097160700785695,0.0,70.0,255.0,255.0,255.0
141,7.050000000000001,14.167881735394733,13.557187712860182,-0.7961570958484976,0.18619430420187655,0.01586139013415533,-0.22179062629201884,0.025067273336532025,0.0014464927811985717,-0.030342856007681274,0.0,70.0,255.0,255.0,255.0
142,7.1000000000000005,14.177222869560431,13.557982484632259,-0.8072847141738457,0.18742063205460013,0.0159446827457721,-0.22328361099132055,0.0239253411830731,0.001999185549728111,-0.02921981619549152,0.0,70.0,255.0,255.0,255.0
143,7.15,14.186623798600193,13.55878218113476,-0.8184854569476296,0.18858683832018386,0.01606130868912814,-0.224712607911568,0.022805695282634986,0.002674117743772797,-0.02796701529228507,0.0,70.0,255.0,255.0,255.0
144,7.2,14.19608155339245,13.559588615501172,-0.8297559749650025,0.18970120158286363,0.016212094520149378,-0.22608031252054905,0.021989028786251197,0.0032606264481316316,-0.026947538778265834,0.0,70.0,255.0,255.0,255.0
145,7.25,14.20559391875848,13.560403390586774,-0.8410934881996845,0.19078574119880898,0.016387371333941303,-0.22740736178939458,0.021744772066334406,0.003553344797602165,-0.026513115745663285,0.0,70.0,255.0,255.0,255.0
146,7.300000000000001,14.21516012751233,13.561227352634566,-0.852496711143942,0.19187567878949707,0.016567428999909595,-0.22873162409511538,0.022198157870256807,0.003445846883920467,-0.026839565867187165,0.0,70.0,255.0,255.0,255.0
147,7.3500000000000005,14.22478148663743,13.562060133486765,-0.8639666506091961,0.19300555698583466,0.01673195602233335,-0.2300913183761133,0.023188815690566855,0.0030134379731094896,-0.027769211022443674,0.0,70.0,255.0,255.0,255.0
148,7.4,14.234460683210914,13.562900548236799,-0.8755058429815533,0.19419456035855376,0.016868772797220544,-0.23150854519735975,0.02439825808959739,0.002418036306650606,-0.02897565018052939,0.0,70.0,255.0,255.0,255.0
149,7.45,14.244200942673285,13.563747010766487,-0.8871175051289321,0.1954453827947944,0.01697375965299841,-0.23298888339416624,0.02549241453966289,0.0018237972801316005,-0.03012682254506238,0.0,70.0,255.0,255.0,255.0
150,7.5,14.254005221490393,13.564597924202099,-0.8988047313209699,0.19674380181252005,0.017051152525233704,-0.234521227451866,0.02613998777842852,0.0013953514560682834,-0.030903948657634572,0.0,70.0,255.0,255.0,255.0
151,7.550000000000001,14.263875322854537,13.56545212601901,-0.9105696278741187,0.19805938157263725,0.01711329479860524,-0.2360792782599297,0.026167321289172207,0.0012228935766245286,-0.031132819917700782,0.0,70.0,255.0,255.0,255.0
152,7.6000000000000005,14.273811159647657,13.56630925368196,-0.9224126591469629,0.19936053394143727,0.017173441882896157,-0.23763450944363607,0.025688440341475882,0.0012634261945976277,-0.03087238400366621,0.0,70.0,255.0,255.0,255.0
153,7.65,14.28381137624868,13.5671694702073,-0.9343330788184823,0.20062822560678484,0.017239637418065,-0.2391665166602963,0.024951388908966976,0.0014182125532613554,-0.030280500535606603,0.0,70.0,255.0,255.0,255.0
154,7.7,14.293873982208336,13.568033217423766,-0.9463293108129925,0.20185567283233397,0.017315263138222292,-0.24066255949719673,0.024208399303304873,0.0015903848973763957,-0.02951897057534847,0.0,70.0,255.0,255.0,255.0
155,7.75,14.303996943531914,13.568900996521123,-0.9583993347682019,0.20304906553711533,0.01739867590780264,-0.24211841371783116,0.023723248848206424,0.0016732680263586985,-0.028751089623735293,0.0,70.0,255.0,255.0,255.0
156,7.800000000000001,14.314178888762047,13.569773085014546,-0.9705411521847757,0.2042279977171546,0.017482589940858162,-0.24353766845957026,0.023638104759271528,0.001609804916213875,-0.028080902713811806,0.0,70.0,255.0,255.0,255.0
157,7.8500000000000005,14.324419743303629,13.570649255515209,-0.982753101614159,0.20541287601304248,0.01755965639942403,-0.24492650398921234,0.023852854179295946,0.0014537896493749258,-0.02753845576012326,0.0,70.0,255.0,255.0,255.0
158,7.9,14.334720176363351,13.571529050654489,-0.9950338025836969,0.2066132831350842,0.017627968905795655,-0.24629151403558258,0.024162433359720126,0.0013073419195208658,-0.027147662362325686,0.0,70.0,255.0,255.0,255.0
159,7.95,14.345081071617138,13.572412052405788,-1.0073822530177172,0.2078291193490145,0.017690390591376115,-0.2476412702254449,0.02437310246552471,0.0012617493782229872,-0.026942469978774586,0.0,70.0,255.0,255.0,255.0
160,8.0,14.355503088298253,13.573298089713626,-1.0197979296062414,0.20905059338163667,0.017754143843617953,-0.24898576103346004,0.02427909142213025,0.0014075204937569197,-0.026943720819372352,0.0,70.0,255.0,255.0,255.0
161,8.05,14.365986130955301,13.57418746679015,-1.0322808291210632,0.21025702849122752,0.017831142640751807,-0.25033564230738214,0.02378039953470079,0.0017849730049590562,-0.027151308154715892,0.0,70.0,255.0,255.0,255.0
162,8.1,14.376528791147376,13.575081203977701,-1.0448314938369796,0.21142863333510675,0.01793264114411386,-0.25170089184893163,0.023022846903053562,0.002319643645698477,-0.02753024983230823,0.0,70.0,255.0,255.0,255.0
163,8.15,14.387128994288812,13.575980730904561,-1.0574509183059564,0.21255931318153287,0.018063107005321655,-0.25308866729061297,0.022276173688773326,0.0028733521698853792,-0.028010714817017224,0.0,70.0,255.0,255.0,255.0
164,8.200000000000001,14.397784722465529,13.576887514678234,-1.070140360566041,0.21365625070398409,0.018219976361102397,-0.25450196333063335,0.021799050974458112,0.003309843698140469,-0.02850546186390357,0.0,70.0,255.0,255.0,255.0
165,8.25,14.40849461935921,13.577802728540671,-1.0829011146390197,0.21473921827897868,0.0183940913751357,-0.2559392134770033,0.0218483108724854,0.003504668646137077,-0.0289339804787625,0.0,70.0,255.0,255.0,255.0
166,8.3,14.419258644293427,13.578726923815747,-1.0957342819137412,0.21584108179123263,0.018570443225716105,-0.2573953613785096,0.02254118288274043,0.003396503529629058,-0.02924766420120406,0.0,70.0,255.0,255.0,255.0
167,8.35,14.430078727538334,13.579659772863243,-1.1086406507768707,0.21699333656725273,0.018733741728098607,-0.25886397989712373,0.023689511121283147,0.0030321112927111926,-0.029424181274206873,0.0,70.0,255.0,255.0,255.0
168,8.4,14.440957977950152,13.580600297988557,-1.1216206799034536,0.21821003290336094,0.018873654354987224,-0.2603377795059303,0.02493744065024117,0.0025156130364578644,-0.029445002845029933,0.0,70.0,255.0,255.0,255.0
169,8.450000000000001,14.45189973082867,13.581547138298742,-1.1346744287274637,0.21948708063227684,0.018985303031744394,-0.2618084801816267,0.02592514585053607,0.001958363008114361,-0.029296195386097068,0.0,70.0,255.0,255.0,255.0
170,8.5,14.46290668601338,13.582498828291731,-1.1478015279216163,0.22080254748841455,0.01906949065579866,-0.26326739904454,0.026299693059606,0.0014618235697483328,-0.02896436658965662,0.0,70.0,255.0,255.0,255.0
171,8.55,14.473979985577511,13.583454087364322,-1.1610011686319177,0.22211704993823744,0.019131485388719227,-0.2647049168405924,0.025887782687483707,0.0010885000563121139,-0.02845700939950735,0.0,70.0,255.0,255.0,255.0
172,8.6,14.485118391007203,13.584411976830603,-1.1742720196056755,0.22339132575716292,0.01917834066142987,-0.26611309998449073,0.024868992062465622,0.0008682748207533564,-0.02785386423163061,0.0,70.0,255.0,255.0,255.0
173,8.65,14.496319118153227,13.585371921430465,-1.1876124786303668,0.224603949144484,0.019218312870794563,-0.26749030326375545,0.023605019421424345,0.0008286712089855541,-0.02729011296365158,0.0,70.0,255.0,255.0,255.0
174,8.700000000000001,14.507578785921652,13.586333808117683,-1.201021049932051,0.22575182769930535,0.019261207782328427,-0.2688421112808559,0.02246642622836248,0.0009961914486211754,-0.026908730950681026,0.0,70.0,255.0,255.0,255.0
175,8.75,14.518894300923158,13.587298042208698,-1.2144966897584524,0.22685059176732025,0.01931793201565668,-0.27018117635882355,0.02182489824136269,0.0014040277507731957,-0.02685256248668999,0.0,70.0,255.0,255.0,255.0
176,8.8,14.530263845098384,13.588265601319248,-1.2280391675679334,0.22793431752344162,0.019401610557405746,-0.2715273675295249,0.021873746974421238,0.0020505218859767638,-0.027184811021285782,0.0,70.0,255.0,255.0,255.0
177,8.85,14.541687732675502,13.589238203264438,-1.2416494265114049,0.22903796646476238,0.019522984204254357,-0.2728996574609521,0.022465476339839086,0.0028139502633806046,-0.027795886274750714,0.0,70.0,255.0,255.0,255.0
178,8.9,14.55316764174486,13.590217899739674,-1.2553291333140286,0.23018086515742553,0.019683005583743807,-0.27430695615699996,0.023292365112936864,0.003488862967770956,-0.02847818166400451,0.0,70.0,255.0,255.0,255.0
179,8.950000000000001,14.564705819191245,13.591206503822812,-1.2690801221271049,0.23136720297605606,0.019871870501031452,-0.2757474756273526,0.024048776274909756,0.003864610125425827,-0.029016106918389184,0.0,70.0,255.0,255.0,255.0
180,9.0,14.576304362042466,13.592205086789777,-1.2829038808767639,0.2325857427849165,0.02006946659628639,-0.2772085668488389,0.02442476992037257,0.0037300840757481524,-0.0291893927877096,0.0,70.0,255.0,255.0,255.0
181,9.05,14.587964393469736,13.593213450482441,-1.2968009788119887,0.23380967996809332,0.020244878908606267,-0.27866641490612354,0.024257882096279104,0.002995100045666277,-0.028890459802100033,0.0,70.0,255.0,255.0,255.0
182,9.1,14.599685330039275,13.594229574680638,-1.3107705223673762,0.23501153099454442,0.020368976600853017,-0.2800976128290489,0.023675442903581256,0.001842171209176513,-0.02824799859462157,0.0,70.0,255.0,255.0,255.0
183,9.15,14.61146554656919,13.595250348142526,-1.3248107400948936,0.23617722425845145,0.02042909602952392,-0.2814912147655857,0.02293834063937794,0.0006113081552072686,-0.027511752454967286,0.0,70.0,255.0,255.0,255.0
184,9.200000000000001,14.62330305246512,13.59627248428359,-1.3389196438439348,0.2373053650584822,0.020430107416373744,-0.2828487880745456,0.02229884163114093,-0.0003490841626430097,-0.026933414802376987,0.0,70.0,255.0,255.0,255.0
185,9.25,14.635196083075039,13.597293358884164,-1.3530956189023482,0.23840710842156554,0.020394187613259618,-0.2841845562458234,0.02200795680860068,-0.0006963920263558521,-0.026773829066373267,0.0,70.0,255.0,255.0,255.0
186,9.3,14.647143763307277,13.598311903044916,-1.3673380994685171,0.23950616073934228,0.02036046821373816,-0.28552617098118294,0.02219458478176506,-0.00026383582358846525,-0.027159923196973246,0.0,70.0,255.0,255.0,255.0
187,9.35,14.659146699148973,13.599329405705538,-1.3816482360004665,0.24062656689974204,0.02036780403090077,-0.2869005485655207,0.02274734412193169,0.0007674814503033645,-0.027926711421399908,0.0,70.0,255.0,255.0,255.0
188,9.4,14.671206419997251,13.600348683448006,-1.3960281543250692,0.24178089515153545,0.020437216358768495,-0.2883188421233229,0.023439680254178086,0.002034948701989947,-0.028760216441514608,0.0,70.0,255.0,255.0,255.0
189,9.450000000000001,14.683324788664127,13.601373127341414,-1.4104801202127988,0.24297053492515985,0.020571298901099766,-0.2897765702096722,0.024049283772242802,0.0031656659189138736,-0.029350373732217605,0.0,70.0,255.0,255.0,255.0
190,9.5,14.695503473489767,13.602405813338116,-1.4250058113460364,0.24418582352875973,0.020753782950659883,-0.2912538794965447,0.024359440141630273,0.0037835026777344183,-0.029383356214829348,0.0,70.0,255.0,255.0,255.0
191,9.55,14.707743371017003,13.60344850563648,-1.4396055081624533,0.24540647893932288,0.020949649168873208,-0.2927149058311551,0.02425720535050857,0.0036941826422776103,-0.028709474449595263,0.0,70.0,255.0,255.0,255.0
192,9.600000000000001,14.7200441213837,13.604500778255003,-1.454277301929152,0.24661154406381058,0.021123201214887644,-0.2941248269415042,0.02382058853527269,0.003056947278068378,-0.027532335206981173,0.0,70.0,255.0,255.0,255.0
193,9.65,14.732404525423384,13.60556082575797,-1.4690179908566037,0.24778853779285015,0.021255343896680046,-0.29546813935185323,0.02321753041858443,0.0021990135875782357,-0.02624104145263484,0.0,70.0,255.0,255.0,255.0
194,9.700000000000001,14.744822975162984,13.606626312644671,-1.4838241158643373,0.24893329710566903,0.021343102573645467,-0.2967489310867677,0.022617309992689627,0.00144679344771248,-0.025224437588033943,0.0,70.0,255.0,255.0,255.0
195,9.75,14.75729785513395,13.607695136015334,-1.4986928839652804,0.2500502687921191,0.021400023241451294,-0.2979905831106566,0.022190273301880836,0.0011383253708530106,-0.024868690130297466,0.0,70.0,255.0,255.0,255.0
196,9.8,14.769828002042196,13.608766314968817,-1.513623174175403,0.2511523244358571,0.021456935110730768,-0.29923580009979744,0.022029367708320535,0.0014464525731838762,-0.025362551965124602,0.0,70.0,255.0,255.0,255.0
197,9.850000000000001,14.782413087577536,13.609840829526407,-1.5286164639752602,0.25225320556295117,0.02154466849876968,-0.3005268383071691,0.022086665373066694,0.0021983891114629728,-0.026494064300841558,0.0,70.0,255.0,255.0,255.0
198,9.9,14.795053322598491,13.610920781818693,-1.5436758580061198,0.2533609909731638,0.021676774021877065,-0.3018852065298816,0.022254673596577845,0.003056176436189162,-0.027844662036846657,0.0,70.0,255.0,255.0,255.0
199,9.950000000000001,14.807749186674853,13.612008506928595,-1.5588049846282483,0.25447867292260895,0.021850286142388597,-0.30331130451085375,0.022427676722536205,0.003693500616464007,-0.02899252859625001,0.0,70.0,255.0,255.0,255.0
200,10.0,14.820501189890752,13.613105810432932,-1.5740069884572052,0.2556037586454174,0.022046124083523466,-0.3047844593895066,0.0224874852987611,0.0037832890781075434,-0.02952192988414648,0.0,70.0,255.0,255.0,255.0
201,10.05,14.833309562539394,13.614213119336947,-1.589283430567199,0.25672742145248506,0.022228615050199352,-0.3062634974992684,0.022372549923055374,0.003166347391569957,-0.02922045755013869,0.0,70.0,255.0,255.0,255.0
202,10.100000000000001,14.846173932036,13.615328671937952,-1.604633338207132,0.25784101363772294,0.022362758822680462,-0.30770650514452047,0.022153682373371453,0.0020366757633283328,-0.02826222344036733,0.0,70.0,255.0,255.0,255.0
203,10.15,14.859093663903167,13.616449395219215,-1.620054081081651,0.2589427896898222,0.022432282626532185,-0.30908971984330513,0.02196200363293599,0.0007699403408167882,-0.027009494549012913,0.0,70.0,255.0,255.0,255.0
204,10.200000000000001,14.872068211004983,13.617571900200605,-1.6355423101914626,0.26003721400101654,0.02243975285676214,-0.31040745459942176,0.02191906936328536,-0.0002614485948626566,-0.02582530816701567,0.0,70.0,255.0,255.0,255.0
205,10.25,14.885097385303268,13.618693370504891,-1.6510948265415932,0.26113469662615074,0.02240613776704592,-0.3116722506600067,0.02215572956085765,-0.0006955376266049029,-0.025063543713055303,0.0,70.0,255.0,255.0,255.0
206,10.3,14.898181680667598,13.61981251397731,-1.6667095352574632,0.2622527869571023,0.02237019909410165,-0.3129138089707273,0.02272751884628832,-0.00035146917802819644,-0.024914965153577384,0.0,70.0,255.0,255.0,255.0
207,10.350000000000001,14.911322663998979,13.620930390414301,-1.682386207438666,0.2634074485107796,0.0223709908492431,-0.31416374717536444,0.023496833570568754,0.0006050243857913529,-0.025287997648715255,0.0,70.0,255.0,255.0,255.0
208,10.4,14.924522425518676,13.622049613062234,-1.6981259099749997,0.2646024703141592,0.022430701532680786,-0.3154426087355988,0.02421824427294439,0.001833106489712577,-0.025967243216884484,0.0,70.0,255.0,255.0,255.0
209,10.450000000000001,14.937782911030395,13.62317346056757,-1.7139304683122258,0.265829272938074,0.022554301498214357,-0.3167604714970529,0.024649985218339054,0.0029862331560437383,-0.026739152488652884,0.0,70.0,255.0,255.0,255.0
210,10.5,14.951105352812483,13.624305043212056,-1.729801957124705,0.2670674688359931,0.02272932484828516,-0.3181165239844641,0.02454964307911922,0.003726880075660688,-0.027395923235640218,0.0,70.0,255.0,255.0,255.0
211,10.55,14.964489657913994,13.625446393052398,-1.7457421207106723,0.26828423724598593,0.022926989505780426,-0.3195000638206169,0.023809775623462315,0.0038734687143104907,-0.02781413404990829,0.0,70.0,255.0,255.0,255.0
212,10.600000000000001,14.977933776537082,13.626597742162634,-1.7617519635067667,0.2694484463983393,0.02311667171971621,-0.32089793738945493,0.022625230429795806,0.003512270983030419,-0.02799035472951239,0.0,70.0,255.0,255.0,255.0
213,10.65,14.991434502553828,13.62775806022437,-1.7778319144496177,0.2705467602889655,0.023278216604083468,-0.32229909929356815,0.021360450511309637,0.0028477502509005603,-0.02795528549723869,0.0,70.0,255.0,255.0,255.0
214,10.700000000000001,15.004988452565978,13.628925563823042,-1.7939818734361235,0.2715844914494703,0.023401446744806265,-0.3236934659391788,0.02038653754983244,0.002083602217162195,-0.02773239423254914,0.0,70.0,255.0,255.0,255.0
215,10.75,15.018592951698775,13.63009820489885,-1.8102012610435356,0.27258541404394876,0.023486576825799688,-0.32507233871682306,0.020073670151710132,0.0014159893506615617,-0.027344744696322643,0.0,70.0,255.0,255.0,255.0
216,10.8,15.032246993970373,13.631274221505622,-1.8264891073078058,0.2735918584646413,0.02354304567987242,-0.32642794040881107,0.02060046490495182,0.0009631421052702649,-0.02682075971913722,0.0,70.0,255.0,255.0,255.0
217,10.850000000000001,15.045952137545239,13.632452509466837,-1.8428440550844167,0.27464546053444394,0.023582891036326714,-0.3277544146887368,0.02175236125889768,0.0007413229196728821,-0.026231422594102938,0.0,70.0,255.0,255.0,255.0
218,10.9,15.059711540023818,13.633632510609255,-1.8592645487766795,0.27576709459053106,0.02361717797183971,-0.32905108266822136,0.023108997973153578,0.0007421395942230902,-0.025692453954984096,0.0,70.0,255.0,255.0,255.0
219,10.950000000000001,15.073528847004292,13.634814227264021,-1.8757491633512389,0.2769563603317593,0.023657104995749023,-0.3303236600842352,0.024244517264193632,0.0009650456199494784,-0.025330244940180435,0.0,70.0,255.0,255.0,255.0
220,11.0,15.087407176056994,13.63599822110883,-1.892296914785103,0.2781915463169504,0.023713682533834657,-0.3315841071622394,0.024735722932511806,0.001417181169394155,-0.025269107303049765,0.0,70.0,255.0,255.0,255.0
221,11.05,15.101348001635987,13.637185595517405,-1.9089075740674628,0.2794299326250105,0.02379882311268844,-0.33285057081454017,0.024368504615601694,0.0020817017906793467,-0.025563339894008053,0.0,70.0,255.0,255.0,255.0
222,11.100000000000001,15.115350169319495,13.638378103420099,-1.925581971866557,0.2806283967785106,0.02392185271290259,-0.3341404411516402,0.023336140385765702,0.002841598178804361,-0.026119479369590692,0.0,70.0,255.0,255.0,255.0
223,11.15,15.129410841313838,13.639577780788695,-1.9423216181826268,0.28176354666358705,0.024082982930568875,-0.33546251875149924,0.022032741746791373,0.003502852213976837,-0.026758535046522702,0.0,70.0,255.0,255.0,255.0
224,11.200000000000001,15.143526523985853,13.640786401713155,-1.959128223741707,0.28283167095318973,0.024272137934300275,-0.3368162946562925,0.020855253533369478,0.0038639542301766028,-0.02729385211401869,0.0,70.0,255.0,255.0,255.0
225,11.25,15.157694008409157,13.642004994582125,-1.976003247648256,0.283849072016924,0.024469378353586535,-0.3381919039629011,0.020203391496664835,0.003723304618397094,-0.027542835415483857,0.0,70.0,255.0,255.0,255.0
226,11.3,15.171911431187546,13.643233339548514,-1.992947414137997,0.2848520101028562,0.024644468396139985,-0.33957057819784087,0.020284863952113596,0.002995738377542523,-0.02741259399143825,0.0,70.0,255.0,255.0,255.0
227,11.350000000000001,15.186179209419443,13.64446944142174,-2.00996030546804,0.28587755841213536,0.024768952191340787,-0.34093316336204493,0.02093403291070217,0.0018585314517594043,-0.02697606785284634,0.0,70.0,255.0,255.0,255.0
228,11.4,15.20049918702876,13.645710234767648,-2.0270407304742015,0.28694541339392643,0.024830321541315925,-0.3422681849831255,0.02180991849023428,0.000641882784790937,-0.026387997933485785,0.0,70.0,255.0,255.0,255.0
229,11.450000000000001,15.214873750758835,13.64695247357587,-2.0441871239663527,0.2880585502611588,0.02483314046981988,-0.3435719631553935,0.022574095640059966,-0.00031531475492840855,-0.025807633317098677,0.0,70.0,255.0,255.0,255.0
230,11.5,15.229305042054875,13.64819354881463,-2.061397926789741,0.2892028229579324,0.024798790065823084,-0.34484894831483537,0.022874767023317588,-0.0006824276148620356,-0.025395541711237257,0.0,70.0,255.0,255.0,255.0
231,11.55,15.243794033054629,13.649432352582453,-2.0786720187978363,0.29034602696349054,0.024764897708333677,-0.34611151732651724,0.022532692257115627,-0.0002975690536644038,-0.025239058032822115,0.0,70.0,255.0,255.0,255.0
232,11.600000000000001,15.258339644751224,13.650670038585464,-2.0960090785223926,0.291456092183644,0.024769033160456644,-0.3473728541181176,0.021734068299217313,0.000674392564015136,-0.02529261285513229,0.0,70.0,255.0,255.0,255.0
233,11.65,15.272939642272993,13.651909255898499,-2.113409304209648,0.2925194337934123,0.02483233696473519,-0.34864077861203047,0.020840404805788637,0.0018986609354953998,-0.025453948744313948,0.0,70.0,255.0,255.0,255.0
234,11.700000000000001,15.287591588130566,13.653153272281937,-2.1308731563835956,0.29354013266422285,0.024958899254006184,-0.349918248992549,0.020202023578974604,0.0030312441838376003,-0.025621815083987087,0.0,70.0,255.0,255.0,255.0
235,11.75,15.302293655539415,13.6544051458239,-2.148401129108903,0.29453963615130974,0.02513546138311895,-0.3512029601204292,0.020177447169267282,0.0037344244891102107,-0.025683016387345603,0.0,70.0,255.0,255.0,255.0
236,11.8,15.317045551745696,13.655666818420249,-2.1659934523956386,0.2955578773811496,0.025332341702917205,-0.35248655063128354,0.020938026693428924,0.003828477231593297,-0.025578399984382827,0.0,70.0,255.0,255.0,255.0
237,11.850000000000001,15.33184944327753,13.656938379994191,-2.1836497841720313,0.29663343882065263,0.02551830910627828,-0.35376080011886746,0.022242514406123348,0.0034129425818818504,-0.025374413127687845,0.0,70.0,255.0,255.0,255.0
238,11.9,15.346708895627762,13.658218649330877,-2.2013695324075253,0.2977821288217619,0.02567363596110539,-0.3550239919440523,0.023634802613514694,0.002713590023617485,-0.025194435527664538,0.0,70.0,255.0,255.0,255.0
239,11.950000000000001,15.361627656159706,13.659505743590302,-2.2191521833664365,0.2989969190820041,0.02578966810864003,-0.3562802436716339,0.024665176010429946,0.0019574242660524988,-0.025152192594157796,0.0,70.0,255.0,255.0,255.0
240,12.0,15.376608587535962,13.66079761614174,-2.2369975567746887,0.3002486464228049,0.02586937838771064,-0.3575392112034681,0.024891528214787684,0.0013727016847653317,-0.025368336795006385,0.0,70.0,255.0,255.0,255.0
241,12.05,15.391652520801987,13.662092681429073,-2.2549061044867833,0.30148607190348287,0.025926938277116562,-0.35881707735113455,0.024101028475520536,0.00108920791248579,-0.025894428276718173,0.0,70.0,255.0,255.0,255.0
242,12.100000000000001,15.40675719472631,13.663390309969452,-2.272879264509802,0.30265874927035696,0.02597829917895922,-0.3601286540311399,0.022547529087546536,0.0010692683444446516,-0.02660796307254465,0.0,70.0,255.0,255.0,255.0
243,12.15,15.421918395729023,13.664690511346969,-2.2909189698898973,0.3037408248122375,0.026033865111561028,-0.361477873658389,0.020730408051328197,0.0012132260572172981,-0.027289241545824794,0.0,70.0,255.0,255.0,255.0
244,12.200000000000001,15.437131277207534,13.665993696480609,-2.309027051875641,0.3047317900754898,0.02609962178468095,-0.3628575781857224,0.01915610688030256,0.0014314596860742768,-0.027723353933195582,0.0,70.0,255.0,255.0,255.0
245,12.25,15.452391574736572,13.667300473525437,-2.3272047277084695,0.3056564355002678,0.026177011080168455,-0.3642502090517086,0.018320402672955538,0.001634815391327038,-0.027703683052582306,0.0,70.0,255.0,255.0,255.0
246,12.3,15.467696920757561,13.668611397588625,-2.345452072780812,0.30656383034278534,0.026263103323813652,-0.3656279464909806,0.01847771954288646,0.001768630509602076,-0.027136287841456053,0.0,70.0,255.0,255.0,255.0
247,12.350000000000001,15.48304795777085,13.669926783857818,-2.3637675223575676,0.3075042074545564,0.026353874131128663,-0.3669638378358542,0.019433849431393924,0.0018309164396157485,-0.026159981668349985,0.0,70.0,255.0,255.0,255.0
248,12.4,15.498447341503017,13.671246785001738,-2.3821484565643973,0.30850721528592473,0.026446194967775227,-0.3682439446578156,0.02077708499594877,0.0018317341874407589,-0.0250440295242349,0.0,70.0,255.0,255.0,255.0
249,12.450000000000001,15.513898679299443,13.672571403354596,-2.400591916823349,0.3095819159541513,0.02653704754987274,-0.36946824078827767,0.02209053632977742,0.0017705365271680762,-0.024066652745347028,0.0,70.0,255.0,255.0,255.0
250,12.5,15.529405533098432,13.673900489756726,-2.419095280643225,0.31071626891890247,0.026623248620492035,-0.37065060993235033,0.022962898387923758,0.0016360087773392706,-0.023496930994726384,0.0,70.0,255.0,255.0,255.0
251,12.55,15.544970306191333,13.675233728216645,-2.437656977816584,0.3118782057929437,0.026700648427606666,-0.3718179338877503,0.02316925885246235,0.0014295567597244485,-0.023473707070875705,0.0,70.0,255.0,255.0,255.0
252,12.600000000000001,15.560593353677726,13.676570554599486,-2.456277074032,0.3130331948041487,0.02676620429646448,-0.3729979806394379,0.022807049876760743,0.001207065896835502,-0.023903998365693013,0.0,70.0,255.0,255.0,255.0
253,12.65,15.576273625671748,13.677910348646291,-2.474956775880528,0.31415891078061975,0.026821355017290216,-0.3742083337243196,0.022109596954322797,0.0010598371940062634,-0.024582752245416728,0.0,70.0,255.0,255.0,255.0
254,12.700000000000001,15.592009244755788,13.679252690101215,-2.493697907404432,0.315244154499581,0.026872188015865106,-0.37545625586397957,0.021302633581932184,0.0010796809203128532,-0.025296748372305444,0.0,70.0,255.0,255.0,255.0
255,12.75,15.607798041121706,13.680597567447878,-2.512502401466926,0.31628917413881297,0.0269293231093215,-0.37673800856155015,0.0206039478305442,0.0013691215265509982,-0.025828592968313302,0.0,70.0,255.0,255.0,255.0
256,12.8,15.62363816216967,13.681945622412147,-2.531371708260587,0.3173045492826354,0.027009100168520206,-0.3780391151608109,0.020144079545936222,0.0019669419836887414,-0.026056622802883567,0.0,70.0,255.0,255.0,255.0
257,12.850000000000001,15.63952849604997,13.68329847746473,-2.550306312983007,0.3183035820934066,0.027126017307690375,-0.3793436708418385,0.019933382295889146,0.002739048411370959,-0.026028593633453667,0.0,70.0,255.0,255.0,255.0
258,12.9,15.65546852037901,13.684658224142916,-2.569306075344771,0.3192978875122243,0.027283005009657302,-0.38064197452415627,0.019950774272814442,0.0034498494375867494,-0.025858714407789307,0.0,70.0,255.0,255.0,255.0
259,12.950000000000001,15.671458284801192,13.686026777965695,-2.5883705104354227,0.32029865952068803,0.02747100225144905,-0.38192954228261744,0.02018461698920504,0.0038646791862717578,-0.025653952833337712,0.0,70.0,255.0,255.0,255.0
260,13.0,15.687498386331079,13.687405324368061,-2.6074990295730327,0.3213163492111448,0.027669472928284478,-0.38320736980749004,0.020629328938248648,0.0037475517363105837,-0.025528650511885687,0.0,70.0,255.0,255.0,255.0
261,13.05,15.703589919722306,13.688793725258524,-2.6266912474161717,0.3223615924145129,0.02784575742508011,-0.384482407333806,0.021262161891932863,0.002995076238043737,-0.025545862323461677,0.0,70.0,255.0,255.0,255.0
262,13.100000000000001,15.71973454557253,13.69018990011057,-2.6459472703064133,0.3234425654003381,0.02796898055208885,-0.3857619560398362,0.0219785817783702,0.0018029875437974852,-0.025660694699514153,0.0,70.0,255.0,255.0,255.0
263,13.15,15.73593417626234,13.691590623313733,-2.6652674430201553,0.3245594505923499,0.028026056179459857,-0.3870484768037574,0.02260646679399514,0.0005361962902128425,-0.025784161685171725,0.0,70.0,255.0,255.0,255.0
264,13.200000000000001,15.752190490631765,13.692992505728515,-2.684652117986789,0.3257032120797376,0.028022600181110136,-0.3883403722083534,0.022966637390275935,-0.0004328498786065893,-0.02584035404753493,0.0,70.0,255.0,255.0,255.0
265,13.25,15.768504497470314,13.694392883331844,-2.7041014802409906,0.3268561143313775,0.0279827711915992,-0.3896325122085109,0.022886755063922237,-0.0007313564445610155,-0.02576086092811458,0.0,70.0,255.0,255.0,255.0
266,13.3,15.784876102064903,13.695790782847675,-2.72361536920764,0.32799188758612985,0.027949464536654034,-0.39091645830116484,0.022292960529846084,-0.0001801606890339258,-0.02551284165606127,0.0,70.0,255.0,255.0,255.0
267,13.350000000000001,15.801303686228927,13.69718782978551,-2.743193126071107,0.3290854103843621,0.027964755122695806,-0.39218379637411704,0.021318537675441007,0.0009991179643620285,-0.025130399130279812,0.0,70.0,255.0,255.0,255.0
268,13.4,15.817784643103339,13.698587258359945,-2.762833748845052,0.33012374135367395,0.028049376333090237,-0.3934294982141928,0.02021878978819558,0.002374409689664958,-0.02468370645054563,0.0,70.0,255.0,255.0,255.0
269,13.450000000000001,15.834316060364294,13.699992767418818,-2.7825360758925264,0.3311072893631817,0.0282021960916623,-0.3946521670191716,0.019261094524303246,0.003507373009803416,-0.024244118156024896,0.0,70.0,255.0,255.0,255.0
270,13.5,15.850895372039657,13.701407477969111,-2.802298965546969,0.3320498508061043,0.02840011363407058,-0.3958539100297953,0.01870365080627323,0.003957920662145398,-0.023871915099693553,0.0,70.0,255.0,255.0,255.0
271,13.55,15.867521045444905,13.702832778782225,-2.822121466895506,0.332977654443809,0.02859798815787684,-0.39703935852914096,0.018679282700873046,0.0035057063771049,-0.023602771052377847,0.0,70.0,255.0,255.0,255.0
272,13.600000000000001,15.884193137484038,13.704267276784899,-2.842002901399883,0.3339177790761916,0.02875068427178107,-0.3982141871350331,0.01909915563000908,0.0023713564502259032,-0.02345500481673035,0.0,70.0,255.0,255.0,255.0
273,13.65,15.900912823352524,13.705707847209403,-2.8619428856090092,0.3348875700068099,0.02883512380289943,-0.399384859010814,0.01976648594173014,0.0009953491005632031,-0.023443716475490817,0.0,70.0,255.0,255.0,255.0
274,13.700000000000001,15.91768189448472,13.707150789165189,-2.8819413873009645,0.3358944276703646,0.02885021918183739,-0.4005585587825822,0.02047569780252445,-0.0001834953074819623,-0.023576460041585534,0.0,70.0,255.0,255.0,255.0
275,13.75,15.93450226611956,13.708592869127587,-2.9019987414872674,0.33693513978706235,0.028816774272151235,-0.40174250501497255,0.02101864171155654,-0.0007324007954778722,-0.02385544137690765,0.0,70.0,255.0,255.0,255.0
276,13.8,15.951375408463425,13.710032466592404,-2.9221156378024618,0.33799629184152025,0.0287769791022896,-0.40294410292027294,0.021277647592121696,-0.0004295179657276549,-0.02427038648877833,0.0,70.0,255.0,255.0,255.0
277,13.850000000000001,15.968301895303712,13.711470567037816,-2.9422931517792947,0.3390629045462745,0.02877382247557847,-0.4041695436638504,0.021289408567959356,0.0005446403836373293,-0.024768742442171643,0.0,70.0,255.0,255.0,255.0
278,13.9,15.985281698918053,13.712909848839962,-2.962532592168847,0.3401252326983162,0.028831443140653334,-0.4054209771644901,0.021149019359789634,0.0018150097568891965,-0.025260588486597513,0.0,70.0,255.0,255.0,255.0
279,13.950000000000001,16.002314418573544,13.714353711351881,-2.9828352494957437,0.3411778064822535,0.02895532345126739,-0.40669560251251013,0.020943713334453662,0.0030067480793150025,-0.025651067318355203,0.0,70.0,255.0,255.0,255.0
280,14.0,16.019399479566278,13.715805381185088,-3.003202152420098,0.34221960403176155,0.029132117948584835,-0.4079860838963256,0.020761735726715358,0.0037517291417543674,-0.025862310068713867,0.0,70.0,255.0,255.0,255.0
281,14.05,16.03653637897672,13.71726692314674,-3.0236338578853763,0.343253980054925,0.029330496365442826,-0.4092818335193815,0.02065618753519516,0.003853018166921629,-0.025855170172173203,0.0,70.0,255.0,255.0,255.0
282,14.100000000000001,16.05372487757177,13.718738430821633,-3.044130335772036,0.34428522278528106,0.029517419765276998,-0.41057160091354294,0.02062227769705771,0.0034191263036831288,-0.02563450093906461,0.0,70.0,255.0,255.0,255.0
283,14.15,16.07096490125525,13.720218665123268,-3.0646910179767306,0.3453162078246308,0.02967240899581114,-0.411845283613288,0.02063920818109466,0.002694728421559489,-0.025230293214306698,0.0,70.0,255.0,255.0,255.0
284,14.200000000000001,16.088256498354234,13.721705671721214,-3.0853148641333648,0.34634914360339053,0.029786892607432947,-0.4130946302349736,0.020695649326185617,0.0019235892361635365,-0.024685471151197902,0.0,70.0,255.0,255.0,255.0
285,14.25,16.105599815615587,13.723197354384011,-3.106000481000228,0.34738577275724936,0.029864767919427493,-0.4143138307284078,0.020786443352704964,0.0013534562588901622,-0.024035364968266748,0.0,70.0,255.0,255.0,255.0
286,14.3,16.12299507562996,13.724692148513157,-3.1267462472062055,0.348427787938661,0.029922238233321963,-0.4154981667318003,0.02090431555288319,0.001122993084123891,-0.02331462046791799,0.0,70.0,255.0,255.0,255.0
287,14.350000000000001,16.140442594409453,13.726189578207343,-3.147550297673408,0.3494762043125377,0.029977067227839882,-0.41664529277519957,0.02102148064473397,0.0011742856349528097,-0.022611388999793647,0.0,70.0,255.0,255.0,255.0
288,14.4,16.157942696061212,13.72768985523594,-3.1684107764837255,0.3505299360031344,0.030039666796817244,-0.41775930563177965,0.021094147916045358,0.0013723236440554842,-0.02206178178014717,0.0,70.0,255.0,255.0,255.0
289,14.450000000000001,16.175495588009767,13.729193544887025,-3.189326228236586,0.3515856191041422,0.03011429959224543,-0.4188514709532143,0.021080402650142105,0.0015912959089092737,-0.021799309149228563,0.0,70.0,255.0,255.0,255.0
290,14.5,16.193101257971627,13.730701285195165,-3.210295923579047,0.35263797626814863,0.03019879638770817,-0.4199392365467025,0.02094451883571935,0.0016944924420059237,-0.021944202085721898,0.0,70.0,255.0,255.0,255.0
291,14.55,16.21075938563658,13.732213424525796,-3.231320151891256,0.35368007098771415,0.030283748836446023,-0.4210458911617865,0.020672750716599353,0.001608948889852968,-0.022541173130896652,0.0,70.0,255.0,255.0,255.0
292,14.600000000000001,16.228469265070398,13.73372966007881,-3.2524005126952256,0.35470525133980857,0.030359691276693468,-0.4221933538597922,0.020293571283502843,0.00140466355897928,-0.02347462837670733,0.0,70.0,255.0,255.0,255.0
293,14.65,16.246229910770563,13.735249393653465,-3.2735394872772354,0.35570942811606443,0.03042421519234395,-0.4233933539994572,0.019863267753450486,0.0012142054410801961,-0.024525376867634563,0.0,70.0,255.0,255.0,255.0
294,14.700000000000001,16.264040207882005,13.736772081598044,-3.2947398480951713,0.3566915781151536,0.030481111820801488,-0.42464589154655563,0.019442227257471245,0.0011583133728620965,-0.02545883071363164,0.0,70.0,255.0,255.0,255.0
295,14.75,16.281899068582078,13.738297504835545,-3.316004076431891,0.35765365084181155,0.03054004652963016,-0.4259392370708204,0.01907949063131298,0.00136451802834614,-0.02605579871719499,0.0,70.0,255.0,255.0,255.0
296,14.8,16.299805572966186,13.739826086251007,-3.3373337718022533,0.3585995271782849,0.0306175636236361,-0.42725147141827513,0.01880468157686721,0.0018882976050349498,-0.026200687008293144,0.0,70.0,255.0,255.0,255.0
297,14.850000000000001,16.317759021299906,13.741359261197909,-3.3587292235737185,0.3595341189994983,0.030728876290133655,-0.4285593057716497,0.018641530254726035,0.0026052885685245997,-0.025938209381459743,0.0,70.0,255.0,255.0,255.0
298,14.9,16.335758984866136,13.74289897388002,-3.3801897023794183,0.3604636802037575,0.03087809248048856,-0.4298452923564211,0.018615485031503454,0.0032917869930315646,-0.025388598861164624,0.0,70.0,255.0,255.0,255.0
299,14.950000000000001,16.353805389320282,13.744447070445958,-3.4017137528093606,0.3613956675026486,0.031058054989436812,-0.43109816565776615,0.018743975036272786,0.0037293899930901375,-0.024685367996113428,0.0,70.0,255.0,255.0,255.0
300,15.0,16.3718985516164,13.746004779378964,-3.423299518945195,0.3623380777073848,0.031251031479797575,-0.43231382915603245,0.019041481345283273,0.003707482062331735,-0.02396463101757007,0.0,70.0,255.0,255.0,255.0
301,15.05,16.39003919709102,13.747572173593937,-3.444945135724964,0.36329981563717695,0.031428803195669985,-0.43349462875952316,0.019502835328211177,0.003130261622885655,-0.023314540374430592,0.0,70.0,255.0,255.0,255.0
302,15.100000000000001,16.408228533180118,13.749147659698531,-3.4666489818211472,0.3642883612402059,0.03156405764208614,-0.4346452831934755,0.02005946853671503,0.0021404292558813154,-0.022769736894812098,0.0,70.0,255.0,255.0,255.0
303,15.15,16.42646803321504,13.750728579358146,-3.4884096640443114,0.36530576249084845,0.03164284612125812,-0.43577160244900437,0.020593952959302442,0.0010140778210043777,-0.022365542372781988,0.0,70.0,255.0,255.0,255.0
304,15.200000000000001,16.444759109429203,13.752311944310657,-3.5102261420660477,0.36634775653613616,0.03166546542418658,-0.4368818374307537,0.02098289823777577,3.6387725010911254e-05,-0.022144872126750315,0.0,70.0,255.0,255.0,255.0
305,15.25,16.463102808868655,13.753895125900565,-3.532097847787387,0.36740405231462603,0.03164648489375921,-0.4379860896616794,0.021110574664717774,-0.0005144462775774628,-0.022137705184999135,0.0,70.0,255.0,255.0,255.0
306,15.3,16.481499514660666,13.755476592800033,-3.5540247510322156,0.36845881400260794,0.03161402079642883,-0.4390956079492536,0.020923464290589777,-0.000496057383436721,-0.022348890422119183,0.0,70.0,255.0,255.0,255.0
307,15.350000000000001,16.499948690268916,13.757056527980208,-3.576007408582312,0.369496398743685,0.031596879155415536,-0.4402209787038913,0.020485071123843568,-1.5117479712500881e-05,-0.022739299915652822,0.0,70.0,255.0,255.0,255.0
308,15.4,16.518449154535034,13.758636280715574,-3.5980468489026047,0.3705073211149923,0.03161250904845758,-0.4413695379408189,0.019925066766646182,0.0007000136125867584,-0.02323109644923882,0.0,70.0,255.0,255.0,255.0
309,15.450000000000001,16.536999422380415,13.760217778885053,-3.620144362376394,0.3714889054203496,0.03166688051667421,-0.4425440883488152,0.01938391919011906,0.001411772393922206,-0.023729455851029257,0.0,70.0,255.0,255.0,255.0
310,15.5,16.55559804507707,13.761802968767242,-3.6423012577374863,0.3724457130340042,0.0317536862878498,-0.4437424835259218,0.019004238644271254,0.0018703030473687932,-0.024144501622602732,0.0,70.0,255.0,255.0,255.0
311,15.55,16.574243993683815,13.763393147513838,-3.664518610728986,0.37338932928477675,0.03185391082141109,-0.4449585385110755,0.01886279469083263,0.0019417068381599734,-0.02442369747086559,0.0,70.0,255.0,255.0,255.0
312,15.600000000000001,16.592936978005547,13.764988359849383,-3.686797111588594,0.37433199250308746,0.0319478569716658,-0.4461848532730084,0.0189166106032701,0.001724609427355972,-0.024556699806321802,0.0,70.0,255.0,255.0,255.0
313,15.65,16.611677192934124,13.766587933211005,-3.709137096056287,0.37528099034510376,0.03202637176414669,-0.44741420849170765,0.019070255497410926,0.0014196206418404245,-0.02454559630598041,0.0,70.0,255.0,255.0,255.0
314,15.700000000000001,16.630465077040057,13.768190997025798,-3.7315385324377646,0.37623901805282856,0.03208981903584984,-0.4486394129036064,0.019227625469753207,0.0012174084819349673,-0.024397817289534274,0.0,70.0,255.0,255.0,255.0
315,15.75,16.649301094739407,13.76979691511459,-3.7540010373466477,0.3772037528920791,0.032148112612340185,-0.4498539902206611,0.01928048940840199,0.0013211594973583374,-0.024128297648573493,0.0,70.0,255.0,255.0,255.0
316,15.8,16.668185452329265,13.771405808287032,-3.7765239314598307,0.37816706699366875,0.032221934985585676,-0.4510522426684638,0.019172583052551317,0.0018290901676820681,-0.023755294053184883,0.0,70.0,255.0,255.0,255.0
317,15.850000000000001,16.687117801438774,13.773019108613148,-3.799106261613494,0.3791210111973342,0.03233102162910839,-0.45222951962597957,0.018969418860237397,0.0025939758078408204,-0.023314740019930724,0.0,70.0,255.0,255.0,255.0
318,15.9,16.706097553449,13.774638910449942,-3.8217468834224286,0.3800640088796925,0.03248133256636976,-0.45338371667045685,0.018792139682588527,0.0033442077850054375,-0.02286735748784352,0.0,70.0,255.0,255.0,255.0
319,15.950000000000001,16.725124202326743,13.776267241869785,-3.8444446332805398,0.38100022516559306,0.032665442407608936,-0.4545162553747639,0.018752665180343797,0.003818733538096808,-0.022484962636459827,0.0,70.0,255.0,255.0,255.0
320,16.0,16.744197575965558,13.777905454690703,-3.867198508959905,0.3819392753977269,0.03286320592017944,-0.45563221293410283,0.018969747779351565,0.003757133553961012,-0.02223834507910638,0.0,70.0,255.0,255.0,255.0
321,16.05,16.763318129866516,13.779553562461803,-3.89000785457395,0.3828971999435282,0.03304115576300504,-0.45674008988267456,0.019493959346661427,0.003041046709206796,-0.02216183960306317,0.0,70.0,255.0,255.0,255.0
322,16.1,16.78248729595991,13.781209570267004,-3.9128725179481725,0.383888671332393,0.03316731059110012,-0.45784839689440915,0.020203942390040197,0.001865734428818655,-0.022221636151265045,0.0,70.0,255.0,255.0,255.0
323,16.150000000000002,16.801706996999755,13.782870293520913,-3.935792694263391,0.38491759418253224,0.0332277292058869,-0.45896225349780106,0.020882118169396335,0.0005989794537697435,-0.022347677705347735,0.0,70.0,255.0,255.0,255.0
324,16.2,16.820979055378164,13.784532343187593,-3.9587687432979526,0.38597688314933265,0.03322720853647709,-0.4600831646649439,0.021315653205178364,-0.00038679485054871066,-0.0224623321646078,0.0,70.0,255.0,255.0,255.0
325,16.25,16.84030468531469,13.786193014374561,-3.9818010107298853,0.3870491595030501,0.03318904972083203,-0.46120848671426184,0.021300566098858553,-0.0007217216843713459,-0.022474312710762945,0.0,70.0,255.0,255.0,255.0
326,16.3,16.85968397132847,13.787851248159676,-4.004889591969379,0.3881069397592185,0.03315503636803996,-0.4623305959360202,0.020743980493875824,-0.00022619075608076855,-0.022337860355348127,0.0,70.0,255.0,255.0,255.0
327,16.35,16.87911537929061,13.789508518011365,-4.028034070323487,0.38912355755243766,0.033166430645223954,-0.46344227274979666,0.01978105866484725,0.0008932030258534951,-0.02211964777618647,0.0,70.0,255.0,255.0,255.0
328,16.400000000000002,16.898596327083713,13.791167891224198,-4.051233819244358,0.39008504562570323,0.03324435667062531,-0.46454256071363886,0.018674818872099763,0.002228918687485759,-0.021940160128508523,0.0,70.0,255.0,255.0,255.0
329,16.45,16.91812388385318,13.792832953678428,-4.074488326394851,0.39099103943964764,0.03338932251397253,-0.4656362887626475,0.01769698306937073,0.0033690985439704946,-0.021912794952339,0.0,70.0,255.0,255.0,255.0
330,16.5,16.937695431027677,13.794506823475595,-4.097797448120623,0.3918547439326403,0.03358126652502236,-0.46673384020887276,0.01710798783030043,0.003909799805690284,-0.02216034813393719,0.0,70.0,255.0,255.0,255.0
331,16.55,16.957309358246444,13.79619108033093,-4.1211617104157385,0.3927018382226777,0.03378030249454156,-0.46785232357604123,0.017043405391348188,0.0036438561773266542,-0.02273380522233026,0.0,70.0,255.0,255.0,255.0
332,16.6,16.976965614849945,13.79788485372505,-4.144582680478227,0.3935590844717751,0.03394565214275502,-0.4690072207311058,0.01742371106097096,0.002732269317640146,-0.02349800118270906,0.0,70.0,255.0,255.0,255.0
333,16.650000000000002,16.996665266693622,13.799585645545205,-4.168062432488849,0.3944442093287748,0.03405352942630557,-0.47020212369431214,0.01806671823096906,0.0015145299453678263,-0.024212614181706726,0.0,70.0,255.0,255.0,255.0
334,16.7,17.016410035782823,13.80129020666768,-4.1916028928476585,0.39536575629487203,0.034097105137291805,-0.47142848214927646,0.01878312780085878,0.0003302608131861007,-0.024640427419431177,0.0,70.0,255.0,255.0,255.0
335,16.75,17.03620184232311,13.802995356058934,-4.215205280703777,0.39632252210886065,0.03408655550762418,-0.47266616643625525,0.01938748258147882,-0.0004975241575166933,-0.024544341373733403,0.0,70.0,255.0,255.0,255.0
336,16.8,17.05604228799371,13.804698862218443,-4.238869509491284,0.3973045045530199,0.034047352721540136,-0.4738829162866498,0.019770136870889132,-0.0007898866320132925,-0.02381931968757911,0.0,70.0,255.0,255.0,255.0
337,16.85,17.07593229277841,13.806400091331088,-4.262593572332442,0.39829953579594957,0.034007566844422854,-0.47504809840501316,0.019928665854607175,-0.0005913245875177608,-0.022654594579041287,0.0,70.0,255.0,255.0,255.0
338,16.900000000000002,17.095872241573304,13.808099618902885,-4.286374319331785,0.39929737113848063,0.03398822026278836,-0.47614837574455393,0.0198920611175879,-3.715501879497651e-05,-0.021404814380687753,0.0,70.0,255.0,255.0,255.0
339,16.95,17.11586202989226,13.809798913357367,-4.310208409906897,0.40028874190770836,0.034003851342543356,-0.47718857984308194,0.0196848180813447,0.0007360586691262938,-0.020431043155433315,0.0,70.0,255.0,255.0,255.0
340,17.0,17.135901115764074,13.81150000403714,-4.334093177316094,0.4012658529466151,0.03406182612970099,-0.47819148006009726,0.019334063194520468,0.0016002968234118953,-0.020090258398663963,0.0,70.0,255.0,255.0,255.0
341,17.05,17.15598861518692,13.813205095970337,-4.358027557912907,0.4022221482271604,0.034163881024884546,-0.47919760568294834,0.018868308197994565,0.0024639420999506,-0.020556002274130236,0.0,70.0,255.0,255.0,255.0
342,17.1,17.17612333058679,13.814916392139628,-4.382012937884388,0.40315268376641455,0.03430822033969605,-0.4802470802875103,0.018342464683129833,0.0032358262346932065,-0.021633737051462987,0.0,70.0,255.0,255.0,255.0
343,17.150000000000002,17.196303883563562,13.816635918004307,-4.406052265941658,0.4040563946954734,0.03448746364835387,-0.48136097938809463,0.017845876457300847,0.003788775444490966,-0.022937172585635324,0.0,70.0,255.0,255.0,255.0
344,17.2,17.216528970056338,13.818365138504463,-4.430149035823198,0.40493727141214464,0.034687097884145146,-0.4825407975460738,0.01747657423045723,0.0039870429727528744,-0.024076052639188106,0.0,70.0,255.0,255.0,255.0
345,17.25,17.236797610704777,13.820104627792722,-4.454306345696265,0.4058040521185191,0.034886167945629154,-0.48376858465201344,0.01732027396528224,0.0036963368641451666,-0.024674671650526392,0.0,70.0,255.0,255.0,255.0
346,17.3,17.25710937526819,13.821853755299026,-4.478525894288399,0.40666929880867286,0.03505673157055966,-0.48500826471112646,0.017417143159548232,0.002872579770496486,-0.024536811076369958,0.0,70.0,255.0,255.0,255.0
347,17.35,17.277464540585644,13.823610300949777,-4.502807172167378,0.40754576643447393,0.0351734259226788,-0.48622226575965044,0.01773699989087163,0.0016933343339076146,-0.02378127306661426,0.0,70.0,255.0,255.0,255.0
348,17.400000000000002,17.297863951911637,13.825371097891294,-4.527148120864364,0.40844299879776,0.035226065003950424,-0.4873863920177879,0.018208069417013917,0.00047925603752219104,-0.02267567942597637,0.0,70.0,255.0,255.0,255.0
349,17.45,17.31830884046542,13.827132907450173,-4.551545811369157,0.4093665733761753,0.03522135152643102,-0.4884898337022481,0.01874939781352225,-0.000432482308454496,-0.021491319713629053,0.0,70.0,255.0,255.0,255.0
350,17.5,17.338800609249255,13.828893233043937,-4.575997104234589,0.41031793857911225,0.035182816773104975,-0.4895355239891508,0.019296822295444827,-0.0007056442793640372,-0.02048303635051596,0.0,70.0,255.0,255.0,255.0
351,17.55,17.35934063432333,13.830651189127483,-4.600499363768072,0.4112962556057198,0.03515078709849462,-0.4905381373372997,0.01980363198690327,-0.00018046164740326276,-0.019802301206173212,0.0,70.0,255.0,255.0,255.0
352,17.6,17.379930234809827,13.832408311753786,-4.625050917968319,0.4122983017778026,0.03516477060836465,-0.4915157541097681,0.020193172118254665,0.0009409529800663563,-0.01947389795580179,0.0,70.0,255.0,255.0,255.0
353,17.650000000000002,17.40057046450111,13.83416766618832,-4.649650939179049,0.4133155728175453,0.035244882396501254,-0.49248552713287985,0.02035737034944418,0.0022632446929904404,-0.0194890607595255,0.0,70.0,255.0,255.0,255.0
354,17.7,17.42126179209158,13.835932799993437,-4.674299470681607,0.414334038812747,0.03539109507766369,-0.49346466018572066,0.020193060620599113,0.0033835389414704764,-0.019837642864395377,0.0,70.0,255.0,255.0,255.0
355,17.75,17.442003868382386,13.837706775696086,-4.698997405197621,0.4153348788796052,0.0355832362906483,-0.4944692914193194,0.01958847415046705,0.003906286873878173,-0.020505164299056133,0.0,70.0,255.0,255.0,255.0
356,17.8,17.46279527997954,13.839491123622501,-4.723746399823539,0.4162928862277937,0.03578172376505151,-0.4955151766156263,0.018513503719930213,0.003629406679017677,-0.021456035381373084,0.0,70.0,255.0,255.0,255.0
357,17.85,17.483633157005166,13.841284948072591,-4.748548922859183,0.4171862292515982,0.03594617695855007,-0.4966148949574567,0.01717292235774437,0.0027136695974760983,-0.02256145679009336,0.0,70.0,255.0,255.0,255.0
358,17.900000000000002,17.5045139029047,13.843085741318356,-4.773407889319285,0.41801017846356814,0.03605309072479912,-0.4977713222946356,0.015922355944653077,0.0014969493392413824,-0.023606399214504137,0.0,70.0,255.0,255.0,255.0
359,17.95,17.525434174851522,13.844890257145071,-4.798326055088647,0.4187784648460635,0.03609587189247421,-0.4989755348789071,0.01512339466813728,0.00031818668055905164,-0.024360160109271334,0.0,70.0,255.0,255.0,255.0
360,18.0,17.546391749389308,13.846695328507604,-4.823305442807175,0.41952251793038187,0.036084909392855025,-0.5002073383055627,0.015133243806531027,-0.0004995498361637374,-0.02460828780490587,0.0,70.0,255.0,255.0,255.0
361,18.05,17.56738642664456,13.848498748084356,-4.848346788919203,0.4202917892267166,0.036045916908857834,-0.5014363636593977,0.01611046502212332,-0.0007778177476325254,-0.024252531627677598,0.0,70.0,255.0,255.0,255.0
362,18.1,17.58842092831198,13.85029992019849,-4.873449079173115,0.4211335644325942,0.03600712761809177,-0.5026325914683305,0.017784415840083057,-0.0005646756576993539,-0.02340922593306871,0.0,70.0,255.0,255.0,255.0
363,18.150000000000002,17.60949978308782,13.852099460846166,-4.898610048066036,0.4220702308107249,0.0359894493430879,-0.5037772862527046,0.019641411001458664,-1.158599971518015e-06,-0.022318069655735684,0.0,70.0,255.0,255.0,255.0
364,18.2,17.630627951393052,13.853898865132798,-4.9238268077983856,0.42309770553274006,0.03600701175809462,-0.5048643984339041,0.02115503902899718,0.0007699148003581513,-0.021240691057222705,0.0,70.0,255.0,255.0,255.0
365,18.25,17.651809553641094,13.855700162021975,-4.949096487909427,0.42418573471362464,0.03606644082312371,-0.5059013553584268,0.02181458791596924,0.001611912470522725,-0.020437721776733753,0.0,70.0,255.0,255.0,255.0
366,18.3,17.673046524864414,13.85750550921511,-4.974416943334228,0.425279164324337,0.03616820300514689,-0.5069081706115774,0.021364263228917935,0.002430116061269416,-0.020052812467241665,0.0,70.0,255.0,255.0,255.0
367,18.35,17.694337470073528,13.85931698232249,-4.999787304970584,0.42632216103651643,0.036309452429250655,-0.507906636605151,0.020024705660759423,0.0031478302354059906,-0.020034366750909527,0.0,70.0,255.0,255.0,255.0
368,18.400000000000002,17.715678740968066,13.861136454458036,-5.025207606994743,0.42728163489041293,0.03648298602868749,-0.5089116072866684,0.018257547838729238,0.0036623703749683045,-0.02025027321117534,0.0,70.0,255.0,255.0,255.0
369,18.45,17.73706563356257,13.862965280925359,-5.050678465699251,0.42814791582038936,0.036675689466747485,-0.5099316639262685,0.01653579653542181,0.0038636925788537724,-0.02056947659303532,0.0,70.0,255.0,255.0,255.0
370,18.5,17.758493532550105,13.86480402340471,-5.07620077338737,0.4289352145439551,0.03686935528657287,-0.5109685549459719,0.015316376554608269,0.0036518999548817987,-0.02085686238437745,0.0,70.0,255.0,255.0,255.0
371,18.55,17.779959155016964,13.866652216454016,-5.101775321193848,0.4296795534758502,0.037040879462235665,-0.5120173501647063,0.01485131655734051,0.0029958150426168118,-0.021030670718769073,0.0,70.0,255.0,255.0,255.0
372,18.6,17.80146148789769,13.868508111350934,-5.127402508403841,0.43042034619968916,0.03716893679083455,-0.5130716220178488,0.015064080866267204,0.0020186694005275285,-0.02109517186532628,0.0,70.0,255.0,255.0,255.0
373,18.650000000000002,17.823001189636933,13.8703691101331,-5.153082483395633,0.4311859615624769,0.03724274640228842,-0.5141268673512389,0.01574275661937463,0.0009488798971446499,-0.02107729437650363,0.0,70.0,255.0,255.0,255.0
374,18.7,17.844580084053938,13.872232385991163,-5.178815195138965,0.4319946218616266,0.037263824780549015,-0.5151793514554992,0.016674175761011156,3.377642201485287e-05,-0.020989001637961024,0.0,70.0,255.0,255.0,255.0
375,18.75,17.866200651823096,13.874095492611154,-5.204600418541183,0.432853379138578,0.0372461240444899,-0.516225767515035,0.017647924514108126,-0.000487484317979181,-0.020830772741042836,0.0,70.0,255.0,255.0,255.0
376,18.8,17.887865421967795,13.875956998395612,-5.230437771890468,0.43375941431303744,0.0372150763487511,-0.5172624287296035,0.018525948395620162,-0.0004933762308922951,-0.020611078084087353,0.0,70.0,255.0,255.0,255.0
377,18.85,17.9095765932544,13.87781700024603,-5.2563266614141435,0.43470597397814004,0.037196786421400674,-0.5182868753234438,0.019242700479438213,-7.06197271327369e-05,-0.020384945787732534,0.0,70.0,255.0,255.0,255.0
378,18.900000000000002,17.93133601936561,13.879676677037752,-5.282266459422813,0.43568368436098126,0.03720801437603782,-0.5193009233083767,0.019724339436066884,0.0005902219255560226,-0.02024054928337904,0.0,70.0,255.0,255.0,255.0
379,18.95,17.953144961690498,13.881537801683633,-5.308256753744981,0.4366784079217467,0.037255808613956276,-0.5203109302517817,0.01988283841427574,0.0012879150206757117,-0.020267803568518872,0.0,70.0,255.0,255.0,255.0
380,19.0,17.975003860157784,13.883402257899148,-5.334297552447991,0.43767196820240883,0.037336805878105395,-0.5213277036652286,0.019639897418244345,0.0018180373158926955,-0.02056801867906799,0.0,70.0,255.0,255.0,255.0
381,19.05,17.99691215851074,13.885271482271444,-5.360389524111504,0.43864239766357116,0.037437612345545546,-0.5223677321196885,0.01897663811263328,0.002065428808251113,-0.021178816478339968,0.0,70.0,255.0,255.0,255.0
382,19.1,18.01886809992414,13.887146019133702,-5.38653432565996,0.43956963201367216,0.037543348758930506,-0.5234455853130626,0.018010431903192625,0.0020683782722130672,-0.02196327342147697,0.0,70.0,255.0,255.0,255.0
383,19.150000000000002,18.040869121712106,13.889025817147337,-5.41273408264281,0.4404434408538904,0.03764445017276685,-0.5245640594618362,0.016957088432434375,0.0019239853161323595,-0.022681440891592075,0.0,70.0,255.0,255.0,255.0
384,19.200000000000003,18.06291244400953,13.890910464150979,-5.438990731606143,0.4412653408569156,0.03773574729054374,-0.5257137294022218,0.01605293211852654,0.001722162563311258,-0.02309372348259231,0.0,70.0,255.0,255.0,255.0
385,19.25,18.084995655797798,13.892799391876391,-5.4653054555830325,0.4420487340657431,0.03781666642909798,-0.5268734318100954,0.015524513785436511,0.0015552884326197614,-0.02295719916229899,0.0,70.0,255.0,255.0,255.0
386,19.3,18.107117317416105,13.894692130793889,-5.491678074787153,0.44281779223545925,0.03789127613380572,-0.5280094493184517,0.015487499154787088,0.0014777216033934337,-0.022166056934747047,0.0,70.0,255.0,255.0,255.0
387,19.35,18.129277435021343,13.896588519489772,-5.518106400514878,0.4435974839812218,0.03796443858943732,-0.5290900375035701,0.01586746002253392,0.0014761742384905574,-0.020928207612858074,0.0,70.0,255.0,255.0,255.0
388,19.400000000000002,18.151477065814227,13.898488574652832,-5.54458707853751,0.44440453823771264,0.038038893557654774,-0.5301022700797375,0.016495418721973465,0.001515608373381383,-0.019629118386266242,0.0,70.0,255.0,255.0,255.0
389,19.450000000000003,18.173717888845115,13.900392408845537,-5.571116627522851,0.44524702585341913,0.03811599942677546,-0.5310529493421967,0.017192146394862107,0.0015696351916005824,-0.01866285028615522,0.0,70.0,255.0,255.0,255.0
390,19.5,18.19600176839957,13.90230017459551,-5.597692373471729,0.44612375287719885,0.03819585707681483,-0.5319685551083531,0.01778204744091738,0.0016128369241030782,-0.018431156698639484,0.0,70.0,255.0,255.0,255.0
391,19.55,18.218330264132835,13.904211994553219,-5.624313483033687,0.44702523059751087,0.03827728311918577,-0.5328960650120607,0.018161104196323663,0.0016303980647336402,-0.019124042030416177,0.0,70.0,255.0,255.0,255.0
392,19.6,18.24070429145932,13.906127902907429,-5.6509819799729355,0.4479398632968312,0.038358896883288196,-0.5338809593113947,0.01832429677115499,0.0016269247742783932,-0.02047401267741833,0.0,70.0,255.0,255.0,255.0
393,19.650000000000002,18.263124250462518,13.908047884241547,-5.677701578964826,0.44885766027462637,0.03843997559661361,-0.5349434662798025,0.018294989594380695,0.001613581191683977,-0.02197112985218297,0.0,70.0,255.0,255.0,255.0
394,19.700000000000003,18.285590057486782,13.90997190046709,-5.704476326600916,0.4497693622562693,0.038520255002456594,-0.536078072296613,0.018092794654123168,0.001599296670917738,-0.02310224134012273,0.0,70.0,255.0,255.0,255.0
395,19.75,18.308101186688145,13.911899909741793,-5.7313093861944875,0.4506669397400387,0.03859990526370538,-0.5372536904138148,0.017739277802419906,0.001593363869645259,-0.023350248634645965,0.0,70.0,255.0,255.0,255.0
396,19.8,18.330656751460786,13.91383189099346,-5.758201695642297,0.4515432900365113,0.03867959138942112,-0.5384130971600776,0.017260345133962574,0.00160068613670461,-0.02246411527089265,0.0,70.0,255.0,255.0,255.0
397,19.85,18.353255515691796,13.915767868880735,-5.785150695910495,0.45239297425343494,0.03875997387737584,-0.539500101940904,0.016716192055454826,0.0016161266655601025,-0.02074832909055857,0.0,70.0,255.0,255.0,255.0
398,19.900000000000002,18.37589604888613,13.917707888381198,-5.812151705836388,0.45321490924205676,0.03884120405597713,-0.5404879300691334,0.016205462057783393,0.0016300668606916702,-0.01879461395226656,0.0,70.0,255.0,255.0,255.0
399,19.950000000000003,18.398577006616,13.919651989286333,-5.839199488917409,0.4540135204592133,0.03892298056344501,-0.5413795633361307,0.01583564934399817,0.0016331781235834342,-0.01719410509890551,0.0,70.0,255.0,255.0,255.0
400,20.0,18.42129740093205,13.921600186437542,-5.866289662170001,0.4547984741764566,0.03900452186833547,-0.542207340579024,0.015704850676456772,0.0016137075963484904,-0.01652775552294372,0.0,70.0,255.0,255.0,255.0
401,20.05,18.444056854033647,13.923552441473166,-5.893420222975311,0.45558400552685896,0.03908435132307986,-0.5430323388884251,0.015858028089255072,0.0015668573876581604,-0.01708644327305109,0.0,70.0,255.0,255.0,255.0
402,20.1,18.466855801484737,13.92550862156985,-5.920592896058843,0.4563842769853821,0.03916120760710129,-0.5439159849063291,0.016246459484037246,0.0015085685646454294,-0.01859737958511687,0.0,70.0,255.0,255.0,255.0
403,20.150000000000002,18.489695281732185,13.927468562233877,-5.947811821465944,0.4572086514752627,0.0392352081795444,-0.5448920768469367,0.016766798536949068,0.0014661513663583037,-0.020504866553583412,0.0,70.0,255.0,255.0,255.0
404,20.200000000000003,18.512576666632263,13.929432142387805,-5.975082103743537,0.458060956839077,0.03930782274373712,-0.5459664715616874,0.017305120788790873,0.0014679908343140369,-0.022248704231930816,0.0,70.0,255.0,255.0,255.0
405,20.25,18.535501377416093,13.93139934450825,-6.002408468622113,0.45893916355414177,0.039382007262975804,-0.5471169472701298,0.017753300846479192,0.001551805746302648,-0.023282785217837443,0.0,70.0,255.0,255.0,255.0
406,20.3,18.558470582987677,13.933370343114102,-6.02979379847055,0.4598362869237249,0.039463003318367385,-0.5482947500834712,0.018048055328989676,0.0017318843104519033,-0.023317477603335135,0.0,70.0,255.0,255.0,255.0
407,20.35,18.581485006108466,13.935345644840087,-6.05723794363046,0.46074396908704074,0.039555195694020995,-0.5494486950304633,0.018181606373701698,0.001949599074002606,-0.022516604783096028,0.0,70.0,255.0,255.0,255.0
408,20.400000000000002,18.60454497989638,13.937325862683505,-6.084738667973596,0.4616544475610951,0.039657963225767645,-0.5505464105617808,0.01816286827036606,0.002105327676638069,-0.021250628459412724,0.0,70.0,255.0,255.0,255.0
409,20.450000000000003,18.627650450864575,13.939311441162664,-6.112292584686638,0.46256025591407735,0.0397657284616848,-0.5515737578764046,0.018004380319069924,0.0021015718273176276,-0.01989145093386213,0.0,70.0,255.0,255.0,255.0
410,20.5,18.65080100548779,13.941302435529673,-6.139896043761237,0.4634548855930021,0.03986812040849941,-0.552535555655167,0.017725955261482795,0.0018310973894486438,-0.018805066309290908,0.0,70.0,255.0,255.0,255.0
411,20.55,18.673995939423875,13.943298253203514,-6.1675461402521545,0.4643328514402256,0.039948838200629666,-0.5534542645073337,0.0173487249547577,0.0012518058357002815,-0.01820196799124929,0.0,70.0,255.0,255.0,255.0
412,20.6,18.697234290631812,13.945297319349736,-6.19524147021197,0.46518975808847784,0.039993300992069436,-0.5543557524542919,0.0169079541834094,0.0004948067010346335,-0.018047996153214285,0.0,70.0,255.0,255.0,255.0
413,20.650000000000002,18.720514915232723,13.94729758330272,-6.222981715497584,0.46602364685856656,0.03999831887073313,-0.5552590641226551,0.016462567539576867,-0.00020839447358866892,-0.018223342220569094,0.0,70.0,255.0,255.0,255.0
414,20.700000000000003,18.74383665531767,13.94929715123681,-6.2507673766242355,0.46683601484243553,0.03997246154471057,-0.5561780866763488,0.016083045579406985,-0.0006282175357696929,-0.018617380145435902,0.0,70.0,255.0,255.0,255.0
415,20.75,18.767198516716967,13.951294829457192,-6.278599524165219,0.46763195141650726,0.03993549711715616,-0.5571208021371987,0.01583891540555271,-0.0005362419232213256,-0.019112986840585933,0.0,70.0,255.0,255.0,255.0
416,20.8,18.79059985045932,13.953290700948525,-6.306479456837955,0.4684199063829908,0.03991883735238844,-0.5580893853604074,0.015763758137410377,0.0001684914121113934,-0.019629615466509875,0.0,70.0,255.0,255.0,255.0
417,20.85,18.814040507355266,13.95528671319243,-6.334408462701259,0.4692083272302483,0.0399523462583673,-0.5590837636838497,0.015823872929487948,0.0013049270330967033,-0.02013150384359008,0.0,70.0,255.0,255.0,255.0
418,20.900000000000002,18.837520683182344,13.957285935574362,-6.36238783320634,0.4700022936759396,0.04004933005569811,-0.5601025357447664,0.01594956553496729,0.0025328189831697046,-0.02057339193601848,0.0,70.0,255.0,255.0,255.0
419,20.950000000000003,18.86104073672286,13.959291646198,-6.390418716275736,0.47080328378374503,0.04020562815668427,-0.5611411028774516,0.016063437362490163,0.0035057505327174,-0.020893853659309514,0.0,70.0,255.0,255.0,255.0
420,21.0,18.88460101156072,13.96130649839003,-6.4185019434940855,0.4716086374121886,0.04039990510896985,-0.5621919211106974,0.01607437379398391,0.003885898276045907,-0.021046949031600093,0.0,70.0,255.0,255.0,255.0
421,21.05,18.90820160046408,13.963331636708897,-6.446637908386806,0.4724107211631434,0.04059421798428886,-0.5632457977806116,0.015936755316303675,0.003507142267800134,-0.021012344035664654,0.0,70.0,255.0,255.0,255.0
422,21.1,18.931842083677033,13.965365920188459,-6.474826523272147,0.473202312943819,0.04075061933574986,-0.5642931555142638,0.01571748649631388,0.0025353686147866483,-0.020790463997499842,0.0,70.0,255.0,255.0,255.0
423,21.150000000000002,18.95552183175846,13.967406698642472,-6.503067223938232,0.4739824698127748,0.040847754845767525,-0.5653248441803616,0.0155373987610119,0.0013080742522930677,-0.020399453672315104,0.0,70.0,255.0,255.0,255.0
424,21.200000000000003,18.97924033065831,13.969450695673036,-6.531359007690183,0.47475605281992017,0.04088142676097917,-0.5663331008814954,0.015510291220621752,0.00017127601239508294,-0.01987340568341267,0.0,70.0,255.0,255.0,255.0
425,21.25,19.002997437040452,13.97149484131857,-6.559700534026382,0.475533498934837,0.040864882447007034,-0.5673121847487028,0.01575953347412451,-0.0005353698291798992,-0.01923926365261508,0.0,70.0,255.0,255.0,255.0
426,21.3,19.026793680551794,13.973537183917736,-6.588090226165053,0.4763320061673326,0.04082788977806118,-0.5682570272467569,0.016336306843456327,-0.0006309998774156611,-0.01852669603570334,0.0,70.0,255.0,255.0,255.0
427,21.35,19.050630637657186,13.975577630296376,-6.616526236751057,0.4771671296191826,0.04080178245926547,-0.5691648543522732,0.017104409522517017,-0.00021544578174825801,-0.017824775364783108,0.0,70.0,255.0,255.0,255.0
428,21.400000000000002,19.074510393513712,13.977617362163663,-6.6450067116002804,0.4780424471195843,0.04080634519988635,-0.5700395047832352,0.01782177182327871,0.0004847674569319338,-0.0172723364992855,0.0,70.0,255.0,255.0,255.0
429,21.450000000000003,19.098434882369144,13.979658264816365,-6.673530187229381,0.4789493068015105,0.04085025920495866,-0.5708920880022017,0.01824933714864585,0.001242059172135157,-0.017004784679475193,0.0,70.0,255.0,255.0,255.0
430,21.5,19.122405324193863,13.981702388084159,-6.702095920400501,0.4798673808344489,0.04093055111709987,-0.5717399832511827,0.018147538927948403,0.0018276090138158452,-0.017143968385902042,0.0,70.0,255.0,255.0,255.0
431,21.55,19.14642162045259,13.983751319928075,-6.730704185554499,0.48076406069430533,0.041033020106340246,-0.5726064848407919,0.0174104182431023,0.00211130945455551,-0.01773569699530242,0.0,70.0,255.0,255.0,255.0
432,21.6,19.170481730263294,13.985805690094793,-6.75935656888458,0.48160842265875914,0.04114168206255542,-0.5735135529507129,0.01623112249831138,0.0021309832748173108,-0.01866511985708641,0.0,70.0,255.0,255.0,255.0
433,21.650000000000002,19.194582462718465,13.98786548813433,-6.78805554084957,0.48238717294413647,0.04124611843382198,-0.5744729968265005,0.014970945180436956,0.00198660883494739,-0.019713997534420713,0.0,70.0,255.0,255.0,255.0
434,21.700000000000003,19.218720447557708,13.989930301938175,-6.81680386856723,0.48310551717680283,0.04134034294605016,-0.575484952704155,0.01399790797336209,0.0017680863683366965,-0.02064899406111209,0.0,70.0,255.0,255.0,255.0
435,21.75,19.242893014436145,13.991999522428936,-6.845604036119986,0.4837869637414727,0.041422927070655646,-0.5765378962326118,0.013678282843088141,0.0015648871533713304,-0.021252834831386735,0.0,70.0,255.0,255.0,255.0
436,21.8,19.267099143931855,13.99407259464524,-6.874457658190491,0.48447334546111165,0.04149683166138729,-0.5776102361872937,0.0141891064313171,0.0014318226654097543,-0.021410515982545064,0.0,70.0,255.0,255.0,255.0
437,21.85,19.291340348982256,13.996149205595074,-6.903365059738715,0.4852058743846044,0.04156610933719662,-0.5786789478308663,0.015321217032848722,0.0013705802814456547,-0.021162857093948162,0.0,70.0,255.0,255.0,255.0
438,21.900000000000002,19.315619731370315,13.99822920557896,-6.932325552973578,0.4860054671643965,0.041633889689531856,-0.5797265218966885,0.016663491740587233,0.0013705687644360864,-0.02062356147618516,0.0,70.0,255.0,255.0,255.0
439,21.950000000000003,19.339940895698696,14.000312594564027,-6.961337711928384,0.4868722235586631,0.04170316621364023,-0.5807413039784848,0.01779968363990747,0.0014317958203946546,-0.019919239077470507,0.0,70.0,255.0,255.0,255.0
440,22.0,19.36430695372618,14.002399522200324,-6.990399683371426,0.48778543552838727,0.04177706927157132,-0.5817184458044355,0.018319376323461256,0.0015648703447723733,-0.01917672025930628,0.0,70.0,255.0,255.0,255.0
441,22.05,19.388719439251535,14.004490301491185,-7.019509556508828,0.48870416119100923,0.04185965324811747,-0.5826589760044154,0.018013295890639824,0.0017681131703639608,-0.018480700612144574,0.0,70.0,255.0,255.0,255.0
442,22.1,19.413177369845283,14.006585487525136,-7.048665580971868,0.48958676511745125,0.04195388058860772,-0.58356651586565,0.017054825220697012,0.001986695598432675,-0.017880654564272902,0.0,70.0,255.0,255.0,255.0
443,22.150000000000002,19.43767811576328,14.008685689550045,-7.077866208095393,0.49040964371307894,0.042058322807960735,-0.5844470414608427,0.01580427200700285,0.002131116108117226,-0.01743707124770566,0.0,70.0,255.0,255.0,255.0
444,22.200000000000003,19.46221833421659,14.010791319805932,-7.107110285117952,0.49116719231815154,0.04216699219941944,-0.5853102229904206,0.014623217603926264,0.0021114436377089874,-0.017219224455367055,0.0,70.0,255.0,255.0,255.0
445,22.25,19.486794834995095,14.012902388769987,-7.136397230394435,0.49187196547347156,0.042269467171731634,-0.5861689639063794,0.013864165242694071,0.0018276594387245382,-0.017292312102146212,0.0,70.0,255.0,255.0,255.0
446,22.3,19.511405530763938,14.015018266523105,-7.16572718150859,0.49255360884242094,0.042349758143291893,-0.5870394542006352,0.01371705732644557,0.001241925118655729,-0.01767442049507295,0.0,70.0,255.0,255.0,255.0
447,22.35,19.536050195879337,14.017137364584316,-7.195101175814498,0.4932436712061161,0.04239365968359721,-0.5879364059558867,0.014090437797165123,0.00048440888740231003,-0.01827098152507034,0.0,70.0,255.0,255.0,255.0
448,22.400000000000002,19.56072989788455,14.019257632491465,-7.224520822104179,0.49396265262213745,0.042398199032032124,-0.5888665523531422,0.014769303684403212,-0.00021596559633962897,-0.01891001833635997,0.0,70.0,255.0,255.0,255.0
449,22.450000000000003,19.58544646114155,14.02137718448752,-7.2539878310498125,0.49472060157455644,0.042372063123963244,-0.5898274077895227,0.015540359696331052,-0.0006315097646591994,-0.019404888742879933,0.0,70.0,255.0,255.0,255.0
450,22.5,19.610201958042005,14.023494838803861,-7.283503562883131,0.49551668859177056,0.042335048055566205,-0.5908070412274302,0.016195990674816585,-0.0005355547205709854,-0.01956601268302549,0.0,70.0,255.0,255.0,255.0
451,22.55,19.634998130000728,14.025610689293076,-7.3130685351725555,0.4963402006420381,0.042318507651906145,-0.5917840090578252,0.016612927016623757,0.00017178542055518164,-0.019301617407396776,0.0,70.0,255.0,255.0,255.0
452,22.6,19.65983597810621,14.027726689569052,-7.342681963788913,0.49717798129343294,0.04235222659762172,-0.5927372029681699,0.01678799235627082,0.0013094217665710062,-0.018720827261020645,0.0,70.0,255.0,255.0,255.0
453,22.650000000000002,19.68471592813007,14.029845911952838,-7.3723422554693725,0.4980189998776652,0.042449449828563246,-0.5936560917839273,0.01675226617123826,0.0025373150441154735,-0.01803744748150038,0.0,70.0,255.0,255.0,255.0
454,22.700000000000003,19.709637878093975,14.031971634551908,-7.402047572967306,0.49885320791055676,0.04260595810203327,-0.5945409477163199,0.016529655966124324,0.0035090476343313526,-0.01746779399933729,0.0,70.0,255.0,255.0,255.0
455,22.75,19.734601248921127,14.034106507763042,-7.4317963502410045,0.4996719654742776,0.04280035459199638,-0.595402871183861,0.016143853406802577,0.0038865874154581093,-0.01722759986915179,0.0,70.0,255.0,255.0,255.0
456,22.8,19.759605074641403,14.036251670011108,-7.461587860085692,0.500467593251237,0.04299461684357908,-0.5962637077032351,0.015623495676209131,0.003503846951424805,-0.01742568330280747,0.0,70.0,255.0,255.0,255.0
457,22.85,19.78464800824625,14.0384059694474,-7.491422721011328,0.5012343150418985,0.04315073928713886,-0.5971454395141418,0.015038431940794794,0.0025277874945217604,-0.01796030150567063,0.0,70.0,255.0,255.0,255.0
458,22.900000000000002,19.809728506145593,14.040566743939822,-7.521302404037106,0.5019714364453165,0.04324739559303126,-0.5980597378538022,0.014502470794397482,0.0012976611326820375,-0.018625599662769332,0.0,70.0,255.0,255.0,255.0
459,22.950000000000003,19.834845151890782,14.042730709006703,-7.551228694796708,0.5026845621213383,0.043280505400407066,-0.5990079994804187,0.014139990799932889,0.00016137983358532892,-0.019217361832968294,0.0,70.0,255.0,255.0,255.0
460,23.0,19.859996962357727,14.044894794479863,-7.581203203985148,0.5033854355253098,0.04326353357638979,-0.599981474037099,0.014072605019421758,-0.0005388135905448621,-0.019539625136211214,0.0,70.0,255.0,255.0,255.0
461,23.05,19.885183695443313,14.047057062364342,-7.611226842200418,0.5040918226232804,0.04322662404135258,-0.6009619619940398,0.014353603095784706,-0.0006211126198252259,-0.019489075955814172,0.0,70.0,255.0,255.0,255.0
462,23.1,19.910406144620055,14.049217456883998,-7.641299400184552,0.5048207958348883,0.04320142231440727,-0.6019303816326804,0.01489380435764076,-0.00018961603345246658,-0.019123374641960567,0.0,70.0,255.0,255.0,255.0
463,23.150000000000002,19.935665775026802,14.051377204595783,-7.671419880363686,0.5055812030590445,0.04320766243800733,-0.6028742994582359,0.015521487016911806,0.0005219238769171852,-0.018574745941357662,0.0,70.0,255.0,255.0,255.0
464,23.200000000000003,19.96096426492596,14.053538223127799,-7.701586830130376,0.5063729445365794,0.043253614702098986,-0.6037878562268162,0.016057606941899394,0.0012783467832733209,-0.017976045381296046,0.0,70.0,255.0,255.0,255.0
465,23.25,19.98630306948046,14.055702566065992,-7.731798665986368,0.5071869637532345,0.043335497116334665,-0.6046719039963655,0.016329735837672388,0.0018406949159555097,-0.01744989026182253,0.0,70.0,255.0,255.0,255.0
466,23.3,20.011682961301283,14.057871772839432,-7.762054020530012,0.5080059181203467,0.04343768419369454,-0.6055328452529984,0.01624880522719252,0.0020750557439441764,-0.017070786767980906,0.0,70.0,255.0,255.0,255.0
467,23.35,20.037103661292495,14.060046334485362,-7.792351950511668,0.5088118442759537,0.04354300269072908,-0.6063789826731636,0.015871758554197868,0.0020352454056293823,-0.016862563563169175,0.0,70.0,255.0,255.0,255.0
468,23.400000000000002,20.062564145728878,14.062226073108505,-7.822691918797329,0.5095930939757665,0.043641208734257475,-0.6072191016093154,0.015326173210894467,0.0018483962739068716,-0.01683989209571024,0.0,70.0,255.0,255.0,255.0
469,23.450000000000003,20.08806297069007,14.064410455358788,-7.853073860672599,0.5103444615970432,0.04372784231811977,-0.6080629718827346,0.014742868149042465,0.001632832099396353,-0.017017943820540893,0.0,70.0,255.0,255.0,255.0
470,23.5,20.113598591888582,14.066598857340317,-7.883498215985602,0.5110673807906707,0.04380449194419711,-0.6089208959913694,0.014244442307642657,0.001515987304578914,-0.017416804491521276,0.0,70.0,255.0,255.0,255.0
471,23.55,20.13916970876914,14.068790904553207,-7.913965950271736,0.5117689058278074,0.04387944104857766,-0.6098046523318867,0.013903949885829547,0.0015669502515081035,-0.018028802614011852,0.0,70.0,255.0,255.0,255.0
472,23.6,20.164775482471363,14.070986801445175,-7.944478681218791,0.5124577757792537,0.04396118696934792,-0.6107237762527706,0.013735525061875364,0.0017277020107897556,-0.018745531946073868,0.0,70.0,255.0,255.0,255.0
473,23.650000000000002,20.190415486347064,14.073187023250142,-7.975038327897013,0.513142458333995,0.044052211249656636,-0.6116792055264941,0.013738295664111888,0.001886262588612908,-0.019384846515535514,0.0,70.0,255.0,255.0,255.0
474,23.700000000000003,20.216089728304762,14.07539202257014,-8.00564660177144,0.5138316053456649,0.04414981322820921,-0.6126622609043242,0.013910407641759548,0.0019432385713002986,-0.019759918262796106,0.0,70.0,255.0,255.0,255.0
475,23.75,20.24179864688163,14.077602004572963,-8.036304553987446,0.5145334990981709,0.044246535106786666,-0.6136551973527737,0.01424848560667158,0.0017994118103104029,-0.019690910419445373,0.0,70.0,255.0,255.0,255.0
476,23.8,20.26754307821458,14.079816676080819,-8.067012121506718,0.515256453906332,0.04432975440924025,-0.6146313519462687,0.014736420868288747,0.0014100570052022476,-0.01909969042195314,0.0,70.0,255.0,255.0,255.0
477,23.85,20.293324292272263,14.082034980013887,-8.097767689182072,0.5160071411849998,0.04438754080730689,-0.615565166394969,0.015305302038726154,0.0008557181123691748,-0.01812155573901464,0.0,70.0,255.0,255.0,255.0
478,23.900000000000002,20.31914379233308,14.08425543016155,-8.128568638146215,0.5167869841102046,0.04441532622047717,-0.6164435075201702,0.01583980497308346,0.0002856209686541433,-0.01701615307947435,0.0,70.0,255.0,255.0,255.0
479,23.950000000000003,20.345002990683284,14.086476512635935,-8.15941203993409,0.5175911216823081,0.044416102904172305,-0.6172667817029165,0.016216526924850427,-0.00015301249245425197,-0.016054644200202972,0.0,70.0,255.0,255.0,255.0
480,24.0,20.37090290450131,14.088697040451967,-8.190295316316506,0.5184086368026897,0.044400024971231744,-0.6180489719401905,0.016317605940940894,-0.00032165319208132814,-0.015499553829023682,0.0,70.0,255.0,255.0,255.0
481,24.05,20.396843854363553,14.090916515133058,-8.221216937128109,0.5192228822764022,0.04438393758496417,-0.6188167370858189,0.016089853819423183,-0.00015337873708887173,-0.01548572241052426,0.0,70.0,255.0,255.0,255.0
482,24.1,20.42282519272895,14.093135434210463,-8.252176990025088,0.520017622184632,0.04438468709752286,-0.6195975441812429,0.015607742309242667,0.00028495001433981315,-0.015920133210300946,0.0,70.0,255.0,255.0,255.0
483,24.150000000000002,20.448845616582016,14.09535498384281,-8.283176691546233,0.5207836565073265,0.044412432586398154,-0.620408750406849,0.015018848080927683,0.0008548898991378451,-0.0165986530566542,0.0,70.0,255.0,255.0,255.0
484,24.200000000000003,20.474903558379683,14.097576677469103,-8.314217865065773,0.5215195069927248,0.04447017608743664,-0.6212574094869083,0.01448297183586078,0.0014093242173274234,-0.017308218223455185,0.0,70.0,255.0,255.0,255.0
485,24.25,20.50099756728129,14.099802001451554,-8.345302432494924,0.5222319536909126,0.044553365008130896,-0.6221395722291945,0.014169109276451763,0.0017991823121121797,-0.01783087426368013,0.0,70.0,255.0,255.0,255.0
486,24.3,20.527126753748774,14.102032013969916,-8.376431822288692,0.5229364179203699,0.04465009431864786,-0.6230404969132763,0.014163651035303815,0.0019439707648061244,-0.018045158861745847,0.0,70.0,255.0,255.0,255.0
487,24.35,20.553291209073326,14.104267010883419,-8.407606482186251,0.523648318794443,0.04474776208461151,-0.623944088115369,0.014380092363097674,0.0018881181919283563,-0.018002480184087233,0.0,70.0,255.0,255.0,255.0
488,24.400000000000002,20.57949158562822,14.106506790178377,-8.43882623110023,0.5243744271566797,0.044838906137840695,-0.6248407449316851,0.014649278228873186,0.0017303439111771013,-0.017822987609328322,0.0,70.0,255.0,255.0,255.0
489,24.450000000000003,20.605728651788993,14.108750901497203,-8.47009055667942,0.5251132466173303,0.04492079647572922,-0.6257263868763019,0.014804499484455391,0.0015695151569516952,-0.01762008197427889,0.0,70.0,255.0,255.0,255.0
490,24.5,20.632002910289952,14.11099886982595,-8.50139886978786,0.5258548771051252,0.044995857653535865,-0.626602753129113,0.014666003572827435,0.001516905296128357,-0.017516902495984255,0.0,70.0,255.0,255.0,255.0
491,24.55,20.658314139499506,14.113250487262556,-8.532750831992331,0.526579846974613,0.045072487005342055,-0.6274780771259003,0.0141489686093621,0.0016302695716063909,-0.017579702747205772,0.0,70.0,255.0,255.0,255.0
492,24.6,20.684660894987413,14.115506118526485,-8.56414667750045,0.5272697739660615,0.045158884610696504,-0.6283607234038335,0.013394592200199895,0.001841644816025223,-0.0177490136520575,0.0,70.0,255.0,255.0,255.0
493,24.650000000000002,20.711041116896112,14.117766375723626,-8.595586904332714,0.527919306194633,0.04525665148694458,-0.6292529784911061,0.012661335042807309,0.0020255060166007866,-0.017911168069062455,0.0,70.0,255.0,255.0,255.0
494,24.700000000000003,20.737452825606876,14.120031783675179,-8.62707197534956,0.5285359074703422,0.04536143521235658,-0.6301518402107398,0.012198890366477144,0.0020655289079130057,-0.017964367632927747,0.0,70.0,255.0,255.0,255.0
495,24.75,20.763894707643146,14.122302519244862,-8.658602088353788,0.5291391952312807,0.04546320437773588,-0.6310494152543988,0.012254801843170071,0.0018372524486665043,-0.017805571695994615,0.0,70.0,255.0,255.0,255.0
496,24.8,20.790366745130004,14.124578104112953,-8.690176916875,0.5297613876546592,0.04554516045722323,-0.6319323973803392,0.012941360306584215,0.0012878647005720723,-0.01738894390186374,0.0,70.0,255.0,255.0,255.0
497,24.85,20.816870846408612,14.126857035290584,-8.721795328091822,0.5304333312619391,0.045591990847793085,-0.6327883096445852,0.014075291745285767,0.000547074105838874,-0.016803236768936358,0.0,70.0,255.0,255.0,255.0
498,24.900000000000002,20.8434100782562,14.129137303197732,-8.753455747839459,0.5311689168291878,0.04559986786780712,-0.6336127210572329,0.015309950365605118,-0.00015330037772542937,-0.016211407714195047,0.0,70.0,255.0,255.0,255.0
499,24.950000000000003,20.86998773809153,14.131417022077365,-8.785156600197546,0.5319643262984997,0.04557666081002054,-0.6344094504160047,0.016294391266313824,-0.0005855701825652204,-0.01577522138695997,0.0,70.0,255.0,255.0,255.0
500,25.0,20.89660651088605,14.133694969278734,-8.816896692881059,0.5327983559558191,0.0455413108495506,-0.6351902431959289,0.016686817029309964,-0.000525961710806655,-0.01565279207103032,0.0,70.0,255.0,255.0,255.0
501,25.05,20.923267573687113,14.13597115316232,-8.848675624517139,0.5336330080014307,0.045524064638939876,-0.6359747296231077,0.016318503914547478,0.00012587069111447136,-0.015918321179952954,0.0,70.0,255.0,255.0,255.0
502,25.1,20.94996981168619,14.138247375742628,-8.88049416584337,0.5344302063472739,0.045553897918662045,-0.6367820753139242,0.015354124264277402,0.0012038116754098382,-0.016473563747609887,0.0,70.0,255.0,255.0,255.0
503,25.150000000000002,20.97671059432184,14.140526542954186,-8.912353832048531,0.5351684204278584,0.04564444580648086,-0.6376220859978687,0.014129819209429684,0.00239226426135275,-0.01712683743750887,0.0,70.0,255.0,255.0,255.0
504,25.200000000000003,21.003486653728977,14.142811820323276,-8.944256374443157,0.5358431882682169,0.04579312434479732,-0.638494759057675,0.012989605173174823,0.0033712040355737827,-0.0176819729272637,0.0,70.0,255.0,255.0,255.0
505,25.25,21.030294913148662,14.145105855388666,-8.976203307954298,0.5364673809451759,0.04598156621003824,-0.6393902832905951,0.012269911390561106,0.003838622366814093,-0.01794726934392088,0.0,70.0,255.0,255.0,255.0
506,25.3,21.057133391823495,14.14740997694428,-9.008195402772216,0.537070179407273,0.04617698658147873,-0.6402894859920671,0.012150684644396392,0.0036415662886923883,-0.017824484664963336,0.0,70.0,255.0,255.0,255.0
507,25.35,21.08400193108939,14.149723554046814,-9.040232256553505,0.5376824494096155,0.04634572283890748,-0.6411727317570914,0.01253916690728829,0.0028875626417956823,-0.017387916165212403,0.0,70.0,255.0,255.0,255.0
508,25.400000000000002,21.110901636764456,14.15204454922817,-9.072312675947925,0.5383240960980018,0.0464657428456583,-0.6420282776085884,0.013220656247270313,0.0018151990419212893,-0.016795834609872884,0.0,70.0,255.0,255.0,255.0
509,25.450000000000003,21.13783434069919,14.15437012833138,-9.104435084314364,0.5390045150343425,0.046527242743099606,-0.6428523152180787,0.013980101792299138,0.0006735279328040633,-0.016210173618169677,0.0,70.0,255.0,255.0,255.0
510,25.5,21.16480208826789,14.15669727350248,-9.136597907469733,0.5397221062772317,0.046533095638938704,-0.6436492949704054,0.014605565380065855,-0.00030451843056056305,-0.01579412122971746,0.0,70.0,255.0,255.0,255.0
511,25.55,21.191806551326913,14.159023437895273,-9.168800013811405,0.5404650715723491,0.04649679090004355,-0.6444317273410505,0.014973209726321102,-0.000979874771367406,-0.01563651405209754,0.0,70.0,255.0,255.0,255.0
512,25.6,21.218848595425126,14.161346952592485,-9.201041080203838,0.5412194272498638,0.04643510816180196,-0.6452129463756151,0.015093776869434805,-0.0013213349708607325,-0.015691135226880704,0.0,70.0,255.0,255.0,255.0
513,25.650000000000002,21.2459284940519,14.163666948711453,-9.233321308448966,0.5419744492592926,0.046364657402957477,-0.6460008408637385,0.015021308712448445,-0.001324109383737948,-0.01585429964716667,0.0,70.0,255.0,255.0,255.0
514,25.700000000000003,21.273046040351055,14.16598341833278,-9.265641164290212,0.5427215581211087,0.04630269722342817,-0.6467983763403318,0.014804300012372096,-0.0009863414087263322,-0.016023533067688334,0.0,70.0,255.0,255.0,255.0
515,25.75,21.30020064986401,14.168297218433796,-9.298001146083,0.5434548792605298,0.04626602326208484,-0.6476031941705074,0.014499808445123108,-0.0003085672899416636,-0.01608426438668431,0.0,70.0,255.0,255.0,255.0
516,25.8,21.327391528277108,14.17061002065899,-9.330401483707263,0.544171538965621,0.046271840494434,-0.6484068027790002,0.01414873752487722,0.0006799840811311242,-0.015976685233809462,0.0,70.0,255.0,255.0,255.0
517,25.85,21.354617803760572,14.17292440248324,-9.3628418263609,0.5448697530130175,0.046334021670197956,-0.6492008626938883,0.013766564771700018,0.0018360989187726773,-0.015768475327604392,0.0,70.0,255.0,255.0,255.0
518,25.900000000000002,21.38187850357841,14.175243422826009,-9.395321569976652,0.545548195442791,0.04645545038631127,-0.6499836503117606,0.013374948061795067,0.002919560168912483,-0.015585195238188021,0.0,70.0,255.0,255.0,255.0
519,25.950000000000003,21.40917262330485,14.17756994752187,-9.427840191392075,0.546207247819197,0.046625977687089204,-0.6507593822177071,0.013008385804980094,0.003673888983435347,-0.01554278035804657,0.0,70.0,255.0,255.0,255.0
520,26.0,21.43649922836033,14.179906020594718,-9.460397508198422,0.546849034023289,0.046822839284654805,-0.6515379283475653,0.012691238135431604,0.0038507689444244875,-0.01576476528146742,0.0,70.0,255.0,255.0,255.0
521,26.05,21.46385752670718,14.182252231450336,-9.492993984226832,0.5474763716327402,0.04701105458153165,-0.6523358587458539,0.012438553462601476,0.0033389128079264196,-0.016303831260344737,0.0,70.0,255.0,255.0,255.0
522,26.1,21.491246865523603,14.184607126052871,-9.525631094073008,0.5480928893695491,0.04715673056544745,-0.6531683114735998,0.012277260081106078,0.0023058903433792466,-0.01703319189907404,0.0,70.0,255.0,255.0,255.0
523,26.150000000000002,21.518666815644135,14.186967904506881,-9.558310815374192,0.5487040976408508,0.04724164361586958,-0.6540391779357613,0.0122416030009731,0.0010785959794645805,-0.017725851800065584,0.0,70.0,255.0,255.0,255.0
524,26.200000000000003,21.54611727528769,14.189331290414458,-9.591035011866584,0.5493170496696465,0.047264590163393905,-0.6549408966536063,0.012355443482547912,3.046548968654861e-06,-0.018159284894636585,0.0,70.0,255.0,255.0,255.0
525,26.25,21.5735985206111,14.19169436352322,-9.623804905039552,0.5499396419891056,0.04724194827076644,-0.6558551064252249,0.01263920171652444,-0.000570499163465854,-0.01811672110818563,0.0,70.0,255.0,255.0,255.0
526,26.3,21.6011112394866,14.194055485241535,-9.656620522509106,0.5505809698412989,0.04720754024704732,-0.6567525687644249,0.013091360976247302,-0.00046286142261209307,-0.017500390657687603,0.0,70.0,255.0,255.0,255.0
527,26.35,21.62865661759523,14.196415117547925,-9.689480161915995,0.5512487780867303,0.047195662128505234,-0.6576051454909937,0.013643555745090907,0.0001712954180277393,-0.016465004160437502,0.0,70.0,255.0,255.0,255.0
528,26.400000000000002,21.656236117295272,14.198775051454385,-9.722381037058206,0.551945325415808,0.04722466978885009,-0.6583990691804686,0.0141778007751725,0.0010159393637465541,-0.01530682879682388,0.0,70.0,255.0,255.0,255.0
529,26.450000000000003,21.68385115013681,14.20113758452681,-9.755320068834042,0.5526665581642476,0.04729725606487989,-0.6591358283706761,0.01457086590583856,0.0017535518621158985,-0.014332341138256766,0.0,70.0,255.0,255.0,255.0
530,26.5,21.711502773111697,14.203504777060873,-9.788294619895273,0.5534024120063918,0.04740002497506168,-0.6598323032942943,0.014707945674885536,0.0020552836549114772,-0.013848350286593814,0.0,70.0,255.0,255.0,255.0
531,26.55,21.73919139133745,14.205877587024316,-9.821303299163471,0.5541373527317361,0.04750278443037104,-0.6605206633993355,0.014535489811606794,0.0017531855608154956,-0.014007892821332746,0.0,70.0,255.0,255.0,255.0
532,26.6,21.76691650838487,14.20825505550391,-9.854346686235207,0.5548559609875525,0.04757534353114323,-0.6612330925764276,0.0141129924628558,0.0010152683080022484,-0.014658679568491095,0.0,70.0,255.0,255.0,255.0
533,26.650000000000002,21.794676987436205,14.21063512137743,-9.887426608421114,0.5555486519780217,0.04760431126117126,-0.6619865313561846,0.013563557534723714,0.00017046707974088804,-0.015494944901384144,0.0,70.0,255.0,255.0,255.0
534,26.700000000000003,21.822471373582673,14.213015486630027,-9.920545339370825,0.5562123167410249,0.04759239023911732,-0.662782587066566,0.013020580074396548,-0.000463594320798677,-0.016204777128514536,0.0,70.0,255.0,255.0,255.0
535,26.75,21.850298219110307,14.215394360401342,-9.95370486712777,0.5568507099854614,0.047557951829091394,-0.663607009069036,0.012617034229833735,-0.0005707286963030356,-0.01646190571698014,0.0,70.0,255.0,255.0,255.0
536,26.8,21.87815644458122,14.217771281812936,-9.986906040277729,0.5574740201640083,0.04753531736948702,-0.664428777638264,0.012426166955137319,3.77885278624035e-06,-0.016101977448990112,0.0,70.0,255.0,255.0,255.0
537,26.85,21.906045621126708,14.220147892138291,-10.020147744891597,0.5580933266809751,0.04755832971437002,-0.665217206813935,0.012420838043780691,0.0010804518623785953,-0.015306617891042151,0.0,70.0,255.0,255.0,255.0
538,26.900000000000002,21.933965777249316,14.222527114784373,-10.053427760959122,0.5587161039683863,0.04764336255572488,-0.6659594394273682,0.01253244460954761,0.0023085326425587027,-0.014426212113249903,0.0,70.0,255.0,255.0,255.0
