idx,t,px,py,pz,vx,vy,vz,ax,ay,az,yaw,mode,ledr,ledg,ledb
0,0.0,-7.499999999999999,7.500000000000004,-1.3075970192809474e-19,-0.00018492048056373278,0.00012677507012170963,0.0002308717701481534,-0.012633863462774286,0.0010214995324275833,-0.018872478467654344,0.0,70.0,255.0,255.0,255.0
1,0.05,-7.500009246024027,7.5000063387535105,1.154358850740754e-05,-0.0008166136537024471,0.0001778500467430888,-0.0007127521532345639,-0.01917156226145522,0.0017045618571742693,-0.028449657893024723,0.0,70.0,255.0,255.0,255.0
2,0.1,-7.500081661365369,7.500017785004679,-7.127521532345653e-05,-0.002102076706709255,0.00029723125583913657,-0.002614094019154319,-0.026150795194457288,0.0027322492988091085,-0.03830871770148152,0.0,70.0,255.0,255.0,255.0
3,0.15000000000000002,-7.500219453694698,7.500036061879094,-0.00024986581340802436,-0.003431693173148176,0.00045107497662399965,-0.004543623923382716,-0.027033863465053543,0.003421499534095318,-0.038872478467656506,0.0,70.0,255.0,255.0,255.0
4,0.2,-7.500424830682684,7.500062892502341,-0.0005256376076617281,-0.004805463053214609,0.0006393812092486684,-0.00650134186591997,-0.027922031067895148,0.004118496276195316,-0.03944135309605729,0.0,70.0,255.0,255.0,255.0
5,0.25,-7.50070000000002,7.500100000000019,-0.0009000000000000214,-0.006223896279937691,0.0008629246042435312,-0.008487759232988445,-0.028839519838630423,0.004860035438447596,-0.04003963243226133,0.0,70.0,255.0,255.0,255.0
6,0.30000000000000004,-7.501047220310678,7.5001491849627655,-0.0013744135309605727,-0.0076894150370776515,0.001125384753093428,-0.010505305109146103,-0.029794120435600036,0.005657951970494679,-0.04067512932134587,0.0,70.0,255.0,255.0,255.0
7,0.35000000000000003,-7.5014689415037275,7.500212538475329,-0.0019505305109146318,-0.009203308323497694,0.0014287198012929991,-0.012555272165123033,-0.030719399862810803,0.006411326081234847,-0.041281221502625,0.0,70.0,255.0,255.0,255.0
8,0.4,-7.501967551143028,7.500292056942895,-0.002629940747472876,-0.010761355023358732,0.0017665173612169127,-0.014633427259408603,-0.03150926363195694,0.006958987356142643,-0.04175151223141927,0.0,70.0,255.0,255.0,255.0
9,0.45,-7.502545077006063,7.50038919021145,-0.0034138732368554922,-0.012354234686693388,0.0021246185369072634,-0.01673042338826496,-0.032078465363394315,0.007160981149567647,-0.041993741595123604,0.0,70.0,255.0,255.0,255.0
10,0.5,-7.503202974611697,7.5005045187965855,-0.004302983086299372,-0.013969201559698163,0.0024826154761736774,-0.018832801418920964,-0.032374788698597,0.006888323054354828,-0.04192338381291995,0.0,70.0,255.0,255.0,255.0
11,0.55,-7.503941997162033,7.500637451759068,-0.005297153378747589,-0.015591713556553088,0.0028134508423427462,-0.020922761769556954,-0.03238084248806672,0.006098620832339918,-0.041512654117618376,0.0,70.0,255.0,255.0,255.0
12,0.6000000000000001,-7.504762145967352,7.50078586388082,-0.006395259263255067,-0.017207285808504835,0.0030924775594076692,-0.0229840668306828,-0.03211697886671416,0.0049589977161090815,-0.040870169344463074,0.0,70.0,255.0,255.0,255.0
13,0.65,-7.505662725742884,7.5009466995150085,-0.007595560061815869,-0.018803411443224505,0.0033093506139536544,-0.025009778704003262,-0.031639548132123,0.0037725794546972224,-0.04019330777508396,0.0,70.0,255.0,255.0,255.0
14,0.7000000000000001,-7.506642487111675,7.501116798942215,-0.008896237133655394,-0.020371240621717135,0.0034697355048773915,-0.027003397608191197,-0.031033761047893904,0.0028580291171032,-0.039694023437599965,0.0,70.0,255.0,255.0,255.0
15,0.75,-7.507699849805055,7.501293673065496,-0.010295899822634989,-0.021906787548013895,0.0035951535256639744,-0.02897918104776326,-0.030388957094107383,0.0025267077830903872,-0.039594483396338254,0.0,70.0,255.0,255.0,255.0
16,0.8,-7.508833165866476,7.501476314294782,-0.01179415523843172,-0.023410136331127873,0.00372240628318643,-0.030962845947825023,-0.02976621034367355,0.0029291107408013772,-0.039999368070408256,0.0,70.0,255.0,255.0,255.0
17,0.8500000000000001,-7.510040863438168,7.501665913693815,-0.013392184417417491,-0.02488340858238125,0.003888064599744112,-0.032979117854804084,-0.029209887467285256,0.0039027996042051427,-0.040752693194116146,0.0,70.0,255.0,255.0,255.0
18,0.9,-7.511321506724714,7.501865120754756,-0.015092067023912128,-0.0263311250778564,0.0041126862436069445,-0.03503811526723664,-0.02877785852444248,0.005119739114878286,-0.04156066459365289,0.0,70.0,255.0,255.0,255.0
19,0.9500000000000001,-7.512673975945954,7.5020771823181756,-0.016895995944141155,-0.027761194434825498,0.004400038511231941,-0.03713518431416937,-0.02853166527030382,0.006240841775273509,-0.042130304514616246,0.0,70.0,255.0,255.0,255.0
20,1.0,-7.514097626168197,7.502305124605879,-0.018805585455329066,-0.02918429160488678,0.004736770421134295,-0.03925114571869826,-0.028521410897042188,0.00693286446082908,-0.04216674786979173,0.0,70.0,255.0,255.0,255.0
21,1.05,-7.515592405106442,7.502550859360289,-0.02082111051601098,-0.030613335524529717,0.005093324957314849,-0.041351859101148546,-0.028762055065456593,0.007018875598685526,-0.041529500640377984,0.0,70.0,255.0,255.0,255.0
22,1.1,-7.51715895972065,7.502814457101611,-0.02294077136544392,-0.03206049711143244,0.005438657981002848,-0.04340409578273606,-0.029199928140855036,0.006598848156791348,-0.0404062373662549,0.0,70.0,255.0,255.0,255.0
23,1.1500000000000001,-7.518798454817586,7.503094725158389,-0.025161520094284587,-0.03353332833861522,0.0057532097729939835,-0.045392482837774036,-0.02973088257158807,0.005898580636554129,-0.03915769352396334,0.0,70.0,255.0,255.0,255.0
24,1.2000000000000002,-7.520512292554511,7.50338977807891,-0.027480019649221324,-0.03503358536859125,0.006028516044658261,-0.047319865135132394,-0.030233890224717896,0.005145690028030003,-0.03814410582328211,0.0,70.0,255.0,255.0,255.0
25,1.25,-7.522301813354445,7.503697576762855,-0.029893506607797826,-0.03655671736108701,0.006267778775796984,-0.049206893420102246,-0.030585352697354296,0.0045698064002230865,-0.03771446918043875,0.0,70.0,255.0,255.0,255.0
26,1.3,-7.52416796429062,7.50401655595649,-0.03240070899123155,-0.038092120638326676,0.0064854966846805695,-0.05109131205317627,-0.030719368928888713,0.004300934649847932,-0.03804300232845351,0.0,70.0,255.0,255.0,255.0
27,1.35,-7.5261110254182775,7.504346126431323,-0.03500263781311545,-0.03962865425397588,0.006697872240781777,-0.0530111936529476,-0.0306740363336111,0.00429723900570167,-0.038972473890984405,0.0,70.0,255.0,255.0,255.0
28,1.4000000000000001,-7.528130829716018,7.504686343180568,-0.03770182835652631,-0.041159524271687786,0.0069152205852507365,-0.05498855944227471,-0.03053413566442842,0.004452185425751765,-0.040177605599536065,0.0,70.0,255.0,255.0,255.0
29,1.4500000000000002,-7.530226977845446,7.505037648489848,-0.040501493757342924,-0.04268206782041872,0.0071430907833569535,-0.0570289542129012,-0.030386573364005187,0.004668799043816563,-0.04132721158619582,0.0,70.0,255.0,255.0,255.0
30,1.5,-7.5323990364980595,7.505400652258904,-0.04340472377781643,-0.044198181608088305,0.007382100489632393,-0.05912128060089429,-0.03032915966549865,0.004847956557796351,-0.04210339405647523,0.0,70.0,255.0,255.0,255.0
31,1.55,-7.534646796006255,7.5057758585388115,-0.04641362181743235,-0.04571498378696859,0.007627886439136589,-0.061239293618548726,-0.03041324311192639,0.004931325196011471,-0.042332429439748825,0.0,70.0,255.0,255.0,255.0
32,1.6,-7.536970534876756,7.506163440902817,-0.0495286531396713,-0.047239505919280944,0.00787523300923354,-0.06335452354486917,-0.03058299412357357,0.004933128221740191,-0.04207291135884944,0.0,70.0,255.0,255.0,255.0
33,1.6500000000000001,-7.539370746598183,7.506563381839735,-0.05274907417191927,-0.048773283199325945,0.008121199261310608,-0.06544658475443367,-0.030734346332295104,0.004890906099142001,-0.04148200062800214,0.0,70.0,255.0,255.0,255.0
34,1.7000000000000002,-7.541847863196689,7.506975560828948,-0.05607331161511467,-0.050312940552510454,0.00836432361914774,-0.06750272360766939,-0.030772730072392562,0.004832913329888555,-0.040720847365740415,0.0,70.0,255.0,255.0,255.0
35,1.75,-7.544402040653434,7.50739981420165,-0.05949934653268621,-0.0518505562065652,0.008604490594299463,-0.06951866949100771,-0.030602064584961397,0.004786339395934647,-0.03995195459366649,0.0,70.0,255.0,255.0,255.0
36,1.8,-7.5470329188173455,7.507836009888378,-0.06302517856421544,-0.053373147011006594,0.008842957558741205,-0.07149791906703604,-0.030180572376359294,0.004767051280119006,-0.03927902816429907,0.0,70.0,255.0,255.0,255.0
37,1.85,-7.549739355354535,7.508284109957524,-0.06664913843938981,-0.05486861344420113,0.009081195722311364,-0.07344657230743762,-0.029595758734224376,0.0047702481073663705,-0.0387330834708155,0.0,70.0,255.0,255.0,255.0
38,1.9000000000000001,-7.552519780161766,7.508744129460609,-0.0703698357949592,-0.05633272288442903,0.009319982369477842,-0.07537122741411759,-0.02900754660517535,0.004784190177620218,-0.038339706573767285,0.0,70.0,255.0,255.0,255.0
39,1.9500000000000002,-7.555372627642978,7.5092161081944715,-0.07418626118080157,-0.057769368104718666,0.009559614740073386,-0.07728054296481435,-0.028575280238296585,0.004799547636924473,-0.03813457377602608,0.0,70.0,255.0,255.0,255.0
40,2.0,-7.5582967169722375,7.509700090934617,-0.07809789009144064,-0.05919025090825869,0.009799937133170289,-0.0791846847917202,-0.0284545633467026,0.004806685857783322,-0.038140815540887996,0.0,70.0,255.0,255.0,255.0
41,2.0500000000000003,-7.561291652733804,7.5101961019077885,-0.08210472965997359,-0.060614824439388926,0.010040283325851718,-0.08109462451890315,-0.02871826691723811,0.00480046968389658,-0.03835919683080058,0.0,70.0,255.0,255.0,255.0
42,2.1,-7.564358199416176,7.510704119267202,-0.08620735254333095,-0.0620620775999825,0.010279984101559947,-0.08302060447480025,-0.029269495415373825,0.004785879349533673,-0.038751211634346916,0.0,70.0,255.0,255.0,255.0
43,2.15,-7.567497860493802,7.5112241003179445,-0.09040679010745362,-0.06354177398092631,0.010518871260805085,-0.08496974568233784,-0.029919103610165365,0.004772333190228295,-0.03924103787877331,0.0,70.0,255.0,255.0,255.0
44,2.2,-7.570712376814269,7.5117560063932824,-0.09470432711156473,-0.06505398796099904,0.010757217420582776,-0.08694470826267758,-0.030473375081108145,0.004768896121998267,-0.039735169884470845,0.0,70.0,255.0,255.0,255.0
45,2.25,-7.574003259289902,7.512299822060003,-0.09910126093372137,-0.06658911148903712,0.010995760873004912,-0.08894326267078492,-0.030743691352341784,0.004786917171983873,-0.040144736622746424,0.0,70.0,255.0,255.0,255.0
46,2.3000000000000003,-7.577371287963173,7.512855582480583,-0.10359865337864323,-0.06812835709623322,0.011235909137781164,-0.09095918192495223,-0.030633073242025688,0.0048310699847675664,-0.04041798404629676,0.0,70.0,255.0,255.0,255.0
47,2.35,-7.580816094999525,7.513423412973781,-0.1081971791262166,-0.06965241881323969,0.011478867871481668,-0.0929850610754146,-0.030211667529567166,0.004886234495504738,-0.040545706355431255,0.0,70.0,255.0,255.0,255.0
48,2.4000000000000004,-7.584336529844497,7.514003469267731,-0.11289715948618469,-0.07114952384918993,0.011724532587331638,-0.09501375256049535,-0.029630631028609855,0.004926477061228951,-0.04053166638666034,0.0,70.0,255.0,255.0,255.0
49,2.45,-7.587931047384444,7.514595866232514,-0.11769855438226613,-0.07261548191610068,0.011971515577604563,-0.09703822771408063,-0.029044506150466276,0.004924867875022443,-0.040385259506608984,0.0,70.0,255.0,255.0,255.0
50,2.5,-7.591598078036107,7.515200620825492,-0.12260098225759275,-0.07405397446423656,0.012217019374833882,-0.09905227851115625,-0.028606661919461374,0.004845645453865899,-0.04012424729214065,0.0,70.0,255.0,255.0,255.0
51,2.5500000000000003,-7.595336444830868,7.5158175681699975,-0.12760378223338176,-0.07547614810804681,0.012456080122991153,-0.1010506524432947,-0.028402214008416138,0.00467525037732841,-0.039767841342989996,0.0,70.0,255.0,255.0,255.0
52,2.6,-7.599145692846911,7.516446228837791,-0.13270604750192222,-0.07689419586507817,0.012684544412566723,-0.10302906264545525,-0.028400198102840335,0.004469182668831451,-0.0393468021047616,0.0,70.0,255.0,255.0,255.0
53,2.6500000000000004,-7.603025864417376,7.517086022611254,-0.13790668849792728,-0.07831616791833085,0.012902998389874298,-0.10498533265377086,-0.028522847798928552,0.0043217585637300715,-0.038913135735421656,0.0,70.0,255.0,255.0,255.0
54,2.7,-7.6069773096387445,7.517736528676778,-0.1432045807672993,-0.07974648064497103,0.01311672026893973,-0.10692037621899741,-0.028694800783579666,0.004324919091391877,-0.038529479734786265,0.0,70.0,255.0,255.0,255.0
55,2.75,-7.611000512481873,7.518397694638148,-0.14859872611982702,-0.08118564799668881,0.013335490299013486,-0.10883828062724948,-0.028837679618032297,0.004578473040961484,-0.03825431150473735,0.0,70.0,255.0,255.0,255.0
56,2.8000000000000003,-7.615095874438413,7.5190700777066795,-0.15408840883002425,-0.08263024860677426,0.013574567573035878,-0.11074580736947115,-0.028905296831904792,0.005121728039192419,-0.03811736386845621,0.0,70.0,255.0,255.0,255.0
57,2.85,-7.61926353734255,7.519755151395452,-0.15967330685677414,-0.0840761776798793,0.013847663102932728,-0.1126500170140951,-0.028908472459932,0.005835263267339741,-0.03810438126279625,0.0,70.0,255.0,255.0,255.0
58,2.9000000000000004,-7.623503492206401,7.520454844016973,-0.16535341053143376,-0.08552109585276746,0.014158093899769852,-0.11455624549575077,-0.028876206213368505,0.006507421084833709,-0.03817849463435552,0.0,70.0,255.0,255.0,255.0
59,2.95,-7.627815646927827,7.521170960785429,-0.17112893140634922,-0.08696379830121614,0.014498405211416099,-0.11646786647753066,-0.02883009024952088,0.00692939515367641,-0.03829682155427061,0.0,70.0,255.0,255.0,255.0
60,3.0,-7.632199872036523,7.521904684538114,-0.17700019717918683,-0.08840410487771955,0.014851033415137493,-0.11838592765117784,-0.028790591636074225,0.006900509002605304,-0.03841449736492197,0.0,70.0,255.0,255.0,255.0
61,3.0500000000000003,-7.636656057415599,7.522656064126942,-0.182967524171467,-0.08984285746482357,0.01518845611167663,-0.12030931621402285,-0.028769885376522808,0.006330238398088994,-0.03850321600367135,0.0,70.0,255.0,255.0,255.0
62,3.1,-7.641184157783005,7.523423530149282,-0.18903112880058912,-0.09128109341537183,0.015484057254946393,-0.12223624925154497,-0.02876591205804857,0.005356011347679157,-0.03855660524496596,0.0,70.0,255.0,255.0,255.0
63,3.1500000000000004,-7.645784166757136,7.524204469852437,-0.1951911490966215,-0.09271944867062842,0.015724057246444545,-0.12416497673851945,-0.02877232734839197,0.004243988332763848,-0.03857111416540604,0.0,70.0,255.0,255.0,255.0
64,3.2,-7.650456102650068,7.5249959358739265,-0.20144762647444106,-0.09415832615021102,0.015908456088222778,-0.12609336066808557,-0.02878483821779909,0.0032697613671750503,-0.03853703358193128,0.0,70.0,255.0,255.0,255.0
65,3.25,-7.655199999372157,7.525795315461259,-0.20780048516343005,-0.09559793249240833,0.01605103338316205,-0.12801868009671258,-0.028799953837044256,0.0026994909482880303,-0.03843567106355805,0.0,70.0,255.0,255.0,255.0
66,3.3000000000000003,-7.660015895899309,7.526601039212243,-0.21424949448411232,-0.09703832153391545,0.01617840518305158,-0.12993692777444138,-0.028815161662532063,0.0026706050809011117,-0.03826305883015135,0.0,70.0,255.0,255.0,255.0
67,3.35,-7.664903831525549,7.5274131559795645,-0.2207941779408742,-0.09847944865866154,0.01631809389125216,-0.1318449859797277,-0.02882787930822417,0.0030925794540337392,-0.03806919775732054,0.0,70.0,255.0,255.0,255.0
68,3.4000000000000004,-7.669863840765175,7.528232848601368,-0.2274339930820851,-0.09992110946473787,0.016487663128454955,-0.13374384755017343,-0.028834484392969983,0.0037647374726113014,-0.037937048704017595,0.0,70.0,255.0,255.0,255.0
69,3.45,-7.6748959424720224,7.52906192229241,-0.23416856269589154,-0.10136289709795854,0.01669456763851329,-0.13563869085012947,-0.028830556879011482,0.004478272664343308,-0.0379483308313,0.0,70.0,255.0,255.0,255.0
70,3.5,-7.680000130474971,7.529902305365219,-0.24099786216709804,-0.10280416515263902,0.016935490394889285,-0.13753868063330343,-0.028809593015566293,0.005021527203741272,-0.03819079040882911,0.0,70.0,255.0,255.0,255.0
71,3.5500000000000003,-7.685176358987286,7.530755471331899,-0.24792243075922188,-0.10424385639951517,0.01719672035888742,-0.13945776989101238,-0.02876946797343294,0.0052750802058909585,-0.038698348209526,0.0,70.0,255.0,255.0,255.0
72,3.6,-7.6904245161149225,7.531621977401108,-0.2549436391561993,-0.10568111194998231,0.01746299841547838,-0.14140851545425603,-0.02872257070869466,0.005278239600858825,-0.03936483216396003,0.0,70.0,255.0,255.0,255.0
73,3.6500000000000004,-7.695744470182285,7.532501771173447,-0.2620632823046475,-0.10711611347038463,0.0177245443189733,-0.1433942531074084,-0.028689735079545642,0.005130814690268437,-0.04000162341943336,0.0,70.0,255.0,255.0,255.0
74,3.7,-7.701136127461961,7.533394431833005,-0.2692830644669401,-0.10855008545793687,0.017976079884505225,-0.14540867779619937,-0.028692934266771886,0.004924747043233424,-0.04042358248682598,0.0,70.0,255.0,255.0,255.0
75,3.75,-7.706599478728078,7.534299379161897,-0.2766041500842674,-0.10998540689706182,0.018217019023296643,-0.14743661135609099,-0.028761674100863388,0.004754353616043261,-0.040461213921189065,0.0,70.0,255.0,255.0,255.0
76,3.8000000000000003,-7.712134668151667,7.535216133735335,-0.2840267256025492,-0.11142625286802321,0.01845151524610955,-0.14945479918831828,-0.028906966443287274,0.004675134701592754,-0.040035949264149995,0.0,70.0,255.0,255.0,255.0
77,3.85,-7.717742104014881,7.536144530686508,-0.29154963000309925,-0.11287610354139055,0.01868453249345592,-0.15144020628250598,-0.02908183785717,0.004673529743204341,-0.039237720673074294,0.0,70.0,255.0,255.0,255.0
78,3.9000000000000004,-7.723422278505806,7.5370845869846805,-0.2991707462307998,-0.11433443665374021,0.018918868220429985,-0.1533785712556257,-0.029206575289286718,0.004713775328291092,-0.03825188885366315,0.0,70.0,255.0,255.0,255.0
79,3.95,-7.729175547680255,7.538036417508551,-0.3068874871286618,-0.11579676107031922,0.019155910026285028,-0.1552653951678723,-0.029204419340356225,0.004768939628618796,-0.037276313580403286,0.0,70.0,255.0,255.0,255.0
80,4.0,-7.735001954612838,7.539000177987309,-0.31469728574758704,-0.11725487858777583,0.019395762183291865,-0.15710620261366604,-0.028995738552684003,0.004813086303379066,-0.03649638187844251,0.0,70.0,255.0,255.0,255.0
81,4.05,-7.740901035539032,7.53997599372688,-0.3225981073900284,-0.11869633492558762,0.019637218656622935,-0.15891503335571655,-0.02854886671972423,0.004831094273693992,-0.03601734191331363,0.0,70.0,255.0,255.0,255.0
82,4.1000000000000005,-7.746871588105397,7.540963899852971,-0.3305887890831587,-0.12010976525974826,0.019878871610661264,-0.1607079368049974,-0.027951849424656672,0.004827641427151974,-0.03583794481740732,0.0,70.0,255.0,255.0,255.0
83,4.15,-7.752912012065007,7.541963880887947,-0.33866890107052816,-0.12149151986805329,0.020119982799338132,-0.16249882783745728,-0.027363031362348522,0.0048140839973953575,-0.035918000653151205,0.0,70.0,255.0,255.0,255.0
84,4.2,-7.759020740092202,7.542975898132905,-0.3468386718669044,-0.12284606839598311,0.0203602800104008,-0.16429973687031252,-0.02694216226437618,0.004799494442053742,-0.03621065037104354,0.0,70.0,255.0,255.0,255.0
85,4.25,-7.765196618904605,7.543999908888987,-0.3550988747575594,-0.1241857360944909,0.020599932243543506,-0.16611989287456164,-0.026847353040881927,0.004793301169492281,-0.03666523991701087,0.0,70.0,255.0,255.0,255.0
86,4.3,-7.771439313701651,7.5450358913572595,-0.3634506611543606,-0.1255308037000713,0.020839610127350028,-0.1679662608620136,-0.027151366211697336,0.004800488203571263,-0.03723622154414574,0.0,70.0,255.0,255.0,255.0
87,4.3500000000000005,-7.7777496992746125,7.546083869901722,-0.3718955008437608,-0.12690087271566064,0.021079981063900632,-0.1698435150289762,-0.027746288918972795,0.00481590454883829,-0.037850593297367174,0.0,70.0,255.0,255.0,255.0
88,4.4,-7.784129400973217,7.54714388946365,-0.3804350126572582,-0.12830543259196858,0.021321200582233857,-0.17175132019175032,-0.02842493562447146,0.004829888682511552,-0.038393497811128885,0.0,70.0,255.0,255.0,255.0
89,4.45,-7.790580242533809,7.548215989959945,-0.3890706328629358,-0.12974336627810779,0.021562969932151788,-0.1736828648100891,-0.028974157709971138,0.004833082602839767,-0.03873591011024913,0.0,70.0,255.0,255.0,255.0
90,4.5,-7.797103737601028,7.549300186456865,-0.3978032991382671,-0.1312028483629657,0.021804508842517834,-0.17562491120277524,-0.029178858608691627,0.0048137090177924335,-0.038746621157503824,0.0,70.0,255.0,255.0,255.0
91,4.55,-7.803700527370106,7.550396440844197,-0.40663312398321333,-0.13266125213897695,0.02204434083393103,-0.17755752692583948,-0.028932381719659617,0.004766952912671485,-0.03837054580287935,0.0,70.0,255.0,255.0,255.0
92,4.6000000000000005,-7.810369862814926,7.551504620540258,-0.41555905183085107,-0.13409608653493166,0.022281204133784982,-0.17946196578306317,-0.028348402824551755,0.004708740378145393,-0.03772415751753244,0.0,70.0,255.0,255.0,255.0
93,4.65,-7.817110136023599,7.552624561257575,-0.42457932056151965,-0.13549609242143212,0.02251521487174557,-0.18132994267759273,-0.02765181821438034,0.004666361271610242,-0.03702437173869755,0.0,70.0,255.0,255.0,255.0
94,4.7,-7.823919472057069,7.553756142027432,-0.43369204609861034,-0.1368612683563697,0.022747840260946006,-0.18316440295693293,-0.02706778032246504,0.004668175146260722,-0.03649848308078796,0.0,70.0,255.0,255.0,255.0
95,4.75,-7.830796262859236,7.55489934528367,-0.44289576085721294,-0.13820287045367863,0.022982032386371642,-0.18497979098567152,-0.026821175229141403,0.004751862759988512,-0.036384266129008136,0.0,70.0,255.0,255.0,255.0
96,4.800000000000001,-7.837739759102437,7.55605434526607,-0.4521900251971775,-0.13954338587928383,0.023223026536944857,-0.18680282956983374,-0.027025680335324154,0.004931700145949236,-0.0367948819576025,0.0,70.0,255.0,255.0,255.0
97,4.8500000000000005,-7.844750601447164,7.557221647937364,-0.4615760438141963,-0.14090543848721104,0.023475202400966566,-0.18865927918143177,-0.02757469185681316,0.005149133937898398,-0.03756736870705879,0.0,70.0,255.0,255.0,255.0
98,4.9,-7.851830302951158,7.558401865506166,-0.47105595311532067,-0.14230085506496515,0.023737939930734697,-0.19055956644053962,-0.028253199443817323,0.005304666230898647,-0.03839442315948238,0.0,70.0,255.0,255.0,255.0
99,4.95,-7.858980686953661,7.559595441930438,-0.4806320004582503,-0.14373075843159278,0.02400566902405643,-0.19249872149738,-0.028848147573068417,0.005300930100116119,-0.03897029742676028,0.0,70.0,255.0,255.0,255.0
100,5.0,-7.866203378794317,7.560802432408572,-0.49030582526505867,-0.145185669822272,0.02426803294074631,-0.19445659618321565,-0.02915247777206531,0.005030867914967985,-0.03898437959453105,0.0,70.0,255.0,255.0,255.0
101,5.050000000000001,-7.873499253935888,7.5620222452245125,-0.5000776600765718,-0.1466460062087993,0.02450875581555323,-0.19639715945683311,-0.029058323512742845,0.004452446968805646,-0.03828955340626772,0.0,70.0,255.0,255.0,255.0
102,5.1000000000000005,-7.880867979415197,7.563253307990127,-0.509945541210742,-0.14809150217354627,0.024713277637626874,-0.19828555152384242,-0.028638237671785305,0.0036964954306384357,-0.03709354714144797,0.0,70.0,255.0,255.0,255.0
103,5.15,-7.888308404153243,7.564493572988275,-0.5199062152289561,-0.14950982997597784,0.024878405358617073,-0.2001065141709779,-0.028049976085853245,0.002994041404136283,-0.03579159529711884,0.0,70.0,255.0,255.0,255.0
104,5.2,-7.895818962412795,7.565741148525989,-0.5299561926278398,-0.1508964997821316,0.025012681778040502,-0.2018647110535543,-0.02745291609942413,0.0025741650609312217,-0.03477967453150432,0.0,70.0,255.0,255.0,255.0
105,5.25,-7.903398054131456,7.566994841166079,-0.5400926863343115,-0.15225512158592025,0.025135821864710195,-0.20358448162412834,-0.02700490435785241,0.0026646189598800163,-0.03445415954872466,0.0,70.0,255.0,255.0,255.0
106,5.300000000000001,-7.911044474571387,7.56825473071246,-0.5503146407902526,-0.15359699021791684,0.025279143674028504,-0.20531012700842677,-0.02679379950603078,0.003366111045188802,-0.03500727737764109,0.0,70.0,255.0,255.0,255.0
107,5.3500000000000005,-7.918757753153248,7.569522755533482,-0.5606236990351542,-0.15493450153652333,0.025472432969229075,-0.20708520936189245,-0.026788721092341206,0.004498637253380622,-0.0362085592773731,0.0,70.0,255.0,255.0,255.0
108,5.4,-7.926537924725039,7.570801974009383,-0.5710231617264419,-0.15627586232715096,0.025729007399366566,-0.20893098293616408,-0.02691137173842506,0.005723736917762068,-0.03760823994117812,0.0,70.0,255.0,255.0,255.0
109,5.45,-7.934385339385963,7.572095656273419,-0.5815167973287706,-0.15762563871036583,0.026044806661005282,-0.21084603335601027,-0.027086388495423108,0.00669686187073637,-0.038751657127811256,0.0,70.0,255.0,255.0,255.0
110,5.5,-7.942300488596076,7.573406454675483,-0.5921077650620429,-0.15898450117669327,0.026398693586440203,-0.2128061486489452,-0.027235923443313936,0.007082684217252222,-0.039179028830549356,0.0,70.0,255.0,255.0,255.0
111,5.550000000000001,-7.950283789503632,7.574735525632063,-0.6027974121936651,-0.16034923105469723,0.026753075082730504,-0.2147639362390652,-0.027313704570364195,0.006716022602937244,-0.03866147694328026,0.0,70.0,255.0,255.0,255.0
112,5.6000000000000005,-7.958335411701546,7.576081762183756,-0.6135841586859494,-0.1617158716337297,0.027070295846733927,-0.21667229634327323,-0.02732781035996723,0.005758839005576277,-0.03744303159988194,0.0,70.0,255.0,255.0,255.0
113,5.65,-7.966455376667005,7.577442555216736,-0.6244646418279924,-0.16308201209069395,0.027328958983288132,-0.2185082393990534,-0.02730276539901766,0.0045419666363955,-0.03600462908739388,0.0,70.0,255.0,255.0,255.0
114,5.7,-7.974643612910615,7.578814658082085,-0.6354349826258547,-0.16444614817363146,0.027524492510373477,-0.22027275925201262,-0.02725532945300202,0.0034044480623940387,-0.034826843810442654,0.0,70.0,255.0,255.0,255.0
115,5.75,-7.982899991484368,7.5801950044677735,-0.6464919177531937,-0.16580754503599415,0.027669403789527536,-0.22199092378009766,-0.027199373896635848,0.0026766255226462476,-0.034397650537021374,0.0,70.0,255.0,255.0,255.0
116,5.800000000000001,-7.9912243674142145,7.581581598461038,-0.6576340750038645,-0.16716608556329504,0.027792155062638102,-0.22371252430571476,-0.02714466892488332,0.0025358591491553284,-0.034959961702318854,0.0,70.0,255.0,255.0,255.0
117,5.8500000000000005,-7.999616600040698,7.582974219974037,-0.6688631701837652,-0.16852201192848248,0.02792298970444307,-0.22548691995032955,-0.027100037467597815,0.0028969624346508738,-0.03624849847221334,0.0,70.0,255.0,255.0,255.0
118,5.9,-8.008076568607063,7.584373897431482,-0.6801827669988975,-0.16987608931005482,0.02808185130610319,-0.2273373741529361,-0.02707756666682215,0.003558279986659585,-0.03774405956009641,0.0,70.0,255.0,255.0,255.0
119,5.95,-8.016604208971703,7.585782405104648,-0.6915969075990588,-0.1712297685951647,0.028278817703109027,-0.2292613259063392,-0.027092293693264935,0.004318259633429022,-0.038934534064083426,0.0,70.0,255.0,255.0,255.0
120,6.0,-8.02519954546658,7.587201779201793,-0.7031088995895314,-0.17258531867938132,0.02851367726944609,-0.23123082755934443,-0.027166580969684162,0.004982841663991877,-0.03931447158548318,0.0,70.0,255.0,255.0,255.0
121,6.050000000000001,-8.033862740839641,7.588633772831592,-0.7147199903549932,-0.17394642669213312,0.028777101869508215,-0.2331927730648875,-0.027307619729022292,0.005434993015018819,-0.038631729860394426,0.0,70.0,255.0,255.0,255.0
122,6.1000000000000005,-8.042594188135793,7.590079489388744,-0.7264281768960201,-0.17531608065228355,0.029057176570947973,-0.23509400054538387,-0.027472039769271817,0.005657880020493167,-0.037135561923851146,0.0,70.0,255.0,255.0,255.0
123,6.15,-8.05139434890487,7.591539490488687,-0.7382293904095316,-0.1766936306690603,0.02934288987155753,-0.23690632925727262,-0.027586967934922768,0.005658666330976558,-0.03532738442056926,0.0,70.0,255.0,255.0,255.0
124,6.2,-8.060263551202699,7.5930137783759,-0.7501188098217474,-0.17807477744577582,0.02962304320404563,-0.2386267389874408,-0.02758220906109443,0.0054368257578651935,-0.03370765396576436,0.0,70.0,255.0,255.0,255.0
125,6.25,-8.069201826649447,7.594501794809092,-0.7620920643082757,-0.17945185157516974,0.02988657244734405,-0.24027709465384905,-0.02738633019596648,0.004983989172480108,-0.03275639785290663,0.0,70.0,255.0,255.0,255.0
126,6.300000000000001,-8.078208736360216,7.596002435620634,-0.7741465192871323,-0.18081341046537247,0.03012144212129364,-0.24190237877273146,-0.026971052625057723,0.004316429863493454,-0.03272626570932635,0.0,70.0,255.0,255.0,255.0
127,6.3500000000000005,-8.087283167695984,7.597513939021221,-0.7862823021855488,-0.1821489568376755,0.030318215433693396,-0.2435497212247817,-0.026413575016803748,0.0035523566446649113,-0.03347573401892845,0.0,70.0,255.0,255.0,255.0
128,6.4,-8.096423632043983,7.5990342571640035,-0.7985014914096105,-0.18345476796705285,0.03047667778576013,-0.2452499521746243,-0.02585362919340639,0.0028878938501897267,-0.03467992257121244,0.0,70.0,255.0,255.0,255.0
129,6.45,-8.10562864449269,7.600561606799797,-0.8108072974030113,-0.18473431975701615,0.03060700481871237,-0.24701771348190293,-0.025431643955897698,0.002526698407301353,-0.036008276646226633,0.0,70.0,255.0,255.0,255.0
130,6.5,-8.114897064019685,7.602094957645875,-0.8232032627578008,-0.18599793236264262,0.030729347626490267,-0.24885077983924697,-0.025280079596790017,0.0026731829984250055,-0.03714394632686746,0.0,70.0,255.0,255.0,255.0
131,6.550000000000001,-8.124228437728954,7.603634541562446,-0.835692375386936,-0.18726232771669515,0.03087432311855487,-0.2507321081145897,-0.025461969303997023,0.0034135998856044125,-0.03789817233724735,0.0,70.0,255.0,255.0,255.0
132,6.6000000000000005,-8.133623296791354,7.60518238995773,-0.8482764735692597,-0.18854412929304232,0.031070707615050708,-0.2526405970729717,-0.025909184640049432,0.0045664463141470435,-0.038249707128634736,0.0,70.0,255.0,255.0,255.0
133,6.65,-8.143082850658258,7.606741612323951,-0.8609564350942331,-0.1898532461807001,0.031330967749969574,-0.25455707882745315,-0.026482151655216057,0.005794327032226931,-0.03822220268403509,0.0,70.0,255.0,255.0,255.0
134,6.7,-8.152608621409424,7.608315486732727,-0.873732181452005,-0.19119234445856392,0.0316501403182734,-0.2564628173413752,-0.027031727935522554,0.006750832826618591,-0.03783406462419814,0.0,70.0,255.0,255.0,255.0
135,6.75,-8.162202085104115,7.609906626355778,-0.8866027168283707,-0.19255641897425235,0.03200605103263143,-0.25834048528987297,-0.027405332768282165,0.007095306806714774,-0.0371038075154706,0.0,70.0,255.0,255.0,255.0
136,6.800000000000001,-8.17186426330685,7.61151609183599,-0.8995662299809923,-0.19393287773539214,0.03235967099894488,-0.2601731980929223,-0.027521582979872505,0.006662084348185715,-0.03607228037274535,0.0,70.0,255.0,255.0,255.0
137,6.8500000000000005,-8.181595372877654,7.613142593455673,-0.9126200366376629,-0.1953085772722396,0.032672259467450004,-0.2619477133271475,-0.02743332278782873,0.0056317415481288435,-0.03488711578822912,0.0,70.0,255.0,255.0,255.0
138,6.9,-8.191395121034073,7.614783317782735,-0.9257610013137071,-0.196676210014175,0.03292284515375776,-0.2636619096717452,-0.02725328866048926,0.004365753731416788,-0.033792945014510245,0.0,70.0,255.0,255.0,255.0
139,6.95,-8.201262993879071,7.616434877971049,-0.9389862276048374,-0.19803390613828853,0.03310883484059168,-0.2653270078285985,-0.027095243834907023,0.003236030891429209,-0.033053413574934964,0.0,70.0,255.0,255.0,255.0
140,7.0,-8.211198511647902,7.6180942012667945,-0.9522937020965669,-0.19938573439766571,0.033246448242900684,-0.2669672510292387,-0.027090570682375414,0.0026175711268727753,-0.03292884225926107,0.0,70.0,255.0,255.0,255.0
141,7.050000000000001,-8.221201567318838,7.619759522795339,-0.9656829527077613,-0.20074296320652607,0.03337059195327896,-0.26861989205452463,-0.027304472669520408,0.002704123329078101,-0.033533731812751544,0.0,70.0,255.0,255.0,255.0
142,7.1000000000000005,-8.231272807968555,7.621431260462122,-0.9791556913020194,-0.20211618166461776,0.033516860575808494,-0.27032062421051384,-0.02763659180846645,0.0033375432046511833,-0.034672878669383955,0.0,70.0,255.0,255.0,255.0
143,7.15,-8.2414131854853,7.62311120885292,-0.9927150151288127,-0.20350662238737272,0.03370434627374408,-0.27208717992146303,-0.027906465264671,0.004192541491399027,-0.03597328998523608,0.0,70.0,255.0,255.0,255.0
144,7.2,-8.251623470207292,7.624801695089497,-1.0063644092941657,-0.20490682819108486,0.033936114724948396,-0.27391795320903745,-0.027946923763799703,0.004944670646001015,-0.037046733290568845,0.0,70.0,255.0,255.0,255.0
145,7.25,-8.261903868304408,7.626504820325414,-1.0201068104497164,-0.20630131476375269,0.03419881333834418,-0.2757918532505199,-0.027588468418748846,0.005258464630220061,-0.03750884209554606,0.0,70.0,255.0,255.0,255.0
146,7.300000000000001,-8.272253601683667,7.628221576423331,-1.0339435946192177,-0.20766567503295974,0.0344619611879704,-0.27766883741859205,-0.02675964056173541,0.004962075017189704,-0.03716621894960248,0.0,70.0,255.0,255.0,255.0
147,7.3500000000000005,-8.282670435807704,7.6299510164442115,-1.0478736941915756,-0.20897727881992623,0.03469502084006315,-0.27950847514548016,-0.025623853101031102,0.0042244259594426126,-0.03619218538495339,0.0,70.0,255.0,255.0,255.0
148,7.4,-8.29315132956566,7.6316910785073375,-1.0618944421337657,-0.21022806034306285,0.034884403783914664,-0.2812880559570874,-0.02447898547828231,0.003376900815599271,-0.03494307919387207,0.0,70.0,255.0,255.0,255.0
149,7.45,-8.30369324184201,7.633439456822603,-1.0760024997872843,-0.21142517736775446,0.03503271092162308,-0.28300278306486737,-0.023622608896545216,0.0027389461973115203,-0.03377951340266527,0.0,70.0,255.0,255.0,255.0
150,7.5,-8.314293847302435,7.6351943495995,-1.0901947204402525,-0.21259032123271737,0.035158298403645816,-0.2846660072973539,-0.023339518346432442,0.002628477112409655,-0.033055742738352656,0.0,70.0,255.0,255.0,255.0
151,7.550000000000001,-8.324952273965282,7.6369552866629675,-1.1044691005170197,-0.2137591292023977,0.035295558632864044,-0.28630835733870263,-0.023764564149786338,0.0032012362772171343,-0.03296073970817659,0.0,70.0,255.0,255.0,255.0
152,7.6000000000000005,-8.335669760222675,7.638723905462786,-1.1188255561741227,-0.214966777647696,0.03547842203136753,-0.2879620812681716,-0.024739044737742688,0.004277573470101714,-0.033389335501876616,0.0,70.0,255.0,255.0,255.0
153,7.65,-8.346448951730052,7.640503128866104,-1.133265308643837,-0.21623303367617197,0.035723315979874215,-0.2896472908888903,-0.025944865549831775,0.005506195571758354,-0.03410427668935068,0.0,70.0,255.0,255.0,255.0
154,7.7,-8.357293063590292,7.642296237060774,-1.1477902852630117,-0.21756126420267918,0.036029041588543365,-0.29137250893710664,-0.02705037957966283,0.006540197245019641,-0.034868126851650416,0.0,70.0,255.0,255.0,255.0
155,7.75,-8.36820507815032,7.644106033024959,-1.1624025595375476,-0.21893807163413825,0.03637733570437618,-0.29313410357405534,-0.02772944887130535,0.007051682864389619,-0.0354402149229216,0.0,70.0,255.0,255.0,255.0
156,7.800000000000001,-8.379186870753706,7.645933970631211,-1.1771036956204173,-0.22033420908980972,0.036734209874982326,-0.2949165304293988,-0.027809328945593847,0.006872606914232193,-0.035685274432206704,0.0,70.0,255.0,255.0,255.0
157,7.8500000000000005,-8.3902384990593,7.647779454012457,-1.1918942125804874,-0.22171900452869764,0.0370645963957994,-0.296702631017276,-0.027389012237577504,0.006115163610154184,-0.03565504137217346,0.0,70.0,255.0,255.0,255.0
158,7.9,-8.401358771206576,7.649640430270791,-1.2067739587221449,-0.22307311031356747,0.037345726235997745,-0.29848203456661615,-0.0266916688723029,0.005029272608236823,-0.035473566962318515,0.0,70.0,255.0,255.0,255.0
159,7.95,-8.412545810090657,7.651514026636057,-1.221742416037149,-0.22438817141592793,0.03756752365662308,-0.30024998771350786,-0.025942959032221324,0.003873038714985455,-0.03525557825818648,0.0,70.0,255.0,255.0,255.0
160,8.0,-8.423797588348169,7.6533971826364535,-1.2367989574934957,-0.2256674062167896,0.03773303010749629,-0.3020075923924348,-0.02537065819669948,0.0028888007534533244,-0.03512335095003927,0.0,70.0,255.0,255.0,255.0
161,8.05,-8.435112550712336,7.655287329646806,-1.2519431752763925,-0.22692523723559788,0.03785640373196841,-0.3037623228085118,-0.025103667852555134,0.00222059713843592,-0.03514422316914789,0.0,70.0,255.0,255.0,255.0
162,8.1,-8.446490112071729,7.65718282300965,-1.2671751897743468,-0.22817777300204511,0.03795508982133988,-0.3055220147093496,-0.025100337546923868,0.0018944993624536721,-0.035269566608464586,0.0,70.0,255.0,255.0,255.0
163,8.15,-8.45793032801254,7.65908283862894,-1.2824953767473275,-0.22943527099029026,0.03804585366821378,-0.30728927946935825,-0.02525470604748392,0.0019056650446991341,-0.03540322702313414,0.0,70.0,255.0,255.0,255.0
164,8.200000000000001,-8.469433639170758,7.660987408376472,-1.2979041177212827,-0.2307032436067935,0.038145656325809796,-0.309062337411663,-0.02547018522385258,0.0022466222540096226,-0.035462473868452804,0.0,70.0,255.0,255.0,255.0
165,8.25,-8.48100065237322,7.662897404261521,-1.3134016104884938,-0.23198228951267552,0.03827051589361474,-0.3108355268562035,-0.025647964962516312,0.002905095472982566,-0.03537043722094957,0.0,70.0,255.0,255.0,255.0
166,8.3,-8.492631868122025,7.664814459965833,-1.328987670406903,-0.23326804010304514,0.03843616587310805,-0.31259938113375796,-0.02572993903768861,0.003847055814087952,-0.035090746644206305,0.0,70.0,255.0,255.0,255.0
167,8.35,-8.504327456383525,7.666741020848832,-1.3446615486018696,-0.23455528341644438,0.03865522147502354,-0.31434460152062416,-0.02573056997476897,0.004945160617708666,-0.0346684637558381,0.0,70.0,255.0,255.0,255.0
168,8.4,-8.51608739646367,7.668679982113336,-1.3604221305589654,-0.23584109710052203,0.03893068193487892,-0.31606622750934177,-0.02568773537721114,0.005986388891265904,-0.03419259254429097,0.0,70.0,255.0,255.0,255.0
169,8.450000000000001,-8.527911566093577,7.67063408904232,-1.3762681713528038,-0.2371240569541655,0.03925386036415013,-0.31776386077505325,-0.025630099606566148,0.006742523552194513,-0.033754013447362397,0.0,70.0,255.0,255.0,255.0
170,8.5,-8.539799802159086,7.672605368149751,-1.3921985166364708,-0.23840410706117865,0.03960493429009837,-0.319441628854078,-0.02558545398034795,0.007002798706601254,-0.0334389094901022,0.0,70.0,255.0,255.0,255.0
171,8.55,-8.551751976799695,7.67459458247133,-1.4082123342382116,-0.2396826023522003,0.039954140234810254,-0.3211077517240635,-0.025569862709495794,0.006670153964183356,-0.033292790254280114,0.0,70.0,255.0,255.0,255.0
172,8.6,-8.563768062394306,7.676600782173232,-1.424309291808877,-0.24096109333212823,0.040271949686516706,-0.322770907879506,-0.025577382554331507,0.005853809215405903,-0.03329387440553777,0.0,70.0,255.0,255.0,255.0
173,8.65,-8.575848086132908,7.678621777439981,-1.4404894250261622,-0.24224034060763344,0.040539521156350844,-0.32443713916461725,-0.02559435244506858,0.0047815066625211955,-0.033389106762138354,0.0,70.0,255.0,255.0,255.0
174,8.700000000000001,-8.58799209645507,7.680654734288867,-1.4567530057253388,-0.2435205285766351,0.040750100352768825,-0.32610981855571985,-0.025609416349325897,0.0037022578961654062,-0.03352147234185754,0.0,70.0,255.0,255.0,255.0
175,8.75,-8.600200138990571,7.682696787475258,-1.4731004068817342,-0.24480128224256603,0.040909746945967385,-0.327789286398803,-0.02561021911464678,0.002859746997074808,-0.033629915494803875,0.0,70.0,255.0,255.0,255.0
176,8.8,-8.612472224679326,7.684745708983463,-1.4895319343652191,-0.24608155048809977,0.041036075052476306,-0.32947281010520024,-0.025590610125370006,0.0023913026887534272,-0.033678605159437325,0.0,70.0,255.0,255.0,255.0
177,8.85,-8.624808294039381,7.686800394980506,-1.5060476878922542,-0.24736034325510303,0.04114887721484273,-0.33115714691474674,-0.025559899808591524,0.002272329792951666,-0.03367697102283351,0.0,70.0,255.0,255.0,255.0
178,8.9,-8.637208259004836,7.688860596704948,-1.5226476490566938,-0.24863754046895892,0.04126330803177147,-0.3328405072074836,-0.02553485484195761,0.0024165355072547356,-0.03364920884523226,0.0,70.0,255.0,255.0,255.0
179,8.950000000000001,-8.649672048086277,7.690926725783683,-1.5393317386130025,-0.2499138287392988,0.0413905307655682,-0.33452206779926996,-0.025532234995573333,0.002734132508930287,-0.03361389671896475,0.0,70.0,255.0,255.0,255.0
180,9.0,-8.662199641878766,7.6929996497815045,-1.5560998558366208,-0.25119076396851625,0.0415367212826645,-0.33620189687938007,-0.025573669560507994,0.0031222226287042076,-0.03358940055886439,0.0,70.0,255.0,255.0,255.0
181,9.05,-8.674791124483129,7.6950803979119495,-1.5729519283009405,-0.2524711956953496,0.04170275302843862,-0.3378810078551564,-0.025667696790598882,0.003512887029799572,-0.033586075821356864,0.0,70.0,255.0,255.0,255.0
182,9.1,-8.687446761448301,7.697169925084348,-1.5898879566221364,-0.25375753364757614,0.04188800998564446,-0.33956050446151576,-0.025783018212166553,0.0038969648533893064,-0.03359824150281909,0.0,70.0,255.0,255.0,255.0
183,9.15,-8.700166877847886,7.699269198910514,-1.6069079787470921,-0.25504949751656625,0.04209244951377755,-0.3412408320054383,-0.02586622818654405,0.004269740584739168,-0.033614057856823365,0.0,70.0,255.0,255.0,255.0
184,9.200000000000001,-8.712951711199958,7.701379170035726,-1.6240120398226803,-0.25634415646623054,0.042314984044118376,-0.3429219102471981,-0.025868356954994454,0.004609323956294986,-0.03362294078239625,0.0,70.0,255.0,255.0,255.0
185,9.25,-8.72580129349451,7.703500697314926,-1.641200169771812,-0.2576363332120657,0.04255338190940705,-0.34460312608367794,-0.02574713061402889,0.004903297220160141,-0.033612482270006794,0.0,70.0,255.0,255.0,255.0
186,9.3,-8.738715344521164,7.705634508226667,-1.658472352431048,-0.25891886952763343,0.04280531376613439,-0.34628315847419877,-0.025484803177988624,0.005143722618328184,-0.03357709155511479,0.0,70.0,255.0,255.0,255.0
187,9.35,-8.751693180447273,7.707781228691539,-1.6758284856192318,-0.26018481352986456,0.04306775417123987,-0.3479608352391894,-0.025109798904843217,0.005302514757055121,-0.03353006296558103,0.0,70.0,255.0,255.0,255.0
188,9.4,-8.764733825874151,7.709941283643791,-1.693268435954967,-0.26142984941811775,0.0433355652418399,-0.3496361647707569,-0.024679300011776206,0.005341798191427216,-0.03349455972754267,0.0,70.0,255.0,255.0,255.0
189,9.450000000000001,-8.777836165389084,7.712114785215723,-1.7107921020963075,-0.2626527435310422,0.04360193399038259,-0.3513102912119437,-0.024253824364350862,0.005235284952131991,-0.03349434015151864,0.0,70.0,255.0,255.0,255.0
190,9.5,-8.790999100227255,7.714301477042829,-1.7283994650761614,-0.26385523185455284,0.0438590937370531,-0.35298559878590874,-0.023881817306481423,0.004960625786232242,-0.03356067036124344,0.0,70.0,255.0,255.0,255.0
191,9.55,-8.80422168857454,7.7165006945894286,-1.7460906619748984,-0.2650409252616903,0.044097996569005815,-0.354666358248068,-0.023593090497264768,0.004517910142176618,-0.03370555795825236,0.0,70.0,255.0,255.0,255.0
192,9.600000000000001,-8.817503192753424,7.71871127669973,-1.7638661009009682,-0.2662145409042793,0.04431088475127076,-0.356356154581734,-0.023415082205779925,0.003973815279945114,-0.033881506634725334,0.0,70.0,255.0,255.0,255.0
193,9.65,-8.830843142664968,7.720931783064556,-1.7817262774330718,-0.2673824334822683,0.04449537809700033,-0.35805450891154056,-0.02337927572959586,0.0034439058110180554,-0.03400770323294111,0.0,70.0,255.0,255.0,255.0
194,9.700000000000001,-8.844241436101651,7.72316081450943,-1.7996715517921222,-0.2685524684772389,0.04465527533237257,-0.3597569249050281,-0.02350963230117742,0.003048510593117726,-0.03400641189823528,0.0,70.0,255.0,255.0,255.0
195,9.75,-8.857698389512692,7.725397310597793,-1.8177019699235746,-0.26973339671238605,0.0448002291563121,-0.3614551501013641,-0.02382956286375304,0.002898208958690418,-0.033796864257218395,0.0,70.0,255.0,255.0,255.0
196,9.8,-8.87121477577289,7.727640837425061,-1.8358170668022586,-0.2709354247636142,0.04494509622824161,-0.3631366113307499,-0.02433714718641511,0.003045149634051114,-0.03334687707823303,0.0,70.0,255.0,255.0,255.0
197,9.850000000000001,-8.884791931989053,7.729891820220617,-1.8540156310566496,-0.27216711143102756,0.04510474411971721,-0.3647898378091874,-0.02494903311127672,0.0034377485987668877,-0.03274568205715589,0.0,70.0,255.0,255.0,255.0
198,9.9,-8.898431486915992,7.732151311837033,-1.8722960505831774,-0.2734303280747419,0.0452888710881183,-0.3664111795364655,-0.025522757911211613,0.003966214928485812,-0.03215369493958509,0.0,70.0,255.0,255.0,255.0
199,9.950000000000001,-8.912134964796527,7.734420707329429,-1.8906567490102961,-0.2747193872221487,0.04550136561256579,-0.3680052073031459,-0.025908672071039973,0.004511185495292835,-0.03173278614838626,0.0,70.0,255.0,255.0,255.0
200,10.0,-8.925903425638207,7.736701448398289,-1.909096571313492,-0.2760211952818459,0.04573998963764758,-0.36958445815130414,-0.025955921912768076,0.004958519730635658,-0.031643853961838,0.0,70.0,255.0,255.0,255.0
201,10.05,-8.939737084324712,7.738994706293194,-1.9276151948254265,-0.27731497941342553,0.04599721758562936,-0.3711695926993297,-0.025597807937316475,0.0052420041432910125,-0.03196073326263704,0.0,70.0,255.0,255.0,255.0
202,10.100000000000001,-8.95363492357955,7.741301170156852,-1.946213530583425,-0.2785809760755775,0.046264190051976684,-0.37278053147756784,-0.02495326087395,0.0053588266883508595,-0.03257128961222655,0.0,70.0,255.0,255.0,255.0
203,10.15,-8.96759518193227,7.743621125298391,-1.9648932479731833,-0.27981030550082053,0.04653310025446444,-0.37442672166055235,-0.024246056263343974,0.0053267589497529855,-0.03326115337214386,0.0,70.0,255.0,255.0,255.0
204,10.200000000000001,-8.981615954129632,7.745954480182299,-1.9836562027494802,-0.2810055817019119,0.04679686594695198,-0.37610664681478223,-0.02370845330741389,0.00516726024644143,-0.033809669615347815,0.0,70.0,255.0,255.0,255.0
205,10.25,-8.99569574010246,7.7483008118930865,-2.0025039126546615,-0.2821811508315619,0.047049826279108586,-0.37780768862208713,-0.023582740158900606,0.004911721443434658,-0.03399172921962901,0.0,70.0,255.0,255.0,255.0
206,10.3,-9.009834069212788,7.7506594628102095,-2.021436971611689,-0.283363855717802,0.04728803809129545,-0.37950581973674513,-0.02398490777757445,0.0045858081527683225,-0.03369690315806473,0.0,70.0,255.0,255.0,255.0
207,10.350000000000001,-9.02403212567424,7.753029615702216,-2.040454494628336,-0.28457964160931937,0.04750840709438542,-0.3811773789378936,-0.024752515468406955,0.004207783807963494,-0.03305456741919954,0.0,70.0,255.0,255.0,255.0
208,10.4,-9.03829203337372,7.755410303519648,-2.0595547095054783,-0.2858391072646427,0.0477088164720918,-0.3828112764786651,-0.02557842496120344,0.0038075884314814346,-0.032316283646416366,0.0,70.0,255.0,255.0,255.0
209,10.450000000000001,-9.052616036400705,7.757800497349425,-2.0787356222762026,-0.2871374841054397,0.04788916593753356,-0.38440900730253524,-0.0261576545598885,0.0034254611651185485,-0.03173510881682162,0.0,70.0,255.0,255.0,255.0
210,10.5,-9.067005781784264,7.760199220113401,-2.097995610235732,-0.2884548727206315,0.04805136258860365,-0.38598478736034725,-0.02618118271886516,0.0030906317930678995,-0.03157319186346541,0.0,70.0,255.0,255.0,255.0
211,10.55,-9.081461523672768,7.762605633608286,-2.1173341010122373,-0.2897556023773262,0.04819822911684035,-0.3875663264888818,-0.025502187990866787,0.0028214765322331914,-0.031958227531747596,0.0,70.0,255.0,255.0,255.0
212,10.600000000000001,-9.095981342021997,7.765019043025085,-2.13675224288462,-0.2910050915197182,0.04833351024182697,-0.389180610113522,-0.024323856740871008,0.002647334116367972,-0.032725032785752006,0.0,70.0,255.0,255.0,255.0
213,10.65,-9.11056203282474,7.767438984632468,-2.1562521620235895,-0.2921879880514133,0.04846296252847715,-0.390838829767457,-0.023033903567082348,0.0026055912860201147,-0.03355911996774097,0.0,70.0,255.0,255.0,255.0
214,10.700000000000001,-9.125200140827138,7.769865339277933,-2.1758361258613657,-0.29330848187642644,0.04859406937042898,-0.3925365221102961,-0.02202027577133947,0.00272418180680134,-0.034150034977553645,0.0,70.0,255.0,255.0,255.0
215,10.75,-9.139892881012383,7.772298391569511,-2.195505814234619,-0.2943900156285473,0.04873538070915728,-0.39425383326521235,-0.021668473020142187,0.0030297140898305486,-0.0341835685942371,0.0,70.0,255.0,255.0,255.0
216,10.8,-9.154639142389993,7.774738877348849,-2.215261509187887,-0.29547532917844066,0.04889704077941204,-0.3959548789697198,-0.02216671321946251,0.0035225980723474493,-0.03350981375440654,0.0,70.0,255.0,255.0,255.0
217,10.850000000000001,-9.169440413930227,7.777188095647452,-2.235101302131591,-0.2966066869504935,0.04908764051639203,-0.397604814640653,-0.023302174118988717,0.0041220405649688985,-0.03233248092522345,0.0,70.0,255.0,255.0,255.0
218,10.9,-9.184299811085042,7.779647641400488,-2.255021990651952,-0.29780554659033953,0.04930924483590893,-0.39918812706224216,-0.02465500506030338,0.004689207263020023,-0.031040896156442344,0.0,70.0,255.0,255.0,255.0
219,10.950000000000001,-9.19922096858926,7.782119020131043,-2.2750201148378153,-0.29907218745652386,0.04955656124269403,-0.40070890425629724,-0.025801895034938127,0.005078837249161694,-0.03002409859247379,0.0,70.0,255.0,255.0,255.0
220,11.0,-9.214207029830694,7.784603297524757,-2.295092881077582,-0.30038573609383334,0.0498171285608251,-0.40219053692148954,-0.026324971819136067,0.005146502525121832,-0.029668477815336658,0.0,70.0,255.0,255.0,255.0
221,11.05,-9.229259542198644,7.787100732987126,-2.3152391685299643,-0.30170468463843747,0.050071211495206214,-0.4036757520378309,-0.02601109899185161,0.00482761835680634,-0.03016289041060105,0.0,70.0,255.0,255.0,255.0
222,11.100000000000001,-9.244377498294538,7.789610418674278,-2.335460456281365,-0.3029868459930185,0.05029989039650573,-0.40520682596254964,-0.02503826263513531,0.004228979146603251,-0.03129516006357136,0.0,70.0,255.0,255.0,255.0
223,11.15,-9.259558226797946,7.792130722026776,-2.355759851126219,-0.304208510901951,0.05049410940986654,-0.40680526804418804,-0.02377526034074151,0.0035539432983178187,-0.03264633969597419,0.0,70.0,255.0,255.0,255.0
224,11.200000000000001,-9.274798349384733,7.794659829615265,-2.376140983085784,-0.30536437202709266,0.05065528472633751,-0.40847145993214706,-0.022592004228982887,0.0030132430903329066,-0.0337942233332722,0.0,70.0,255.0,255.0,255.0
225,11.25,-9.290094664000655,7.79719625049941,-2.396606997119434,-0.3064677113248493,0.05079543371889983,-0.41018469037751526,-0.02185159308272233,0.002820266487013612,-0.034322566763922424,0.0,70.0,255.0,255.0,255.0
226,11.3,-9.305445120517218,7.799739372987155,-2.4171594521235353,-0.3075495313353649,0.050937311375038874,-0.4119037166085393,-0.02174823813145821,0.003080215213202564,-0.03401876446309515,0.0,70.0,255.0,255.0,255.0
227,11.350000000000001,-9.320849617134192,7.802289981636914,-2.437797368780288,-0.3086425351379951,0.051103455240220086,-0.4135865668238248,-0.02217573105234294,0.003676634922467059,-0.03305769467152331,0.0,70.0,255.0,255.0,255.0
228,11.4,-9.336309374031018,7.804849718511177,-2.458518108805918,-0.3097671044405992,0.05130497486728558,-0.41520948607569164,-0.022893837027027075,0.0043804274695524725,-0.03180292920919037,0.0,70.0,255.0,255.0,255.0
229,11.450000000000001,-9.351826327578252,7.807420479123643,-2.479318317387857,-0.3109319188406978,0.05154149798717533,-0.4167668597447438,-0.02366300180138836,0.004961616962440019,-0.030618868214338235,0.0,70.0,255.0,255.0,255.0
230,11.5,-9.367402565915087,7.810003868309894,-2.500194794780392,-0.312133404620738,0.05180113656352958,-0.41827137289712546,-0.024240683822362996,0.005188468822492354,-0.029861208508474846,0.0,70.0,255.0,255.0,255.0
231,11.55,-9.383039668040325,7.8126005927799955,-2.5211454546775696,-0.3133559872229341,0.05206034486942457,-0.4197529805955913,-0.02449040069709696,0.0049449473641161035,-0.029721399056503728,0.0,70.0,255.0,255.0,255.0
232,11.600000000000001,-9.39873816463738,7.815209902796837,-2.5421700928399513,-0.3145824446904477,0.05229563129994119,-0.42124351280277583,-0.024463381919659355,0.0043498890896387366,-0.030105016961545772,0.0,70.0,255.0,255.0,255.0
233,11.65,-9.41449791250937,7.81783015590999,-2.563269805957847,-0.31580232541490005,0.05249533377838844,-0.4227634822917459,-0.02428314446465407,0.0036389388982982496,-0.03079182691698712,0.0,70.0,255.0,255.0,255.0
234,11.700000000000001,-9.43031839717887,7.8204594361746755,-2.584446441069126,-0.3170107591369131,0.05265952518977102,-0.42432269549447454,-0.02406358763273886,0.003046862485511781,-0.031563217562391443,0.0,70.0,255.0,255.0,255.0
235,11.75,-9.446198988423061,7.823096108428967,-2.6057020755072946,-0.31820868417817394,0.05280002002693962,-0.425919804047985,-0.02392562500812545,0.0028098209269522556,-0.032204627174303724,0.0,70.0,255.0,255.0,255.0
236,11.8,-9.462139265596688,7.8257394381773695,-2.6270384214739244,-0.31940332163772567,0.05294050728246624,-0.4275431582119049,-0.02393621968614923,0.0030465687569147804,-0.03259009152536407,0.0,70.0,255.0,255.0,255.0
237,11.850000000000001,-9.478139320586834,7.828390159157213,-2.648456391328485,-0.32060230614678886,0.0531046769026311,-0.4291788132005214,-0.024049808867054878,0.003638400793892771,-0.03272680624668567,0.0,70.0,255.0,255.0,255.0
238,11.9,-9.494199496211367,7.831049905867633,-2.6699563027939766,-0.32180830252443116,0.05330434736185552,-0.4308158388365735,-0.024175356677069715,0.0043492248633647534,-0.032663516036679496,0.0,70.0,255.0,255.0,255.0
239,11.950000000000001,-9.510320150839277,7.833720593893399,-2.6915379752121424,-0.32301984181449583,0.053539599388967574,-0.4324451648041894,-0.02423556142154837,0.004944359668801468,-0.03244257389054539,0.0,70.0,255.0,255.0,255.0
240,12.0,-9.526501480392817,7.836403865806529,-2.7132008192743955,-0.324231858666586,0.053798783328735666,-0.434060096225628,-0.02416087208949591,0.005188284765367257,-0.03211226414596702,0.0,70.0,255.0,255.0,255.0
241,12.05,-9.542743336705936,7.8391004722262725,-2.7349439848347052,-0.3254359290234454,0.0540584278655043,-0.4356563912187861,-0.023917634311132474,0.004962204181069296,-0.031710495914705206,0.0,70.0,255.0,255.0,255.0
242,12.100000000000001,-9.559045073295161,7.84180970859308,-2.756766458396274,-0.32662362209769924,0.054295003746842596,-0.43723114581709854,-0.023539154171814403,0.004381915660989222,-0.0312685972125859,0.0,70.0,255.0,255.0,255.0
243,12.15,-9.575405698915706,7.844529972600957,-2.778667099416415,-0.32778984444062687,0.05449661943160322,-0.43878325094004467,-0.023094496426878663,0.003678753723068695,-0.03083494809663634,0.0,70.0,255.0,255.0,255.0
244,12.200000000000001,-9.591824057739224,7.84725937053624,-2.8006447834902786,-0.3289330717403871,0.054662879119149466,-0.4403146406267622,-0.022653653863180523,0.003082272264354202,-0.030472174521234408,0.0,70.0,255.0,255.0,255.0
245,12.25,-9.608299006089744,7.849996260512872,-2.8226985634790913,-0.3300552098269449,0.05480484665803864,-0.4418304683921681,-0.02227489595760801,0.002821002715158727,-0.03024235353774607,0.0,70.0,255.0,255.0,255.0
246,12.3,-9.624829578721918,7.852739855202044,-2.8448278303294954,-0.3311605613361479,0.05494497939066534,-0.4433388759805368,-0.021993243067619517,0.0030111879466332425,-0.030174638102797857,0.0,70.0,255.0,255.0,255.0
247,12.350000000000001,-9.64141506222336,7.855490758451938,-2.867032451077145,-0.33225453413370687,0.055105965452701966,-0.4448479322024479,-0.021830870481487352,0.003548528637598025,-0.030236100940461696,0.0,70.0,255.0,255.0,255.0
248,12.4,-9.65805503213529,7.858250451747314,-2.88931262354974,-0.33334364838429664,0.05529983225442514,-0.44636248607458295,-0.02180936157891722,0.004221168169049605,-0.030359395539036882,0.0,70.0,255.0,255.0,255.0
249,12.450000000000001,-9.674749427061789,7.861020741677381,-2.9116686996846033,-0.3344354702915986,0.055528082269606927,-0.4478838717563516,-0.021943109840449893,0.0048199778465374266,-0.030468728024635183,0.0,70.0,255.0,255.0,255.0
250,12.5,-9.691498579164449,7.863803259974275,-2.9341010107253753,-0.33553795936834163,0.055781830039078883,-0.44940935887704647,-0.02224350678350362,0.00514374167002174,-0.03047431237925835,0.0,70.0,255.0,255.0,255.0
251,12.55,-9.708303222998623,7.866598924681289,-2.956609635572308,-0.33665982096994895,0.0560424564366091,-0.4509313029942774,-0.022703705771398575,0.005086470606929794,-0.030331464494581795,0.0,70.0,255.0,255.0,255.0
252,12.600000000000001,-9.725164561261444,7.869407505617936,-2.979194141024803,-0.3378083299454815,0.05629047709977186,-0.45244250532650465,-0.02325652474119977,0.00470937771437363,-0.030107931426215373,0.0,70.0,255.0,255.0,255.0
253,12.65,-9.742084055993171,7.872227972391266,-3.0018538861049584,-0.33898547344406893,0.056513394208046464,-0.45394209613689895,-0.023787218098192398,0.004151165674404211,-0.029925698185317984,0.0,70.0,255.0,255.0,255.0
254,12.700000000000001,-9.75906310860585,7.87505884503874,-3.024588350638493,-0.34018705175530073,0.056705593667212284,-0.45543507514503645,-0.024174932415910177,0.0035511030628931906,-0.029899999627724938,0.0,70.0,255.0,255.0,255.0
255,12.75,-9.776102761168701,7.877898531757987,-3.047397393619462,-0.34140296668565995,0.05686850451433578,-0.45693209609967145,-0.024307067583251296,0.0030400212805758997,-0.030156341001053022,0.0,70.0,255.0,255.0,255.0
256,12.8,-9.793203405274417,7.880745695490174,-3.07028156024846,-0.34261775851362586,0.057009595795269874,-0.45845070924514175,-0.024131421026574174,0.0026957035189845158,-0.030746590165886545,0.0,70.0,255.0,255.0,255.0
257,12.850000000000001,-9.810364537020064,7.883599491337514,-3.0932424645439762,-0.34381610878831736,0.057138074866234234,-0.4600067551162601,-0.02370750607951777,0.0025303241413254796,-0.031530401793045115,0.0,70.0,255.0,255.0,255.0
258,12.9,-9.827585016153249,7.886459502976797,-3.116282235760086,-0.34498850912157764,0.05726262820940242,-0.46160374942444626,-0.02315812966600106,0.0025386446563580023,-0.03225874412047247,0.0,70.0,255.0,255.0,255.0
259,12.950000000000001,-9.844863387932222,7.889325754158454,-3.139402839486421,-0.34613192175491747,0.057391939331870034,-0.46323262952830735,-0.022616647673601165,0.0027150970822731324,-0.03268521285844095,0.0,70.0,255.0,255.0,255.0
260,13.0,-9.86219820832874,7.892198696909984,-3.162605498712917,-0.34725017388893775,0.057534137917629735,-0.46487227071029036,-0.022216241529626757,0.003052163884298409,-0.032560370236423,0.0,70.0,255.0,255.0,255.0
261,13.05,-9.879588405321115,7.895079167950217,-3.18589006655745,-0.34835354590788015,0.057697155720299875,-0.46648866655194965,-0.022030097302661034,0.003531740957107843,-0.03177457577421272,0.0,70.0,255.0,255.0,255.0
262,13.100000000000001,-9.897033562919528,7.897968412482014,-3.209254365368112,-0.34945318361920386,0.05788731201334052,-0.46804972828771163,-0.022029814578417017,0.0040884865597057285,-0.03053670848807144,0.0,70.0,255.0,255.0,255.0
263,13.15,-9.914533723683036,7.900867899151551,-3.232695039386221,-0.35055652736572185,0.05810600437627045,-0.4695423374007568,-0.022144738762719385,0.00461341653981151,-0.02923475656837482,0.0,70.0,255.0,255.0,255.0
264,13.200000000000001,-9.9320892156561,7.9037790129196415,-3.2562085991081875,-0.3516676574954758,0.05834865366732167,-0.4709732039445491,-0.022304677354867408,0.0049895342486117045,-0.028264696723967475,0.0,70.0,255.0,255.0,255.0
265,13.25,-9.949700489432583,7.9067027645182835,-3.279792359780676,-0.3527869951012086,0.05860495780113162,-0.47236880707315354,-0.022435984945801124,0.005107313857877216,-0.028030150080882166,0.0,70.0,255.0,255.0,255.0
266,13.3,-9.967367915166221,7.909639508699755,-3.303445479815503,-0.3539112559900559,0.05885938505310939,-0.47377621895263733,-0.022495415870515956,0.004916819832168073,-0.028722192984442785,0.0,70.0,255.0,255.0,255.0
267,13.350000000000001,-9.985091615031589,7.912588703023594,-3.3271699816759397,-0.3550365366882602,0.059096639784348426,-0.4752410263715978,-0.022494168007902715,0.004480205144741234,-0.03007288080523196,0.0,70.0,255.0,255.0,255.0
268,13.4,-10.002871568835047,7.9155491726781895,-3.3509695824526626,-0.3561606727908462,0.059307405567583515,-0.4767835070331605,-0.022461143721663746,0.003924052821702162,-0.0315712738951035,0.0,70.0,255.0,255.0,255.0
269,13.450000000000001,-10.020707682310674,7.918519443580353,-3.3748483323792557,-0.35728265106042656,0.05948904506651864,-0.47839815376110817,-0.02241844244021962,0.003386253102277692,-0.03270336621281622,0.0,70.0,255.0,255.0,255.0
270,13.5,-10.03859983394109,7.921498077184841,-3.3988093978287734,-0.35840251703486814,0.059646030877811285,-0.48005384365444215,-0.022387790714262223,0.003006599331278892,-0.032951104032008516,0.0,70.0,255.0,255.0,255.0
271,13.55,-10.05654793401416,7.924484046668134,-3.4228537167447,-0.3595214301318528,0.05978970499964653,-0.481693264164309,-0.022381525929304757,0.00286046689428332,-0.032062992614356745,0.0,70.0,255.0,255.0,255.0
272,13.600000000000001,-10.074551976954275,7.927477047684806,-3.4469787242452044,-0.3606406696277986,0.05993207756723962,-0.4832601429158778,-0.02239351339152762,0.0029070564976585445,-0.030344355703793013,0.0,70.0,255.0,255.0,255.0
273,13.65,-10.09261200097694,7.930477254424858,-3.4711797310362877,-0.36176078147100554,0.060080410649412386,-0.4847276997346883,-0.022410686350227138,0.003054847697381291,-0.028388399599643677,0.0,70.0,255.0,255.0,255.0
274,13.700000000000001,-10.110728055101376,7.933485088749747,-3.495451494218673,-0.36288173826282133,0.060237562336977746,-0.4860989828758422,-0.02242155288225689,0.0032116538086768287,-0.026787759170554537,0.0,70.0,255.0,255.0,255.0
275,13.75,-10.128900174803222,7.936501010658556,-3.519789629323872,-0.36400293675923123,0.06040157603028007,-0.4874064756517438,-0.022412852196396216,0.003274307465339632,-0.02612534055086435,0.0,70.0,255.0,255.0,255.0
276,13.8,-10.147128348777299,7.939525246352775,-3.5441921417838476,-0.36512302348246095,0.06056499308351171,-0.4887115169309286,-0.02237848041310997,0.0031885386976071572,-0.026692782945092475,0.0,70.0,255.0,255.0,255.0
277,13.850000000000001,-10.165412477151468,7.942557509966907,-3.568660781016965,-0.36624078480054223,0.060720429900040784,-0.490075753946253,-0.022331778427364668,0.003012501265242662,-0.028214405004378662,0.0,70.0,255.0,255.0,255.0
278,13.9,-10.183752427257353,7.945597289342779,-3.593199717178473,-0.3673562013251974,0.060866243210035975,-0.4915329574313665,-0.02229611087809502,0.002854784827555079,-0.030129579920723515,0.0,70.0,255.0,255.0,255.0
279,13.950000000000001,-10.202148097283988,7.94864413428791,-3.6178140767601015,-0.36847039588835173,0.06100590838279629,-0.4930887119383254,-0.022295346030709595,0.0028142179111512178,-0.03187296307203269,0.0,70.0,255.0,255.0,255.0
280,14.0,-10.220599466846188,7.951697880181059,-3.6425085883723054,-0.3695857359282684,0.0611476650011511,-0.49472025373856976,-0.022360800498333333,0.0029921148624545424,-0.032891589708894386,0.0,70.0,255.0,255.0,255.0
281,14.05,-10.239106670876815,7.9547589007880255,-3.6672861021339584,-0.37070647593818506,0.061305119869041746,-0.4963778709092148,-0.02250455241625815,0.0034324645608485582,-0.03289324157296214,0.0,70.0,255.0,255.0,255.0
282,14.100000000000001,-10.257670114440007,7.957828392167963,-3.692146375463227,-0.3718361911698942,0.06149091145723595,-0.498009577895866,-0.02267937290074684,0.0040411668804196665,-0.0320524764927832,0.0,70.0,255.0,255.0,255.0
283,14.15,-10.276290289993804,7.960907991933749,-3.717087059923545,-0.37297441322825975,0.06170923655708371,-0.49958311855849313,-0.022804870139836453,0.004646945394259916,-0.030757989341978487,0.0,70.0,255.0,255.0,255.0
284,14.200000000000001,-10.294967555762833,7.9639993158236715,-3.742104687319076,-0.37411667818387784,0.061955605996661944,-0.5010853768300638,-0.022803776281854482,0.005078700654781443,-0.02940076150164117,0.0,70.0,255.0,255.0,255.0
285,14.25,-10.313701957812192,7.967103552533415,-3.7671955976065514,-0.3752547908564452,0.06221710662256186,-0.5025231947086573,-0.022595973780425993,0.005165251732730525,-0.028372263317644197,0.0,70.0,255.0,255.0,255.0
286,14.3,-10.332493034848477,7.970221026485928,-3.792357006789942,-0.37637627556192044,0.062472131169935,-0.5039226031618282,-0.02214951038741475,0.004827803524065644,-0.027892572441334806,0.0,70.0,255.0,255.0,255.0
287,14.350000000000001,-10.351339585368384,7.973350765650409,-3.8175878579227343,-0.3774697418951867,0.06269988697496842,-0.5053124519527907,-0.021552501532973167,0.004187306737701846,-0.027887483896327225,0.0,70.0,255.0,255.0,255.0
288,14.4,-10.370240009037996,7.9764910151834245,-3.842888251985221,-0.37853152571521775,0.06289086184370518,-0.506711351551461,-0.020963476161917072,0.0034737972318232835,-0.028169185322424184,0.0,70.0,255.0,255.0,255.0
289,14.450000000000001,-10.389192737939906,7.979639851834779,-3.8682589930778803,-0.3795660895113784,0.06304726669815075,-0.5081293704850331,-0.0205423227342294,0.0029237533623494016,-0.028562592319980595,0.0,70.0,255.0,255.0,255.0
290,14.5,-10.408196617989134,7.98279574185324,-3.8937011890337243,-0.3805857579886407,0.06318323717994012,-0.509567610783459,-0.020447285731250986,0.0027828688829778514,-0.028887422288281783,0.0,70.0,255.0,255.0,255.0
291,14.55,-10.42725131373877,7.985958175552773,-3.9192157541562263,-0.3816108180845035,0.06332555358644854,-0.5110181127138613,-0.020751205567570707,0.003169608056374784,-0.029037634162643045,0.0,70.0,255.0,255.0,255.0
292,14.600000000000001,-10.446357699797584,7.9891282972118844,-3.9448030003051104,-0.38266087854539776,0.0635001979855776,-0.5124713741997233,-0.02134614544289093,0.003924198242621912,-0.02903945272403341,0.0,70.0,255.0,255.0,255.0
293,14.65,-10.46551740159331,7.992308195351331,-3.9704628915761986,-0.38374543262879257,0.06371797341071073,-0.5139220579862647,-0.02202486157578676,0.004743273603313725,-0.02896172624482496,0.0,70.0,255.0,255.0,255.0
294,14.700000000000001,-10.484732243060463,7.9955000945529555,-3.996195206103737,-0.38486336470297644,0.06397452534590897,-0.5153675468242058,-0.02257415888813341,0.005326425756457809,-0.028856468286120318,0.0,70.0,255.0,255.0,255.0
295,14.75,-10.504003738063608,7.998705647885922,-4.021999646258619,-0.3860028485176059,0.06425061598635651,-0.5168077048148767,-0.02277889261890209,0.005371338003534731,-0.02877399158554006,0.0,70.0,255.0,255.0,255.0
296,14.8,-10.523332527912224,8.001925156151591,-4.047875976585225,-0.38714125396486665,0.06451165914626245,-0.5182449459827598,-0.02253238063012475,0.004733391290123734,-0.028743464334457514,0.0,70.0,255.0,255.0,255.0
297,14.850000000000001,-10.542717863460094,8.005156813800548,-4.073824140856895,-0.3882560865806184,0.06472395511536888,-0.5196820512483225,-0.021948324620701953,0.003603079779246343,-0.028754705207134634,0.0,70.0,255.0,255.0,255.0
298,14.9,-10.562158136570286,8.008397551663128,-4.099844181710057,-0.38933608642693684,0.06487196712418708,-0.5211204165034733,-0.021251669608624013,0.002346768027905455,-0.02878390969778266,0.0,70.0,255.0,255.0,255.0
299,14.950000000000001,-10.581651472102788,8.011644010512967,-4.1259361825072425,-0.3903812535414808,0.06495863191815943,-0.5225604422181007,-0.020667615139302598,0.0013298909310677232,-0.028811534536110628,0.0,70.0,255.0,255.0,255.0
300,15.0,-10.601196261924434,8.014893414854944,-4.152100225931867,-0.3914028479408671,0.06500495621729385,-0.5240015699570844,-0.02042110649753681,0.0009077231597487412,-0.028816611370530154,0.0,70.0,255.0,255.0,255.0
301,15.05,-10.620791756896875,8.018144506134696,-4.178336339502951,-0.39242336419123447,0.0650494042341343,-0.5254421033551537,-0.020625845340305204,0.001257199743953663,-0.02878850849876713,0.0,70.0,255.0,255.0,255.0
302,15.100000000000001,-10.640438598343557,8.021398355278357,-4.204644436267382,-0.3934654324748976,0.06513067619168922,-0.5268804208069611,-0.021175148149765732,0.0022135991899929763,-0.02874172644631301,0.0,70.0,255.0,255.0,255.0
303,15.15,-10.660138300144364,8.024657573753865,-4.231024381583647,-0.39454087900621104,0.0652707641531336,-0.528316275999785,-0.021853867914600755,0.0034386985728218633,-0.028702634964350437,0.0,70.0,255.0,255.0,255.0
304,15.200000000000001,-10.679892686244179,8.02792543169367,-4.257476063867361,-0.3956508192663577,0.0654745460489714,-0.5297506843033961,-0.02244880712680697,0.004587949913847922,-0.028697393570542573,0.0,70.0,255.0,255.0,255.0
305,15.25,-10.699703382071,8.031205028358762,-4.283999450013987,-0.39678575971889174,0.06572955914451839,-0.5311860153568393,-0.022752718685836726,0.005325788006693699,-0.02875956293211246,0.0,70.0,255.0,255.0,255.0
306,15.3,-10.719571262216068,8.034498387608123,-4.310594665403045,-0.3979260911349414,0.06600712484964077,-0.5326266405966074,-0.022657664582759196,0.0054717491277500585,-0.028902501670202696,0.0,70.0,255.0,255.0,255.0
307,15.350000000000001,-10.739495991184494,8.037805740843726,-4.337262114073647,-0.39905152617716766,0.0662767340572934,-0.5340762655238596,-0.022236490706717404,0.0051115677491608835,-0.029078389007697325,0.0,70.0,255.0,255.0,255.0
308,15.4,-10.759476414833784,8.041126061013852,-4.364002291955431,-0.4001497402056131,0.06651828162455686,-0.5355344794973771,-0.021647450807016355,0.004448554229874446,-0.02920555044472195,0.0,70.0,255.0,255.0,255.0
309,15.450000000000001,-10.779510965205056,8.044457569006182,-4.390815562023385,-0.4012162712578693,0.06672158948028084,-0.5369968205683318,-0.021050443066528146,0.0036853956608240424,-0.029205604469062507,0.0,70.0,255.0,255.0,255.0
310,15.5,-10.799598041959571,8.04779821996188,-4.417701974012264,-0.40225478451226593,0.06688682119063927,-0.5384550399442833,-0.02060400943459939,0.003017096842228284,-0.028997164872812675,0.0,70.0,255.0,255.0,255.0
311,15.55,-10.819736443656282,8.051146251125246,-4.444661066017813,-0.40327667220132923,0.06702329916450367,-0.539896537055613,-0.020396270220146562,0.002561351531227274,-0.028547685286195446,0.0,70.0,255.0,255.0,255.0
312,15.600000000000001,-10.839925709179704,8.05450054987833,-4.471691627717825,-0.4042944115342806,0.067142956343762,-0.5413098084729029,-0.020395252661487007,0.0023355610487385547,-0.027946489084662574,0.0,70.0,255.0,255.0,255.0
313,15.65,-10.86016588480971,8.057860546759622,-4.498792046865104,-0.40531619746747793,0.06725685526937752,-0.5426911859640793,-0.020520804382861968,0.0023333315937179577,-0.027354230855891615,0.0,70.0,255.0,255.0,255.0
314,15.700000000000001,-10.880457328926452,8.061226235405268,-4.525960746314233,-0.4063464919725668,0.06737628950313379,-0.544045231558492,-0.020695621072341908,0.0025561550893726803,-0.026932962446402087,0.0,70.0,255.0,255.0,255.0
315,15.75,-10.900800534006967,8.064598175709936,-4.553196570020953,-0.4073857595747121,0.06751247077831479,-0.5453844822087195,-0.020839262224292554,0.0030138432711268592,-0.026843758928762895,0.0,70.0,255.0,255.0,255.0
316,15.8,-10.921195904883923,8.0679774824831,-4.580499194535105,-0.40843041819499604,0.06767767383024648,-0.5467296074513683,-0.020904480643046952,0.0036905836736877973,-0.027160556718452966,0.0,70.0,255.0,255.0,255.0
317,15.850000000000001,-10.941643575826467,8.07136594309296,-4.60786953076609,-0.4094762076390168,0.06788152914568357,-0.5481005378805648,-0.02090343104814707,0.004465348895799082,-0.027771179128688317,0.0,70.0,255.0,255.0,255.0
318,15.9,-10.962143525647825,8.074765635397668,-4.6353092483231615,-0.41052076129981074,0.06812420871982638,-0.5495067253642372,-0.02086756010069024,0.005137280235523178,-0.028461162495663217,0.0,70.0,255.0,255.0,255.0
319,15.950000000000001,-10.982695651956448,8.078178363964943,-4.6628202033025135,-0.41156296364908584,0.06839525716923589,-0.5509466541301311,-0.02082087217782913,0.0054977229103414516,-0.02900977185298359,0.0,70.0,255.0,255.0,255.0
320,16.0,-11.003299822012734,8.081605161114592,-4.690403913736175,-0.41260284851759366,0.06867398101086053,-0.5524077025495355,-0.020786913696646536,0.005335548720353245,-0.02919180873623972,0.0,70.0,255.0,255.0,255.0
321,16.05,-11.023955936808207,8.085045762066029,-4.718060973557467,-0.4136416550187505,0.06892881204127121,-0.5538658350037551,-0.020779093919998104,0.004562001418051409,-0.0288968011262547,0.0,70.0,255.0,255.0,255.0
322,16.1,-11.044663987514609,8.088498042318719,-4.74579049723655,-0.41468075790959347,0.06913018115266567,-0.555297382662161,-0.020791023145250165,0.003369290454990903,-0.028254202325506128,0.0,70.0,255.0,255.0,255.0
323,16.150000000000002,-11.065424012599166,8.091958780181296,-4.773590711823683,-0.4157207573332755,0.0692657410867703,-0.5566912552363057,-0.02080895521441306,0.002112978701340751,-0.02751571123633667,0.0,70.0,255.0,255.0,255.0
324,16.2,-11.086236063247936,8.095424616427396,-4.801459622760181,-0.4167616534310348,0.06934147902279975,-0.5580489537857947,-0.020820890216199928,0.0011585010538439633,-0.02693452356847814,0.0,70.0,255.0,255.0,255.0
325,16.25,-11.10710017794227,8.098892928083576,-4.829395607202263,-0.4178028463548955,0.0693815911921547,-0.5593847075931535,-0.020813082990756016,0.0008719338742579907,-0.02677296883053515,0.0,70.0,255.0,255.0,255.0
326,16.3,-11.128016347883426,8.102362775546611,-4.857398093519496,-0.4188429617301104,0.06942867241022554,-0.5607262506688482,-0.020779143677707168,0.0014284969024558336,-0.02715881220245464,0.0,70.0,255.0,255.0,255.0
327,16.35,-11.14898447411528,8.105835795324598,-4.885468232269147,-0.4198807607226662,0.06952444088240028,-0.562100588813399,-0.020732476369289543,0.00260760583579156,-0.0279266036435466,0.0,70.0,255.0,255.0,255.0
328,16.400000000000002,-11.170004423955692,8.109315219634851,-4.913608152400836,-0.42091620936703933,0.0696894329938047,-0.5635189110332028,-0.02069661904169351,0.003979849248025857,-0.02876140048559961,0.0,70.0,255.0,255.0,255.0
329,16.45,-11.191076095051985,8.112804738623979,-4.941820123372468,-0.4219504226268356,0.06992242580720287,-0.5649767288619589,-0.02069556695829533,0.00510892555318776,-0.0293522737328189,0.0,70.0,255.0,255.0,255.0
330,16.5,-11.212199466218376,8.116307462215572,-4.970105825287032,-0.42298576606286886,0.07020032554912348,-0.5664541384064847,-0.02076075433929958,0.005556762402747495,-0.029384381208785726,0.0,70.0,255.0,255.0,255.0
331,16.55,-11.233374671658272,8.119824771178891,-4.998465537213116,-0.42402649806076553,0.07047810204747762,-0.5679151669828375,-0.02090433136903158,0.005104150833012966,-0.028707577104469806,0.0,70.0,255.0,255.0,255.0
332,16.6,-11.254602116024452,8.12335527242032,-5.026897341985316,-0.425076199199772,0.07071074063242477,-0.5693248961169317,-0.02107907137709475,0.0039711020525246,-0.02752656258779851,0.0,70.0,255.0,255.0,255.0
333,16.650000000000002,-11.275882291578249,8.126895845242133,-5.055398026824809,-0.426134405198475,0.07087521225273008,-0.5706678232416174,-0.021204568618848896,0.0025968084557348448,-0.02623234649501427,0.0,70.0,255.0,255.0,255.0
334,16.7,-11.2972155565443,8.130442793645592,-5.083964124309477,-0.4271966560616569,0.07097042147799826,-0.5719481307664331,-0.021203555239779348,0.001418943585207444,-0.025215728819460992,0.0,70.0,255.0,255.0,255.0
335,16.75,-11.318601957184415,8.133992887389933,-5.112592839901453,-0.42825476072245294,0.07101710661125082,-0.5731893961235635,-0.020995927623701505,0.0008689419225049733,-0.024865450388933397,0.0,70.0,255.0,255.0,255.0
336,16.8,-11.340041032616545,8.137544504306717,-5.141283063921834,-0.42929624882402706,0.07105731567024876,-0.5744346758053265,-0.020549731310204322,0.0011680466204921913,-0.025371252340544714,0.0,70.0,255.0,255.0,255.0
337,16.85,-11.361531582066817,8.141098618956958,-5.170036307481985,-0.4303097338534734,0.07113391127330004,-0.5757265213576179,-0.01995300968324898,0.0021371701034667012,-0.026517262556335908,0.0,70.0,255.0,255.0,255.0
338,16.900000000000002,-11.383072006001893,8.144657895434047,-5.1988557160575954,-0.43129154979235196,0.07127103268059543,-0.5770864020609601,-0.019364174083058572,0.0034037327784730564,-0.02787825782286646,0.0,70.0,255.0,255.0,255.0
339,16.95,-11.404660737046052,8.148225722225018,-5.227744947688081,-0.43224615126177923,0.07147428455114735,-0.5785143471399046,-0.018942985977155047,0.0045954399654490885,-0.029025463669896112,0.0,70.0,255.0,255.0,255.0
340,17.0,-11.42629662112807,8.151805323889162,-5.256707150771586,-0.43318584839006746,0.07173057667714033,-0.5799889484279497,-0.01884751651726191,0.00534751652754295,-0.02953386385504686,0.0,70.0,255.0,255.0,255.0
341,17.05,-11.44797932188506,8.155398779892732,-5.285743842530876,-0.4341309029135054,0.07200903620390164,-0.5814677335254093,-0.019150542922474756,0.005464315367298411,-0.029187553393317245,0.0,70.0,255.0,255.0,255.0
342,17.1,-11.469709711419421,8.159006227509552,-5.314853924124127,-0.43510090268231494,0.07227700821387018,-0.5829077037672814,-0.01974441436480845,0.005049261823053541,-0.028175203038660612,0.0,70.0,255.0,255.0,255.0
343,17.150000000000002,-11.49148941215329,8.162626480714119,-5.344034612907604,-0.43610534434998627,0.072513962386207,-0.5842852538292753,-0.020422371413353346,0.00433837697837447,-0.026883806362665297,0.0,70.0,255.0,255.0,255.0
344,17.2,-11.51332024585442,8.166257623748173,-5.373282449507054,-0.4371431398236503,0.07271084591170762,-0.5855960844035479,-0.020971726960539172,0.003566382800279655,-0.02570227664051572,0.0,70.0,255.0,255.0,255.0
345,17.25,-11.535203726135656,8.16989756530529,-5.402594221347959,-0.4382025170460402,0.07287060066623496,-0.5868554814933269,-0.021178015630596292,0.002968963996607954,-0.02501904757084006,0.0,70.0,255.0,255.0,255.0
346,17.3,-11.557140497559024,8.173544683814796,-5.431967997656387,-0.4392609413867099,0.07300774231136842,-0.5880979891606319,-0.0209348102853113,0.0026802396954295205,-0.025037881405154394,0.0,70.0,255.0,255.0,255.0
347,17.35,-11.579129820274327,8.177198339536426,-5.461404020264022,-0.4402959980745713,0.07313862463577792,-0.5893592696338423,-0.020354740783368186,0.0026612138396941987,-0.02561288100029202,0.0,70.0,255.0,255.0,255.0
348,17.400000000000002,-11.60117009736648,8.180858546278374,-5.490903924619771,-0.4412964154650467,0.07327386369533784,-0.5906592772606611,-0.01966093233800592,0.002809006393533764,-0.026436400176432784,0.0,70.0,255.0,255.0,255.0
349,17.45,-11.623259461820831,8.18452572590596,-5.5204699479900885,-0.4422620913083719,0.07341952527513129,-0.5920029096514856,-0.01907667960789894,0.0030314297664091328,-0.027205056807311223,0.0,70.0,255.0,255.0,255.0
350,17.5,-11.645396306497318,8.188200498805887,-5.55010421558492,-0.4432040834258366,0.07357700667197875,-0.5933797829413923,-0.018824383665716482,0.003236674107398585,-0.027614001805709165,0.0,70.0,255.0,255.0,255.0
351,17.55,-11.667579870163415,8.191883426573158,-5.579807926284228,-0.44414452967494356,0.07374319268587115,-0.5947643098320565,-0.019016789362247266,0.003368665244352087,-0.027501573666910417,0.0,70.0,255.0,255.0,255.0
352,17.6,-11.689810759464812,8.195574818074475,-5.6095806465681255,-0.44510576236206134,0.07391387319641396,-0.5961299403080833,-0.019551214574953235,0.0034268152187877376,-0.026979613286925996,0.0,70.0,255.0,255.0,255.0
353,17.650000000000002,-11.712090446399621,8.1992748138928,-5.639420920315036,-0.4460996511324389,0.07408587420774992,-0.5974622711607491,-0.02021930716011866,0.00342382588502943,-0.026283413444438963,0.0,70.0,255.0,255.0,255.0
354,17.7,-11.734420724578056,8.20298340549525,-5.6693268736842,-0.4471276930780732,0.0742562557849169,-0.5987582816525272,-0.02081498118222669,0.0033616976672590226,-0.02563786909064447,0.0,70.0,255.0,255.0,255.0
355,17.75,-11.756803215707428,8.206700439471291,-5.699296748480289,-0.44818114925066155,0.07442204397447583,-0.6000260580698136,-0.02114048700274651,0.0032323116021970577,-0.02525687993859549,0.0,70.0,255.0,255.0,255.0
356,17.8,-11.779238839503122,8.210425609892697,-5.729329479491182,-0.44924174177834786,0.07457948694513661,-0.6012839696463868,-0.021091458839173072,0.003038386041787078,-0.025255684066483042,0.0,70.0,255.0,255.0,255.0
357,17.85,-11.801727389885263,8.214158388165805,-5.7594251454449275,-0.45029029513457886,0.07472588257865453,-0.6025516264764619,-0.020725808841959292,0.0028315252851740524,-0.025583257925809733,0.0,70.0,255.0,255.0,255.0
358,17.900000000000002,-11.82426786901658,8.217898198150563,-5.789584642138828,-0.4513143226625438,0.07486263947365401,-0.6038422954389677,-0.020176431094753866,0.002695690064946632,-0.026115353972233635,0.0,70.0,255.0,255.0,255.0
359,17.95,-11.846858822151518,8.22164465211317,-5.819809374988824,-0.45230793824405424,0.0749954515851492,-0.6051631618736852,-0.01957668237650978,0.002715066277581002,-0.026730180117517932,0.0,70.0,255.0,255.0,255.0
360,18.0,-11.869498662840986,8.225397743309077,-5.8501009583261965,-0.45327199090019477,0.07513414610141211,-0.6065153134507195,-0.019049659000636154,0.002982051512567807,-0.027322487763203895,0.0,70.0,255.0,255.0,255.0
361,18.05,-11.892186021241537,8.229158066723311,-5.880460906333896,-0.45421290414411786,0.07529365673640598,-0.6078954106500056,-0.01867014917369403,0.003531590123451167,-0.027822916173647627,0.0,70.0,255.0,255.0,255.0
362,18.1,-11.914919953255398,8.232927108982718,-5.910890499391197,-0.45513900581756417,0.07548730511375723,-0.6092976050680843,-0.018461913693101906,0.004245312078587915,-0.028170991373421828,0.0,70.0,255.0,255.0,255.0
363,18.150000000000002,-11.937699921823294,8.236706797234687,-5.941390666840705,-0.45605909551342805,0.07571818794426477,-0.6107125097873478,-0.018439443985585058,0.004914346255446844,-0.02829069514342919,0.0,70.0,255.0,255.0,255.0
364,18.2,-11.96052586280674,8.240498927777145,-5.971961750369932,-0.4569829502161227,0.07597873973930191,-0.6121266745824272,-0.01861777649114771,0.005331976616851364,-0.02810863654607587,0.0,70.0,255.0,255.0,255.0
365,18.25,-11.983398216844906,8.244304671208617,-6.002603334298947,-0.4579208731625428,0.0762513856059499,-0.6135233734419554,-0.019016867670273996,0.005299528967128708,-0.027549206303500995,0.0,70.0,255.0,255.0,255.0
366,18.3,-12.006317950122995,8.24812406633774,-6.033314087714127,-0.4588846369831501,0.07650869263601479,-0.6148815952127773,-0.019628970107277155,0.004727654395964009,-0.026597826064378438,0.0,70.0,255.0,255.0,255.0
367,18.35,-12.02928668054322,8.251955540472219,-6.064091493820225,-0.45988377017327053,0.07672415104554631,-0.6161831560483932,-0.020345697225288006,0.003753473486689529,-0.025415387303606707,0.0,70.0,255.0,255.0,255.0
368,18.400000000000002,-12.052306327140322,8.255796481442294,-6.094932403318967,-0.4609192067056789,0.07688403998468374,-0.617423133943138,-0.02098495380185028,0.002642356148818692,-0.02428177221442951,0.0,70.0,255.0,255.0,255.0
369,18.45,-12.075378601213789,8.259643944470687,-6.125833807214539,-0.46198226555345556,0.07698838666042818,-0.6186113332698362,-0.02135995058605289,0.001669288328365326,-0.02348702194900909,0.0,70.0,255.0,255.0,255.0
370,18.5,-12.098504553695667,8.263495320108337,-6.15679353664595,-0.46305520176428416,0.07705096881752027,-0.6197718361380389,-0.02129088896616338,0.0010998326187561247,-0.02331667769839285,0.0,70.0,255.0,255.0,255.0
371,18.55,-12.121684121390217,8.267349041352439,-6.187810990828343,-0.4641113544500719,0.07709836992230379,-0.6209430010396755,-0.020699658042921953,0.0010710790050438845,-0.023900091924300426,0.0,70.0,255.0,255.0,255.0
372,18.6,-12.144915689140674,8.271205157100567,-6.218887836749918,-0.46512516756857636,0.07715807671802466,-0.6221618453304689,-0.01972154449241259,0.0014926820869121116,-0.02503850836328425,0.0,70.0,255.0,255.0,255.0
373,18.650000000000002,-12.168196638147075,8.275064849024242,-6.25002717536139,-0.46608350889931316,0.077247638130995,-0.6234468518760039,-0.018616172044261248,0.002164341038124462,-0.026349488725685433,0.0,70.0,255.0,255.0,255.0
374,18.7,-12.191524040030606,8.278929920913667,-6.281232521937518,-0.4669867847730025,0.0773745108218371,-0.6247967942030375,-0.017654682237022712,0.00287758335559829,-0.027437727872303697,0.0,70.0,255.0,255.0,255.0
375,18.75,-12.214895316624375,8.282802300106425,-6.312506854781693,-0.46784897712301543,0.07753539646655483,-0.6261906246632343,-0.017099576463230903,0.0034211405569806175,-0.027912101550597868,0.0,70.0,255.0,255.0,255.0
376,18.8,-12.238308937742907,8.286683460560322,-6.343851584403842,-0.4686967424193256,0.07771662487753517,-0.6275880043580973,-0.017085684432771586,0.0036757685130339723,-0.027575232811916095,0.0,70.0,255.0,255.0,255.0
377,18.85,-12.261764990866308,8.290573962594179,-6.375265655217503,-0.4695575455662926,0.07790297331785823,-0.6289481479444259,-0.017520012917060512,0.0036803669305029985,-0.02660139509513826,0.0,70.0,255.0,255.0,255.0
378,18.900000000000002,-12.285264692299537,8.294473757892108,-6.406746399198284,-0.4704487437110316,0.07808466157058547,-0.6302481438676111,-0.018198469912356074,0.003534032611973714,-0.025349457031875744,0.0,70.0,255.0,255.0,255.0
379,18.95,-12.30880986523741,8.298382428751237,-6.438290469604264,-0.4713773925575282,0.0782563765790556,-0.6314830936476135,-0.018908033753284315,0.0033279773157701698,-0.024181926700439504,0.0,70.0,255.0,255.0,255.0
380,19.0,-12.33240243155529,8.302299395550014,-6.469894708563046,-0.47233954708636006,0.07841745930216248,-0.632666336537655,-0.019430805178011212,0.003155558532874636,-0.023454869479522245,0.0,70.0,255.0,255.0,255.0
381,19.05,-12.356043819946047,8.306224174681454,-6.50155710325803,-0.4733204730753293,0.07857193243234306,-0.6338285805955657,-0.019645343153484873,0.0030719075510887706,-0.023358324148148313,0.0,70.0,255.0,255.0,255.0
382,19.1,-12.379734478862822,8.310156588793248,-6.533277566622602,-0.47430408140170854,0.07872465005727136,-0.6350021689524699,-0.019602972604282343,0.0030649177903185887,-0.02378686696706822,0.0,70.0,255.0,255.0,255.0
383,19.150000000000002,-12.403474228086218,8.31409663968718,-6.565057320153277,-0.47528077033575755,0.07887842421137492,-0.6362072672922725,-0.01942370121916781,0.003101300074170865,-0.024502566596673603,0.0,70.0,255.0,255.0,255.0
384,19.200000000000003,-12.427262555896398,8.318044431214386,-6.596898293351829,-0.4762464515236253,0.07903478006468845,-0.6374524256121372,-0.019220781818773958,0.0031567078460525977,-0.025267479078916466,0.0,70.0,255.0,255.0,255.0
385,19.25,-12.45109887323858,8.32200011769365,-6.62880256271449,-0.47720284851763495,0.07919409499598018,-0.6387340152001642,-0.019117156205794572,0.0032086532840480686,-0.02584044850264533,0.0,70.0,255.0,255.0,255.0
386,19.3,-12.474982840748162,8.325963840713984,-6.660771694871846,-0.4781581671442048,0.07935564539309325,-0.6400364704624018,-0.01917900355969948,0.0032433145719323875,-0.026085922809926387,0.0,70.0,255.0,255.0,255.0
387,19.35,-12.498914689953,8.329935682232959,-6.692806209760731,-0.4791207488736049,0.07951842645317342,-0.6413426074811568,-0.019347164264438277,0.003259961908419484,-0.026055705802008333,0.0,70.0,255.0,255.0,255.0
388,19.400000000000002,-12.522894915635522,8.3339156833593,-6.7249059556199615,-0.4800928835706486,0.0796816415839352,-0.6426420410426026,-0.019508496770548334,0.0032607670899409413,-0.02587402949494333,0.0,70.0,255.0,255.0,255.0
389,19.450000000000003,-12.546923978310065,8.337903846391352,-6.757070413864991,-0.48107159855065973,0.07984450316216751,-0.6439300104306511,-0.019561752725216763,0.0032451912993280985,-0.025655756051534695,0.0,70.0,255.0,255.0,255.0
390,19.5,-12.571002075490588,8.341900133675518,-6.789298956663027,-0.4820490588431703,0.08000616071386801,-0.645207616647756,-0.019404625944474674,0.0032098283314851983,-0.025523289889584078,0.0,70.0,255.0,255.0,255.0
391,19.55,-12.595128884194382,8.34590446246274,-6.8215911755297665,-0.4830120611451072,0.08016548599531603,-0.6464823394196095,-0.018991556359182482,0.0031548341626219667,-0.02554404521744047,0.0,70.0,255.0,255.0,255.0
392,19.6,-12.619303281605099,8.34991668227505,-6.853947190604988,-0.48394821447908853,0.08032164413013021,-0.6477620211695001,-0.0184101419000271,0.0030952345758450406,-0.025669377424097917,0.0,70.0,255.0,255.0,255.0
393,19.650000000000002,-12.643523705642291,8.353936626875752,-6.8863673776467165,-0.4848530753351099,0.08047500945290054,-0.6490492771620193,-0.01782137929833283,0.003055631565018757,-0.02580308698574285,0.0,70.0,255.0,255.0,255.0
394,19.700000000000003,-12.66778858913861,8.35796418322034,-6.9188521183211895,-0.4857303524089218,0.08062720728663209,-0.6503423298680744,-0.01738498117198617,0.003062526956121303,-0.02586241046884652,0.0,70.0,255.0,255.0,255.0
395,19.75,-12.692096740883184,8.361999347604415,-6.951401610633524,-0.4865915734523085,0.08078126214851267,-0.651635518208904,-0.01725632136970745,0.003152033389852704,-0.025770447882766945,0.0,70.0,255.0,255.0,255.0
396,19.8,-12.71644774648384,8.36604230943519,-6.98401567014208,-0.48745598454589256,0.08094241062561736,-0.6529193746563511,-0.017508570537927426,0.0033373487781318545,-0.025490810071371328,0.0,70.0,255.0,255.0,255.0
397,19.85,-12.740842339337773,8.370093588666977,-7.016693548099159,-0.48834243050610127,0.08111499702632585,-0.6541845992160411,-0.018047792609543478,0.0035590997887524622,-0.025068556063256864,0.0,70.0,255.0,255.0,255.0
398,19.900000000000002,-12.76528198953445,8.374153809137823,-7.049434130063684,-0.4892607638068469,0.0812983206044926,-0.6554262302626768,-0.01868962239885974,0.003716706649470325,-0.024592690162617004,0.0,70.0,255.0,255.0,255.0
399,19.950000000000003,-12.789768415718457,8.378223420727426,-7.082236171125427,-0.49021139274598724,0.08148666769127288,-0.6566438682323028,-0.019245548693902492,0.003711414161777782,-0.02415408925360296,0.0,70.0,255.0,255.0,255.0
400,20.0,-12.81430312880905,8.38230247590695,-7.115098516886914,-0.49118531867623716,0.08166946202067038,-0.6578416391880371,-0.019534097902429437,0.003434066081631215,-0.023838927902808393,0.0,70.0,255.0,255.0,255.0
401,20.05,-12.838886947586081,8.386390366929493,-7.14802033504423,-0.4921648025362302,0.081830074299436,-0.6590277610225836,-0.01946087477566749,0.002841971192424353,-0.023692714495737732,0.0,70.0,255.0,255.0,255.0
402,20.1,-12.863519609062672,8.390485483336894,-7.181001292989173,-0.4931314061538039,0.08195365913991282,-0.6602109106376108,-0.019084095585419902,0.0020701378314669228,-0.02369369436028279,0.0,70.0,255.0,255.0,255.0
403,20.150000000000002,-12.888200088201462,8.394585732843485,-7.2140414261079915,-0.4940732120947722,0.0820370880825827,-0.6613971304586119,-0.018534723181140578,0.0013566094350991875,-0.02378885632694505,0.0,70.0,255.0,255.0,255.0
404,20.200000000000003,-12.91292693027215,8.398689192145152,-7.247141006035034,-0.49498487847191797,0.08208932008342273,-0.6625897962703053,-0.017946110766331458,0.0009378770002399506,-0.02392123251730993,0.0,70.0,255.0,255.0,255.0
405,20.25,-12.937698576048653,8.402794664851827,-7.280300405735022,-0.4958678231714053,0.0821308757826067,-0.6637892537103429,-0.0174432776979927,0.0010516556644191155,-0.024029831182925676,0.0,70.0,255.0,255.0,255.0
406,20.3,-12.96251371258929,8.406902279723413,-7.313519931406068,-0.49672920624171724,0.08219448564986465,-0.6649927793885979,-0.017100704252293042,0.0018023655226073743,-0.024078844765540452,0.0,70.0,255.0,255.0,255.0
407,20.35,-12.987371496672825,8.411014113416813,-7.346799683673882,-0.4975778935966346,0.08231111233486743,-0.666197138186897,-0.016932188682794447,0.0029941017992030083,-0.024077598895644314,0.0,70.0,255.0,255.0,255.0
408,20.400000000000002,-13.012271501948954,8.4151333909569,-7.380139645224758,-0.4984224251099967,0.08249389582978495,-0.6674005392781623,-0.016935960401021077,0.0042614243735528134,-0.02405011296762183,0.0,70.0,255.0,255.0,255.0
409,20.450000000000003,-13.037213739183825,8.419263502999792,-7.413539737601698,-0.49927148963673673,0.08273725477222271,-0.6686021494836591,-0.01710949542186313,0.0052315300498761985,-0.024014780211434328,0.0,70.0,255.0,255.0,255.0
410,20.5,-13.062198650912627,8.423407116434122,-7.446999860173124,-0.500133374652183,0.08301704883477257,-0.6698020172993058,-0.017448781982309924,0.00553133923339999,-0.023989719393924247,0.0,70.0,255.0,255.0,255.0
411,20.55,-13.087227076649043,8.42756520788327,-7.480519939331629,-0.5010163678349677,0.08329038869556271,-0.6710011214230516,-0.017937333856110627,0.004981480473098543,-0.023985193154896223,0.0,70.0,255.0,255.0,255.0
412,20.6,-13.112300287696124,8.431736155303678,-7.514099972315429,-0.5019271080377941,0.08351519688208242,-0.6722005366147954,-0.018506310521360092,0.003803338420915736,-0.023995910056839875,0.0,70.0,255.0,255.0,255.0
413,20.650000000000002,-13.137419787452822,8.435916727571477,-7.547739992993108,-0.5028669988871037,0.08367072253765429,-0.6734007124287356,-0.019040596053443437,0.0024286487798619305,-0.024010691802356376,0.0,70.0,255.0,255.0,255.0
414,20.700000000000003,-13.162586987584834,8.440103227557444,-7.5814400435583025,-0.5038311676431384,0.08375806176006861,-0.674601605795031,-0.0194169331891203,0.0012953501197898731,-0.02401964663745204,0.0,70.0,255.0,255.0,255.0
415,20.75,-13.187802904217136,8.444292533747484,-7.615200153572611,-0.5048086922060158,0.08380025754963327,-0.6758026770924808,-0.019517585048944852,0.0008429407820642609,-0.02401129124187662,0.0,70.0,255.0,255.0,255.0
416,20.8,-13.213067856805436,8.448483253312407,-7.6490203112675506,-0.5057829261480329,0.08384235583827504,-0.6770027349192187,-0.019289447500803192,0.001291572725392598,-0.02398038261457458,0.0,70.0,255.0,255.0,255.0
417,20.85,-13.23838119683194,8.452676769331312,-7.682900427064533,-0.5067376369560961,0.08392941482217253,-0.6782007153539382,-0.018807044756030677,0.002421728666313072,-0.023938760876784926,0.0,70.0,255.0,255.0,255.0
418,20.900000000000002,-13.263741620501046,8.456876194794624,-7.716840382802944,-0.507663630623636,0.08408452870490635,-0.6793966110068972,-0.01821801902206488,0.003794796357325936,-0.023907119822919043,0.0,70.0,255.0,255.0,255.0
419,20.950000000000003,-13.289147559894303,8.461085222201802,-7.750840088165223,-0.5085594388583026,0.08430889445790513,-0.6805914273362301,-0.017682259002071987,0.004973922617423909,-0.023906633238812702,0.0,70.0,255.0,255.0,255.0
420,21.0,-13.314597564386876,8.465307084240415,-7.784899525536567,-0.5094318565238432,0.08458192096664874,-0.6817872743307785,-0.01736889647023787,0.005528972229562612,-0.023965115638624468,0.0,70.0,255.0,255.0,255.0
421,21.05,-13.340090745546688,8.469543414298467,-7.819018815598301,-0.5102963285053264,0.08486179168086139,-0.6829879389000926,-0.017364363318961296,0.005239081773211751,-0.024093276387215923,0.0,70.0,255.0,255.0,255.0
422,21.1,-13.365627197237409,8.473793263408501,-7.853198319426577,-0.5111682928557393,0.08510582914396991,-0.6841966019695,-0.01758187409031109,0.004280562765579532,-0.024249046435631527,0.0,70.0,255.0,255.0,255.0
423,21.150000000000002,-13.391207574832261,8.478053997212864,-7.887438475795251,-0.5120545159143575,0.08528984795741934,-0.6854128435436557,-0.017851803382562537,0.003021349939125173,-0.024360828906555554,0.0,70.0,255.0,255.0,255.0
424,21.200000000000003,-13.416832648828844,8.482322248204243,-7.921739603780942,-0.5129534731939955,0.08540796413788243,-0.6866326848601556,-0.018006944556958615,0.0018288195503757265,-0.02436053369443414,0.0,70.0,255.0,255.0,255.0
425,21.25,-13.442502922151661,8.486594793626653,-7.956101744281266,-0.5138552103700533,0.08547272991245691,-0.6878488969130991,-0.017866875691474604,0.0010611236799462631,-0.02418027417379065,0.0,70.0,255.0,255.0,255.0
426,21.3,-13.46821816986585,8.490869521195489,-7.990524493472252,-0.514740160763143,0.08551407650587706,-0.6890507122775347,-0.017346525796035905,0.0009114475009397438,-0.023792712302395103,0.0,70.0,255.0,255.0,255.0
427,21.35,-13.493976938227975,8.49514620127724,-8.02500681550902,-0.5155898629496569,0.08556387466255089,-0.6902281681433386,-0.016588162844577425,0.0012869759817846216,-0.02326682494349086,0.0,70.0,255.0,255.0,255.0
428,21.400000000000002,-13.519777156160815,8.499425908661744,-8.059547310286586,-0.5163989770476007,0.08564277410405552,-0.6913773947718838,-0.015852063484267376,0.0019696873357233358,-0.022728632150759154,0.0,70.0,255.0,255.0,255.0
429,21.450000000000003,-13.545616835932735,8.503710478687646,-8.094144554986208,-0.5171750692980837,0.08576084339612322,-0.6925010313584146,-0.015389822910805151,0.0027437129341834066,-0.022304005875639632,0.0,70.0,255.0,255.0,255.0
430,21.5,-13.571494663090624,8.508001993001356,-8.128797413422427,-0.5179379593386813,0.08591714539747386,-0.6936077953594477,-0.015451526172505226,0.0033985610224718243,-0.02210576901724437,0.0,70.0,255.0,255.0,255.0
431,21.55,-13.597410631866603,8.512302193227393,-8.163505334522153,-0.5187202219153342,0.0861006994983704,-0.694711608260139,-0.01615041927642835,0.00380958043795232,-0.022189673937056398,0.0,70.0,255.0,255.0,255.0
432,21.6,-13.623366685282157,8.516612062951193,-8.198268574248441,-0.5195530012663241,0.08629810344126909,-0.6958267627531534,-0.017299227443778875,0.003976102072478227,-0.022519178266300344,0.0,70.0,255.0,255.0,255.0
433,21.650000000000002,-13.649365931993236,8.52093200357152,-8.233088010797468,-0.5204501446597121,0.08649830970561823,-0.696963526086769,-0.01854451144573943,0.003933653632337553,-0.02300827885495238,0.0,70.0,255.0,255.0,255.0
434,21.700000000000003,-13.675411699748128,8.525261893921755,-8.267964926857118,-0.521407452410898,0.08669146880450285,-0.6981275906386486,-0.01952821601580723,0.0037106410673004575,-0.023563955623018273,0.0,70.0,255.0,255.0,255.0
435,21.75,-13.701506677234326,8.52960115045197,-8.302900769861333,-0.5224029662612928,0.08686937381234827,-0.6993199216490709,-0.019899047590143937,0.003336613581517156,-0.024108631108532563,0.0,70.0,255.0,255.0,255.0
436,21.8,-13.727651996374258,8.53394883130299,-8.337896919022025,-0.5233973571699124,0.08702513016265456,-0.7005384537495019,-0.019484710849937414,0.0028424918193437065,-0.02458910477010079,0.0,70.0,255.0,255.0,255.0
437,21.85,-13.753846412951317,8.538303663468236,-8.372954615236283,-0.5243514373462865,0.08715362299428264,-0.7017788321260809,-0.018464810829676992,0.002289454888781961,-0.02494009835523059,0.0,70.0,255.0,255.0,255.0
438,21.900000000000002,-13.780087140108886,8.542664193602418,-8.408074802234633,-0.5252438382528801,0.08725407565153276,-0.7030324635850249,-0.017200846444787032,0.0017765372966493942,-0.02507377690523782,0.0,70.0,255.0,255.0,255.0
439,21.950000000000003,-13.806370796776605,8.54702907103339,-8.443257861594786,-0.5260715219907652,0.08733127672394758,-0.7042862098166047,-0.01606337363320165,0.0014126971562333779,-0.024907397739326598,0.0,70.0,255.0,255.0,255.0
440,22.0,-13.832694292307963,8.551397321274813,-8.478503423216294,-0.5268501756162003,0.0873953453671561,-0.7055232033589576,-0.01542426481879744,0.0012989939740748468,-0.024355743844850508,0.0,70.0,255.0,255.0,255.0
441,22.05,-13.859055814338225,8.555768605570105,-8.513810181930682,-0.527613948472645,0.08746117612135507,-0.7067217842010898,-0.015476797928748454,0.001480965104327936,-0.02339908180761796,0.0,70.0,255.0,255.0,255.0
442,22.1,-13.885455687155227,8.560143438886948,-8.549175601636403,-0.5283978554090751,0.08754344187758889,-0.7078631115397194,-0.016072484947571297,0.0019016028483420655,-0.02220303903506249,0.0,70.0,255.0,255.0,255.0
443,22.150000000000002,-13.911895599879132,8.564522949757864,-8.584596493084653,-0.5292211969674021,0.08765133640618927,-0.708942088104596,-0.016901986226258714,0.0024438335453069726,-0.02105652028436822,0.0,70.0,255.0,255.0,255.0
444,22.200000000000003,-13.938377806851967,8.568908572527567,-8.620069810446862,-0.530088054031701,0.08778782523211959,-0.7099687635681562,-0.017657916492019865,0.002979083128806792,-0.02025820167261827,0.0,70.0,255.0,255.0,255.0
445,22.25,-13.964904405282303,8.573301732281076,-8.655593369441469,-0.5309869886166041,0.08794924471906995,-0.7109679082718579,-0.01802794907828087,0.0033793918740698814,-0.0201043841880022,0.0,70.0,255.0,255.0,255.0
446,22.3,-13.991476505713628,8.577703496999474,-8.691166601274048,-0.5318908489395291,0.08812576441952658,-0.7119792019869564,-0.01784875011523468,0.0035741605822536826,-0.020728880352294254,0.0,70.0,255.0,255.0,255.0
447,22.35,-14.018093490176256,8.582114308723028,-8.726791289640165,-0.5327718636281276,0.08830666077729532,-0.7130407963070873,-0.01725158970611318,0.0035877700813813362,-0.021918794455544344,0.0,70.0,255.0,255.0,255.0
448,22.400000000000002,-14.04475369207644,8.586534163077204,-8.762470680904757,-0.5336160079101404,0.08848454142766471,-0.7141710814325108,-0.016504029163222356,0.0034836529998472088,-0.02326741468454685,0.0,70.0,255.0,255.0,255.0
449,22.450000000000003,-14.07145509096727,8.590962762865795,-8.798208397783416,-0.5344222665444498,0.08865502607728004,-0.715367537775542,-0.015865333358533462,0.0033247698631555522,-0.02435424778415296,0.0,70.0,255.0,255.0,255.0
450,22.5,-14.098195918730886,8.595399665684932,-8.834007434682311,-0.5352025412459938,0.08881701841398026,-0.7166065062109261,-0.015595873599671961,0.003175419880996344,-0.02475473805230166,0.0,70.0,255.0,255.0,255.0
451,22.55,-14.124975345091869,8.599844464707193,-8.869869048404508,-0.535981853904417,0.08897256806537968,-0.7178430115807721,-0.015828061750511324,0.003075166457833234,-0.024258823357214965,0.0,70.0,255.0,255.0,255.0
452,22.6,-14.151794104121327,8.60429692249147,-8.905791735840388,-0.5367853474210449,0.08912453505976359,-0.7190323885466476,-0.016435748303500475,0.0030263844243094695,-0.023092598993024183,0.0,70.0,255.0,255.0,255.0
453,22.650000000000002,-14.178653879833973,8.60875691821317,-8.941772287259173,-0.537625428734767,0.08927520650781062,-0.7201522714800745,-0.017167305047927073,0.003023326018514183,-0.021703005126738617,0.0,70.0,255.0,255.0,255.0
454,22.700000000000003,-14.205556646994804,8.61322444314225,-8.977806962988396,-0.5385020779258376,0.089426867661615,-0.7212026890593215,-0.01777417664694525,0.003068037885967101,-0.020537954043398088,0.0,70.0,255.0,255.0,255.0
455,22.75,-14.232504087626557,8.61769960497933,-9.013892556165105,-0.5394028463994616,0.08958201029640733,-0.7222060668844144,-0.018004593817089187,0.00317095657376143,-0.020044589010836944,0.0,70.0,255.0,255.0,255.0
456,22.8,-14.25949693163475,8.622182644171891,-9.050027569676837,-0.5403025373075465,0.08974396331899115,-0.7232071479604052,-0.017732429454575538,0.003331886871826839,-0.020448973071829357,0.0,70.0,255.0,255.0,255.0
457,22.85,-14.286534341357312,8.62667400131123,-9.086213270961146,-0.5411760893449191,0.08991519898359002,-0.7242509641915973,-0.017090825005539045,0.0035066922208670803,-0.021539993720587347,0.0,70.0,255.0,255.0,255.0
458,22.900000000000002,-14.313614540569242,8.63117416407025,-9.122452666095997,-0.5420116198081004,0.09009463254107786,-0.7253611473324639,-0.0163413427223702,0.0036230429273587106,-0.02289138066036145,0.0,70.0,255.0,255.0,255.0
459,22.950000000000003,-14.340735503338122,8.635683464565338,-9.158749385694392,-0.5428102236171561,0.09027750327632589,-0.7265401022576334,-0.015744533482298095,0.003609791880165858,-0.024080789189717677,0.0,70.0,255.0,255.0,255.0
460,23.0,-14.367895562930958,8.640201914397883,-9.19510667632176,-0.5435860731563302,0.09045561172909444,-0.7277692262514357,-0.01556971383429584,0.003392781795419353,-0.024698980495507783,0.0,70.0,255.0,255.0,255.0
461,23.05,-14.395094110653755,8.644729025738247,-9.231526308319536,-0.5443671950005857,0.09061678145586782,-0.7290100003071842,-0.015948793855891097,0.0029434865201238836,-0.024532137502042417,0.0,70.0,255.0,255.0,255.0
462,23.1,-14.422332282431016,8.64926359254347,-9.268007676352479,-0.5451809525419193,0.09074996038110683,-0.7302224400016399,-0.016715543748624384,0.002348618253655843,-0.02371824197631156,0.0,70.0,255.0,255.0,255.0
463,23.150000000000002,-14.449612205907947,8.653804021776358,-9.3045485523197,-0.5460387493754482,0.09085164328123341,-0.7313818245048154,-0.01755273198789098,0.0017635698723594828,-0.022560656381465094,0.0,70.0,255.0,255.0,255.0
464,23.200000000000003,-14.476936157368561,8.658348756871593,-9.34114585880296,-0.5469362257407084,0.09092631736834278,-0.7324785056397864,-0.018147829284842487,0.0013455684861440886,-0.02136546262416772,0.0,70.0,255.0,255.0,255.0
465,23.25,-14.504305828482018,8.662896653513192,-9.377796402883678,-0.5478535323039324,0.09098620012984782,-0.7335183707672321,-0.018184616114425012,0.0012498975957342395,-0.020431470358772685,0.0,70.0,255.0,255.0,255.0
466,23.3,-14.531721510598954,8.667447376884578,-9.414497695879684,-0.5487546873521509,0.0910513071279162,-0.7345216526756637,-0.017512022160737217,0.001547966581760818,-0.019928024704896075,0.0,70.0,255.0,255.0,255.0
467,23.35,-14.559181297217233,8.672001784225984,-9.451248568151245,-0.5496047345200061,0.0911409967880239,-0.7355111732377217,-0.01633417948720961,0.0021343592408129552,-0.019819765647355325,0.0,70.0,255.0,255.0,255.0
468,23.400000000000002,-14.586681984050955,8.67656147656338,-9.488048813203456,-0.5503881053008719,0.0912647430519975,-0.7365036292403992,-0.01504138900063623,0.002806313946912553,-0.019994944862844477,0.0,70.0,255.0,255.0,255.0
469,23.450000000000003,-14.61422010774732,8.681128258531183,-9.524898931075285,-0.5511088734200698,0.09142162818271515,-0.7375106677240062,-0.014023496696324855,0.003355160281692804,-0.020343047958881755,0.0,70.0,255.0,255.0,255.0
470,23.5,-14.641792871392962,8.685703639381652,-9.561799879975856,-0.5517904549705044,0.09160025908016678,-0.7385379340362874,-0.013667765763258899,0.003571637145682871,-0.020739147394088775,0.0,70.0,255.0,255.0,255.0
471,23.55,-14.66939915324437,8.6902882844392,-9.598752724478913,-0.5524756499963956,0.09177879189728344,-0.7395845824634151,-0.014163490462060224,0.0033513604392965135,-0.021104015426942624,0.0,70.0,255.0,255.0,255.0
472,23.6,-14.697040436392601,8.69488151857138,-9.635758338222198,-0.5532068040167104,0.09193539512409643,-0.7406483355789817,-0.01529785485274715,0.002799352709281777,-0.0214427886733759,0.0,70.0,255.0,255.0,255.0
473,23.650000000000002,-14.724719833646041,8.69948182395161,-9.672817558036812,-0.5540054354816704,0.09205872716821162,-0.7417288613307527,-0.016650756299441127,0.0021257664153395694,-0.021776953443009006,0.0,70.0,255.0,255.0,255.0
474,23.700000000000003,-14.752440979940769,8.704087391288201,-9.709931224355273,-0.5548718796466545,0.09214797176563039,-0.7428260309232826,-0.017798836610793956,0.0015403638125022212,-0.022110457427970687,0.0,70.0,255.0,255.0,255.0
475,23.75,-14.780207021610707,8.708696621128173,-9.74710016112914,-0.5557853191427498,0.09221276354946184,-0.7439399070735497,-0.01832436745328181,0.0012475165252823217,-0.022463874798717143,0.0,70.0,255.0,255.0,255.0
476,23.8,-14.808019511855044,8.713308667643147,-9.784325215062628,-0.5567043163919827,0.09227272341815862,-0.7450724184031543,-0.018014155850920588,0.0013531650870035605,-0.022842487016205837,0.0,70.0,255.0,255.0,255.0
477,23.85,-14.835877453249905,8.717923893469989,-9.821607402969455,-0.5575867347278418,0.0923480800581622,-0.7462241557751703,-0.017045216951494524,0.001782821996698658,-0.023171783621123154,0.0,70.0,255.0,255.0,255.0
478,23.900000000000002,-14.863778185327828,8.722543475648964,-9.858947630640145,-0.5584088380871322,0.09245100561782849,-0.7473895967652666,-0.015784769950855093,0.0023760283188067888,-0.023334537399932742,0.0,70.0,255.0,255.0,255.0
479,23.950000000000003,-14.891718337058618,8.727168994031771,-9.896346362645982,-0.5591652117229273,0.09258568289004288,-0.7485576095151636,-0.01460101699990446,0.0029700977544067086,-0.023228548901776946,0.0,70.0,255.0,255.0,255.0
480,24.0,-14.91969470650012,8.731802043937968,-9.933803391591661,-0.5598689397871226,0.09274801539326916,-0.7497124516554443,-0.013854717803951644,0.0034023060758059387,-0.022753418681453752,0.0,70.0,255.0,255.0,255.0
481,24.05,-14.94770523103733,8.736443795571098,-9.971317607811526,-0.5605506835033225,0.09292591349762347,-0.750832951383309,-0.013739233455645206,0.0035832053198348035,-0.021877924621804823,0.0,70.0,255.0,255.0,255.0
482,24.1,-14.975749774850453,8.74109463528773,-10.008886686729992,-0.5612428631326871,0.09310633592525264,-0.7519002441176248,-0.014152233052122654,0.003552995668520964,-0.02075268756271953,0.0,70.0,255.0,255.0,255.0
483,24.150000000000002,-15.0038295173506,8.745754429163624,-10.046507632223289,-0.5619659068085348,0.09328121306447557,-0.7529082201395809,-0.014860047344811278,0.003405644786447226,-0.01964480371619004,0.0,70.0,255.0,255.0,255.0
484,24.200000000000003,-15.031946365531306,8.750422756594178,-10.08417750874395,-0.5627288678671682,0.09344690040389736,-0.7538647244892438,-0.015630009141887058,0.003233044703598864,-0.018827095217588408,0.0,70.0,255.0,255.0,255.0
485,24.25,-15.060102404137316,8.755099119204013,-10.121894104672213,-0.5635289077227235,0.09360451753483545,-0.7547909296613398,-0.016228789303340818,0.0031352405224893687,-0.018558441152549676,0.0,70.0,255.0,255.0,255.0
486,24.3,-15.088299256303578,8.759783208347661,-10.159656601710084,-0.5643517467975023,0.0937604244561463,-0.7557205686044988,-0.016523362541853714,0.0031667875258989397,-0.018960126851297332,0.0,70.0,255.0,255.0,255.0
487,24.35,-15.116537578817066,8.764475161649628,-10.197466161532663,-0.5651812439769088,0.09392119628742535,-0.7566869423464695,-0.016550419604932642,0.003284262927927273,-0.019888515077681745,0.0,70.0,255.0,255.0,255.0
488,24.400000000000002,-15.14481738070127,8.769175327976404,-10.235325295944731,-0.5660067887579956,0.09408885074893902,-0.7577094201122669,-0.016408793582023407,0.0034031640968379406,-0.021053520461578046,0.0,70.0,255.0,255.0,255.0
489,24.450000000000003,-15.173138257692866,8.773884046724522,-10.27323710354389,-0.5668221233351112,0.09426151269710914,-0.7587922943926273,-0.01618654550039622,0.0034506371848763706,-0.02215080915615175,0.0,70.0,255.0,255.0,255.0
490,24.5,-15.20149959303478,8.778601479246115,-10.311204525383994,-0.5676254433080352,0.09443391446742666,-0.7599245010278821,-0.015970078363736206,0.003360787779627117,-0.0228888073850797,0.0,70.0,255.0,255.0,255.0
491,24.55,-15.22990080202367,8.783327438171264,-10.349229553646678,-0.5684191311714848,0.09459759147507185,-0.7610811751311353,-0.015813376982443117,0.0031025583290045233,-0.023108794080251016,0.0,70.0,255.0,255.0,255.0
492,24.6,-15.258341506151929,8.788061238393622,-10.387312642897108,-0.5692067810062795,0.09474417030032711,-0.7622353804359072,-0.015725156126755735,0.002711724180493036,-0.022862296414949412,0.0,70.0,255.0,255.0,255.0
493,24.650000000000002,-15.286821480124297,8.792801855201297,-10.425453091690269,-0.5699916467841604,0.09486876389312116,-0.7633674047726302,-0.015706549888605537,0.002260766425621341,-0.02229123098711483,0.0,70.0,255.0,255.0,255.0
494,24.700000000000003,-15.315340670830345,8.797548114782934,-10.46364938337437,-0.5707774359951401,0.09497024694288925,-0.7644645035346187,-0.015770009323112788,0.001823893736840887,-0.021543467692985985,0.0,70.0,255.0,255.0,255.0
495,24.75,-15.343899223723811,8.802298879895586,-10.50189954204373,-0.5715686477164716,0.09505115326680524,-0.7655217515419288,-0.01594292521449603,0.0014656176826832734,-0.020766329308585796,0.0,70.0,255.0,255.0,255.0
496,24.8,-15.372497535601992,8.807053230109615,-10.540201558528564,-0.5723717285165897,0.09511680871115757,-0.7665411364654773,-0.01622984281475226,0.0012229791570561588,-0.020056445077543117,0.0,70.0,255.0,255.0,255.0
497,24.85,-15.40113639657547,8.811810560766702,-10.578553655690278,-0.5731916319979469,0.09517345118251086,-0.7675273960496831,-0.016548955887429884,0.0011061363876407881,-0.019459502057195266,0.0,70.0,255.0,255.0,255.0
498,24.900000000000002,-15.429816698801787,8.816570575227866,-10.616954298133532,-0.5740266241053327,0.09522742234992165,-0.7684870866711968,-0.016765006863650456,0.0011164741646751963,-0.019026870275773433,0.0,70.0,255.0,255.0,255.0
499,24.950000000000003,-15.458539058986004,8.821333303001694,-10.655402364357398,-0.5748681326843119,0.09528509859897838,-0.7694300830772605,-0.01674684378034641,0.0012470745806680839,-0.01882049489978499,0.0,70.0,255.0,255.0,255.0
500,25.0,-15.487303512070218,8.826099085087764,-10.693897306441258,-0.5757013084833673,0.09535212980798846,-0.7703691361611753,-0.016362276722858837,0.0014807041930353648,-0.018897903354009316,0.0,70.0,255.0,255.0,255.0
501,25.05,-15.51610918983434,8.830868515982493,-10.732439277973516,-0.5765043603565978,0.09543316901828192,-0.7713198734126614,-0.015559652691088388,0.0017998373969874137,-0.019273164535604792,0.0,70.0,255.0,255.0,255.0
502,25.1,-15.544953948105878,8.835642401989592,-10.771029293782524,-0.5772572737524762,0.0955321135476872,-0.7722964526147358,-0.014482563447337782,0.002182891109292484,-0.01985615223052406,0.0,70.0,255.0,255.0,255.0
503,25.150000000000002,-15.573834917209588,8.840421727337262,-10.80966892323499,-0.5779526167013316,0.09565145812921116,-0.7733054886357138,-0.013391557855868541,0.0025924977556712747,-0.020483152712458264,0.0,70.0,255.0,255.0,255.0
504,25.200000000000003,-15.602749209776011,8.845207547802513,-10.848359842646095,-0.578596429538063,0.09579136332325433,-0.7743447678859816,-0.012548163340397878,0.0029821202931046287,-0.020975578350679314,0.0,70.0,255.0,255.0,255.0
505,25.25,-15.631694560163394,8.850000863669587,-10.887103400023587,-0.5792074330353714,0.09594967015852163,-0.7754030464707817,-0.01219193059807111,0.003315528248393207,-0.021154038628168337,0.0,70.0,255.0,255.0,255.0
506,25.3,-15.660669953079548,8.854802514818365,-10.925900147293174,-0.5798156225978701,0.09612291614809365,-0.7764601717487984,-0.012439145488585268,0.00357095796825746,-0.020930896778814656,0.0,70.0,255.0,255.0,255.0
507,25.35,-15.689676122423181,8.859613155284396,-10.964749417198467,-0.5804513475842299,0.09630676595534737,-0.7774961361486632,-0.013191839274284689,0.00372500313865487,-0.020401296943717284,0.0,70.0,255.0,255.0,255.0
508,25.400000000000002,-15.718715087837971,8.8644331914139,-11.00364976090804,-0.5811348065252986,0.09649541646195914,-0.7785003014431702,-0.01423603444017374,0.0037508308510680877,-0.019755110950647747,0.0,70.0,255.0,255.0,255.0
509,25.450000000000003,-15.747789603075711,8.869262696930592,-11.042599447342784,-0.5818749510282473,0.09668184904045418,-0.779471647243728,-0.015341528497891943,0.003631157532701934,-0.019183765126129515,0.0,70.0,255.0,255.0,255.0
510,25.5,-15.776902582940796,8.874101376317945,-11.081596925632413,-0.5826689593750878,0.09685853221522933,-0.7804186779557831,-0.016293963588331906,0.003353220109225674,-0.018869904837082174,0.0,70.0,255.0,255.0,255.0
511,25.55,-15.80605649901322,8.878948550152115,-11.120641315138363,-0.5835043473870805,0.09701717105137675,-0.7813586377274362,-0.016964790996887302,0.0029220183760614304,-0.01890982177421563,0.0,70.0,255.0,255.0,255.0
512,25.6,-15.835253017679504,8.883803093423083,-11.159732789405156,-0.5843654384747765,0.09715073405283547,-0.7823096601332047,-0.01731735218335473,0.0023979354967451627,-0.019253252067308324,0.0,70.0,255.0,255.0,255.0
513,25.650000000000002,-15.864493042860698,8.888663623557399,-11.198872281151683,-0.5852360826054159,0.09725696460105127,-0.783283962934167,-0.01733535333325875,0.0018850180003582295,-0.01978181141151225,0.0,70.0,255.0,255.0,255.0
514,25.700000000000003,-15.893776625940045,8.893528789883188,-11.238061185698573,-0.5860989738081024,0.0973392358528713,-0.7842878412743559,-0.017006748308467934,0.0014922239351733424,-0.020376074433059443,0.0,70.0,255.0,255.0,255.0
515,25.75,-15.923102940241508,8.898397547142686,-11.277301065279119,-0.5869367574362627,0.0974061869945686,-0.785321570377473,-0.01632023369726454,0.0013156006401615628,-0.020930351348091847,0.0,70.0,255.0,255.0,255.0
516,25.8,-15.952470301683672,8.903269408582645,-11.31659334273632,-0.5877309971778288,0.09747079591688745,-0.7863808764091651,-0.015299639243337992,0.0014014813482177146,-0.02137704223006409,0.0,70.0,255.0,255.0,255.0
517,25.85,-15.98187603995929,8.908144626734375,-11.355939152920035,-0.5884667213605965,0.09754633512939037,-0.7874592746004794,-0.014100430314023527,0.0017187793487138947,-0.021669331149176685,0.0,70.0,255.0,255.0,255.0
518,25.900000000000002,-16.01131697381973,8.913024042095584,-11.395339270196368,-0.5891410402092312,0.09764267385175884,-0.7885478095240828,-0.012984230547630204,0.002192733510142375,-0.021753167881044533,0.0,70.0,255.0,255.0,255.0
519,25.950000000000003,-16.040790143980214,8.91790889411955,-11.434793933872443,-0.5897651444153595,0.09776560848040461,-0.7896345913885838,-0.012229426986287706,0.0027404595471125504,-0.02157916324883047,0.0,70.0,255.0,255.0,255.0
520,26.0,-16.070293488261267,8.922800602943624,-11.474302729335227,-0.59036398290786,0.0979167198064701,-0.7907057258489658,-0.012113120270029754,0.0032963586827250424,-0.021104727065157647,0.0,70.0,255.0,255.0,255.0
521,26.05,-16.099826542271,8.927700566100198,-11.51386450645734,-0.5909764564423625,0.09809524434867711,-0.7917450640950996,-0.012757677670904854,0.0038125690522861078,-0.020327184130586318,0.0,70.0,255.0,255.0,255.0
522,26.1,-16.129391133905504,8.932610127378492,-11.553477235744737,-0.5916397506749504,0.09829797671169871,-0.7927384442620244,-0.013951975511616865,0.004210583471753182,-0.019352034058073286,0.0,70.0,255.0,255.0,255.0
523,26.150000000000002,-16.158990517338495,8.937530363771367,-11.593138350883542,-0.5923716539935242,0.09851630269585243,-0.7936802675009069,-0.015294997203341154,0.004379572433776957,-0.018365423825095206,0.0,70.0,255.0,255.0,255.0
524,26.200000000000003,-16.188628299304856,8.942461757648077,-11.632845262494827,-0.5931692503952846,0.0987359339550764,-0.794574986644534,-0.01636999596179578,0.004213163983202151,-0.01756573411082485,0.0,70.0,255.0,255.0,255.0
525,26.25,-16.218307442378023,8.947403957166875,-11.672595849547996,-0.5940086535897038,0.09893761909417265,-0.7954368409119894,-0.01675530387004187,0.003595001925482677,-0.01713875903917028,0.0,70.0,255.0,255.0,255.0
526,26.3,-16.248029164663826,8.952355519557495,-11.712388946586026,-0.5948447807822888,0.09909543414762467,-0.796288862548451,-0.016243076645849897,0.0024934172687451905,-0.01717473406834813,0.0,70.0,255.0,255.0,255.0
527,26.35,-16.277791920456252,8.957313500581638,-11.75222473580284,-0.5956329612542888,0.09918696082104717,-0.7971543143188242,-0.015062483489813872,0.0011214974868778427,-0.017595353130950286,0.0,70.0,255.0,255.0,255.0
528,26.400000000000002,-16.307592460789255,8.9622742156396,-11.792104378017909,-0.5963510291312701,0.09920758389631246,-0.798048397861546,-0.01366496478745205,-0.0001511164848366775,-0.018231477143970665,0.0,70.0,255.0,255.0,255.0
529,26.450000000000003,-16.33742702336938,8.967234258971269,-11.832029575588995,-0.596999457733034,0.0991718491725635,-0.7989774620332213,-0.012503736021329814,-0.0009480805150730021,-0.0188984131289871,0.0,70.0,255.0,255.0,255.0
530,26.5,-16.36729240656256,8.972191400556856,-11.87200212422123,-0.5976014027334031,0.09911277584480516,-0.7999382391744447,-0.012033589659665722,-0.0008924036819735193,-0.01940820880701466,0.0,70.0,255.0,255.0,255.0
531,26.55,-16.39718716364272,8.97714553655575,-11.91202339950644,-0.5982028166990006,0.09908260880436615,-0.8009182829139228,-0.012483162597831665,0.00018187376120692988,-0.0196549052372319,0.0,70.0,255.0,255.0,255.0
532,26.6,-16.42711268823246,8.982099661437292,-11.952093952512623,-0.5988497189931863,0.09913096322092585,-0.8019037296981679,-0.013627274676508705,0.001972703970842815,-0.01967112218306255,0.0,70.0,255.0,255.0,255.0
533,26.650000000000002,-16.457072135542038,8.987058632877842,-11.992213772476257,-0.5995655441666514,0.09927987920145043,-0.802885395132229,-0.01501595949946477,0.0039130986339230844,-0.01954242051187549,0.0,70.0,255.0,255.0,255.0
534,26.700000000000003,-16.487069242649124,8.992027649357437,-12.032382492025846,-0.6003513149431328,0.09952227308431816,-0.8038579717493555,-0.016201913100744036,0.005420836398428719,-0.01934821243985141,0.0,70.0,255.0,255.0,255.0
535,26.75,-16.51710726703635,8.997010860186274,-12.072599569651192,-0.6011857354767258,0.0998219628412933,-0.8048202163762141,-0.016742412080716917,0.005910650097362691,-0.019168359113486133,0.0,70.0,255.0,255.0,255.0
536,26.8,-16.547187816196796,9.002009845641567,-12.112864513663467,-0.6020255561512045,0.10011333809405443,-0.8057748076607041,-0.016411126108195617,0.005098714725981779,-0.01905170558895719,0.0,70.0,255.0,255.0,255.0
