idx,t,px,py,pz,vx,vy,vz,ax,ay,az,yaw,mode,ledr,ledg,ledb
0,0.0,7.500000000000004,-1.500000000000001,6.537985096404736e-19,0.00024620554885501633,-0.0008084824655352207,0.0003614353972091707,0.0004919630075761461,0.008589883103571339,-0.017876235981394453,0.0,70.0,255.0,255.0,255.0
1,0.05,7.500012310277447,-1.5000404241232779,1.807176986045919e-05,0.00027080369923382364,-0.0003789883103566538,-0.0005323764018605521,0.0008764491354895654,0.012611089267422493,-0.02677982447441738,0.0,70.0,255.0,255.0,255.0
2,0.1,7.500027080369928,-1.5000378988310368,-5.3237640186054564e-05,0.00033385046240397287,0.00045262646120702854,-0.0023165470502325676,0.0015379445115648593,0.016084824655360208,-0.035614353972091686,0.0,70.0,255.0,255.0,255.0
3,0.15000000000000002,7.500045695323688,-1.4999951614771572,-0.00021358293516279757,0.00042459815039030957,0.001229494155179367,-0.004093811799069721,0.0020919630092208763,0.014989883103266877,-0.03547623598139646,0.0,70.0,255.0,255.0,255.0
4,0.2,7.500069540184967,-1.4999149494155188,-0.0004626188200930267,0.0005430467633260605,0.0019516147715337162,-0.005864170648372214,0.0026508909840572414,0.013885397323121218,-0.035335220410475314,0.0,70.0,255.0,255.0,255.0
5,0.25,7.50010000000002,-1.4998000000000038,-0.000800000000000019,0.0006896872487960337,0.002618033887491489,-0.007627333840117253,0.0032380484602079207,0.012726032230525597,-0.035177543753259745,0.0,70.0,255.0,255.0,255.0
6,0.30000000000000004,7.5001385089098465,-1.4996531460267697,-0.001225352204104752,0.0008668516093468526,0.003224217994586276,-0.009381925023698189,0.003860936036215179,0.011497206364285972,-0.0349987791510807,0.0,70.0,255.0,255.0,255.0
7,0.35000000000000003,7.500186685160955,-1.4994775782005452,-0.001738192502369838,0.0010757808524175516,0.003767754523920086,-0.011127211755225323,0.00445559410939822,0.01032325981069615,-0.03483667563519404,0.0,70.0,255.0,255.0,255.0
8,0.4,7.500246086995088,-1.4992763705743777,-0.0023380733796272844,0.0013124110202866746,0.004256543975655891,-0.012865592587217593,0.004919878240361442,0.009402765543908842,-0.034751518971931974,0.0,70.0,255.0,255.0,255.0
9,0.45,7.5003179262629835,-1.4990519238029796,-0.0030247517610915973,0.0015677686764536958,0.00470803107831097,-0.01460236365241852,0.0051657524394954635,0.008906117802864877,-0.034796479199220784,0.0,70.0,255.0,255.0,255.0
10,0.5,7.500402863862734,-1.4988055674665466,-0.0037983097448691366,0.001828986264236221,0.005147155755942379,-0.01634524050713967,0.0051146180411798525,0.008982546762270616,-0.03502369803168042,0.0,70.0,255.0,255.0,255.0
11,0.55,7.500500824889407,-1.4985372082273853,-0.004659275811805565,0.002079230480571681,0.005606285754538032,-0.018104733455586563,0.004740620564103182,0.009681166715691525,-0.03545028509450734,0.0,70.0,255.0,255.0,255.0
12,0.6000000000000001,7.500610786910791,-1.4982449388910928,-0.005608783090427793,0.002303048320646539,0.006115272427511531,-0.019890269016590405,0.004141044926164739,0.010822640053920196,-0.03600304486938467,0.0,70.0,255.0,255.0,255.0
13,0.65,7.500731129721472,-1.4979256809846342,-0.006648302713464605,0.002493334973188155,0.006688549759930051,-0.02170503794252503,0.003494216345334422,0.0120759272386195,-0.0365515321483989,0.0,70.0,255.0,255.0,255.0
14,0.7000000000000001,7.50086012040811,-1.4975760839150998,-0.007779286884680296,0.0026524699551799813,0.007322865151373481,-0.023545422231430295,0.002991991159539964,0.013084330662938015,-0.036962986041649826,0.0,70.0,255.0,255.0,255.0
15,0.75,7.50099637671699,-1.4971933944694968,-0.009002844936607635,0.0027925340891421513,0.007996982826223853,-0.025401336546690013,0.002829546484761636,0.013493775654893625,-0.03711322652129711,0.0,70.0,255.0,255.0,255.0
16,0.8,7.501139373817024,-1.4967763856324774,-0.010319420539349297,0.002935424603656145,0.008672242716862844,-0.027256744883560006,0.0031014911855642424,0.013128582544985612,-0.03694338335686522,0.0,70.0,255.0,255.0,255.0
17,0.8500000000000001,7.501289919177355,-1.4963261701978106,-0.011728519424963635,0.0031026832076985755,0.009309841080722414,-0.029095674882376535,0.0036948182595253343,0.012156995824486039,-0.036515620411743666,0.0,70.0,255.0,255.0,255.0
18,0.9,7.501449642137794,-1.4958454015244051,-0.01322898802758695,0.0033049064296086783,0.009887942299311447,-0.030908306924734372,0.004388664302634737,0.010922709650817986,-0.03595871607083717,0.0,70.0,255.0,255.0,255.0
19,0.9500000000000001,7.501620409820316,-1.4953373759678794,-0.014819350117437072,0.0035415496379620492,0.010402112045804213,-0.03269154648946025,0.004959709495455655,0.009776419685181281,-0.03541106381366819,0.0,70.0,255.0,255.0,255.0
20,1.0,7.50180379710159,-1.4948051903198247,-0.016498142676532976,0.003800877379154244,0.010865584267829576,-0.03444941330610119,0.005183233317129776,0.009062303998041976,-0.0350114145311501,0.0,70.0,255.0,255.0,255.0
21,1.05,7.502000497558232,-1.4942508175410965,-0.01826429144804719,0.004059872969675027,0.01130834244560841,-0.03619268794257526,0.004946841267994273,0.008963850423682196,-0.03483566865751936,0.0,70.0,255.0,255.0,255.0
22,1.1,7.502209784398557,-1.4936743560752639,-0.020117411470790502,0.004295561505953671,0.011761969310197795,-0.03793298017185313,0.004365089960245427,0.009380332359198995,-0.03485083712000507,0.0,70.0,255.0,255.0,255.0
23,1.1500000000000001,7.502430053708827,-1.4930746206100767,-0.022057589465232504,0.00449638196569957,0.01224637568152831,-0.03967777165457577,0.0036657185172650486,0.010083117608128411,-0.034978079092728986,0.0,70.0,255.0,255.0,255.0
24,1.2000000000000002,7.502659422595127,-1.492449718507111,-0.02408518863624808,0.004662133357680176,0.012770281071010636,-0.041430788081126026,0.003075744285130355,0.01084290434916202,-0.03513895916988016,0.0,70.0,255.0,255.0,255.0
25,1.25,7.502896267044595,-1.4917975925029756,-0.026200668273345107,0.004803956394212605,0.013330666116444512,-0.043191667571563785,0.0028214829523420804,0.011429036325028008,-0.03524913400212194,0.0,70.0,255.0,255.0,255.0
26,1.3,7.503139818234549,-1.4911166518954666,-0.028404355393404458,0.004944281652914384,0.013913184703513437,-0.04495570148133822,0.003017717169928602,0.011710467974657135,-0.03526116812028156,0.0,70.0,255.0,255.0,255.0
27,1.35,7.5033906952098866,-1.4904062740326243,-0.03069623842147893,0.005105728111205465,0.014501712913910225,-0.04671778438359194,0.003559413973075465,0.011726243503096256,-0.035201963509168266,0.0,70.0,255.0,255.0,255.0
28,1.4000000000000001,7.503650391045669,-1.4896664806040756,-0.03307613383176365,0.0053002230502219305,0.015085809053823063,-0.04847589783225505,0.004233869552550118,0.011578572830406308,-0.0351271959964778,0.0,70.0,255.0,255.0,255.0
29,1.4500000000000002,7.503920717514909,-1.488897693127242,-0.035543828204704433,0.005529115066460477,0.015659570196950856,-0.05023050398323972,0.0048307399378444416,0.011359561985724298,-0.03508689904061155,0.0,70.0,255.0,255.0,255.0
30,1.5,7.504203302552315,-1.4881005235843805,-0.038099184230087624,0.005783297044006375,0.016221765252395492,-0.0519845877363162,0.005146872169969896,0.011161504081980134,-0.03514002148833212,0.0,70.0,255.0,255.0,255.0
31,1.55,7.504499047219309,-1.4872755166020024,-0.040742286978336054,0.006043802283457467,0.01677572060514887,-0.05374450613207293,0.005075716625757565,0.011040338283963003,-0.035312945574642735,0.0,70.0,255.0,255.0,255.0
32,1.6,7.504807682780661,-1.4864229515238656,-0.04347363484329492,0.006290868706582131,0.017325799080791793,-0.055515882293780475,0.0046826620724971235,0.010993761227351406,-0.03554130884332318,0.0,70.0,255.0,255.0,255.0
33,1.6500000000000001,7.505128134089968,-1.4855429366939232,-0.0462938752077141,0.006512068490707179,0.01787509672788401,-0.05729863701640525,0.004113395346649895,0.011004362631927833,-0.035713136921357996,0.0,70.0,255.0,255.0,255.0
34,1.7000000000000002,7.505458889629732,-1.4846354418510772,-0.04920349854493544,0.006702208241247121,0.018426235343984576,-0.059087195985916274,0.003514582677333067,0.01106504817411924,-0.03572015795439004,0.0,70.0,255.0,255.0,255.0
35,1.75,7.505798354914092,-1.4837003131595248,-0.05220259480630573,0.006863526758440486,0.018981601545295934,-0.060870652811844256,0.003027019043777557,0.011176975319027171,-0.03544280801657876,0.0,70.0,255.0,255.0,255.0
36,1.8,7.506145242305576,-1.4827372816965476,-0.05529056382611987,0.007004910145624876,0.019543932875887293,-0.06263147678757415,0.002732190220022801,0.011334892176462219,-0.03483325004734472,0.0,70.0,255.0,255.0,255.0
37,1.85,7.506498845928655,-1.481745919871936,-0.058465742485063144,0.007136745780442766,0.020115090762942156,-0.06435397781657873,0.0026263013733540674,0.01149871158754312,-0.03403457267930968,0.0,70.0,255.0,255.0,255.0
38,1.9000000000000001,7.50685891688362,-1.4807257726202534,-0.06172596160777774,0.007267540282960283,0.020693804034641605,-0.06603493405550512,0.0026770245847629326,0.011603976641616498,-0.03329932391716306,0.0,70.0,255.0,255.0,255.0
39,1.9500000000000002,7.507225599956951,-1.4796765394684719,-0.06506923589061366,0.007404448238919059,0.021275488427103806,-0.06768391020829503,0.0028504165332066123,0.011586958604459241,-0.03287852974789146,0.0,70.0,255.0,255.0,255.0
40,2.0,7.507599361707512,-1.478598223777543,-0.06849435262860724,0.007552581936280944,0.02185249989508753,-0.06932278703029426,0.0031010423313659885,0.011382622613931304,-0.033028699825299324,0.0,70.0,255.0,255.0,255.0
41,2.0500000000000003,7.507980858150579,-1.4774912894789631,-0.07200151459364308,0.007714552472055658,0.022413750688496936,-0.07098678019082497,0.0033965481344822024,0.0109662934764998,-0.03386165330357821,0.0,70.0,255.0,255.0,255.0
42,2.1,7.508370816954717,-1.4763568487086933,-0.07559303064768974,0.007892236749729165,0.02294912924273751,-0.07270895236065208,0.003731293272934977,0.01041316398444625,-0.035154153353192386,0.0,70.0,255.0,255.0,255.0
43,2.15,7.508770081825552,-1.4751963765546894,-0.07927240982970829,0.008087681799349156,0.02345506708694156,-0.0745021955261442,0.004097667153413198,0.009858798400519397,-0.03649413617455993,0.0,70.0,255.0,255.0,255.0
44,2.2,7.509179585134652,-1.4740113419999992,-0.08304325020030416,0.008302003465070484,0.02393500908278945,-0.07635836597810808,0.004478063544599564,0.009439891300733194,-0.037466888555215405,0.0,70.0,255.0,255.0,255.0
45,2.25,7.509600282172059,-1.4728028756464104,-0.0869082464275191,0.008535488153809112,0.02439905621701488,-0.07824888438166575,0.004872774335318297,0.009284515577245855,-0.03766644862627788,0.0,70.0,255.0,255.0,255.0
46,2.3000000000000003,7.510033133950033,-1.4715714363782977,-0.09086813863847074,0.008789280898602314,0.024863460640514035,-0.08012501084073587,0.005274903955410082,0.009453733451247892,-0.036899250957456164,0.0,70.0,255.0,255.0,255.0
47,2.35,7.510479210261919,-1.470316529582359,-0.09492074751159268,0.00906297854935012,0.02534442956213967,-0.08193880947741136,0.005611229497048953,0.009884156950468181,-0.03540046891957194,0.0,70.0,255.0,255.0,255.0
48,2.4000000000000004,7.510939431804968,-1.4690369934220837,-0.09906201958621187,0.00935040384830721,0.025851876335560853,-0.08366505773269306,0.005769602838157084,0.010444466119974294,-0.033634154694620055,0.0,70.0,255.0,255.0,255.0
49,2.45,7.51141425064675,-1.467731341948803,-0.10328725328486199,0.009639938833165829,0.0263888761741371,-0.08530222494687337,0.005650755861541512,0.010993989012830774,-0.03207275053009051,0.0,70.0,255.0,255.0,255.0
50,2.5,7.511903425688285,-1.46639810580467,-0.10759224208089921,0.00991547943446136,0.02695127523684393,-0.08687233278570211,0.005155925595534683,0.011391296428930886,-0.03116946837355833,0.0,70.0,255.0,255.0,255.0
51,2.5500000000000003,7.512405798590196,-1.4650362144251186,-0.1119744865634322,0.010155531392719297,0.027528005817030188,-0.0884191717842292,0.004255724156365659,0.011559285539131103,-0.031161203006462024,0.0,70.0,255.0,255.0,255.0
52,2.6,7.512918978827557,-1.463645305222967,-0.11643415925932213,0.010341051850097926,0.02810720379075704,-0.08998845308634831,0.003106399462105003,0.011533844577660268,-0.03191045115499558,0.0,70.0,255.0,255.0,255.0
53,2.6500000000000004,7.513439903775206,-1.4622254940460429,-0.12097333187206703,0.010466171338929797,0.028681390274796215,-0.09161021689972876,0.0019838282534934137,0.01139886159509107,-0.03310276486046815,0.0,70.0,255.0,255.0,255.0
54,2.7,7.51396559596145,-1.4607771661954874,-0.125595180949295,0.010539434675447268,0.029247089950266147,-0.09329872957239513,0.0011706612602857547,0.011237952181519795,-0.03441553589784985,0.0,70.0,255.0,255.0,255.0
55,2.75,7.5144938472427505,-1.4593007850510162,-0.13030320482930655,0.010583237464958373,0.029805185492948194,-0.09505177048951374,0.0009395139584533752,0.01114228005891782,-0.03553968720349937,0.0,70.0,255.0,255.0,255.0
56,2.8000000000000003,7.515023919707946,-1.4577966476461925,-0.13510035799824638,0.010633386071292605,0.03036131795615793,-0.09685269829274507,0.0014165117741882227,0.011161898284961502,-0.03629090205165275,0.0,70.0,255.0,255.0,255.0
57,2.85,7.51555718584988,-1.4562646532554004,-0.13998847465858105,0.010724888642377195,0.030921375321444344,-0.09868086069467902,0.0024342216060624366,0.01125953233811483,-0.03664593158866081,0.0,70.0,255.0,255.0,255.0
58,2.9000000000000004,7.516096408572183,-1.454704510114048,-0.14496844406771428,0.010876808231898849,0.03148727118996941,-0.10051729145161115,0.0036623568744786894,0.011361859061542745,-0.036624063252801986,0.0,70.0,255.0,255.0,255.0
59,2.95,7.51664486667307,-1.4531159261364035,-0.15004020380374217,0.011091124329825064,0.03205756122759862,-0.10234326701995922,0.004754338024692828,0.011407116013972818,-0.03623993105333345,0.0,70.0,255.0,255.0,255.0
60,3.0,7.517205521005166,-1.4514987539912882,-0.1552027707697102,0.011352242034368132,0.032627982791366694,-0.10414128455694449,0.005362009246745458,0.011343639279481899,-0.03550777348841627,0.0,70.0,255.0,255.0,255.0
61,3.0500000000000003,7.5177800908765064,-1.4498531278572668,-0.16045433225943662,0.01162732525449961,0.03319192515554681,-0.10589404436880084,0.005305454854287461,0.011146035073927862,-0.03446642421815471,0.0,70.0,255.0,255.0,255.0
62,3.1,7.518368253530616,-1.4481795614757336,-0.1657921752065903,0.011882787519796878,0.03374258629875948,-0.10758792697875996,0.004725758402912561,0.010829797631628502,-0.03326750081205365,0.0,70.0,255.0,255.0,255.0
63,3.1500000000000004,7.518968369628486,-1.4464788692273909,-0.1712131249573126,0.012099901094790866,0.03427490491870966,-0.10922079445000621,0.003916860798724997,0.0104327697577844,-0.032162660450010816,0.0,70.0,255.0,255.0,255.0
64,3.2,7.519578243640095,-1.4447520709838626,-0.1767142546515909,0.012274473599669378,0.03478586327453792,-0.11080419302376104,0.003172359600700503,0.009993070941982651,-0.03142268860676645,0.0,70.0,255.0,255.0,255.0
65,3.25,7.520195816988453,-1.443000282899937,-0.18229354425968872,0.012417137054860916,0.035274212012907924,-0.11236306331068285,0.0027883931102756776,0.009527172147172358,-0.03131723749084936,0.0,70.0,255.0,255.0,255.0
66,3.3000000000000003,7.520819957345581,-1.4412246497825718,-0.1879505609826592,0.012553312910696945,0.035738580489255156,-0.11393591677284598,0.0029210161293313774,0.009053961419391854,-0.031964426716757366,0.0,70.0,255.0,255.0,255.0
67,3.35,7.521451148279523,-1.4394264248510116,-0.19368713593697331,0.012709238667794054,0.03617960815484711,-0.11555950598235859,0.003456404455981499,0.00865857317280394,-0.03315511411417782,0.0,70.0,255.0,255.0,255.0
68,3.4000000000000004,7.52209088121236,-1.437606688967087,-0.19950651158089505,0.012898953356295095,0.03660443780653555,-0.11725142818426376,0.004157379416724893,0.008469765870033896,-0.03449256767441844,0.0,70.0,255.0,255.0,255.0
69,3.45,7.522741043615152,-1.435765981070358,-0.2054122787553997,0.013124976609466543,0.0370265847418505,-0.11900876274980043,0.004795850612016039,0.00860717364437047,-0.03556376673405637,0.0,70.0,255.0,255.0,255.0
70,3.5,7.523403378873307,-1.433904030492902,-0.2114073878558751,0.0133785384174967,0.0374651551709726,-0.1208078048576694,0.0051524835800620394,0.009199606863785625,-0.035951295196198774,0.0,70.0,255.0,255.0,255.0
71,3.5500000000000003,7.524078897456902,-1.4320194655532608,-0.21749305924116663,0.013640224967472747,0.03794654542822906,-0.12260389226942031,0.005110620488846251,0.010286231136813484,-0.03544929548823794,0.0,70.0,255.0,255.0,255.0
72,3.6,7.524767401370054,-1.4301093759500791,-0.22366777708281713,0.013889600466381324,0.038493778284653946,-0.12435273440649319,0.0047340316990052145,0.011653298954716895,-0.03428285858206037,0.0,70.0,255.0,255.0,255.0
73,3.6500000000000004,7.52546785750354,-1.4281700877247954,-0.22992833268181595,0.014113628137373269,0.03911187532370075,-0.12603217812762635,0.004168213608846116,0.012928260002142977,-0.032896253001510334,0.0,70.0,255.0,255.0,255.0
74,3.7,7.526178764183792,-1.426198188417709,-0.23627099489557976,0.014306421827265936,0.03978660428486824,-0.12764235970664423,0.0035575246646324388,0.013733199515164607,-0.03173539131016978,0.0,70.0,255.0,255.0,255.0
75,3.75,7.526898499686267,-1.4241914272963085,-0.24269256865248037,0.014469380603836512,0.04048519527521721,-0.12920571725864333,0.003037663245475386,0.013690437693725244,-0.031245507132265926,0.0,70.0,255.0,255.0,255.0
76,3.8000000000000003,7.527625702244175,-1.4221496688901873,-0.2491915666214441,0.014610188151813475,0.04115564805424077,-0.13076691041987082,0.0026892758084429147,0.012633002145334693,-0.03165153818340538,0.0,70.0,255.0,255.0,255.0
77,3.85,7.528359518501448,-1.4200758624908845,-0.25576925969446745,0.014738308184680804,0.04174849548975068,-0.13237087107698386,0.0025238323844156696,0.010858953619075074,-0.032742635706781154,0.0,70.0,255.0,255.0,255.0
78,3.9000000000000004,7.529099533062643,-1.4179748193412123,-0.2624286537291425,0.014862571390255042,0.042241543416148275,-0.13404117399054893,0.002534241671448001,0.008928988993250897,-0.03409323617040161,0.0,70.0,255.0,255.0,255.0
79,3.95,7.5298457756404735,-1.4158517081492696,-0.26917337709352235,0.014991732351825604,0.04264139438907577,-0.13578019469402403,0.0027135379083276234,0.007418349973153937,-0.03528152117210359,0.0,70.0,255.0,255.0,255.0
80,4.0,7.530598706297826,-1.4137106799023047,-0.2760066731985449,0.015133925181087804,0.04298337841346367,-0.1375693261077593,0.0030528541143048926,0.006902605065328693,-0.035898750866764084,0.0,70.0,255.0,255.0,255.0
81,4.05,7.531359168158582,-1.4115533703079233,-0.2829303097042983,0.015297017763256093,0.04333165489560864,-0.13937006978070043,0.0035333019194006,0.007662133242281044,-0.03573140492498239,0.0,70.0,255.0,255.0,255.0
82,4.1000000000000005,7.5321284080741515,-1.4093775144127438,-0.2899436801766149,0.015487255373027864,0.04374959173769177,-0.14114246660025753,0.004089799603068656,0.009375595193472641,-0.03491741444168195,0.0,70.0,255.0,255.0,255.0
83,4.15,7.532907893695885,-1.407178411134154,-0.29704455636432403,0.01570599772356296,0.044269214414955904,-0.14286181122486863,0.004613980544121432,0.011410236239361993,-0.03375998646609202,0.0,70.0,255.0,255.0,255.0
84,4.2,7.533699007846508,-1.4049505929712482,-0.3042298612991018,0.015948653427440007,0.04489061536162797,-0.14451846524686673,0.004989349341411042,0.013127479846475332,-0.03256509742795566,0.0,70.0,255.0,255.0,255.0
85,4.25,7.534502759038629,-1.4026893495979913,-0.3114964028890107,0.016204932657704063,0.04558196239960344,-0.1461183209676642,0.005106910973040613,0.01389522596106918,-0.031631470752635504,0.0,70.0,255.0,255.0,255.0
86,4.3,7.535319501112278,-1.400392396731288,-0.3188416933958682,0.01645934452474407,0.04628013795773489,-0.14768161232213028,0.0049170036956702745,0.013392031319003905,-0.031128389902218556,0.0,70.0,255.0,255.0,255.0
87,4.3500000000000005,7.5361486934911035,-1.3980613358022178,-0.32626456412122373,0.01669663302727109,0.04692116553150383,-0.14923115995788605,0.004481444728732242,0.01189488938324601,-0.031020433799244795,0.0,70.0,255.0,255.0,255.0
88,4.4,7.536989164415005,-1.3957002801781375,-0.3337648093916568,0.016907488997617293,0.04746962689605949,-0.15078365570205476,0.003926199787862572,0.00997384227319209,-0.03119576901418064,0.0,70.0,255.0,255.0,255.0
89,4.45,7.537839442390865,-1.3933143731126119,-0.3413429296914292,0.017089253006057348,0.04791854975882304,-0.15235073685930411,0.003388551903604764,0.008198164207251502,-0.03154377676176656,0.0,70.0,255.0,255.0,255.0
90,4.5,7.538698089715611,-1.3909084252022552,-0.3489998830775872,0.01724634418797777,0.04828944331678464,-0.15393803337823142,0.0030075206410629107,0.007120407174276977,-0.0319393754466768,0.0,70.0,255.0,255.0,255.0
91,4.55,7.539564076809663,-1.3884854287809334,-0.35673673302925235,0.01739000507016364,0.048630590476250735,-0.1555446744039718,0.002858170480024569,0.007035662227750095,-0.0323032872143969,0.0,70.0,255.0,255.0,255.0
92,4.6000000000000005,7.540437090222627,-1.3860453661546301,-0.3645543505179844,0.017532161235980226,0.04899300953955965,-0.1571683620996711,0.0029007851182427657,0.007790395059115163,-0.03264094360146408,0.0,70.0,255.0,255.0,255.0
93,4.65,7.541317292933261,-1.3835861278269774,-0.37245356923921946,0.017680083581987915,0.04940962998216225,-0.1588087687641182,0.003045695827097461,0.009029686043238172,-0.03297432675453682,0.0,70.0,255.0,255.0,255.0
94,4.7,7.542205098580826,-1.381104403156414,-0.3804352273943962,0.017836730818689972,0.04989597814388347,-0.1604657947751248,0.0032026435103027495,0.010399490364076946,-0.033307907413065996,0.0,70.0,255.0,255.0,255.0
95,4.75,7.54310096601513,-1.378596530012589,-0.38850014871673194,0.01800034793301819,0.050449579018569946,-0.1621395595054248,0.0032710251113954314,0.011559182637710386,-0.03366296219259324,0.0,70.0,255.0,255.0,255.0
96,4.800000000000001,7.544005133374128,-1.376059445254557,-0.3966491833449387,0.018163833329829515,0.05105189640765451,-0.16383209099438412,0.0031975404925610462,0.012306998091737853,-0.034045034666840834,0.0,70.0,255.0,255.0,255.0
97,4.8500000000000005,7.544917349348113,-1.3734913403718236,-0.40488335781617035,0.018320101982274295,0.05168027882774373,-0.16554406297210889,0.003036347198559497,0.012631735508605857,-0.03437849575763652,0.0,70.0,255.0,255.0,255.0
98,4.9,7.5458371435723555,-1.3708914173717826,-0.4132035896421496,0.018467468049685465,0.05231506995851509,-0.16726994057014777,0.0028892453401319074,0.01257669094314462,-0.0345442200049062,0.0,70.0,255.0,255.0,255.0
99,4.95,7.5467640961530815,-1.3682598333759721,-0.42161035187318513,0.018609026516287486,0.05293794792205819,-0.1689984849725995,0.0028479603028763734,0.012178699511178337,-0.034438020159410776,0.0,70.0,255.0,255.0,255.0
100,5.0,7.547698046223984,-1.3655976225795767,-0.43010343813940954,0.018752264079973102,0.053532939909632926,-0.17071374258608885,0.0030043229709342256,0.011478852950719265,-0.03395684105101382,0.0,70.0,255.0,255.0,255.0
101,5.050000000000001,7.548639322561079,-1.3629065393850088,-0.438681726131794,0.01890945881338091,0.05408583321713012,-0.1723941690777009,0.0033987537965352033,0.010527580836572348,-0.03306846223012361,0.0,70.0,255.0,255.0,255.0
102,5.1000000000000005,7.549588992105322,-1.3601890392578637,-0.44734285504717963,0.019092139459626623,0.05458569799329016,-0.1740205888091012,0.00395205452470293,0.00944434122838178,-0.0319276840906213,0.0,70.0,255.0,255.0,255.0
103,5.15,7.5505485365070415,-1.3574479695856798,-0.45608378501270413,0.0193046642658512,0.0550302673399683,-0.17558693748676302,0.004518255213081801,0.008425228505726245,-0.030808699985684918,0.0,70.0,255.0,255.0,255.0
104,5.2,7.551519458531907,-1.354686012523867,-0.46490154879585593,0.019543964980934803,0.055428220843862785,-0.1771014588076697,0.004952741385899628,0.007683660309032447,-0.029991760201036888,0.0,70.0,255.0,255.0,255.0
105,5.25,7.552502933005135,-1.3519051475012935,-0.4737939308934711,0.019799938404441164,0.05579863337087154,-0.1785861135068667,0.005119701653466535,0.007413424207558528,-0.02974566427937364,0.0,70.0,255.0,255.0,255.0
106,5.300000000000001,7.5534994523723515,-1.3491061491867797,-0.4827601601465426,0.020055935146281456,0.05616956326461864,-0.18007602523560706,0.004953644787608624,0.007703704202910444,-0.030195428767015864,0.0,70.0,255.0,255.0,255.0
107,5.3500000000000005,7.554508526519763,-1.3462881911748317,-0.4918015334170318,0.020295302883202027,0.056569003791162586,-0.1816056563835683,0.004519910226807866,0.008461948528881713,-0.031181816830971876,0.0,70.0,255.0,255.0,255.0
108,5.4,7.555528982660672,-1.3434492488076635,-0.5009207257848994,0.020507926168962243,0.05701575811750681,-0.18319420691870425,0.003954097443514826,0.009489667761219955,-0.0323882527795305,0.0,70.0,255.0,255.0,255.0
109,5.45,7.556559319136659,-1.340586615363081,-0.5101209541089022,0.02069071262755351,0.05751797056728458,-0.18484448166152134,0.0034005613325227557,0.010567684893891816,-0.03348267796410287,0.0,70.0,255.0,255.0,255.0
110,5.5,7.557598053923427,-1.337697451750935,-0.5194051739510516,0.02084798230221452,0.05807252660689599,-0.18654247471511454,0.0030048890632627945,0.011491412923247957,-0.03413649250751938,0.0,70.0,255.0,255.0,255.0
111,5.550000000000001,7.558644117366881,-1.3347793627023914,-0.5287752015804137,0.02099120153387979,0.05866711185960938,-0.18825813091227328,0.002846154233271392,0.01213862799269716,-0.03417704880913641,0.0,70.0,255.0,255.0,255.0
112,5.6000000000000005,7.559697174076815,-1.331830740564974,-0.5382309870422789,0.021132597725541657,0.05928638940616571,-0.18996017959602818,0.0028846682044836314,0.012475137383116675,-0.03371409287461491,0.0,70.0,255.0,255.0,255.0
113,5.65,7.560757377139435,-1.3288507237617748,-0.5477712195400165,0.021279668354328152,0.059914625597921045,-0.19162954019973477,0.003029830536949163,0.012487149400364217,-0.032988405446277014,0.0,70.0,255.0,255.0,255.0
114,5.7,7.561825140912248,-1.325839278005182,-0.5573939410622524,0.021435580779236574,0.06053510434620213,-0.19325902014065588,0.0031912137506751037,0.01216662575669325,-0.03224461418950275,0.0,70.0,255.0,255.0,255.0
115,5.75,7.562900935217359,-1.3227972133271546,-0.5670971215540821,0.021598789729395662,0.06113128817359037,-0.19485400161868505,0.0032687607417258846,0.01150894274775105,-0.03173633771842432,0.0,70.0,255.0,255.0,255.0
116,5.800000000000001,7.5639850198851875,-1.319726149187823,-0.5768793412241209,0.021762456853409162,0.061685998620977234,-0.1964326539124983,0.0032089643859478656,0.010539732544012637,-0.031601923782154095,0.0,70.0,255.0,255.0,255.0
117,5.8500000000000005,7.5650771809026995,-1.3166286134650569,-0.5867403869453319,0.02191968616799045,0.062185261427991634,-0.19801419399690046,0.0030623493556092285,0.00939918025992803,-0.03175724290617188,0.0,70.0,255.0,255.0,255.0
118,5.9,7.5661769885019865,-1.3135076230450238,-0.5966807606238109,0.022068691788970085,0.06262591664697004,-0.1996083782031155,0.002924808846760385,0.00832341295915473,-0.032024372521521904,0.0,70.0,255.0,255.0,255.0
119,5.95,7.5672840500815965,-1.3103660218003599,-0.6067012247656435,0.022212167052666487,0.0630176027239071,-0.20121663124905265,0.002881669912913054,0.007563760797557606,-0.03223797949684082,0.0,70.0,255.0,255.0,255.0
120,6.0,7.568398205207253,-1.307205862772633,-0.6168024237487162,0.02235685878026139,0.0633822927267258,-0.20283217615279958,0.0030160120265243506,0.007360834733693977,-0.03223023121079471,0.0,70.0,255.0,255.0,255.0
121,6.050000000000001,7.569519735959623,-1.3040277925276873,-0.6269844423809234,0.022513768255318922,0.0637536861972765,-0.20443965437013212,0.0033650744688529244,0.007823467472189982,-0.03191539592247716,0.0,70.0,255.0,255.0,255.0
122,6.1000000000000005,7.570649582032785,-1.3008304941529054,-0.6372463891857294,0.022693366227146683,0.0641646394739448,-0.2060237157450473,0.003864162810529592,0.008799190528097078,-0.03137963946354683,0.0,70.0,255.0,255.0,255.0
123,6.15,7.571789072582337,-1.2976113285802928,-0.6475868139554282,0.02290018453637188,0.06463360525008621,-0.2075776183164868,0.004391866477515549,0.009986471490353033,-0.030791400504937005,0.0,70.0,255.0,255.0,255.0
124,6.2,7.572939600486422,-1.2943671336278968,-0.6580041510173781,0.023132552874898238,0.0651632866229801,-0.209102855795541,0.004829332705735823,0.011066069981069404,-0.030310041249559383,0.0,70.0,255.0,255.0,255.0
125,6.25,7.574102327869827,-1.2910949999179948,-0.6684970995349823,0.023383117806945464,0.06574021224819315,-0.21060862244144274,0.005075209800331493,0.011723708993249815,-0.0300826908182783,0.0,70.0,255.0,255.0,255.0
126,6.300000000000001,7.575277912267117,-1.2877931124030775,-0.6790650132615224,0.023640073854931387,0.06633565752230508,-0.21211112487736883,0.0050769382037962885,0.011793623674249964,-0.030183578775067055,0.0,70.0,255.0,255.0,255.0
127,6.3500000000000005,7.57646633525532,-1.2844614341657643,-0.6897082120227191,0.023890811627325093,0.06691957461561815,-0.21362698031894944,0.004845474926629123,0.011373101916856143,-0.030559723715251064,0.0,70.0,255.0,255.0,255.0
128,6.4,7.577666993429849,-1.2811011549415157,-0.7004277112934173,0.0241246213475943,0.0674729677139907,-0.21516709724889393,0.004424088880394805,0.01068081762964912,-0.031093661822401142,0.0,70.0,255.0,255.0,255.0
129,6.45,7.57887879739008,-1.2777141373943652,-0.7112249217476085,0.024333220515364573,0.06798765637858306,-0.21673634650118956,0.0038671997306671813,0.009939045525242385,-0.031662368325380275,0.0,70.0,255.0,255.0,255.0
130,6.5,7.580100315481386,-1.2743023893036574,-0.7221013459435363,0.024511341320661018,0.06846687226651493,-0.21833333408143196,0.0032231953919215073,0.009372301321119991,-0.032150986867973685,0.0,70.0,255.0,255.0,255.0
131,6.550000000000001,7.581329931522146,-1.2708674501677137,-0.7330582551557517,0.024655540054556724,0.06892488651069506,-0.21995144518798693,0.0025328603610930145,0.009107585616385805,-0.03249080179771324,0.0,70.0,255.0,255.0,255.0
132,6.6000000000000005,7.582565869486841,-1.2674099006525879,-0.744096490462335,0.02476462735677032,0.06937763082815351,-0.2215824142612033,0.0018720726812304633,0.009103833040091658,-0.03266510203923101,0.0,70.0,255.0,255.0,255.0
133,6.65,7.583806394257823,-1.2639296870848984,-0.7552164965818721,0.02484274732267977,0.06983526981470423,-0.22321795539191003,0.0013553211243966246,0.009256505077370747,-0.03266947668114639,0.0,70.0,255.0,255.0,255.0
134,6.7,7.585050144219109,-1.2604263736711174,-0.766418286001526,0.02490015946920998,0.07030328133589059,-0.22484936192931793,0.001094129443757197,0.009470148850287963,-0.03250099826940245,0.0,70.0,255.0,255.0,255.0
135,6.75,7.586296410204744,-1.2568993589513093,-0.7777014327748039,0.02495216026705549,0.07078228469973302,-0.22646805521885027,0.0011799806600265583,0.009647132342127662,-0.032157371033592064,0.0,70.0,255.0,255.0,255.0
136,6.800000000000001,7.587545360245815,-1.2533481452011441,-0.789065091523411,0.025018157535212637,0.07126799457010335,-0.22806509903267713,0.001646445526937157,0.00972997325421332,-0.031652188392972125,0.0,70.0,255.0,255.0,255.0
137,6.8500000000000005,7.588798225958265,-1.249772559494299,-0.8005079426780716,0.025116804819749206,0.07175528202515435,-0.22963327405814749,0.0024209196635816,0.009732498323855587,-0.0310607072889324,0.0,70.0,255.0,255.0,255.0
138,6.9,7.59005704072779,-1.2461726169986287,-0.8120284189292257,0.025260249501570797,0.07224124440248891,-0.23117116976157037,0.0033574238241129706,0.00969139049893375,-0.030509270613965356,0.0,70.0,255.0,255.0,255.0
139,6.95,7.591324250908422,-1.24254843505405,-0.8236250596542286,0.025452547202160503,0.07272442107504773,-0.23268420111954402,0.0042911076690188565,0.009634158607374488,-0.03013261295584657,0.0,70.0,255.0,255.0,255.0
140,7.0,7.592602295448006,-1.238900174891124,-0.8352968390411801,0.025689360268472683,0.07320466026322636,-0.23418443105715503,0.005072826024310473,0.009587141338518457,-0.030063538321567496,0.0,70.0,255.0,255.0,255.0
141,7.050000000000001,7.5938931869352695,-1.2352279690277275,-0.8470435027599441,0.02595982980459155,0.07368313520889958,-0.23569055495170077,0.005615157064831067,0.009565808080047589,-0.030360957450925596,0.0,70.0,255.0,255.0,255.0
142,7.1000000000000005,7.595198278428465,-1.231531861370234,-0.8588658945363502,0.02625087597495579,0.07416124107123112,-0.2372205268022476,0.005890588991253054,0.009566173664343758,-0.03092759328067185,0.0,70.0,255.0,255.0,255.0
143,7.15,7.596518274532765,-1.2278118449206044,-0.8707655554401689,0.026548888703716855,0.07463975257533395,-0.23878331427976796,0.005887804092452598,0.009577932926863042,-0.03157707722665215,0.0,70.0,255.0,255.0,255.0
144,7.2,7.597853167298837,-1.2240678861127006,-0.882744225964327,0.02683965638420105,0.07511903436391743,-0.2403782345249128,0.005608665987111294,0.009593216720271691,-0.03211577601438531,0.0,70.0,255.0,255.0,255.0
145,7.25,7.599202240171185,-1.2202999414842126,-0.8948033788926602,0.027109755302427985,0.07559907424736112,-0.2419948918812065,0.0050687618623257436,0.009604302303833911,-0.03235248500416121,0.0,70.0,255.0,255.0,255.0
146,7.300000000000001,7.6005641428290796,-1.2165079786879645,-0.9069437151524476,0.027346532570433624,0.07607946459430082,-0.24361348302532893,0.0042975882179163705,0.009606794425587317,-0.03219069509003969,0.0,70.0,255.0,255.0,255.0
147,7.3500000000000005,7.6019368934282285,-1.2126919950247825,-0.919164727195193,0.027539514124219622,0.07655975368991985,-0.24521396139021046,0.0033784026928884714,0.00960280701864935,-0.03171432751377656,0.0,70.0,255.0,255.0,255.0
148,7.4,7.6033180942415015,-1.2088520033189725,-0.9314651112914687,0.02768437283972247,0.07703974529616575,-0.24678491577670658,0.0024530381280030156,0.009596877793649483,-0.03109701255399333,0.0,70.0,255.0,255.0,255.0
149,7.45,7.604705330712201,-1.204988020495166,-0.9438432187728637,0.027784817937019923,0.0775194414692848,-0.2483236626456098,0.0016788903877795747,0.009592974511707375,-0.030517569699850533,0.0,70.0,255.0,255.0,255.0
150,7.5,7.6060965760352035,-1.201100059172044,-0.9562974775560297,0.02785226187850043,0.07799904274733649,-0.24983667274669163,0.001192173146602471,0.009595649446136889,-0.03016251233771694,0.0,70.0,255.0,255.0,255.0
151,7.550000000000001,7.607490556900051,-1.1971881162204323,-0.9688268860475329,0.02790403525168017,0.07847900641389849,-0.2513399138793815,0.0010617161696480082,0.009607014217460907,-0.030129036081727456,0.0,70.0,255.0,255.0,255.0
152,7.6000000000000005,7.6088869795603715,-1.1932521585306541,-0.9814314689439678,0.02795843349546523,0.07895974416908258,-0.2528495763548644,0.0012686207497836222,0.009622598261005422,-0.030331460300681012,0.0,70.0,255.0,255.0,255.0
153,7.65,7.610286400249597,-1.189292141803524,-0.9941118436830193,0.028030897326658533,0.07944126623999903,-0.2543730599094496,0.0017463837231446178,0.00963455589864104,-0.030599348081850053,0.0,70.0,255.0,255.0,255.0
154,7.7,7.611690069293037,-1.1853080319066542,-1.0068687749349128,0.02813307186777969,0.07992319975894668,-0.2559095111630494,0.0024095719962424766,0.00963488523293421,-0.03076685893912412,0.0,70.0,255.0,255.0,255.0
155,7.75,7.613099707436375,-1.1812998218276294,-1.0197027947993242,0.02827185452628278,0.08040475476329245,-0.257449745803362,0.0031784896062703183,0.009613099911609524,-0.03065751226495328,0.0,70.0,255.0,255.0,255.0
156,7.800000000000001,7.614517254745666,-1.177267556430325,-1.032613749515249,0.028450920828406723,0.08088450975010764,-0.2589752623895447,0.003990372277407062,0.009565148704648863,-0.030186587156522116,0.0,70.0,255.0,255.0,255.0
157,7.8500000000000005,7.615944799519216,-1.1732113708526186,-1.0456003210382787,0.028670891754023486,0.08136126963375734,-0.2604684045190142,0.004749911510870675,0.009506799937319954,-0.02948253524630573,0.0,70.0,255.0,255.0,255.0
158,7.9,7.617384343921068,-1.1691314294669493,-1.0586605899671504,0.02892591197949379,0.08183518974383963,-0.2619235159141753,0.005316112294728725,0.00946489861182176,-0.028782891155820778,0.0,70.0,255.0,255.0,255.0
159,7.95,7.618837390717165,-1.1650278518782347,-1.0717926726296962,0.02920250298349636,0.08230775949493951,-0.2633466936345963,0.005544360089171363,0.009467484556591188,-0.028314854683464397,0.0,70.0,255.0,255.0,255.0
160,8.0,7.620304594219418,-1.1609006535174553,-1.08499525933061,0.029480347988410927,0.08278193819949875,-0.2647550013825217,0.005293868427980186,0.009551950907327189,-0.028295364010366697,0.0,70.0,255.0,255.0,255.0
161,8.05,7.6217854255160065,-1.1567496580582848,-1.0982681727679484,0.029731889826294378,0.08326295458567223,-0.26617623003563295,0.004515256259196576,0.00973239096391243,-0.02882550107314863,0.0,70.0,255.0,255.0,255.0
162,8.1,7.623277783202047,-1.152574358058888,-1.1116128823341733,0.029931873614330584,0.08375517729589,-0.2676375514898366,0.0033770478916395064,0.00995020198963914,-0.0297721516278715,0.0,70.0,255.0,255.0,255.0
163,8.15,7.6247786128774395,-1.1483741403286958,-1.125031927916932,0.030069594615458328,0.08425797478463615,-0.2691534451984201,0.002186369894907614,0.01010584965404071,-0.03087365605936032,0.0,70.0,255.0,255.0,255.0
164,8.200000000000001,7.626284742663593,-1.1441485605804245,-1.1385282268540153,0.030150510603821346,0.08476576226129406,-0.2707249170957726,0.0012647358992090574,0.010101889827618393,-0.031861461254800716,0.0,70.0,255.0,255.0,255.0
165,8.25,7.627793663937822,-1.1398975641025664,-1.1521044196265093,0.030196068205379234,0.08526816376739799,-0.2723395913239002,0.0009260366820029731,0.00983112443118106,-0.0324810316935098,0.0,70.0,255.0,255.0,255.0
166,8.3,7.629304349484131,-1.1356217442036847,-1.1657621859864054,0.030243114272021643,0.08574887470441217,-0.2739730202651236,0.0013224022202606989,0.009251487905737044,-0.032598121837579264,0.0,70.0,255.0,255.0,255.0
167,8.35,7.630817975365024,-1.1313226766321252,-1.1795017216530217,0.030328308427405304,0.08619331255797169,-0.2755994035076581,0.002292013472260379,0.008494163665795362,-0.032276970130240557,0.0,70.0,255.0,255.0,255.0
168,8.4,7.632337180326871,-1.1270024129478875,-1.1933221263371712,0.03047231561924768,0.0865982910709917,-0.27720071727814766,0.0035074524133982266,0.007790770371074451,-0.03167437271860418,0.0,70.0,255.0,255.0,255.0
169,8.450000000000001,7.633865206926949,-1.122662847525026,-1.2072217933808365,0.030679053668745127,0.08697238959507914,-0.2787668407795185,0.004630635708480213,0.0073710167391549675,-0.03095930029759497,0.0,70.0,255.0,255.0,255.0
170,8.5,7.635405085693746,-1.1183051739883796,-1.221198810415123,0.030935379190095702,0.0873353927449072,-0.28029664730790715,0.005330003492876045,0.0074635047480065,-0.03031253718777105,0.0,70.0,255.0,255.0,255.0
171,8.55,7.636958744845958,-1.1139293082505353,-1.2352514581116272,0.03121205401803273,0.08771874006987979,-0.2817980944982956,0.005429074253626709,0.008169256480505815,-0.0298404731148727,0.0,70.0,255.0,255.0,255.0
172,8.6,7.638526291095549,-1.1095332999813916,-1.2493786198649526,0.03147828661545837,0.08815231839295778,-0.2832806946193944,0.00502394250849747,0.009306896260818931,-0.029517170647963553,0.0,70.0,255.0,255.0,255.0
173,8.65,7.640106573507504,-1.1051140764112395,-1.2635795275735666,0.03171444826888248,0.08864942969596168,-0.284749811563092,0.004333937001277377,0.01053563762638543,-0.029274167751602853,0.0,70.0,255.0,255.0,255.0
174,8.700000000000001,7.641697735922437,-1.1006683570117954,-1.2778536010212618,0.03191168031558611,0.08920588215559633,-0.2862081113945547,0.0035798075140647256,0.011508495430234689,-0.029053225667197147,0.0,70.0,255.0,255.0,255.0
175,8.75,7.643297741539063,-1.0961934881956799,-1.292200338713022,0.03207242902028895,0.08980027923898515,-0.2876551341298117,0.0029819213745341244,0.01188688454878406,-0.02877287549942764,0.0,70.0,255.0,255.0,255.0
176,8.8,7.644904978824466,-1.091688329087897,-1.306619114434243,0.03220987245303952,0.09039457061047473,-0.2890853989444975,0.002666848549903733,0.011504399925121866,-0.028393925096659167,0.0,70.0,255.0,255.0,255.0
177,8.85,7.646518728784367,-1.0871540311346324,-1.3211088786074718,0.032339113875279324,0.09095071923149733,-0.2904945266394776,0.002607647729657714,0.01052813474076153,-0.02801257571605209,0.0,70.0,255.0,255.0,255.0
178,8.9,7.648138890211994,-1.0825932571647472,-1.3356685670981907,0.032470637226005294,0.09144738408455089,-0.2918866565161027,0.0027230466685956856,0.009297634834526392,-0.02778988867584431,0.0,70.0,255.0,255.0,255.0
179,8.950000000000001,7.649765792506967,-1.0780092927261773,-1.350297544259082,0.03261141854213889,0.09188048271494997,-0.29327351550706204,0.0029425351671719113,0.008161062146072595,-0.027868169994138547,0.0,70.0,255.0,255.0,255.0
180,9.0,7.651400032066208,-1.0734052088932522,-1.364995918648897,0.032764890742722486,0.09226349029915815,-0.29467347351551654,0.00320235762822918,0.007460938408776485,-0.028395867574593225,0.0,70.0,255.0,255.0,255.0
181,9.05,7.653042281581239,-1.0687829436962615,-1.3797648916106338,0.03293165430496181,0.09262657655582762,-0.29611310226452137,0.0034574709403933923,0.007379204425062014,-0.029425225099855012,0.0,70.0,255.0,255.0,255.0
182,9.1,7.654693197496704,-1.0641425512376694,-1.394607228875349,0.033110637836761825,0.09300141074166435,-0.29761599602550204,0.003666398974733198,0.007811520486922241,-0.030749915764971547,0.0,70.0,255.0,255.0,255.0
183,9.15,7.6563533453649155,-1.059482802622095,-1.409526491213184,0.03329829420243513,0.09340772860451985,-0.2991880938410185,0.0037721047632999216,0.008523706485430438,-0.032006370784931626,0.0,70.0,255.0,255.0,255.0
184,9.200000000000001,7.658023026916948,-1.0548017783772174,-1.424526038259451,0.03348784831309182,0.09385378139020739,-0.3008166331039952,0.0037105646377710855,0.009280169738534738,-0.03282905939148151,0.0,70.0,255.0,255.0,255.0
185,9.25,7.659702130196225,-1.0500974244830743,-1.4396081545235835,0.03366935066621224,0.09433574557837332,-0.30247099978016667,0.0034086481116801792,0.00984138978805671,-0.0328596914985102,0.0,70.0,255.0,255.0,255.0
186,9.3,7.661389961983569,-1.0453682038193801,-1.4547731382374676,0.033828713124259835,0.09483792036901306,-0.3041026022538462,0.002842754866616559,0.010073234589080826,-0.031937062615705614,0.0,70.0,255.0,255.0,255.0
187,9.35,7.663085001508651,-1.040613632446173,-1.470018414748968,0.033953626152873895,0.0953430690372814,-0.30566470604173723,0.002128527934175395,0.010030352076051408,-0.030318483834523846,0.0,70.0,255.0,255.0,255.0
188,9.4,7.664785324598856,-1.035833896915652,-1.4853396088416413,0.034041565917677374,0.0958409555766182,-0.3071344506372986,0.0014676018789572254,0.0098412921375024,-0.02849642305620126,0.0,70.0,255.0,255.0,255.0
189,9.450000000000001,7.666489158100418,-1.0310295368885112,-1.500731859812698,0.03410038634076962,0.09632719825103164,-0.30851434834735736,0.0010612668877918452,0.00962585796744353,-0.026980627405137625,0.0,70.0,255.0,255.0,255.0
190,9.5,7.668195363232933,-1.0262011770905488,-1.516191043676377,0.03414769260645656,0.09680354137336256,-0.30983251337781237,0.0011030033035375197,0.00951345581887697,-0.02628135710736057,0.0,70.0,255.0,255.0,255.0
191,9.55,7.669903927361064,-1.021349182751175,-1.5317151111504792,0.03421068667112337,0.09727854383291934,-0.3111424840580934,0.0016791086597578442,0.009573917824812206,-0.026653097863871267,0.0,70.0,255.0,255.0,255.0
192,9.600000000000001,7.671616431900046,-1.0164733227072569,-1.5473052920821864,0.03431560347243234,0.09776093315584378,-0.3124978231641995,0.0026532422030989267,0.009746138808042204,-0.02784262908339663,0.0,70.0,255.0,255.0,255.0
193,9.65,7.673335487708307,-1.0115730894355905,-1.5629648934668992,0.03447601089143326,0.09825315771372356,-0.3139267469664331,0.003762056486689147,0.009912896526187431,-0.029341456803888555,0.0,70.0,255.0,255.0,255.0
194,9.700000000000001,7.675064032989189,-1.0066480069358845,-1.5786979667788297,0.03469180912110126,0.09875222280846252,-0.31543196884458835,0.004732106738991604,0.009969312144531006,-0.030635284134938878,0.0,70.0,255.0,255.0,255.0
195,9.75,7.676804668620417,-1.0016978671547443,-1.594508090351358,0.03494922156533242,0.09925008892817666,-0.31699027537992697,0.005299338672859477,0.00980884288049877,-0.031202945339892096,0.0,70.0,255.0,255.0,255.0
196,9.8,7.678558955145722,-0.9967229980430669,-1.6103969943168224,0.035221742988387206,0.0997331070965124,-0.31855226337857756,0.005327523780707111,0.009384007864621235,-0.030777911896007204,0.0,70.0,255.0,255.0,255.0
197,9.850000000000001,7.680326842919256,-0.991724556445093,-1.6263633166892157,0.03548197394340313,0.10018848971463878,-0.3200680665695277,0.004906615142274973,0.008786864253562676,-0.02960274808376795,0.0,70.0,255.0,255.0,255.0
198,9.9,7.682107152540063,-0.986704149071603,-1.6424038009737751,0.0357124045026147,0.10061179352186866,-0.32151253818695436,0.004236060286277876,0.008186189356806928,-0.02816516231587407,0.0,70.0,255.0,255.0,255.0
199,9.950000000000001,7.683898083369518,-0.9816633770929062,-1.6585145705079112,0.03590557997203092,0.10100710865031948,-0.3228845828011151,0.003523592869481007,0.007749667347134448,-0.026945182442106308,0.0,70.0,255.0,255.0,255.0
200,10.0,7.685697710537266,-0.976603438206571,-1.6746922592538867,0.036064763789562804,0.10138676025658211,-0.324207056431165,0.002979642004596883,0.00764315401104998,-0.026422758968736026,0.0,70.0,255.0,255.0,255.0
201,10.05,7.687504559748474,-0.971524701067248,-1.6909352761510277,0.03620354417249061,0.10177142405142448,-0.3255268586979887,0.0027230572893444105,0.007943850250569096,-0.026841688118395268,0.0,70.0,255.0,255.0,255.0
202,10.100000000000001,7.689318064954515,-0.9664262958014286,-1.7072449451236855,0.036337069518497245,0.10218114528163902,-0.3268912252430045,0.0027157284639756085,0.00854192865319403,-0.027975562730886416,0.0,70.0,255.0,255.0,255.0
203,10.15,7.691138266700324,-0.9613065865390841,-1.7236243986753281,0.03647511701888817,0.10262561691674388,-0.32832441497107734,0.0028599494546810433,0.009225982410343558,-0.02936870978340611,0.0,70.0,255.0,255.0,255.0
204,10.200000000000001,7.692965576656404,-0.9561637341097542,-1.7400773866207933,0.03662306446396535,0.10310374352267337,-0.3298280962213451,0.003065922714906577,0.009779244574281698,-0.03057083924342674,0.0,70.0,255.0,255.0,255.0
205,10.25,7.69480057314672,-0.9509962121868167,-1.7566072082974626,0.03678170929037883,0.10360354137417205,-0.33138149889542,0.00324213992897171,0.009982550399212364,-0.031138093377380827,0.0,70.0,255.0,255.0,255.0
206,10.3,7.6966437475854415,-0.945803379972337,-1.7732155365103353,0.03694727845686252,0.10410199856259461,-0.3329419055590832,0.00333418645599437,0.00972730441978209,-0.03084218877724698,0.0,70.0,255.0,255.0,255.0
207,10.350000000000001,7.698495300992406,-0.9405860123305573,-1.789901398853371,0.037115127935978265,0.10457627181615026,-0.3344657177731447,0.0033514034026183026,0.009130829059034173,-0.029865816843432924,0.0,70.0,255.0,255.0,255.0
208,10.4,7.700355260379039,-0.935345752790722,-1.8066621082876497,0.03728241879712435,0.10501508146849803,-0.3359284872434265,0.0033223703333362664,0.008424473076440453,-0.028589182699634286,0.0,70.0,255.0,255.0,255.0
209,10.450000000000001,7.702223542872119,-0.9300845041837075,-1.8234942475777136,0.03744736496931189,0.1054187191237943,-0.33732463604310814,0.003266515804778436,0.00783992778229381,-0.02739132072413497,0.0,70.0,255.0,255.0,255.0
210,10.5,7.7040999968759705,-0.9248038808783425,-1.8403945718919605,0.037609070377602194,0.10579907424672741,-0.33866761931584,0.003199770308004446,0.007610607096042443,-0.026644820901777777,0.0,70.0,255.0,255.0,255.0
211,10.55,7.705984449909879,-0.9195045967590347,-1.8573610095092976,0.037767342000112336,0.10617977983339855,-0.3399891181332859,0.0031334835999707877,0.007853505496946411,-0.026548904091794334,0.0,70.0,255.0,255.0,255.0
212,10.600000000000001,7.707876731075982,-0.9141859028950027,-1.8743934837052891,0.03792241873759927,0.10658442479642205,-0.34132250972501943,0.0030786579252151114,0.008449347185224276,-0.02699212560623998,0.0,70.0,255.0,255.0,255.0
213,10.65,7.709776691783639,-0.9088461542793925,-1.8914932604817996,0.03807520779263385,0.10702471455192097,-0.3426883306939099,0.0030505692120819106,0.009161533209289807,-0.02772444286818221,0.0,70.0,255.0,255.0,255.0
214,10.700000000000001,7.711684251855245,-0.9034834314398106,-1.9086623167746801,0.038227475658807464,0.10750057811735103,-0.34409495401183765,0.0030680140651995202,0.009754470869993703,-0.028496791613075168,0.0,70.0,255.0,255.0,255.0
215,10.75,7.71359943934952,-0.8980960964676574,-1.9259027558829833,0.0383820091991538,0.10800016163892034,-0.34553800985521743,0.00315877883894089,0.00999105851262616,-0.0290546509871481,0.0,70.0,255.0,255.0,255.0
216,10.8,7.7155224527751605,-0.8926834152759185,-1.9432161177602019,0.03854335354270155,0.10849968396861365,-0.34700041911055246,0.0033318791442304985,0.009752100165838495,-0.0292566470699418,0.0,70.0,255.0,255.0,255.0
217,10.850000000000001,7.71745377470379,-0.8872461280707961,-1.9606027977940386,0.03871519711357685,0.1089753716555042,-0.3484636745622116,0.003533964896274,0.00915719012541949,-0.029170249496424105,0.0,70.0,255.0,255.0,255.0
218,10.9,7.719393972486518,-0.8817858781103681,-1.978062485216423,0.03889675003232895,0.1094154029811556,-0.34991744406019487,0.003675352819954014,0.008443986161033035,-0.02894679874139161,0.0,70.0,255.0,255.0,255.0
219,10.950000000000001,7.721343449707023,-0.8763045877726805,-1.995594542200058,0.03908273239557225,0.1098197702716075,-0.3513583544363508,0.003668141220991572,0.007848762164386347,-0.028729111891090398,0.0,70.0,255.0,255.0,255.0
220,11.0,7.723302245726075,-0.8708039010832074,-2.013198320660058,0.03926356415442811,0.11020027919759423,-0.3527903552493039,0.0034171423066275963,0.0076091215573947935,-0.02867652852955871,0.0,70.0,255.0,255.0,255.0
221,11.05,7.725269806122466,-0.8652845598529211,-2.0308735777249884,0.03942444662623501,0.11058068242734698,-0.35422600728930664,0.0028852002891710526,0.00784466726632127,-0.02887056823464018,0.0,70.0,255.0,255.0,255.0
222,11.100000000000001,7.727244690388699,-0.8597458328404727,-2.0486209213889888,0.039552084183345215,0.11098474592422636,-0.35567741207276793,0.002187254051921883,0.00843648438763056,-0.029205944007193452,0.0,70.0,255.0,255.0,255.0
223,11.15,7.7292250145408,-0.8541860852604984,-2.0664413189322652,0.0396431720314272,0.11142433086611003,-0.357146601690026,0.0015270871082329052,0.009147930071928823,-0.029490133727927414,0.0,70.0,255.0,255.0,255.0
224,11.200000000000001,7.731209007591842,-0.8486033997538617,-2.0843355815579914,0.039704792894168506,0.11189953893141924,-0.35862642544556067,0.001105481657504015,0.009743907045944855,-0.029546387862167123,0.0,70.0,255.0,255.0,255.0
225,11.25,7.733195493830217,-0.8429961313673565,-2.1023039614768213,0.0397537201971776,0.11239872157070452,-0.3601012404762427,0.001112605313746684,0.009988492553758554,-0.029195318810826265,0.0,70.0,255.0,255.0,255.0
226,11.3,7.735184379611559,-0.8373635275967912,-2.1203457056056156,0.039816053425543174,0.1128983881867951,-0.3615459573266433,0.0016349187655251285,0.009762657342282655,-0.02836019421068592,0.0,70.0,255.0,255.0,255.0
227,11.350000000000001,7.737177099172771,-0.831706292548677,-2.1384585572094856,0.03991721207373011,0.11337498730493278,-0.3629372598973113,0.002550771810128083,0.009182280249542263,-0.027209517598292265,0.0,70.0,255.0,255.0,255.0
228,11.4,7.739176100818932,-0.826026028866298,-2.1566394315953468,0.04007113060655598,0.11381661621174932,-0.3642669090864725,0.0036208675121329748,0.008478885625951005,-0.026050801545052238,0.0,70.0,255.0,255.0,255.0
229,11.450000000000001,7.741184212233427,-0.8203246309275021,-2.174885248118133,0.04027929882494341,0.11422287586752788,-0.3655423400518165,0.004597671076300713,0.007882183078466998,-0.025190884445613904,0.0,70.0,255.0,255.0,255.0
230,11.5,7.743204030701427,-0.8146037412795452,-2.1931936656005284,0.040530897714186054,0.11460483451959602,-0.3667859975310339,0.0052524364384076705,0.007620870931424051,-0.024926158931171116,0.0,70.0,255.0,255.0,255.0
231,11.55,7.7452373020048455,-0.8088641474755425,-2.2115638478712363,0.04080454246878418,0.11498496296067029,-0.36803495594493363,0.00546183793508348,0.0078112767910254455,-0.025396253990450646,0.0,70.0,255.0,255.0,255.0
232,11.600000000000001,7.747284484948305,-0.8031052449834781,-2.229997161195022,0.0410770815076944,0.11538596219869857,-0.369325622930079,0.0052577705963230414,0.008348986688788695,-0.02642703455046913,0.0,70.0,255.0,255.0,255.0
233,11.65,7.749345010155615,-0.7973255512556726,-2.248496410164244,0.04133031952841648,0.11581986162954916,-0.37067765939998054,0.004741330955937428,0.009021935349695642,-0.027673932818972347,0.0,70.0,255.0,255.0,255.0
234,11.700000000000001,7.751417516901147,-0.7915232588205232,-2.26706492713502,0.041551214603288145,0.11628815573366813,-0.3720930162119762,0.0040238340364595615,0.009620787213704407,-0.028777813282987452,0.0,70.0,255.0,255.0,255.0
235,11.75,7.753500131615944,-0.7856967356823058,-2.285705711785442,0.04173270293206244,0.1167819403509196,-0.3735554407282793,0.0032096769042588846,0.009944061016564643,-0.02937603614050488,0.0,70.0,255.0,255.0,255.0
236,11.8,7.755590787194353,-0.7798450647854313,-2.3044204712078478,0.04187218229371403,0.1172825618353246,-0.3750306198260267,0.00237619103300446,0.00988566206689967,-0.029282015934972705,0.0,70.0,255.0,255.0,255.0
237,11.850000000000001,7.757687349845315,-0.7739684794987733,-2.3232087737680445,0.041970322035362884,0.11777050655760957,-0.37648364232177656,0.0016153486025238806,0.009507180920798053,-0.028651388488798446,0.0,70.0,255.0,255.0,255.0
238,11.9,7.759787819397889,-0.7680680141296703,-2.3420688354400254,0.04203371715396642,0.1182332799274044,-0.37789575867490655,0.0010591233492007746,0.008947965049943551,-0.027803583728980286,0.0,70.0,255.0,255.0,255.0
239,11.950000000000001,7.761890721560712,-0.7621451515060329,-2.360998349635535,0.04207623437028296,0.11866530306260392,-0.3792640006946746,0.0008454543151792393,0.008347954779941436,-0.02705823538273755,0.0,70.0,255.0,255.0,255.0
240,12.0,7.763995442834918,-0.7562014838234099,-2.379995235509493,0.042118262585484345,0.11906807540539854,-0.3806015822131803,0.0011088559448424462,0.007838875678323198,-0.026745640563019535,0.0,70.0,255.0,255.0,255.0
241,12.05,7.76610254781926,-0.750238343965493,-2.399058507856853,0.042187119964767206,0.11944919063043624,-0.38193856475097654,0.0018949363949971598,0.0074988488341087844,-0.02703502958940618,0.0,70.0,255.0,255.0,255.0
242,12.100000000000001,7.768214154831394,-0.7442565647603663,-2.4181890919845905,0.04230775622498406,0.11981796028880942,-0.3833050851721209,0.0030355203080922877,0.007338653264410411,-0.027761071167864415,0.0,70.0,255.0,255.0,255.0
243,12.15,7.770333323441759,-0.7382565479366121,-2.4373890163740652,0.042490671995576434,0.12018305595687728,-0.384714671867763,0.00422497285006429,0.007350679975082208,-0.028598911751798184,0.0,70.0,255.0,255.0,255.0
244,12.200000000000001,7.772463222030952,-0.7322382591646786,-2.456660559171367,0.04273025350999049,0.12055302828631764,-0.38616497634730074,0.005142600450813717,0.007526880845964978,-0.02923558551248817,0.0,70.0,255.0,255.0,255.0
245,12.25,7.774606348792758,-0.7262012451079803,-2.4760055140087953,0.043004932040657806,0.12093574404147378,-0.3876382304190118,0.005474899316482151,0.007856426946117878,-0.02936149484793482,0.0,70.0,255.0,255.0,255.0
246,12.3,7.776763715235018,-0.7201446847605312,-2.495424382213268,0.043277743441638705,0.12133867098092943,-0.3891011258320942,0.0050702638546340495,0.008319968237702202,-0.028824206033695177,0.0,70.0,255.0,255.0,255.0
247,12.350000000000001,7.778934123136922,-0.7140673780098874,-2.5149156265920047,0.04351195842612121,0.121767740865244,-0.3905206510223813,0.004092453615101022,0.008857366860715032,-0.02779150632674643,0.0,70.0,255.0,255.0,255.0
248,12.4,7.78111491107763,-0.7079679106740068,-2.534476447315506,0.04368698880314881,0.12222440766700093,-0.39188027646476886,0.002871940959270347,0.009368475888837935,-0.02659442893735431,0.0,70.0,255.0,255.0,255.0
249,12.450000000000001,7.7833028220172364,-0.7018449372431873,-2.5541036542384816,0.043799152522048246,0.1227045884541278,-0.39318009391611675,0.0017502044871164912,0.009745547477202354,-0.025565483173517478,0.0,70.0,255.0,255.0,255.0
250,12.5,7.785494826329835,-0.695697451828594,-2.573794456707118,0.043862009251860457,0.12319896241472117,-0.3944368247821206,0.001063528142619674,0.009891407213247216,-0.02503635207342647,0.0,70.0,255.0,255.0,255.0
251,12.55,7.7876890229424225,-0.6895250410017152,-2.5935473367166937,0.04390550533631021,0.12369372917545252,-0.3956837291234594,0.0009900687931718721,0.009760765394617454,-0.025174719702469872,0.0,70.0,255.0,255.0,255.0
252,12.600000000000001,7.789885376863466,-0.6833280789110487,-2.6133628296194638,0.043961016131177644,0.12417503895418291,-0.3969542967523676,0.0014256209424523547,0.009396354817170494,-0.02582479163688589,0.0,70.0,255.0,255.0,255.0
253,12.65,7.79208512455554,-0.6771075371062969,-2.6332427663919304,0.04404806743055545,0.12463336465716957,-0.398266208287148,0.00213714676178256,0.00889178010585745,-0.026671484386353583,0.0,70.0,255.0,255.0,255.0
254,12.700000000000001,7.794290183606521,-0.6708647424453318,-2.6531894504481786,0.0441747308073559,0.12506421696476866,-0.39962144519100296,0.0028894953531199974,0.008350416424796059,-0.02739590836697836,0.0,70.0,255.0,255.0,255.0
255,12.75,7.796502597636276,-0.66460111540982,-2.6732049109110307,0.04433701696586745,0.12546840629964917,-0.4010057991238458,0.0034430160853027303,0.007865962848907504,-0.027665124830855703,0.0,70.0,255.0,255.0,255.0
256,12.8,7.798723885303108,-0.6583179018153669,-2.693290030360563,0.04451903241588617,0.1258508132496594,-0.4023879576740885,0.003663913187423873,0.007496457363265208,-0.02731085455058846,0.0,70.0,255.0,255.0,255.0
257,12.850000000000001,7.8009545008778645,-0.6520160340848541,-2.7134437066784396,0.044703408284609836,0.1262180520359757,-0.40373688457890466,0.0036096313809963476,0.007273577507005413,-0.026515667451665337,0.0,70.0,255.0,255.0,255.0
258,12.9,7.803194226131569,-0.6456960966117693,-2.7336637188184536,0.04487999555398581,0.12657817100035995,-0.40503952441925506,0.0034132249070673026,0.0072288792121844025,-0.02563245402944503,0.0,70.0,255.0,255.0,255.0
259,12.950000000000001,7.805442500433263,-0.6393582169848181,-2.753947659120365,0.045044730775316566,0.12694093995719413,-0.40630012998184917,0.0031994131663992675,0.00739227400315956,-0.02500454303260291,0.0,70.0,255.0,255.0,255.0
260,13.0,7.807698699209101,-0.6330020026160499,-2.7742937318166385,0.045199936870625734,0.1273173984006759,-0.40753997872251535,0.0031043608960779068,0.007800732067075877,-0.024983055363803075,0.0,70.0,255.0,255.0,255.0
261,13.05,7.809962494120326,-0.6266264771447505,-2.7947016569926166,0.04535516686492436,0.12772101316390172,-0.4087984355182295,0.0032003390640689133,0.008454430793247703,-0.02573552176898808,0.0,70.0,255.0,255.0,255.0
262,13.100000000000001,7.812234215895593,-0.6202299012996597,-2.8151735753684615,0.045519970777032626,0.12816284148000068,-0.41011353089941416,0.0034149211330714024,0.009228495994029196,-0.027025359068577615,0.0,70.0,255.0,255.0,255.0
263,13.15,7.814514491198029,-0.6138101929967504,-2.835713010082558,0.0456966589782315,0.12864386276330464,-0.41150097142508724,0.0036117251712930454,0.00991186388461518,-0.028405039821777223,0.0,70.0,255.0,255.0,255.0
264,13.200000000000001,7.816803881793416,-0.6073655150233292,-2.85632367251097,0.04588114329416193,0.1291540278684622,-0.4129540348815919,0.0036657657334515648,0.010288226490340335,-0.029433285470314985,0.0,70.0,255.0,255.0,255.0
265,13.25,7.819102605527445,-0.6008947902099042,-2.8770084135707172,0.04606323555157665,0.12967268541233867,-0.41444429997211873,0.0034435962743550874,0.010139127530817138,-0.02967873763037865,0.0,70.0,255.0,255.0,255.0
266,13.3,7.821410205348574,-0.5943982464820954,-2.897768102508182,0.04622550292159744,0.1301679406215439,-0.41592190864462975,0.002887644310334281,0.009371507109356969,-0.028932885879218162,0.0,70.0,255.0,255.0,255.0
267,13.350000000000001,7.823725155819605,-0.5878779961477498,-2.91860060443518,0.04635199998261008,0.13060983612327437,-0.41733758856004055,0.002132455648951037,0.008178685603099645,-0.02743455128522143,0.0,70.0,255.0,255.0,255.0
268,13.4,7.826045405346835,-0.581337262869768,-2.939501861364186,0.04643874848649254,0.13098580918185387,-0.4186653637731519,0.0014189420056709423,0.006919096484869769,-0.025657409993407043,0.0,70.0,255.0,255.0,255.0
269,13.450000000000001,7.828369030668254,-0.5747794152295644,-2.9604671408124954,0.046493894183177176,0.13130174577176135,-0.41990332955938126,0.0009835845055761183,0.005960367821078449,-0.024081149585208905,0.0,70.0,255.0,255.0,255.0
270,13.5,7.830694794765153,-0.5682070882925918,-2.9814921943201242,0.046537106937050154,0.13158184596396172,-0.4210734787316728,0.0010612073872096062,0.005670729837581323,-0.02316595681883804,0.0,70.0,255.0,255.0,255.0
271,13.55,7.833022741361959,-0.5616212306331683,-3.0025744886856627,0.046600014921898136,0.13186881875551948,-0.42221992524126506,0.0017566827622772507,0.00622662701630361,-0.02315279485407551,0.0,70.0,255.0,255.0,255.0
272,13.600000000000001,7.835354796257342,-0.5550202064170399,-3.0237141868442508,0.04671277521327788,0.13220450866559208,-0.42338875821708033,0.0028890091850364286,0.0074068781436675835,-0.023902915976847794,0.0,70.0,255.0,255.0,255.0
273,13.65,7.837694018883287,-0.5484007797666091,-3.0449133645073707,0.04688891584040178,0.13260950656988624,-0.42461021683894984,0.004117075569975981,0.008780794465046426,-0.025098840018022983,0.0,70.0,255.0,255.0,255.0
274,13.700000000000001,7.840043687841383,-0.5417592557600512,-3.0661752085281457,0.04712448277027548,0.13308258811209672,-0.42589864221888263,0.005094348458545284,0.009910954906011682,-0.0264155427621926,0.0,70.0,255.0,255.0,255.0
275,13.75,7.842406467160314,-0.5350925209553994,-3.087503228729259,0.04739835068625631,0.1336006020604874,-0.4272517711151691,0.0054836021498694265,0.010357999738852541,-0.02754144441832196,0.0,70.0,255.0,255.0,255.0
276,13.8,7.844783522910008,-0.5283991955540025,-3.1089003856396626,0.04767284298526242,0.13411838808598198,-0.4286527866607148,0.005118538393311667,0.009902124685556846,-0.02829089973976906,0.0,70.0,255.0,255.0,255.0
277,13.850000000000001,7.847173751458841,-0.5216806821468012,-3.1303685073953305,0.047910204525587474,0.1345908145290431,-0.430080861089146,0.004161391060097941,0.0087646176731071,-0.028641989935440648,0.0,70.0,255.0,255.0,255.0
278,13.9,7.849574543362567,-0.5149401141010982,-3.1519084717485772,0.048088982091272214,0.1349948498532927,-0.4315169856542589,0.002943711424752138,0.007386909804141251,-0.02861650732368659,0.0,70.0,255.0,255.0,255.0
279,13.950000000000001,7.851982649667968,-0.5081811971614719,-3.1735202059607563,0.04820457566806269,0.13532950550945722,-0.43294251182151466,0.0018050822671256128,0.006208959407960624,-0.028231504540920938,0.0,70.0,255.0,255.0,255.0
280,14.0,7.854395000929373,-0.5014071635501525,-3.1952027229307287,0.048269490317984776,0.13561574579408875,-0.434340136108351,0.0010763653659040529,0.0056651966150012,-0.027504256183652487,0.0,70.0,255.0,255.0,255.0
281,14.05,7.856809598699766,-0.49461962258206305,-3.2169542195715914,0.04831221220465309,0.13589602517095734,-0.4356929374398799,0.00093522427002668,0.005978021094643626,-0.026474841618462364,0.0,70.0,255.0,255.0,255.0
282,14.100000000000001,7.859226222149839,-0.48781756103305673,-3.2387720166747167,0.048363012744987444,0.1362135479035531,-0.4369876202701972,0.00129638228578699,0.006963835313000821,-0.025290802603006313,0.0,70.0,255.0,255.0,255.0
283,14.15,7.861645899974265,-0.48099826779170773,-3.260652981598611,0.04844185043323179,0.13659240870225742,-0.43822201770018054,0.0019579621804766134,0.008242382169237894,-0.02419680900849208,0.0,70.0,255.0,255.0,255.0
284,14.200000000000001,7.864070407193162,-0.474158320162831,-3.2825942184447348,0.048558808963035105,0.1370377861204769,-0.4394073011710464,0.0027182362258848514,0.009433347322329588,-0.023456387792286648,0.0,70.0,255.0,255.0,255.0
285,14.25,7.866501780870569,-0.46729448917966004,-3.304593711715716,0.04871367405582028,0.13753574343449038,-0.4405676564794092,0.003382964358866758,0.010161260421126528,-0.02332954949513244,0.0,70.0,255.0,255.0,255.0
286,14.3,7.868941774598744,-0.46040474581938196,-3.3266509840926757,0.04889710539892178,0.13805391216258955,-0.44174025612055967,0.0038350167406164815,0.010226443616473402,-0.023930759427681636,0.0,70.0,255.0,255.0,255.0
287,14.350000000000001,7.871391491410461,-0.4534890979634011,-3.3487677373277718,0.049097175729881926,0.13855838779613772,-0.4429607324221774,0.004057648561062166,0.00974908536394703,-0.025065848603667007,0.0,70.0,255.0,255.0,255.0
288,14.4,7.873851492171732,-0.4465489070397682,-3.3709470573348934,0.049302870255028,0.13902882069898426,-0.44424684098092637,0.004058192767342206,0.008993678069091349,-0.026363529369399785,0.0,70.0,255.0,255.0,255.0
289,14.450000000000001,7.876321778435964,-0.43958621589350266,-3.3931924214258644,0.049502995006616146,0.13945775560304685,-0.44559708535911735,0.003836285183655974,0.00822473754984454,-0.027437396504481626,0.0,70.0,255.0,255.0,255.0
290,14.5,7.878801791672394,-0.4326031314794635,-3.415506765870805,0.049686498773393595,0.1398512944539687,-0.44699058063137453,0.003383758550512539,0.007717733728396237,-0.02790556448353243,0.0,70.0,255.0,255.0,255.0
291,14.55,7.881290428313303,-0.4256010864481058,-3.437891479489002,0.0498413708616674,0.14022952897588647,-0.4483876418074706,0.0027169698403994857,0.007621752224962197,-0.027575547244440557,0.0,70.0,255.0,255.0,255.0
292,14.600000000000001,7.88378592875856,-0.41858017858187485,-3.460345530051552,0.04995819575743354,0.14061346967646493,-0.4497481353558186,0.001953862630177383,0.007835254466659336,-0.026616618833541494,0.0,70.0,255.0,255.0,255.0
293,14.65,7.886286247889046,-0.4115397394804593,-3.4828662930245837,0.05003675712468514,0.1410130544225524,-0.45104930369082474,0.0012901059104564183,0.008149152640701818,-0.025378257662822534,0.0,70.0,255.0,255.0,255.0
294,14.700000000000001,7.888789604471029,-0.4044788731396196,-3.5054504604206347,0.050087206348479185,0.1414283849405351,-0.45228596112210084,0.0009288841122945257,0.0083668166974471,-0.02421388632924959,0.0,70.0,255.0,255.0,255.0
295,14.75,7.891294968523894,-0.3973969009864058,-3.528094889136794,0.05012964553591459,0.14184973609229712,-0.4534706923237497,0.001073982791499617,0.008279879257261369,-0.023468145950200636,0.0,70.0,255.0,255.0,255.0
296,14.8,7.89380256902462,-0.3902938995303899,-3.5507975296530097,0.05019460462762915,0.14225637286626125,-0.4546327757171209,0.0018114162524618393,0.007786687343780407,-0.023326398914269575,0.0,70.0,255.0,255.0,255.0
297,14.850000000000001,7.896314428986657,-0.38317126369977966,-3.573558166708506,0.050310787161160775,0.14262840482667516,-0.45580333221517666,0.002960653832140281,0.0070326007321985795,-0.02369863177356102,0.0,70.0,255.0,255.0,255.0
298,14.9,7.898833647740736,-0.3760310590477224,-3.5963778628745273,0.050490670010843175,0.1429596329394811,-0.457002638894477,0.004185952355140188,0.006287007405425538,-0.024373323429038862,0.0,70.0,255.0,255.0,255.0
299,14.950000000000001,7.9013634959877415,-0.36887530040583155,-3.6192584305979536,0.050729382396674794,0.1432571055672177,-0.45824066455808055,0.0051426305809343376,0.005807855800177286,-0.02513997193123174,0.0,70.0,255.0,255.0,255.0
300,15.0,7.903906585980404,-0.3617053484910006,-3.6422019293303354,0.05100493306893661,0.14354041851949884,-0.4595166360876002,0.005492338255486118,0.005850674650381693,-0.025793879687308063,0.0,70.0,255.0,255.0,255.0
301,15.05,7.906463989294635,-0.35452125855388167,-3.6652100942067136,0.051278616222223405,0.14384217303225588,-0.46082005252681135,0.005070278903129832,0.006532384180879536,-0.02621330931313892,0.0,70.0,255.0,255.0,255.0
302,15.100000000000001,7.909034447602626,-0.347321131187775,-3.6882839345830165,0.05151196095924959,0.1441936569375868,-0.4621379670189141,0.004053405491344364,0.007668095518431617,-0.026393422837323044,0.0,70.0,255.0,255.0,255.0
303,15.15,7.91161518539056,-0.340101892860123,-3.711423890908605,0.05168395677135784,0.14460898258409904,-0.46345939481054366,0.002797040379309834,0.00890738650212719,-0.026362201534801954,0.0,70.0,255.0,255.0,255.0
304,15.200000000000001,7.914202843279762,-0.3328602329293651,-3.734629874064071,0.051791664997180575,0.1450843955877995,-0.46477418717239427,0.001666654170051629,0.009896212316207187,-0.026140538300101213,0.0,70.0,255.0,255.0,255.0
305,15.25,7.916794351890278,-0.32559345330134304,-3.7579013096258445,0.051850622188363005,0.14559860381571976,-0.4660734486405538,0.0010286455390584592,0.010289450113193377,-0.02574831665245192,0.0,70.0,255.0,255.0,255.0
306,15.3,7.919387905498598,-0.31830037254779314,-3.7812372189281263,0.05189452955108642,0.14611334059911885,-0.46734901883763946,0.0010735287406582472,0.00991668968566839,-0.025212624905268655,0.0,70.0,255.0,255.0,255.0
307,15.350000000000001,7.921983804845387,-0.31098211924143115,-3.8046362115096084,0.05195797506242883,0.1465902727842866,-0.46859471113108064,0.0016566799134309917,0.008944900644036746,-0.02460851603816039,0.0,70.0,255.0,255.0,255.0
308,15.4,7.924583703004841,-0.3036413452693645,-3.8280966900412343,0.05206019754242952,0.14700783066352252,-0.4698098704414555,0.0024757695775257105,0.0077144022970432324,-0.02405870959250045,0.0,70.0,255.0,255.0,255.0
309,15.450000000000001,7.92718982459963,-0.2962813361750789,-3.851617198553754,0.0522055520201814,0.14736171301399092,-0.4710005820903307,0.0032303797788735267,0.0065733555409897,-0.0236968492274503,0.0,70.0,255.0,255.0,255.0
310,15.5,7.929804258206859,-0.2889051739679654,-3.8751967482502674,0.05238323552031687,0.1476651662176215,-0.47217955536420053,0.0036171355326075627,0.005863506248759975,-0.02365686302718828,0.0,70.0,255.0,255.0,255.0
311,15.55,7.932428148151661,-0.28151481955331675,-3.898835154090174,0.05256726557344216,0.14794806363886692,-0.4733662683930495,0.003476258813961408,0.005766917682553663,-0.023996703885798,0.0,70.0,255.0,255.0,255.0
312,15.600000000000001,7.9350609847642035,-0.2741103676040787,-3.9225333750895723,0.052730861401713014,0.14824185798587686,-0.47457922575278033,0.0029262151809206216,0.006183257616443338,-0.024608037485363,0.0,70.0,255.0,255.0,255.0
313,15.65,7.937701234291833,-0.26669063375472907,-3.946293076665452,0.05285988709153422,0.14856638940051126,-0.4758270721415858,0.00221270182354516,0.006884887759589509,-0.025286596459217492,0.0,70.0,255.0,255.0,255.0
314,15.700000000000001,7.940346973473357,-0.25925372866402757,-3.970116082303731,0.05295213158406753,0.1489303467618358,-0.4771078853987021,0.001572199675514696,0.007643279272701031,-0.02581929089764401,0.0,70.0,255.0,255.0,255.0
315,15.75,7.9429964474502395,-0.2517975990785455,-3.9940038652053222,0.05301710705908569,0.14933071732778136,-0.4784090012313502,0.0012347470626394852,0.008228552863739913,-0.02598824056287974,0.0,70.0,255.0,255.0,255.0
316,15.8,7.9456486841792655,-0.24432065693124944,-4.017956982426866,0.05307560629033148,0.1497532020482098,-0.47970670945499005,0.0013212961425423941,0.008510091798585862,-0.025687272837870978,0.0,70.0,255.0,255.0,255.0
317,15.850000000000001,7.948304008079273,-0.2368222788737245,-4.041974536150821,0.05314923667333993,0.15018172650763995,-0.4809777285151373,0.0017530514377916973,0.008526637654815428,-0.025044741945334792,0.0,70.0,255.0,255.0,255.0
318,15.9,7.9509636078465995,-0.22930248428048544,-4.06605475527838,0.05325091143411065,0.15060586581369134,-0.48221118364952353,0.0023588310539501833,0.008379799578359104,-0.024309496645624762,0.0,70.0,255.0,255.0,255.0
319,15.950000000000001,7.953629099222684,-0.22176169229235537,-4.090195654515774,0.053385119778734946,0.15101970646547586,-0.4834086781796998,0.002967534805264904,0.008161126435760058,-0.023732560608902276,0.0,70.0,255.0,255.0,255.0
320,16.0,7.956302119824473,-0.21420051363393786,-4.11439562309635,0.05354766491463714,0.15142197845726735,-0.48458443971041376,0.0034078855409624964,0.007962235676189922,-0.023574137424731134,0.0,70.0,255.0,255.0,255.0
321,16.05,7.958983865714147,-0.20661949444662864,-4.138654098486815,0.053725908332831196,0.15181593003309485,-0.4857660919221729,0.003585782723813935,0.007838775729190894,-0.023960778189469067,0.0,70.0,255.0,255.0,255.0
322,16.1,7.961674710657756,-0.19901892063062837,-4.162972232288567,0.05390624318701853,0.15220585603018644,-0.48698051752936067,0.0035452154314441486,0.007789259363444323,-0.024727586807848922,0.0,70.0,255.0,255.0,255.0
323,16.150000000000002,7.964374490032849,-0.19139890884361,-4.187352150239751,0.05408042987597561,0.15259485596943928,-0.4882388506029578,0.003387498436069336,0.0077976854887668035,-0.025560824883363864,0.0,70.0,255.0,255.0,255.0
324,16.2,7.967082753645354,-0.18375943503368444,-4.211796117348863,0.054244993030625466,0.15298562457906312,-0.48953660001769705,0.003211460637597696,0.007858415450384681,-0.026150606527242104,0.0,70.0,255.0,255.0,255.0
325,16.25,7.969798989335912,-0.17610034638570368,-4.236305810241521,0.05440157593973538,0.15338069751447775,-0.490853911255682,0.00312569212468361,0.007974532403492995,-0.026183275006097517,0.0,70.0,255.0,255.0,255.0
326,16.3,7.972522911239327,-0.16842136528223667,-4.260881508474431,0.05455756224309383,0.15378307781941242,-0.4921549275183068,0.003188346855065305,0.008141518571383455,-0.025509241444154895,0.0,70.0,255.0,255.0,255.0
327,16.35,7.975254745560221,-0.16072203860376244,-4.285521302993351,0.05472041062524191,0.1541948493716161,-0.4934048354000975,0.0033451544361184915,0.00831632489143308,-0.02433209031114103,0.0,70.0,255.0,255.0,255.0
328,16.400000000000002,7.977994952301851,-0.15300188034507506,-4.310221992014441,0.054892077686705676,0.15461471030855573,-0.4945881365494209,0.0034929467629396527,0.008429458466605033,-0.023040863493850594,0.0,70.0,255.0,255.0,255.0
329,16.45,7.980743953328892,-0.14526056757290687,-4.3349801166482935,0.055069705301535876,0.1550377952182766,-0.49570892174948256,0.0035395363971346683,0.008411925049367497,-0.022024360600436665,0.0,70.0,255.0,255.0,255.0
330,16.5,7.983501922832005,-0.1374981008232474,-4.359792884189389,0.05524603132641914,0.15545590281349247,-0.4967905726094646,0.0033934019046277797,0.008191662681822365,-0.021668706606803312,0.0,70.0,255.0,255.0,255.0
331,16.55,7.986268556461534,-0.12971497729155762,-4.38465917390924,0.055409045491998654,0.15585696148645883,-0.4978757924101629,0.003013743609514563,0.00774135045148866,-0.022162628995303635,0.0,70.0,255.0,255.0,255.0
332,16.6,7.989042827381205,-0.12191240467460152,-4.409580463430405,0.0555474056873706,0.15623003785864134,-0.49900683550899494,0.0024759383855155193,0.007147212632646616,-0.023294168498999568,0.0,70.0,255.0,255.0,255.0
333,16.650000000000002,7.991823297030271,-0.11409197350569349,-4.4345598574601395,0.055656639330550206,0.1565716827497235,-0.5002052092600628,0.0019197821102601154,0.006563548243933293,-0.02464476542982652,0.0,70.0,255.0,255.0,255.0
334,16.7,7.99460849131426,-0.10625523639962917,-4.4596009843564115,0.05573938389839661,0.15688639268303467,-0.5014713120519776,0.001483167667259977,0.006146658244857162,-0.025792603749952292,0.0,70.0,255.0,255.0,255.0
335,16.75,7.99739723542011,-0.09840333423739002,-4.484706988665337,0.055804956097276204,0.1571863485742092,-0.5027844696350581,0.0012926816093994375,0.006050798221138298,-0.026321945186236206,0.0,70.0,255.0,255.0,255.0
336,16.8,8.000188986923987,-0.09053660154220824,-4.509879431319917,0.055868652059336554,0.1574914725051485,-0.5041035065706012,0.0014104782405155447,0.0063468791564672,-0.02602038243590954,0.0,70.0,255.0,255.0,255.0
337,16.85,8.002984100626044,-0.08265418698687517,-4.535117339322397,0.05594600392132776,0.15782103648985593,-0.505386507878649,0.0017866164964353004,0.0069303490535743695,-0.025062051544821884,0.0,70.0,255.0,255.0,255.0
338,16.900000000000002,8.00578358731612,-0.07475449789322265,-4.560418082107782,0.056047313708980084,0.15818450741050594,-0.5066097117250834,0.0023115611591961738,0.007599984921376202,-0.023809258935969524,0.0,70.0,255.0,255.0,255.0
339,16.95,8.008588831996942,-0.06683573624582458,-4.585778310494906,0.056177160037247376,0.15858103498199355,-0.507767433772246,0.0028683057550438207,0.008148668078362953,-0.022625084538407947,0.0,70.0,255.0,255.0,255.0
340,17.0,8.011401303319845,-0.0588963943950233,-4.611194825485007,0.056334144284484466,0.15899937421834223,-0.5088722201789242,0.003347853010637891,0.008369153757542547,-0.021863466027927103,0.0,70.0,255.0,255.0,255.0
341,17.05,8.01422224642539,-0.05093579882399035,-4.636665532512798,0.056511945338311165,0.1594179503577478,-0.5099537803750387,0.0036848562491087478,0.008157846209353448,-0.02171518858098409,0.0,70.0,255.0,255.0,255.0
342,17.1,8.017052497853676,-0.042954599359248516,-4.662190203522511,0.05670262990939534,0.15981515883927758,-0.5110437390370226,0.0038612319915642956,0.007616799078544179,-0.022088581032786436,0.0,70.0,255.0,255.0,255.0
343,17.150000000000002,8.01989250941633,-0.03495428294006259,-4.6877699064165,0.056898068537467594,0.16017963026560222,-0.5121626384783173,0.0038694977281039655,0.006951104145226372,-0.022768082276858337,0.0,70.0,255.0,255.0,255.0
344,17.2,8.022742304707423,-0.026936636332688293,-4.713406467370342,0.05708957968220574,0.16051026925380021,-0.5133205472647084,0.0037041221334632723,0.006365242868200394,-0.023539971848851593,0.0,70.0,255.0,255.0,255.0
345,17.25,8.02560146738455,-0.01890325601468257,-4.739101961142971,0.05726848075081392,0.16081615455242226,-0.5145166356632025,0.0033599156726182855,0.006056549452566895,-0.024196218673377956,0.0,70.0,255.0,255.0,255.0
346,17.3,8.028469152782504,-0.010855020877446065,-4.764858130936663,0.057425571249467566,0.1611159241990569,-0.5157401691320462,0.002849071121424629,0.006128309432686385,-0.024613315455201956,0.0,70.0,255.0,255.0,255.0
347,17.35,8.031344024509497,-0.0027916635947768807,-4.790675978056176,0.057553387862956384,0.1614289854956909,-0.5169779672087227,0.0022492946973429184,0.006517046706929486,-0.02478819308846525,0.0,70.0,255.0,255.0,255.0
348,17.400000000000002,8.0342244915688,0.0052878776721230255,-4.816555927657535,0.05765050071920186,0.16176762886974985,-0.5182189884408928,0.0016912870897556331,0.007081006423202418,-0.024752164869923377,0.0,70.0,255.0,255.0,255.0
349,17.45,8.037109074581418,0.013385099292198105,-4.842497876900265,0.05772251657193195,0.16213708613801114,-0.519453183695715,0.0013141800707217044,0.007677073735474216,-0.024529340420631485,0.0,70.0,255.0,255.0,255.0
350,17.5,8.039996743225993,0.021501586285924138,-4.868501246027106,0.05778191872627403,0.16253533624329727,-0.5206719224829559,0.0012564936231029833,0.008168657756106867,-0.024143640630747143,0.0,70.0,255.0,255.0,255.0
351,17.55,8.042887266454045,0.02963863291652783,-4.894565069148561,0.057848165934242246,0.16295395191362183,-0.5218675477587897,0.0015793720855583615,0.008476142167126999,-0.02362381067069208,0.0,70.0,255.0,255.0,255.0
352,17.6,8.045781559819417,0.03779698147728632,-4.920688000802985,0.057939855934829865,0.16338295046000997,-0.5230343035500251,0.00217711369447926,0.008598650457468104,-0.023039485774489776,0.0,70.0,255.0,255.0,255.0
353,17.650000000000002,8.048681252047528,0.04597692796252883,-4.946868499503563,0.05806587730369017,0.16381381695936864,-0.5241714963362387,0.0028489902755168828,0.00856039463756536,-0.02250409740360837,0.0,70.0,255.0,255.0,255.0
354,17.7,8.051588147549786,0.054178363173223186,-4.973105150436609,0.05822475496238155,0.1642389899237665,-0.525284713290386,0.003386383690440198,0.008386975010337416,-0.022141640827211262,0.0,70.0,255.0,255.0,255.0
355,17.75,8.054503727543766,0.06240082695490548,-4.999396970832602,0.05840451567273419,0.16465251446040238,-0.5263856604189598,0.003578119160252413,0.008112828846920106,-0.02207322812832757,0.0,70.0,255.0,255.0,255.0
356,17.8,8.05742859911706,0.07064361461926343,-5.025743716478505,0.058582566878406794,0.16505027280845852,-0.5274920361032187,0.0033201538235161365,0.00776609625778385,-0.02235195468252016,0.0,70.0,255.0,255.0,255.0
357,17.85,8.060361984231607,0.07890585423575133,-5.052146174442924,0.058736531055085806,0.16542912408618077,-0.5286208558872119,0.002727658449863668,0.007369190624134658,-0.02288938828938214,0.0,70.0,255.0,255.0,255.0
358,17.900000000000002,8.063302252222568,0.0871865270278815,-5.0786058020672264,0.05885533272339316,0.16578719187087199,-0.5297809749321569,0.002027343882637922,0.006958254187446056,-0.023515081878944244,0.0,70.0,255.0,255.0,255.0
359,17.95,8.066247517503946,0.09548457342283853,-5.105124271936139,0.0589392654433496,0.16612494950492537,-0.5309723640751063,0.0014468585941784795,0.006580713868778454,-0.024051322377172113,0.0,70.0,255.0,255.0,255.0
360,18.0,8.069196178766903,0.10379902197837404,-5.131703038474737,0.05900001858281101,0.16644526325774983,-0.5321861071698741,0.0012149924399906809,0.006276064152163641,-0.02432745618081711,0.0,70.0,255.0,255.0,255.0
361,18.05,8.072147519362227,0.11212909974861351,-5.158342882653127,0.059060764687348666,0.16675255592014174,-0.533405109693188,0.0014465860459722535,0.006066186088460324,-0.02425508388554931,0.0,70.0,255.0,255.0,255.0
362,18.1,8.075102255235638,0.12047427757038821,-5.185043549444056,0.059144677187408234,0.16705188186659586,-0.5346116155584291,0.0020268445801718826,0.005961883083380193,-0.023888368993230102,0.0,70.0,255.0,255.0,255.0
363,18.150000000000002,8.078061987080968,0.1288342879352731,-5.21180404420897,0.059263449145365854,0.16734874422847976,-0.535793946592511,0.0027270421206537776,0.005969292575427887,-0.023350167155822277,0.0,70.0,255.0,255.0,255.0
364,18.2,8.081028600150175,0.1372091519932362,-5.238622944103307,0.05941738139947361,0.16764881112413865,-0.5369466322740113,0.0033196085068354364,0.006083456227752582,-0.022766356377257324,0.0,70.0,255.0,255.0,255.0
365,18.25,8.084003725220915,0.14559916904768697,-5.265498707436371,0.0595954099960494,0.16795708985125501,-0.5380705822302367,0.00357794837526626,0.00628687724830157,-0.022252937824518426,0.0,70.0,255.0,255.0,255.0
366,18.3,8.08698814114978,0.1540048609783617,-5.292430002326331,0.05977517623700024,0.1682774988489688,-0.5391719260564631,0.0033869285649856806,0.006563471742690452,-0.021880483667313655,0.0,70.0,255.0,255.0,255.0
367,18.35,8.089981242844615,0.16242691893258385,-5.319415900042017,0.059934102852547966,0.16861343702552406,-0.5402586305969681,0.0028503711549277,0.006902437881589618,-0.021673499373964233,0.0,70.0,255.0,255.0,255.0
368,18.400000000000002,8.092981551435035,0.1708662046809141,-5.3464558653860275,0.06006021335249301,0.16896774263712777,-0.5413392759938596,0.002179079710806775,0.0072837363500916075,-0.021648725023215576,0.0,70.0,255.0,255.0,255.0
369,18.45,8.095987264179865,0.17932369319629662,-5.373549827641403,0.06015201082362864,0.16934181066053322,-0.5424235030992897,0.001581280804607843,0.007679773574451043,-0.02182273929278722,0.0,70.0,255.0,255.0,255.0
370,18.5,8.098996752517397,0.18780038574696742,-5.400698215695956,0.06021834143295379,0.16973571999457288,-0.5435215499231383,0.001257176761981782,0.00808038955849577,-0.02221678319642706,0.0,70.0,255.0,255.0,255.0
371,18.55,8.10200909832316,0.1962972651957539,-5.427901982633717,0.06027772849982682,0.1701498496163828,-0.5446451814189324,0.0013122731216341776,0.008473213654061618,-0.022824007086796883,0.0,70.0,255.0,255.0,255.0
372,18.6,8.10502452536738,0.2048153707086057,-5.45516273383785,0.06034956874511721,0.17058304135997904,-0.545803950631818,0.0016862628751113107,0.008791069353047964,-0.02353679435049827,0.0,70.0,255.0,255.0,255.0
373,18.650000000000002,8.108044055197672,0.21335556933175182,-5.482482377696899,0.06044635478733795,0.1710289565516876,-0.5469988608539822,0.0022420469612427496,0.008933058061588728,-0.02417409358983491,0.0,70.0,255.0,255.0,255.0
374,18.7,8.111069160846114,0.22191826636377446,-5.509862619923248,0.060573773441241485,0.1714763471661379,-0.5482213599908015,0.002841981560841589,0.008810876047798955,-0.024550425379121776,0.0,70.0,255.0,255.0,255.0
375,18.75,8.114101432541796,0.2305032040483656,-5.537304513695979,0.06073055294342211,0.1719100441564675,-0.5494539033918944,0.0033573539001352515,0.008339629785683589,-0.024487948038220964,0.0,70.0,255.0,255.0,255.0
376,18.8,8.117142216140456,0.2391092707794212,-5.564808010262437,0.06090950883125501,0.17231031014470627,-0.5506701547946236,0.0037112050568666177,0.007495561752943192,-0.02390917563124262,0.0,70.0,255.0,255.0,255.0
377,18.85,8.120192383424921,0.24773423506283623,-5.592371529175441,0.06110167344910877,0.1726596003317618,-0.5518448209550186,0.0038882137086915236,0.006415895428896201,-0.02294557031010669,0.0,70.0,255.0,255.0,255.0
378,18.900000000000002,8.123252383485367,0.2563752308125974,-5.619992492357939,0.06129833020212416,0.1729518996875959,-0.5529647118256342,0.0038882569194598204,0.005343938163573925,-0.021850331853023874,0.0,70.0,255.0,255.0,255.0
379,18.95,8.126322216445134,0.2650294250315958,-5.647668000358005,0.061490499141054755,0.1731939941481192,-0.554029854140321,0.003711305773279605,0.004528470486073188,-0.02088782026339331,0.0,70.0,255.0,255.0,255.0
380,19.0,8.129401433399472,0.2736946302274093,-5.675395477771971,0.06166946077945212,0.1734047467362032,-0.5550534938519736,0.0033574169600925075,0.004197081974638417,-0.020311424650643062,0.0,70.0,255.0,255.0,255.0
381,19.05,8.132489162523079,0.28236989970521614,-5.703173349743202,0.061826240837064006,0.17361370234558304,-0.5560609966053853,0.0028418810080310664,0.004458851688443621,-0.020252577101054214,0.0,70.0,255.0,255.0,255.0
382,19.1,8.135584057483179,0.2910560004619676,-5.73100157743251,0.06195364888025523,0.17385063190504757,-0.557078751562079,0.0022417214522008067,0.005216397882490398,-0.020632812520826604,0.0,70.0,255.0,255.0,255.0
383,19.150000000000002,8.138684527411105,0.2997549628957209,-5.75888122489941,0.06205041298228409,0.17413534213383208,-0.558124277857468,0.001685764523173816,0.006258462011488053,-0.021272690886675605,0.0,70.0,255.0,255.0,255.0
384,19.200000000000003,8.141789098781407,0.3084695346753508,-5.786814005218257,0.06212222533257261,0.17447647810619638,-0.5592060206507465,0.0013117697047704269,0.007356267648905845,-0.02198500685439697,0.0,70.0,255.0,255.0,255.0
385,19.25,8.144896749944362,0.31720261070634054,-5.8148018269644846,0.06218158995276113,0.17487096889872267,-0.5603227785429077,0.001256987582642921,0.008296005019636787,-0.022586353359344002,0.0,70.0,255.0,255.0,255.0
386,19.3,8.148007257776683,0.3259566315652231,-5.842846283072547,0.062247924090836904,0.17530607860816005,-0.5614646559866809,0.0015817837311971061,0.008950057134299305,-0.022968254891786444,0.0,70.0,255.0,255.0,255.0
387,19.35,8.151121542353446,0.33473321856715654,-5.870948292563153,0.06233976832588084,0.1757659746121526,-0.5626196040320863,0.0021804249589862934,0.009285785768464727,-0.0231277483706549,0.0,70.0,255.0,255.0,255.0
388,19.400000000000002,8.154241234609271,0.34353322902643835,-5.899108243475756,0.06246596658673553,0.17623465718500653,-0.5637774308237464,0.002852321351731746,0.009293262741594255,-0.023092657514478532,0.0,70.0,255.0,255.0,255.0
389,19.450000000000003,8.157368139012119,0.3523566842856572,-5.927326035645527,0.06262500046105401,0.17669530088631202,-0.5649288697835342,0.003388841514073704,0.008967484559369021,-0.022886464673543827,0.0,70.0,255.0,255.0,255.0
390,19.5,8.160503734655377,0.36120275911506955,-5.955601130454109,0.0628048507381429,0.17713140564094343,-0.5660660772911008,0.003578642032842083,0.008306916594752467,-0.022535143263535673,0.0,70.0,255.0,255.0,255.0
391,19.55,8.163648624085933,0.37006982484975154,-5.983932643374637,0.06298286466433822,0.17752599254578727,-0.5671823841098877,0.003317697354709992,0.0073388684921738,-0.02206666440409677,0.0,70.0,255.0,255.0,255.0
392,19.6,8.16680202112181,0.3789553583696483,-6.012319368865098,0.0631366204736139,0.1778652924901608,-0.5682727437315105,0.002721986638043461,0.006202137365324267,-0.021537033157237317,0.0,70.0,255.0,255.0,255.0
393,19.650000000000002,8.169962286133295,0.3878563540987676,-6.040759917747788,0.06325506332814257,0.1781462062823197,-0.5693360874256115,0.0020195421438273797,0.005130165343941728,-0.02103751821591615,0.0,70.0,255.0,255.0,255.0
394,19.700000000000003,8.173127527454625,0.39676997899788025,-6.069252977607659,0.06333857468799664,0.17837830902455498,-0.5703764955531021,0.0014394376654180974,0.004371742831665859,-0.02066810881098391,0.0,70.0,255.0,255.0,255.0
395,19.75,8.176296143602094,0.4056941850012231,-6.097797567303099,0.06339900709468438,0.17858338056548628,-0.5714028983067099,0.0012124069897367917,0.004164347249280276,-0.020517082910842532,0.0,70.0,255.0,255.0,255.0
396,19.8,8.179467428164093,0.4146283170544289,-6.12639326743833,0.06345981538697032,0.178794743749483,-0.5724282038441864,0.0014540002769791727,0.004615494537862919,-0.020625600312307313,0.0,70.0,255.0,255.0,255.0
397,19.85,8.182642125140791,0.4235736593761714,-6.155040387687517,0.0635444071223823,0.17904493001927257,-0.5734654583379406,0.002046220563833856,0.005576713721294757,-0.020959643475393364,0.0,70.0,255.0,255.0,255.0
398,19.900000000000002,8.185821868876332,0.43253281005635613,-6.183739813272124,0.0636644374433537,0.17935241512161249,-0.5745241681917257,0.002754917996661277,0.006753348610072374,-0.02144090598559245,0.0,70.0,255.0,255.0,255.0
399,19.950000000000003,8.189008568885127,0.44150890088833267,-6.21249280450669,0.06381989892204842,0.1797202648802798,-0.5756095489364998,0.003346834396644738,0.007833283041780437,-0.021981612904031778,0.0,70.0,255.0,255.0,255.0
400,20.0,8.192203858768536,0.4505048365443841,-6.241300768165774,0.06399912088301818,0.18013574342579053,-0.5767223294821289,0.0035877673054685033,0.008511685083989473,-0.022508506444562926,0.0,70.0,255.0,255.0,255.0
401,20.05,8.195408480973429,0.4595224752309117,-6.270165037454903,0.06417867565259527,0.18057143338867876,-0.5778603995809561,0.003359728112961591,0.00862637946351108,-0.02297144716623123,0.0,70.0,255.0,255.0,255.0
402,20.1,8.198621726333796,0.468561979883252,-6.29908680812387,0.06433509369431434,0.18099838137214164,-0.579019474198752,0.0027785390322776493,0.008260052038577825,-0.023308029304924816,0.0,70.0,255.0,255.0,255.0
403,20.150000000000002,8.20184199034286,0.4776223133681259,-6.328066984874778,0.06445652955582304,0.18139743859253654,-0.5801912025114486,0.0020753779425675134,0.0076065567659766575,-0.023434382317955027,0.0,70.0,255.0,255.0,255.0
404,20.200000000000003,8.205067379289378,0.48670172374250564,-6.357105928375015,0.06454263148857109,0.1817590370487393,-0.5813629124305475,0.0014797981732428411,0.006862211248381822,-0.023272665680362792,0.0,70.0,255.0,255.0,255.0
405,20.25,8.208296253491717,0.4957982170729998,-6.386203276117833,0.06460450937314732,0.18208365971737472,-0.5825184690794849,0.0012204864932030546,0.006216884442644677,-0.0227449286061443,0.0,70.0,255.0,255.0,255.0
406,20.3,8.211527830226693,0.5049100897142431,-6.415357775282963,0.0646646801378914,0.18238072549300377,-0.5836374052911619,0.0014136607006776103,0.005784535393560386,-0.021833785847746867,0.0,70.0,255.0,255.0,255.0
407,20.35,8.214762721505506,0.5140362896223002,-6.444567016646949,0.06474587544321508,0.18266211325673076,-0.5847018476642596,0.001954215380983726,0.005578509359854822,-0.02069085002798232,0.0,70.0,255.0,255.0,255.0
408,20.400000000000002,8.218002417771014,0.5231763010399162,-6.473827960049389,0.06486010167598977,0.18293857642898925,-0.5857064902939602,0.002628978155705397,0.005586671412338706,-0.01958147150258327,0.0,70.0,255.0,255.0,255.0
409,20.450000000000003,8.221248731673105,0.5323301472651991,-6.503137665676345,0.06500877325878562,0.18322078039796463,-0.5866599948145179,0.003227399483662907,0.0058035596104177856,-0.018779472626739846,0.0,70.0,255.0,255.0,255.0
410,20.5,8.224503295096893,0.5414983790797127,-6.532493959530841,0.06518284162435606,0.18351893239003103,-0.5875844375566341,0.0035463240191546674,0.006228795793339348,-0.01854776980652062,0.0,70.0,255.0,255.0,255.0
411,20.55,8.227767015835541,0.5506820405042022,-6.561896109432008,0.06536340566070109,0.18384365997729857,-0.58851477179517,0.00347905565956097,0.006843217889951347,-0.019007721796082677,0.0,70.0,255.0,255.0,255.0
412,20.6,8.231039635662963,0.5598827450774425,-6.591345436710358,0.06553074719031216,0.18420325417902617,-0.5894852097362424,0.0030900073680228957,0.007545071361192424,-0.01999961953425,0.0,70.0,255.0,255.0,255.0
413,20.650000000000002,8.234320090554572,0.5691023659221048,-6.6208446304056325,0.06567240639750338,0.1845981671134178,-0.590514733748595,0.0025233015067627207,0.00816591842388581,-0.021207004399581564,0.0,70.0,255.0,255.0,255.0
414,20.700000000000003,8.237606876302713,0.5783425617887843,-6.650396910085218,0.06578307734098843,0.18501984602141475,-0.5916059101762006,0.0019238906059371175,0.008531289237756479,-0.02229718274060488,0.0,70.0,255.0,255.0,255.0
415,20.75,8.240898398288671,0.5876043505242463,-6.680005221423253,0.06586479545809709,0.18545129603719346,-0.5927444520226555,0.0014302081078554352,0.008475951031927664,-0.02293998284326193,0.0,70.0,255.0,255.0,255.0
416,20.8,8.244193355848523,0.5968876913925036,-6.709671355287483,0.06592609815177397,0.1858674411246075,-0.5938999084605268,0.0011228905535176636,0.007928280692270917,-0.022962553074901138,0.0,70.0,255.0,255.0,255.0
417,20.85,8.247491008103848,0.6061910946367071,-6.739395212269305,0.06597708451344886,0.18624412410642055,-0.5950407073301456,0.00100211878155676,0.007007452281648785,-0.02247971612447941,0.0,70.0,255.0,255.0,255.0
418,20.900000000000002,8.250791064299868,0.6155121038031457,-6.769175426020498,0.06602631002992965,0.1865681863527724,-0.5961478800729747,0.0010422913421237467,0.00594508612760114,-0.021740627449773342,0.0,70.0,255.0,255.0,255.0
419,20.950000000000003,8.254093639106841,0.6248479132719843,-6.799010000276603,0.06608131364766123,0.18683863271918066,-0.5972147700751229,0.0012165252739393395,0.004983544510850368,-0.02099888265814087,0.0,70.0,255.0,255.0,255.0
420,21.0,8.257399195664634,0.6341959670750638,-6.82889690302801,0.06614796255732358,0.18706654080385743,-0.5982477683387888,0.0014888342262153742,0.004347400078885677,-0.020520270848223277,0.0,70.0,255.0,255.0,255.0
421,21.05,8.260708435362574,0.64355456735237,-6.858834777110482,0.06623019707028277,0.18727337272706923,-0.5992667971599452,0.0018304077663344742,0.004156946054245658,-0.02044761368944492,0.0,70.0,255.0,255.0,255.0
422,21.1,8.264022215371662,0.6529233043477707,-6.8888235827440045,0.06633100333395703,0.187482235409282,-0.6002925297077333,0.0022206783434342015,0.0043770076240567946,-0.020676947203401852,0.0,70.0,255.0,255.0,255.0
423,21.150000000000002,8.26734153569597,0.6623027908932982,-6.918864030081255,0.06645226490462619,0.1877110734894749,-0.6013344918802854,0.0026266939640251508,0.004901848953842158,-0.02099673288764592,0.0,70.0,255.0,255.0,255.0
424,21.200000000000003,8.270667441862125,0.6716944116967182,-6.948957031932033,0.06659367273035954,0.1879724203046662,-0.6023922029964979,0.003004320653587911,0.0056145327189893734,-0.02120640084557479,0.0,70.0,255.0,255.0,255.0
425,21.25,8.274000902969005,0.6811000329237649,-6.979103250380905,0.06675269696998498,0.18827252676137385,-0.6034551319648429,0.0033184176915668218,0.006402420680384768,-0.021091008357032592,0.0,70.0,255.0,255.0,255.0
426,21.3,8.277342711559124,0.6905216643728556,-7.009302545128517,0.06692551449951623,0.1886126623727047,-0.6045013038322011,0.0035487650936971704,0.007185473552195898,-0.020547132027726178,0.0,70.0,255.0,255.0,255.0
427,21.35,8.280693454418957,0.6999612991610353,-7.039553380764125,0.0671075734793547,0.18899107411659344,-0.6055098451676155,0.003677871806750943,0.007887314425036873,-0.0197351990230743,0.0,70.0,255.0,255.0,255.0
428,21.400000000000002,8.284053468907059,0.7094207717845149,-7.069853529645279,0.06729330168019132,0.18940139381520837,-0.6064748237345086,0.0036882288393158547,0.008402203371804529,-0.01894973703686631,0.0,70.0,255.0,255.0,255.0
429,21.450000000000003,8.287422784586976,0.7189014385425562,-7.100200863137576,0.06747639636328628,0.1898312944537739,-0.6074048188713022,0.003572905399273907,0.008619863074710299,-0.018475374100379582,0.0,70.0,255.0,255.0,255.0
430,21.5,8.290801108543388,0.7284039012298923,-7.130594011532409,0.06765059222011871,0.1902633801226794,-0.6083223611445465,0.003333532303528841,0.00844291719940271,-0.01860362113186298,0.0,70.0,255.0,255.0,255.0
431,21.55,8.294187843808988,0.7379277765548241,-7.16103309925203,0.06780974959363917,0.19067558617371416,-0.6092651809844885,0.0029802195046002566,0.007839621275440578,-0.01946474398026865,0.0,70.0,255.0,255.0,255.0
432,21.6,8.297582083502752,0.7474714598472637,-7.191520529630858,0.06794861417057874,0.19104734225022346,-0.6102688355425734,0.0025486735914626024,0.006919049361231444,-0.02081600961751917,0.0,70.0,255.0,255.0,255.0
433,21.650000000000002,8.300982705226046,0.7570325107798465,-7.222059982806288,0.06806461695278543,0.1913674911098373,-0.6113467819462404,0.002101229838658014,0.005886540356125902,-0.0222088877292137,0.0,70.0,255.0,255.0,255.0
434,21.700000000000003,8.30438854519803,0.7666082089582474,-7.252655207825482,0.06815873715444454,0.19163599628583605,-0.6124897243154948,0.0017097453934411533,0.004964476520585848,-0.023193268254484423,0.0,70.0,255.0,255.0,255.0
435,21.75,8.30779857894149,0.7761961104084301,-7.283308955237837,0.06823559149212954,0.1918639387618959,-0.6136661087716888,0.0014434903910398589,0.004357938493959601,-0.023318563059859798,0.0,70.0,255.0,255.0,255.0
436,21.8,8.311212104347243,0.785794602834437,-7.314021818702651,0.06830308619354852,0.192071790135232,-0.6148215806214807,0.0013370701758219639,0.004176041346071191,-0.02237300626983796,0.0,70.0,255.0,255.0,255.0
437,21.85,8.314628887560845,0.7954032894219533,-7.344791113299985,0.06836929850971174,0.192281542896503,-0.6159034093986726,0.0013647298651164874,0.004388376241959424,-0.02065241751791902,0.0,70.0,255.0,255.0,255.0
438,21.900000000000002,8.318049034198214,0.8050227571240873,-7.375612159642518,0.06843955918006017,0.19251062775942795,-0.6168868223732726,0.0014695557680965976,0.004899747091857698,-0.018724735356290267,0.0,70.0,255.0,255.0,255.0
439,21.950000000000003,8.321472843478851,0.8146543521978961,-7.4064797955373125,0.0685162540865214,0.19277151760568878,-0.6177758829343016,0.0015881130249084663,0.005602230843138045,-0.017163674094078374,0.0,70.0,255.0,255.0,255.0
440,22.0,8.324900659606866,0.8242999088846562,-7.437389747935948,0.06859837048255102,0.19307085084374176,-0.6186031897826805,0.001648496808392963,0.0063933008525585144,-0.016534061361639374,0.0,70.0,255.0,255.0,255.0
441,22.05,8.328332680527106,0.8339614372822702,-7.4683401145155806,0.0686811037673607,0.19341084769094463,-0.6194292890704656,0.001612012614415903,0.0071977518015575725,-0.01711689061449917,0.0,70.0,255.0,255.0,255.0
442,22.1,8.331768769983602,0.8436409936537507,-7.499332676842995,0.06875957174399261,0.19379062602389752,-0.6203148788441304,0.001513339349656917,0.007930242873788185,-0.018639028933709056,0.0,70.0,255.0,255.0,255.0
443,22.150000000000002,8.335208637701506,0.85334049988466,-7.530371602399994,0.06883243770232639,0.19420387197832345,-0.6212931919638365,0.0014187755263961321,0.00846915659132863,-0.02054662305992494,0.0,70.0,255.0,255.0,255.0
444,22.200000000000003,8.338652013753835,0.863061380851583,-7.5614619960393785,0.06890144929663222,0.19463754168303038,-0.6223695411501229,0.0013848887526535236,0.008688138568602177,-0.022279401337943483,0.0,70.0,255.0,255.0,255.0
445,22.25,8.342098782631169,0.872804254052963,-7.592608556515006,0.06897092657759174,0.19507268583518367,-0.6235211320976308,0.0014584664324246432,0.008468858095567189,-0.023289247437574545,0.0,70.0,255.0,255.0,255.0
446,22.3,8.345549106411594,0.8825686494351014,-7.623814109249142,0.06904729593987469,0.1954844274925871,-0.6246984658938803,0.0016619656143745942,0.007771412985901893,-0.023286797239130408,0.0,70.0,255.0,255.0,255.0
447,22.35,8.349003512225156,0.8923526968022217,-7.655078403104394,0.0691371231390292,0.19584982713377386,-0.6258498118215439,0.0019801411742292885,0.006735966948390182,-0.02244591896083392,0.0,70.0,255.0,255.0,255.0
448,22.400000000000002,8.352462818725497,0.9021536321484788,-7.686399090431296,0.06924531005729762,0.19615802418742612,-0.6269430577899637,0.0023762745270161645,0.005620829340236,-0.02115348102966763,0.0,70.0,255.0,255.0,255.0
449,22.450000000000003,8.355928043230886,0.9119684992209643,-7.71777270888339,0.06937475059173082,0.19641191006779746,-0.6279651599245106,0.0028128447844721904,0.004703676420914071,-0.01979909351579323,0.0,70.0,255.0,255.0,255.0
450,22.5,8.35940029378467,0.9217948231552585,-7.749195606423747,0.06952659453574483,0.19662839182951752,-0.628922967141543,0.003273628138344975,0.004263294736972512,-0.018772911590581032,0.0,70.0,255.0,255.0,255.0
451,22.55,8.36288070268446,0.9316313384039161,-7.780665005597545,0.06970211340556531,0.1968382395414947,-0.6298424510835687,0.0037401249270985204,0.00443659625468662,-0.018294242106620118,0.0,70.0,255.0,255.0,255.0
452,22.6,8.366370505125227,0.941478647109408,-7.812179851532104,0.06990060702845469,0.19707205145498619,-0.6307523913522051,0.004128799916713888,0.005077777444695286,-0.0182890900955357,0.0,70.0,255.0,255.0,255.0
453,22.650000000000002,8.369870763387306,0.9513385435494147,-7.843740244732765,0.0701149933972367,0.19734601728596424,-0.6316713600931223,0.0043134224046781355,0.00589563793601533,-0.018570175432763847,0.0,70.0,255.0,255.0,255.0
454,22.700000000000003,8.37338200446495,0.9612132488380044,-7.875346987541416,0.0703319492689225,0.19766161524858772,-0.6326094088954815,0.00417715868117341,0.006590582321119864,-0.018962825997270727,0.0,70.0,255.0,255.0,255.0
455,22.75,8.376903958314198,0.9711047050742735,-7.907001185622313,0.07053270926535404,0.19800507551807622,-0.6335676426928494,0.003595086281471538,0.006849990928470273,-0.019287171467219366,0.0,70.0,255.0,255.0,255.0
456,22.8,8.380435275391486,0.981013756389812,-7.938703751810701,0.07069145789706965,0.19834661434143475,-0.6345381260422034,0.0025294227894434584,0.006516141389323327,-0.01943739983545356,0.0,70.0,255.0,255.0,255.0
457,22.85,8.383973104103905,0.990939366508417,-7.970454998226534,0.07078565154429839,0.19865668965700856,-0.6355113826763947,0.0011872698816972616,0.00575926359914769,-0.019439585459757325,0.0,70.0,255.0,255.0,255.0
458,22.900000000000002,8.387513840545916,1.0008794253555129,-8.00225489007834,0.07081018488523938,0.19892254070134952,-0.6364820845881791,-7.005738442700249e-05,0.0049094394285464915,-0.019362274116296874,0.0,70.0,255.0,255.0,255.0
459,22.950000000000003,8.391054122592429,1.010831620578552,-8.034103206685351,0.07077864580585569,0.1991476335998632,-0.6374476100880244,-0.000876444545028221,0.004287653968360061,-0.019257201562350446,0.0,70.0,255.0,255.0,255.0
460,23.0,8.394591705126501,1.0207941887154992,-8.065999651087143,0.07072254043073656,0.19935130609818552,-0.6384078047444142,-0.0008700105613712594,0.0042166483089634,-0.019174346595640657,0.0,70.0,255.0,255.0,255.0
461,23.05,8.398126376635503,1.0307667511883705,-8.097943987159793,0.07069164474971856,0.19956929843075955,-0.6393650447475885,0.00011029580448962406,0.004852497861596028,-0.01914273197787253,0.0,70.0,255.0,255.0,255.0
462,23.1,8.401660869601473,1.0407511185585752,-8.129936155561902,0.07073357001118552,0.19983655588434512,-0.6403220779422014,0.0017913979466044339,0.005997988671446741,-0.019152568066616027,0.0,70.0,255.0,255.0,255.0
463,23.150000000000002,8.405199733636621,1.050750406776805,-8.161976194954013,0.070870784544379,0.20016909729790422,-0.6412803015542501,0.0036550122615608416,0.0072729446761510275,-0.019180728102696776,0.0,70.0,255.0,255.0,255.0
464,23.200000000000003,8.408747948055911,1.0607680282883656,-8.194064185717327,0.0710990712373416,0.20056385035196023,-0.6422401507524711,0.005170297819390157,0.008299454486393465,-0.019208367752021616,0.0,70.0,255.0,255.0,255.0
465,23.25,8.412309640760355,1.070806791812001,-8.22620021002926,0.07138781432631802,0.20099904274654357,-0.6432011383294522,0.0058209932584318835,0.008707471779723086,-0.01921544214944504,0.0,70.0,255.0,255.0,255.0
466,23.3,8.415886729488543,1.08086793256302,-8.258384299550272,0.07168117056318479,0.20143459752993254,-0.6441616949674156,0.005349021033396184,0.008313494203737726,-0.019191672253349168,0.0,70.0,255.0,255.0,255.0
467,23.35,8.419477757816674,1.0909502515649943,-8.290616379526002,0.07192271642965764,0.20183039216691734,-0.6451203055547872,0.003982429708138113,0.0072986651648898615,-0.019150142274781956,0.0,70.0,255.0,255.0,255.0
468,23.400000000000002,8.423079001131509,1.1010509717797117,-8.32289633010575,0.0720794135339986,0.20216446404642152,-0.6460767091948938,0.0021955561235742493,0.006029737577861738,-0.019114813473386505,0.0,70.0,255.0,255.0,255.0
469,23.450000000000003,8.426685699170074,1.1111666979696364,-8.355224050445491,0.07214227204201507,0.2024333659247035,-0.6470317869021258,0.000474600586741758,0.0048805886923464215,-0.019109327428701306,0.0,70.0,255.0,255.0,255.0
470,23.5,8.43029322833571,1.121294308372182,-8.387599508795963,0.07212687359267278,0.20265252291565616,-0.6479876419377639,-0.0007059904449491228,0.00422544592404428,-0.01916388480580622,0.0,70.0,255.0,255.0,255.0
471,23.55,8.433898386529341,1.131431950261202,-8.420022814639267,0.07207167299752015,0.20285591051710794,-0.6489481753827064,-0.0010875454393044492,0.00425958592937814,-0.019290579008313102,0.0,70.0,255.0,255.0,255.0
472,23.6,8.437500395635462,1.1415798994238928,-8.452494326334234,0.07201811904874234,0.20307848150859398,-0.6499166998385952,-0.0007737974316412988,0.004838306379872925,-0.019446862835437173,0.0,70.0,255.0,255.0,255.0
473,23.650000000000002,8.441100198434215,1.1517397984120614,-8.485014484623127,0.07199429325435602,0.20333974115509523,-0.6508928616662502,-2.2877781624686122e-05,0.005657988462348662,-0.0195600180052935,0.0,70.0,255.0,255.0,255.0
474,23.700000000000003,8.444699824960898,1.1619138735394023,-8.517583612500859,0.07201583127057987,0.20364428035482884,-0.6518727016391246,0.0009037007664858265,0.006417817784054591,-0.019561035818682626,0.0,70.0,255.0,255.0,255.0
475,23.75,8.448301781561273,1.1721042264475443,-8.55020175478704,0.0720846633310046,0.2039815229335007,-0.6528489652481184,0.0017309871697790413,0.006814800468046833,-0.019381046597821694,0.0,70.0,255.0,255.0,255.0
476,23.8,8.451908291293998,1.1823120258327524,-8.582868509025671,0.07218892998755777,0.20432576040163353,-0.6538108062989068,0.002296638578513921,0.006688814759381323,-0.018992212179647083,0.0,70.0,255.0,255.0,255.0
477,23.85,8.455520674560029,1.1925368024877077,-8.61558283541693,0.072314327188856,0.20465040440943882,-0.6547481864660831,0.002636489622176441,0.006154449642026272,-0.0184641779455319,0.0,70.0,255.0,255.0,255.0
478,23.900000000000002,8.459139724012884,1.2027770662736963,-8.64834332767228,0.07245257894977541,0.20494120536583615,-0.65565722409346,0.0028488687565442206,0.005451129085454198,-0.017924182106021647,0.0,70.0,255.0,255.0,255.0
479,23.950000000000003,8.462765932455007,1.2130309230242913,-8.681148557826276,0.07259921406451042,0.20519551731798424,-0.6565406046766853,0.003012507768396233,0.004808513131804304,-0.01749930318979409,0.0,70.0,255.0,255.0,255.0
480,24.0,8.466399645419335,1.2232966180054947,-8.713997388139948,0.07275382972661504,0.20542205667901658,-0.6574071544124394,0.0032259578487625618,0.004447286935871375,-0.017303910153287916,0.0,70.0,255.0,255.0,255.0
481,24.05,8.470041315427668,1.233573128692193,-8.74688927326752,0.07292180984938668,0.20564024601157138,-0.6582709956920141,0.0035403384451626607,0.004485015172916995,-0.017394371806922493,0.0,70.0,255.0,255.0,255.0
482,24.1,8.473691826404274,1.2438606426066519,-8.77982448770915,0.0731078635711313,0.20587055819630828,-0.6591465915931316,0.003869610506335164,0.00485848712652448,-0.017731949858301732,0.0,70.0,255.0,255.0,255.0
483,24.150000000000002,8.477352101784781,1.2541601845118238,-8.812803932426833,0.07330877090002019,0.20612609472422383,-0.6600441906778443,0.004066470354757712,0.005422903121310441,-0.01822688993424748,0.0,70.0,255.0,255.0,255.0
484,24.200000000000003,8.481022703494276,1.2644732520790742,-8.845828906776934,0.07351451060660708,0.20641284850843933,-0.6609692805865564,0.004005895197956022,0.0060348429753664945,-0.018782264244165958,0.0,70.0,255.0,255.0,255.0
485,24.25,8.484703552845442,1.2748014693626677,-8.878900860485489,0.0737093604198158,0.20672957902176048,-0.6619224171022609,0.00356527467459955,0.006560061112614868,-0.019315294141009076,0.0,70.0,255.0,255.0,255.0
486,24.3,8.488393639536257,1.2851462099812503,-8.91202114848716,0.07387103807406703,0.20706885461970082,-0.6629008100006573,0.0027006090403958183,0.006918350656204275,-0.01977081341077991,0.0,70.0,255.0,255.0,255.0
487,24.35,8.492090656652849,1.2955083548246378,-8.945190941485555,0.07397942132385538,0.2074214140873809,-0.6638994984433388,0.0015676790750873693,0.007095238215204525,-0.02009165898435583,0.0,70.0,255.0,255.0,255.0
488,24.400000000000002,8.495791581668643,1.3058883513899884,-8.978411098331494,0.07402780598157577,0.20777837844122127,-0.6649099758990928,0.0004451565830621007,0.007092782904871697,-0.02020378263409839,0.0,70.0,255.0,255.0,255.0
489,24.450000000000003,8.499493437251006,1.31628619266876,-9.011681939075464,0.07402393698216159,0.20813069237786808,-0.6659198767067487,-0.00038434030749101566,0.006912627787380998,-0.0200388659420625,0.0,70.0,255.0,255.0,255.0
490,24.5,8.503193975366859,1.3267014206277752,-9.045003086002168,0.07398937195082667,0.20846964121995937,-0.6669138624932991,-0.0006510658694836025,0.006556477937613714,-0.01953095057753984,0.0,70.0,255.0,255.0,255.0
491,24.55,8.506892374446089,1.3371331567907558,-9.078373325324794,0.07395883039521323,0.20878634017162945,-0.6678729717645027,-0.00022846225355976912,0.006040556561259791,-0.018667549373496684,0.0,70.0,255.0,255.0,255.0
492,24.6,8.51058985840638,1.3475800546449381,-9.111790383178619,0.07396652572547069,0.20907369687608535,-0.6687806174306488,0.000730722142705531,0.005441399173511385,-0.017584024927863595,0.0,70.0,255.0,255.0,255.0
493,24.650000000000002,8.514289027018636,1.3580405264783644,-9.145251387067859,0.07403190260948378,0.20933048008898059,-0.669631374257289,0.0019201760407483448,0.004886804420056734,-0.016517886290579042,0.0,70.0,255.0,255.0,255.0
494,24.700000000000003,8.517993048667329,1.3685131026538362,-9.178753520604348,0.07415854332954552,0.20956237731809102,-0.6704324060597067,0.0030192049615962446,0.004513620234281035,-0.01571402023969881,0.0,70.0,255.0,255.0,255.0
495,24.75,8.52170488135159,1.3789967642101735,-9.21229462767383,0.0743338231056434,0.2097818421124087,-0.6712027762812589,0.0037149794790636292,0.0044580364608082235,-0.015396894223762558,0.0,70.0,255.0,255.0,255.0
496,24.8,8.525426430977893,1.389491286865077,-9.245873798232473,0.07453004127745189,0.21000818096417184,-0.6719720954820829,0.003840466078663951,0.004779935918963751,-0.015673301447982624,0.0,70.0,255.0,255.0,255.0
497,24.85,8.529157885479336,1.3999975823065907,-9.279491837222038,0.0747178697135098,0.21025983570430506,-0.6727701064260572,0.0034784766427264913,0.005374689566384205,-0.01644329025651814,0.0,70.0,255.0,255.0,255.0
498,24.900000000000002,8.532898217949244,1.4105172704355076,-9.31315080887508,0.07487788894172454,0.21054564992081026,-0.6736164245077347,0.002824255806110898,0.006043635778607559,-0.017491944932501724,0.0,70.0,255.0,255.0,255.0
499,24.950000000000003,8.536645674373508,1.4210521472986717,-9.346853479672811,0.07500029529412089,0.21086419928216582,-0.6745193009193073,0.002074606710067428,0.0065801173827484405,-0.01858607873934659,0.0,70.0,255.0,255.0,255.0
500,25.0,8.540398247478656,1.4316036903637241,-9.38060273896701,0.07508534961273128,0.2112036616590851,-0.6754750323816694,0.00141911998099431,0.006775385543300594,-0.01950543523090431,0.0,70.0,255.0,255.0,255.0
501,25.05,8.544154209334781,1.4421725134645802,-9.414400982910978,0.07514220729222032,0.21154173783649588,-0.6764698444423978,0.0009721457232103603,0.006526413049501301,-0.020120270474599522,0.0,70.0,255.0,255.0,255.0
502,25.1,8.547912468207878,1.4527578641473737,-9.44824972341125,0.07518256418505231,0.21185630296403524,-0.6774870594291293,0.0007508025214875147,0.005945250486250053,-0.02041008677249323,0.0,70.0,255.0,255.0,255.0
503,25.150000000000002,8.551672465753287,1.4633581437609837,-9.482149688853891,0.07521728754436907,0.21213626288512089,-0.6785108531196471,0.000749047821102522,0.005253244540082136,-0.020385382932097684,0.0,70.0,255.0,255.0,255.0
504,25.200000000000003,8.555434196962315,1.4739714904358858,-9.516100808723214,0.07525746896716257,0.21238162741804345,-0.6795255977223391,0.0009680558445523957,0.004672483661294358,-0.020062690444966336,0.0,70.0,255.0,255.0,255.0
505,25.25,8.559198212650003,1.484596306502788,-9.550102248626125,0.07531409312882431,0.21260351125125032,-0.6805171221641437,0.0014165592451931275,0.004424384070178533,-0.019469383500414494,0.0,70.0,255.0,255.0,255.0
506,25.3,8.562965606275197,1.4952318415610109,-9.584152520939629,0.07539912489168188,0.2128240658250613,-0.6814725360723806,0.0020786899547431403,0.00462098530964461,-0.01864356537097933,0.0,70.0,255.0,255.0,255.0
507,25.35,8.566738125139171,1.5058787130852942,-9.618249502233363,0.07552196212429862,0.21306560978221478,-0.6823814787012417,0.0028374741100734013,0.005158900562962643,-0.017678040974367093,0.0,70.0,255.0,255.0,255.0
508,25.400000000000002,8.570517802487627,1.5165384025392323,-9.652390668809753,0.07568287230268922,0.21333995588135757,-0.6832403401698173,0.0034987137498276866,0.005828793986428771,-0.016728201661564412,0.0,70.0,255.0,255.0,255.0
509,25.450000000000003,8.57430641236944,1.52721270867343,-9.686573536250345,0.0758718334992814,0.21364848918085766,-0.6840542988673981,0.003860908840636057,0.006423374545505567,-0.01596782148585163,0.0,70.0,255.0,255.0,255.0
510,25.5,8.578104985837555,1.537903251457318,-9.720796098696493,0.07606896318675282,0.21398229333590812,-0.6848371223184024,0.0037226616854013628,0.006743115472240824,-0.015557077386141316,0.0,70.0,255.0,255.0,255.0
511,25.55,8.581913308688115,1.5486109380070208,-9.755057248482185,0.07624409966782153,0.21432280072808174,-0.6856100066060122,0.0029987821017485317,0.0066830722855293345,-0.015572694149845745,0.0,70.0,255.0,255.0,255.0
512,25.6,8.585729395804337,1.5593355315301263,-9.789357099357094,0.07636884139692768,0.21465060056446106,-0.686394391733387,0.001865548124335703,0.0063045551870866134,-0.01595056984466936,0.0,70.0,255.0,255.0,255.0
513,25.650000000000002,8.589550192827808,1.5700759980634669,-9.823696687655524,0.0764306544802551,0.2149532562467904,-0.6872050635904792,0.0006515284155739209,0.005746171588683069,-0.016548150746231727,0.0,70.0,255.0,255.0,255.0
514,25.700000000000003,8.593372461252363,1.5808308571548053,-9.858077605716142,0.07643399423848507,0.21522521772332937,-0.6880492068080102,-0.00030614342119150706,0.005147304869912439,-0.0172065364306917,0.0,70.0,255.0,255.0,255.0
515,25.75,8.597193592251656,1.5915985198357998,-9.892501608336325,0.07640004013813595,0.21546798673378165,-0.6889257172335483,-0.000679233958500447,0.004639144716911403,-0.017770278983419985,0.0,70.0,255.0,255.0,255.0
516,25.8,8.601012465266177,1.6023776558281835,-9.926970177439497,0.07636607084263503,0.2156891321950205,-0.6898262347063522,-0.0003067321138416901,0.004299499441162702,-0.018146683671993458,0.0,70.0,255.0,255.0,255.0
517,25.85,8.60483019933592,1.6131674330553019,-9.96148423180696,0.07636936692675178,0.21589793667789792,-0.6907403856007477,0.0006504499422632648,0.004139242324985304,-0.018324248412149302,0.0,70.0,255.0,255.0,255.0
518,25.900000000000002,8.608649401958852,1.6239674494959733,-9.996044215999571,0.07643111583686135,0.21610305642751904,-0.6916586595475671,0.0018642168763349787,0.004150995183227479,-0.01831294826573071,0.0,70.0,255.0,255.0,255.0
519,25.950000000000003,8.612473310919606,1.6347777386980538,-10.030650097761717,0.07655578861438528,0.21631303619622066,-0.6925716804273208,0.002997604238608176,0.004326893154260603,-0.018120345145433703,0.0,70.0,255.0,255.0,255.0
520,26.0,8.61630498082029,1.6455987531155953,-10.065301384042304,0.07673087626072217,0.2165357457429451,-0.6934706940621105,0.0037222927968372232,0.004656296336102983,-0.01775378803205996,0.0,70.0,255.0,255.0,255.0
521,26.05,8.620146398545678,1.6564313132723483,-10.099997167167928,0.076928017894069,0.21677866582983096,-0.6943470592305268,0.0038620857480964332,0.005119955591004199,-0.01723283223444838,0.0,70.0,255.0,255.0,255.0
522,26.1,8.623997782609697,1.6672766196985784,-10.134736089965356,0.07711708483553181,0.21704774130204552,-0.6951939772855553,0.003501696394891951,0.005657636352163209,-0.016633275668276326,0.0,70.0,255.0,255.0,255.0
523,26.150000000000002,8.627858107029232,1.6781360874025528,-10.169516564896483,0.0772781875335582,0.21734442946504728,-0.6960103867973544,0.0028417206278774643,0.0061690085175536424,-0.01608089535221069,0.0,70.0,255.0,255.0,255.0
524,26.200000000000003,8.631725601363053,1.6890110626450832,-10.204337128645092,0.07740125689831956,0.21766464215380088,-0.6968020668207764,0.002082812713943838,0.006546148154229492,-0.015711057346656787,0.0,70.0,255.0,255.0,255.0
525,26.25,8.635598232719063,1.699902551617933,-10.23919677157856,0.07748646880495258,0.21799904428047023,-0.6975814925320201,0.0014180347994496856,0.006691660614466244,-0.01565857821077543,0.0,70.0,255.0,255.0,255.0
526,26.3,8.639474248243548,1.7108109670731302,-10.274095277898294,0.07754306037826453,0.2183338082152475,-0.6983679246418539,0.0009639369080716165,0.006560165374014382,-0.015982500210398598,0.0,70.0,255.0,255.0,255.0
527,26.35,8.64335253875689,1.7217359324394577,-10.309033564042746,0.07758286249575974,0.21865506081787167,-0.6991797425530599,0.0007381957143337559,0.0061946877911056575,-0.01657817339069112,0.0,70.0,255.0,255.0,255.0
528,26.400000000000002,8.647232534493124,1.7326764731549174,-10.3440132521536,0.0776168799496979,0.21895327699435807,-0.700025741980923,0.0007351476972061732,0.005689334383274236,-0.017247106689310954,0.0,70.0,255.0,255.0,255.0
529,26.450000000000003,8.65111422675186,1.7436312601388935,-10.379036138240838,0.07765637726548036,0.2192239942561991,-0.700904453221991,0.0009568325507913755,0.005148001408272762,-0.017782651575259933,0.0,70.0,255.0,255.0,255.0
530,26.5,8.654998172219672,1.7545988725805373,-10.414103697475799,0.07771256320477704,0.21946807713518535,-0.701804007138449,0.001413586653775667,0.004665079853705123,-0.01797590844834218,0.0,70.0,255.0,255.0,255.0
531,26.55,8.658885483072337,1.765578067852412,-10.449216538954683,0.07779773593085793,0.2196905022415696,-0.7027020440668252,0.0020899055474643546,0.004298870092256379,-0.01772388021183957,0.0,70.0,255.0,255.0,255.0
532,26.6,8.662777945812758,1.7765679228046942,-10.484373901882481,0.07792155375952348,0.21989796414441098,-0.703576395159633,0.002864681587588791,0.004079976119975015,-0.017139438694790954,0.0,70.0,255.0,255.0,255.0
533,26.650000000000002,8.66667763844829,1.787567864266853,-10.519574178470647,0.0780842040896168,0.2200984998535671,-0.7044159879363043,0.0035368494225807012,0.004038129474071006,-0.016445269964471265,0.0,70.0,255.0,255.0,255.0
534,26.700000000000003,8.67058636622172,1.798577772790051,-10.554815500676112,0.07827523870178155,0.22030177709181809,-0.7052209221560801,0.0038975960098497353,0.00420133339211759,-0.015864909777718594,0.0,70.0,255.0,255.0,255.0
535,26.75,8.674505162318468,1.809598041976035,-10.590096270686255,0.07847396369060178,0.22051863319277887,-0.7060024789140762,0.003735637233859279,0.004604010646547252,-0.015621750699779113,0.0,70.0,255.0,255.0,255.0
536,26.8,8.67843376259078,1.8206296361093288,-10.62541574856752,0.07864880242516747,0.2207621781564728,-0.706783097226058,0.0029621285476011394,0.005245379898011215,-0.015828552371566218,0.0,70.0,255.0,255.0,255.0
537,26.85,8.682370042560985,1.8316742597916822,-10.66077458040886,0.07877017654536189,0.22104317118258,-0.7075853341512328,0.0017693250207173605,0.006004568568140911,-0.016378663903715562,0.0,70.0,255.0,255.0,255.0
