idx,t,px,py,pz,vx,vy,vz,ax,ay,az,yaw,mode,ledr,ledg,ledb
0,0.0,13.500000000000007,7.500000000000002,1.6998761250652316e-18,-0.00040355341916153975,-0.00035454318743077806,0.0011285429894464275,0.02002368946101285,0.003963621249525318,-0.022190286596309526,0.0,70.0,255.0,255.0,255.0
1,0.05,13.499979822329049,7.49998227284063,5.642714947232308e-05,0.0005976310538891028,-0.00015636212495451218,1.9028659630951187e-05,0.03003257300893125,0.005849979218108814,-0.03301164406992561,0.0,70.0,255.0,255.0,255.0
2,0.1,13.500059763105396,7.499984363787506,1.9028659630968185e-06,0.0025997038817315854,0.00023045473438010333,-0.002172621417546133,0.04003553419149597,0.007545431874333985,-0.0432854298944643,0.0,70.0,255.0,255.0,255.0
3,0.15000000000000002,13.500239792717222,7.500005318314068,-0.00016083499228229022,0.0046011844730387,0.0005981810624788864,-0.004309514329815479,0.04002368946416368,0.007163621251304875,-0.04219028659631169,0.0,70.0,255.0,255.0,255.0
4,0.2,13.5005198815527,7.500044181893754,-0.0004290485670184511,0.0066020728281479535,0.0009468168595105908,-0.006391650077177302,0.0400115962426284,0.006780513900128682,-0.041085594837357,0.0,70.0,255.0,255.0,255.0
5,0.25,13.500900000000037,7.500100000000019,-0.0008000000000000204,0.00860234409730154,0.0012762324524917545,-0.00841807381355118,0.039998074192482136,0.0063899503686570824,-0.03992599942879547,0.0,70.0,255.0,255.0,255.0
6,0.30000000000000004,13.50138011596243,7.500171805139003,-0.0012708559483735691,0.010601880247396167,0.001585811896376299,-0.01038425002005685,0.03998274368814947,0.00598994955414156,-0.03869691244441167,0.0,70.0,255.0,255.0,255.0
7,0.35000000000000003,13.501960188024777,7.500258581189657,-0.0018384250020057054,0.012600618466116487,0.0018752274079059106,-0.012287765057992346,0.03996884200887507,0.0055974049184115415,-0.03752272910963255,0.0,70.0,255.0,255.0,255.0
8,0.4,13.502640177809042,7.500359327879794,-0.002499632454172804,0.014598764448283674,0.002145552388217453,-0.014136522931020105,0.03996153913874423,0.00523929557063596,-0.036602110456108276,0.0,70.0,255.0,255.0,255.0
9,0.45,13.503420064469605,7.500473136428479,-0.003252077295107716,0.01659677237999091,0.0023991569649695066,-0.015947976103603174,0.03996597055895279,0.004935707237585518,-0.036105538193529886,0.0,70.0,255.0,255.0,255.0
10,0.5,13.50429985504704,7.500599243576291,-0.0040944300645331215,0.018595361504178953,0.002639123111976005,-0.017747076750373094,0.03998934250333264,0.004692356873547965,-0.036182365237557856,0.0,70.0,255.0,255.0,255.0
11,0.55,13.505279600620023,7.500737048739676,-0.005026784970145025,0.020595706630324173,0.002868392652324303,-0.01956621262735896,0.04003400183076877,0.0045112349287279585,-0.03688174585472631,0.0,70.0,255.0,255.0,255.0
12,0.6000000000000001,13.506359425710073,7.500886082841523,-0.0060510513272690174,0.02259876168725583,0.003090246604848801,-0.021435251335845725,0.04008617110446977,0.0044079043354017244,-0.03802410777049188,0.0,70.0,255.0,255.0,255.0
13,0.65,13.507539476788748,7.501046073400161,-0.007170310103729598,0.02460432374077115,0.0033091830858644755,-0.023368623404408147,0.040122685453880536,0.004401155037747628,-0.03927801688892979,0.0,70.0,255.0,255.0,255.0
14,0.7000000000000001,13.50881985808415,7.50121700115011,-0.008387913667709832,0.026611030232643884,0.0035303621086235637,-0.025363053024738704,0.04011910994652368,0.004495503578727522,-0.040286359413146434,0.0,70.0,255.0,255.0,255.0
15,0.75,13.510200579812013,7.5013991096110235,-0.009706615406203468,0.028616234735423518,0.0037587334437372277,-0.02739725934572279,0.04004262998567043,0.004682507236619671,-0.04069450175373152,0.0,70.0,255.0,255.0,255.0
16,0.8,13.511681481557693,7.5015928744944835,-0.011127639602282111,0.030615293231210927,0.003998612832285531,-0.029432503200111856,0.03988100049365784,0.004951413070397592,-0.0403265556758807,0.0,70.0,255.0,255.0,255.0
17,0.8500000000000001,13.513262109135134,7.501798970894252,-0.012649865726214654,0.0326043347847893,0.004253874750776987,-0.03142991491331086,0.0396864735746405,0.0052901385794612565,-0.039351655659216125,0.0,70.0,255.0,255.0,255.0
18,0.9,13.514941915036172,7.502018261969561,-0.014270631093613198,0.03458394058867498,0.004527626690231656,-0.03336766876603347,0.039547719046240104,0.00567524511838613,-0.0381150061373587,0.0,70.0,255.0,255.0,255.0
19,0.9500000000000001,13.516720503194001,7.502251733563275,-0.015986632602818,0.03655910668941331,0.0048213992626156,-0.03524141552704673,0.03955087636846599,0.006076590801917803,-0.03696888429374559,0.0,70.0,255.0,255.0,255.0
20,1.0,13.518597825705113,7.502500401895823,-0.01779477264631787,0.03853902822552158,0.005135285770423437,-0.03706455719540803,0.03978810958233936,0.006481576882499951,-0.03625958112746852,0.0,70.0,255.0,255.0,255.0
21,1.05,13.520574406016554,7.502765262140318,-0.019693088322358804,0.04053791764764725,0.005469556950865595,-0.03886737363979358,0.040295795727374184,0.006876399502342423,-0.03617137876109795,0.0,70.0,255.0,255.0,255.0
22,1.1,13.522651617469878,7.503047357590909,-0.02168151001029723,0.042568607798258995,0.005822925720657679,-0.04068169507151782,0.040966163034816816,0.007194245310504499,-0.03660022530360095,0.0,70.0,255.0,255.0,255.0
23,1.1500000000000001,13.52483126679638,7.503347554712383,-0.023761257829510586,0.04463453395112893,0.006188981481916045,-0.04252739617015368,0.041607370762264395,0.007335160526888984,-0.03731184201152052,0.0,70.0,255.0,255.0,255.0
24,1.2000000000000002,13.52711507086499,7.503666255739101,-0.025934249627312597,0.046729344874485435,0.006556441773346577,-0.044412879272669875,0.042031323975066925,0.007211559786490795,-0.038071017164784116,0.0,70.0,255.0,255.0,255.0
25,1.25,13.529504201283828,7.504003198889718,-0.028202545756777574,0.04883766634863562,0.0069101374605651245,-0.04633449788663209,0.04206497830576694,0.006739250500942262,-0.03863920170842222,0.0,70.0,255.0,255.0,255.0
26,1.3,13.531998837499854,7.5043572694851575,-0.030567699415975806,0.05093584270506213,0.007230366823440804,-0.0482767994435121,0.04162821752835555,0.0058948770316646915,-0.038882381494181883,0.0,70.0,255.0,255.0,255.0
27,1.35,13.534597785554334,7.504726235572062,-0.03303022570112878,0.05300048810147118,0.007499625163731594,-0.05022273603605028,0.04081512137119603,0.004815490901499686,-0.03885201189095036,0.0,70.0,255.0,255.0,255.0
28,1.4000000000000001,13.537298886310001,7.505107232001531,-0.035589973019580834,0.05501735484218173,0.007711915913590772,-0.05216200063260713,0.03981822913861066,0.003744019534757115,-0.038671378730314315,0.0,70.0,255.0,255.0,255.0
29,1.4500000000000002,13.540099521038552,7.505497427163421,-0.0382464257643895,0.05698231101533224,0.007874027117207305,-0.05408987390908171,0.03884280209156543,0.0029289183034464372,-0.038454646114718244,0.0,70.0,255.0,255.0,255.0
30,1.5,13.542997117411534,7.505894634713251,-0.040998960410489005,0.058901635051338275,0.008004807743935416,-0.05600746524407896,0.038084005168315116,0.0025974117894733695,-0.03832356541879148,0.0,70.0,255.0,255.0,255.0
31,1.55,13.545989684543686,7.506297907937815,-0.04384717228879739,0.060790711532163755,0.008133768296154642,-0.05792223045096086,0.03765082133835307,0.002858404725625263,-0.03834515586823156,0.0,70.0,255.0,255.0,255.0
32,1.6,13.54907618856475,7.506708011542867,-0.04679118345558509,0.06266671718517358,0.008290648216497942,-0.059841980830902114,0.03752701115242729,0.0036148400344160336,-0.038470794731673,0.0,70.0,255.0,255.0,255.0
33,1.6500000000000001,13.552256356262204,7.5071269727594645,-0.049831370371887604,0.06454341264740648,0.008495252299596245,-0.06176930992412816,0.037646892169185264,0.004656034061412129,-0.038604414629003075,0.0,70.0,255.0,255.0,255.0
34,1.7000000000000002,13.555530529829491,7.5075575367728264,-0.052968114447997906,0.06643140640209211,0.008756251622639155,-0.06370242229380242,0.03793695483977899,0.005753792641272071,-0.03866331212924942,0.0,70.0,255.0,255.0,255.0
35,1.75,13.558899496902413,7.508002597921728,-0.056201612601267846,0.06833710813138438,0.009070631563723452,-0.0656356411370531,0.03831098237423447,0.006695065044670656,-0.03857059256045792,0.0,70.0,255.0,255.0,255.0
36,1.8,13.56236424064263,7.508464599929199,-0.059531678561703216,0.07026250463951556,0.00942575812710622,-0.06755948154984821,0.03871003557947006,0.007352529706672328,-0.038289908785809484,0.0,70.0,255.0,255.0,255.0
37,1.85,13.565925747366364,7.508945173734439,-0.06295756075625267,0.07220811168933139,0.009805884534390685,-0.06946463201563405,0.039116927257865086,0.0076924216886986585,-0.03786658074413987,0.0,70.0,255.0,255.0,255.0
38,1.9000000000000001,13.569585051811563,7.509445188382638,-0.06647814176326662,0.07417419736530206,0.010195000295976087,-0.0713461396242622,0.039511591461582896,0.007702893170957736,-0.037390030352749126,0.0,70.0,255.0,255.0,255.0
39,1.9500000000000002,13.573343167102895,7.509964673764037,-0.07009217471867889,0.07615927083548968,0.010576173851486459,-0.07320363505090896,0.039857490438421905,0.007376936772551801,-0.03695159254776259,0.0,70.0,255.0,255.0,255.0
40,2.0,13.577200978895112,7.5105028057677865,-0.07379850526835752,0.07815994640914425,0.010932693973231267,-0.07504129887903846,0.04012400006718764,0.006710346679117407,-0.03663807366337257,0.0,70.0,255.0,255.0,255.0
41,2.0500000000000003,13.581159161743809,7.51105794316136,-0.07759630460658273,0.08017167084220844,0.0112472085193982,-0.07686744241724622,0.04029560977105717,0.005729425165235114,-0.036495208988536476,0.0,70.0,255.0,255.0,255.0
42,2.1,13.585218145979333,7.511627526619726,-0.08148524951008214,0.08218950738624997,0.011505636489754778,-0.07869081977789211,0.04036798377775597,0.0045771515329029455,-0.03650017832906999,0.0,70.0,255.0,255.0,255.0
43,2.15,13.589378112482434,7.512208506810335,-0.08546538658437194,0.08420846921998404,0.011704923672688494,-0.08051746025015322,0.040344038021089546,0.003494071576248814,-0.036598167922703706,0.0,70.0,255.0,255.0,255.0
44,2.2,13.593638992901331,7.512798018986995,-0.08953699553509746,0.08622391118835893,0.01185504364737966,-0.08235063657016248,0.04023979669387501,0.002736408986336869,-0.036730317679702085,0.0,70.0,255.0,255.0,255.0
45,2.25,13.59800050360127,7.513394011175073,-0.09370045024138819,0.08823244888937154,0.011978564571322181,-0.08419049201812343,0.040089054653513756,0.0025515668872877484,-0.036833103462036165,0.0,70.0,255.0,255.0,255.0
46,2.3000000000000003,13.602462237790268,7.513995875444127,-0.0979560447369098,0.0902328166537103,0.012110200336108434,-0.0860339469163661,0.03991321298322248,0.0030507952734737387,-0.036869768080563525,0.0,70.0,255.0,255.0,255.0
47,2.35,13.607023785266641,7.514605031208684,-0.1023038449330248,0.09222377018769379,0.012283644098669555,-0.08787746882617978,0.039691976791011996,0.004070021130253565,-0.03685363834051991,0.0,70.0,255.0,255.0,255.0
48,2.4000000000000004,13.611684614809038,7.515224239853994,-0.10674379161952778,0.0942020143328115,0.01251720244913379,-0.08971931075041809,0.03939309561289406,0.0052880932510213086,-0.03681552639465402,0.0,70.0,255.0,255.0,255.0
49,2.45,13.616443986699922,7.515856751453597,-0.11127577600806661,0.0961630797489832,0.012812453423771686,-0.09155902146564518,0.03899572371786064,0.006365166210287043,-0.03678093626723611,0.0,70.0,255.0,255.0,255.0
50,2.5,13.621300922783936,7.5165054851963715,-0.1158996937660923,0.09810158670459757,0.013153719070162495,-0.0933974043771417,0.038467846588119414,0.006959376447834842,-0.036777484516466175,0.0,70.0,255.0,255.0,255.0
51,2.5500000000000003,13.626254145370382,7.517172123360614,-0.12061551644578078,0.10000986440779513,0.01350839106855517,-0.0952367699172918,0.03780445205041616,0.00689461984801909,-0.03681900540249278,0.0,70.0,255.0,255.0,255.0
52,2.6,13.631301909224716,7.517856324303227,-0.12542337075782148,0.10188203190963918,0.013843181054964404,-0.09707930491739097,0.037103176656572145,0.006311808235004435,-0.036885268308844976,0.0,70.0,255.0,255.0,255.0
53,2.6500000000000004,13.636442348561346,7.51855644146611,-0.13032344693751988,0.10372018207345235,0.014139571892055613,-0.0989252967481763,0.03652535108820132,0.005503671969631085,-0.036939726498672054,0.0,70.0,255.0,255.0,255.0
54,2.7,13.64167392743206,7.519270281492433,-0.1353159004326391,0.10553456701845931,0.014393548251927513,-0.10077327756725818,0.03622336903994494,0.004763299133347942,-0.03694593725135642,0.0,70.0,255.0,255.0,255.0
55,2.75,13.646995805263192,7.519995796291303,-0.1404007746942457,0.10734251897744684,0.014615901805390408,-0.10261989047331194,0.03633550305099931,0.004386871377271007,-0.036856958472114565,0.0,70.0,255.0,255.0,255.0
56,2.8000000000000003,13.652408179329806,7.520731871672972,-0.1455778894799703,0.10916811732355924,0.014832235389654613,-0.10445897341446964,0.03691709070405835,0.004530072654329587,-0.036654210309450264,0.0,70.0,255.0,255.0,255.0
57,2.85,13.657912616995548,7.521479019830268,-0.15084667203569266,0.11103422804785268,0.015068909070823366,-0.10628531150425696,0.037850001896444496,0.005076405603787748,-0.036405288424087856,0.0,70.0,255.0,255.0,255.0
58,2.9000000000000004,13.66351160213459,7.522238762580054,-0.156206420630396,0.1129531175132037,0.015339875950033388,-0.10809950225687842,0.03890829723811606,0.0057843983561234324,-0.03622556761068152,0.0,70.0,255.0,255.0,255.0
59,2.95,13.669207928746868,7.523013007425272,-0.1616566222613805,0.11492505777166429,0.01564734890643571,-0.10990786826532511,0.03985233858436743,0.006421264295752849,-0.03622860144062712,0.0,70.0,255.0,255.0,255.0
60,3.0,13.675004107911757,7.5238034974706975,-0.1671972074569285,0.11693835137164044,0.015982002379608673,-0.11172236240094113,0.04045811323489801,0.006761203312066755,-0.03654265362305065,0.0,70.0,255.0,255.0,255.0
61,3.0500000000000003,13.680901763884032,7.5246112076632325,-0.1728288585014746,0.11897086909515409,0.016323469237642385,-0.11356213362763018,0.04060718513354544,0.0066852293947761154,-0.037217952893495165,0.0,70.0,255.0,255.0,255.0
62,3.1,13.686901194821273,7.525435844394462,-0.17855342081969153,0.12099906988499498,0.016650525319086285,-0.11544415769029065,0.04034492764652953,0.006267977275431491,-0.03809180643301324,0.0,70.0,255.0,255.0,255.0
63,3.1500000000000004,13.693001670872532,7.526276260195141,-0.18437327427050368,0.12300536185980704,0.016950266965185534,-0.1173713142709315,0.03979334807109325,0.005673326680177837,-0.03887893545955201,0.0,70.0,255.0,255.0,255.0
64,3.2,13.699201731007253,7.52713087109098,-0.19029055224678468,0.1249784046921043,0.017217857987104068,-0.11933205123624585,0.03908727662338407,0.005064930396514455,-0.03930030966678155,0.0,70.0,255.0,255.0,255.0
65,3.25,13.705499511341742,7.527998045993852,-0.19630647939412826,0.12691408952214545,0.01745676000483698,-0.12130134523760966,0.03836407198090086,0.00460430605073725,-0.039084501627759116,0.0,70.0,255.0,255.0,255.0
66,3.3000000000000003,13.711893139959468,7.528876547091464,-0.20242068677054564,0.1288148118901944,0.017678288592177793,-0.12324050139902176,0.03771263029843652,0.0043817836590243076,-0.03811257951518432,0.0,70.0,255.0,255.0,255.0
67,3.35,13.718380992530761,7.529765874853069,-0.20863052953403044,0.1306853525519891,0.01789493837073941,-0.1251126031891281,0.03716749031568156,0.004368048931002733,-0.036595504491879205,0.0,70.0,255.0,255.0,255.0
68,3.4000000000000004,13.724961675214667,7.530666040928538,-0.21493194708945845,0.13253156092176255,0.018115093485278067,-0.12690005184820968,0.03676362516227272,0.0044867704481532655,-0.034933189385627506,0.0,70.0,255.0,255.0,255.0
69,3.45,13.731634148622938,7.531577384201597,-0.2213205347188514,0.13436171506821637,0.018343615415554737,-0.12860592212769084,0.03654372974697395,0.004665214584154143,-0.03353519485726486,0.0,70.0,255.0,255.0,255.0
70,3.5,13.738397846721488,7.5325004024700934,-0.22779253930222754,0.13618593389645994,0.01858161494369348,-0.13025357133393617,0.036537626814059365,0.004829591133148625,-0.032791321217859326,0.0,70.0,255.0,255.0,255.0
71,3.5500000000000003,13.745252742012584,7.5334355456959665,-0.23434589185224503,0.1380154777496223,0.0188265745288696,-0.13188505424947677,0.036750032599108806,0.004934862076755309,-0.0328988152928783,0.0,70.0,255.0,255.0,255.0
72,3.6,13.75219939449645,7.53438305992298,-0.24098104472717521,0.13986093715637082,0.01907510115136901,-0.133543452863224,0.037141567967857725,0.004980759401629342,-0.03371358818691217,0.0,70.0,255.0,255.0,255.0
73,3.6500000000000004,13.75923883572822,7.535343055811103,-0.24770023713856743,0.14172963454640808,0.019324650469032534,-0.135256413068168,0.03763401608285477,0.004977819964846475,-0.0349200552496709,0.0,70.0,255.0,255.0,255.0
74,3.7,13.766372357951091,7.536315524969884,-0.254506686033992,0.1436243387646563,0.01957288314785366,-0.1370354583881911,0.038132116742417566,0.004928010799964966,-0.03618613701138751,0.0,70.0,255.0,255.0,255.0
75,3.75,13.773601269604686,7.537300344125889,-0.26140378297738653,0.14554284622064984,0.01981745154902903,-0.13887502676930674,0.03854537414174075,0.004825301445166019,-0.03718219485279173,0.0,70.0,255.0,255.0,255.0
76,3.8000000000000003,13.780926642573156,7.538297270124787,-0.2683941887109227,0.14747887617883038,0.02005541329237026,-0.14075367787347026,0.03882103883992016,0.004672054747789645,-0.03772041106155366,0.0,70.0,255.0,255.0,255.0
77,3.85,13.78834915722257,7.539305885455126,-0.27547915076473356,0.14942495010464185,0.020284657023807995,-0.1426470678754621,0.03894987417822904,0.004508913462686337,-0.03783834788866902,0.0,70.0,255.0,255.0,255.0
78,3.9000000000000004,13.79586913758362,7.540325735827167,-0.2826588954984689,0.15137386359665328,0.020506304638638895,-0.14453751266233716,0.03893583498228992,0.004401949691423823,-0.037655867004943167,0.0,70.0,255.0,255.0,255.0
79,3.95,13.803486543582235,7.54135651591899,-0.2899329020309673,0.15331853360287084,0.020724851992950377,-0.14641265457595642,0.038788316102866816,0.004416028928400095,-0.03728836898532206,0.0,70.0,255.0,255.0,255.0
80,4.0,13.811200990943908,7.542398221026462,-0.29730016095606454,0.15525269520693996,0.020947907531478904,-0.14826634956086937,0.03852488594073833,0.004617175115395611,-0.03686386207496506,0.0,70.0,255.0,255.0,255.0
81,4.05,13.819011813102929,7.543451306672138,-0.3047595369870542,0.15717102219694468,0.021186569504489938,-0.15009904078345293,0.03816478640121801,0.00503071846660319,-0.03646457542590409,0.0,70.0,255.0,255.0,255.0
82,4.1000000000000005,13.826918093163602,7.544516877976911,-0.31231006503440983,0.15906917384706176,0.021450979378139223,-0.15191280710345978,0.03773977448169319,0.005581815185351502,-0.036092927018271936,0.0,70.0,255.0,255.0,255.0
83,4.15,13.834918730487635,7.5455964046099515,-0.3199508176974002,0.160944999645114,0.02174475102302509,-0.15370833348528012,0.037303483147432814,0.006135313669020093,-0.035739087453207086,0.0,70.0,255.0,255.0,255.0
84,4.2,13.843012593128114,7.546691353079214,-0.32768089838293785,0.16279952216180504,0.022064510745041233,-0.1554867158487805,0.03692030649098399,0.006555099594063307,-0.03541227515926337,0.0,70.0,255.0,255.0,255.0
85,4.25,13.851198682703815,7.547802855684456,-0.33549948928227824,0.1646370302942124,0.02240026098243142,-0.15724956100120646,0.03665111939135102,0.006714016742748186,-0.035110422115380846,0.0,70.0,255.0,255.0,255.0
86,4.3,13.859476296157535,7.548931379177457,-0.3434058544830585,0.16646463410094015,0.02273591241931605,-0.15899775806031857,0.03652652884280627,0.006551271851584772,-0.03483471380825165,0.0,70.0,255.0,255.0,255.0
87,4.3500000000000005,13.86784514611391,7.550076446926387,-0.3513992650883101,0.16828968317849302,0.023055388167589896,-0.16073303238203163,0.0365283239331049,0.006128301319918705,-0.03462724007556872,0.0,70.0,255.0,255.0,255.0
88,4.4,13.876305264475384,7.551236917994216,-0.35947915772126166,0.17011746649425064,0.02334874255130792,-0.16246048206787544,0.03661293638987928,0.005573159268568162,-0.03455048714492426,0.0,70.0,255.0,255.0,255.0
89,4.45,13.884856892763334,7.552411321181518,-0.36764531329509764,0.17195097681748095,0.023612704094446713,-0.16418808109652405,0.036730457932421245,0.005023059875330915,-0.0346558170909006,0.0,70.0,255.0,255.0,255.0
90,4.5,13.893500362157132,7.553598188403661,-0.37589796583091406,0.17379051228749276,0.023851048538841013,-0.1659260637769655,0.03682662716908425,0.004614776562306133,-0.03499841216744737,0.0,70.0,255.0,255.0,255.0
91,4.55,13.902235943992084,7.554796426035402,-0.3842379196727942,0.17563363953438937,0.024074181750677326,-0.1676879223132688,0.03686961104953923,0.004423681305709692,-0.035590881695413135,0.0,70.0,255.0,255.0,255.0
92,4.6000000000000005,13.911063726110571,7.556005606578728,-0.39266675806224094,0.17747747339244668,0.024293416669411982,-0.16948515194650682,0.03686786218910498,0.004421343171312486,-0.036317273518643445,0.0,70.0,255.0,255.0,255.0
93,4.65,13.919983691331328,7.557225767702343,-0.4011864348674449,0.17932042575329987,0.024516316067808575,-0.17131964966513313,0.03684299973016891,0.004536524781695306,-0.03697812480624174,0.0,70.0,255.0,255.0,255.0
94,4.7,13.928995768685901,7.558457238185509,-0.40979872302875425,0.18116177336546357,0.024747069147581513,-0.173182964427131,0.03681166131084268,0.0046988613707554805,-0.037372195404877795,0.0,70.0,255.0,255.0,255.0
95,4.75,13.938099868667875,7.5597004746171015,-0.418504731310158,0.18300159188438414,0.024986202204884123,-0.1750568692056209,0.03679034395904779,0.004834895656014027,-0.037303947862810105,0.0,70.0,255.0,255.0,255.0
96,4.800000000000001,13.94729592787434,7.560955858405998,-0.42730440994931634,0.18484080776136835,0.025230558713182916,-0.176913359213412,0.036788313673241646,0.0049012290324945695,-0.03668744705578875,0.0,70.0,255.0,255.0,255.0
97,4.8500000000000005,13.956583949444012,7.56222353048842,-0.4361960672314992,0.1866804232517083,0.02547632510813358,-0.1787256139111998,0.03680022731309407,0.004907258395814296,-0.03566991293618149,0.0,70.0,255.0,255.0,255.0
98,4.9,13.96596397019951,7.563503490916811,-0.4451769713404363,0.18852083049267776,0.025721284552764345,-0.18048035050703015,0.03681506469028761,0.0048789700425544424,-0.03453244486554263,0.0,70.0,255.0,255.0,255.0
99,4.95,13.97543603249328,7.564795658943696,-0.4542441022822022,0.19036192972073707,0.025964222112389024,-0.18217885839775405,0.03682289682327422,0.004835294175364879,-0.033567662361799755,0.0,70.0,255.0,255.0,255.0
100,5.0,13.985000163171584,7.56609991312805,-0.46339485718021173,0.19220312017500518,0.026204813970300833,-0.18383711674321013,0.03681199699432369,0.004793612842046713,-0.03306579638126528,0.0,70.0,255.0,255.0,255.0
101,5.050000000000001,13.99465634451078,7.567416140340726,-0.4726278139565232,0.19404312942016944,0.026443583396593695,-0.18548543803588058,0.03677713425656037,0.004764689277614309,-0.03317261679473549,0.0,70.0,255.0,255.0,255.0
102,5.1000000000000005,14.004404476113601,7.568744271467709,-0.4819434009837998,0.19588083360066122,0.026681282898062264,-0.18715437842268368,0.036731228559361284,0.004749623245370316,-0.03375496284858115,0.0,70.0,255.0,255.0,255.0
103,5.15,14.014244427870846,7.5700842686305325,-0.49134325179879157,0.19771625227610556,0.026918545721130727,-0.1888609343207387,0.036696741508635,0.004747595047494002,-0.03454020761970433,0.0,70.0,255.0,255.0,255.0
104,5.2,14.024176101341212,7.571436126039822,-0.5008294944158737,0.19955050775152472,0.027156042402811664,-0.1906083991846541,0.03669675139494899,0.004759961927902623,-0.03525058172127449,0.0,70.0,255.0,255.0,255.0
105,5.25,14.034199478645998,7.572799872870814,-0.510404091717257,0.20138592741560046,0.02739454191392099,-0.19238599249286614,0.03676166806521053,0.0047906529765384676,-0.03560489458412919,0.0,70.0,255.0,255.0,255.0
106,5.300000000000001,14.044314694082772,7.5741755802312145,-0.5200680936651603,0.20322667455804577,0.02763510770046551,-0.19416888864306703,0.03690314929958305,0.004840013856988179,-0.03545602515926394,0.0,70.0,255.0,255.0,255.0
107,5.3500000000000005,14.054522146101803,7.57556338364086,-0.5298209805815637,0.20507624234555877,0.027878543299619807,-0.19593159500879254,0.03707485844888225,0.004894248622377972,-0.034916575995891375,0.0,70.0,255.0,255.0,255.0
108,5.4,14.064822318317328,7.5769634345611765,-0.5396612531660395,0.206934160402934,0.028124532562703308,-0.19766054624265617,0.03719796927512675,0.004930649767320716,-0.034219545168479026,0.0,70.0,255.0,255.0,255.0
109,5.45,14.075215562142096,7.578375836897131,-0.5495870352058293,0.20879603927307144,0.02837160827635188,-0.19935354952564044,0.03719681088281135,0.004924858113497521,-0.033590383713366645,0.0,70.0,255.0,255.0,255.0
110,5.5,14.085701922244635,7.579800595388812,-0.5595966081186036,0.21065384149121513,0.02861701837405306,-0.20101958461399283,0.036993358717829494,0.004843775252094673,-0.033246560014088544,0.0,70.0,255.0,255.0,255.0
111,5.550000000000001,14.096280946291218,7.581237538734536,-0.5696889936672286,0.2124953751448544,0.028855985801561346,-0.2026782055270493,0.036556469012083426,0.004675255294017688,-0.033303142708152045,0.0,70.0,255.0,255.0,255.0
112,5.6000000000000005,14.10695145975912,7.582686193968968,-0.5798644286713085,0.21430948839242348,0.02908454390345483,-0.20434989888480803,0.03597110920736668,0.004473382264791326,-0.03369332524252311,0.0,70.0,255.0,255.0,255.0
113,5.65,14.11771189513046,7.584145993124881,-0.5901239835557094,0.21609248606559106,0.02930332402804048,-0.2060475380513016,0.03539044898932531,0.0043298058830743,-0.03426701963180623,0.0,70.0,255.0,255.0,255.0
114,5.7,14.12856070836568,7.585616526371772,-0.6004691824764387,0.217848533291356,0.02951752449176226,-0.20777660084798866,0.03496877896562722,0.004333892331587208,-0.03487459671190907,0.0,70.0,255.0,255.0,255.0
115,5.75,14.139496748459596,7.587097745574058,-0.6109016436405083,0.21958936396215378,0.0297367132611992,-0.2095349977224925,0.034856878416356096,0.0045822180429588855,-0.03537287468351469,0.0,70.0,255.0,255.0,255.0
116,5.800000000000001,14.150519644761895,7.588590197697892,-0.6214226822486879,0.22133422113299162,0.029975746296058148,-0.21131388831634013,0.035124774187345054,0.0051127645010140554,-0.03567863011537664,0.0,70.0,255.0,255.0,255.0
117,5.8500000000000005,14.161630170572895,7.590095320203663,-0.6320330324721423,0.2231018413808883,0.030247989711300605,-0.21310286073403018,0.03567622919682378,0.005810450757426366,-0.035793759397684255,0.0,70.0,255.0,255.0,255.0
118,5.9,14.172829828899983,7.591614996669022,-0.6427329683220909,0.224901844052674,0.030556791371800784,-0.21489326425610855,0.036323871129262386,0.0064710591009209395,-0.0357479007798478,0.0,70.0,255.0,255.0,255.0
119,5.95,14.184120354978162,7.5931509993408435,-0.6535223588977531,0.22673422849381453,0.0308950956213927,-0.21667765081201495,0.03687529936158285,0.006893511953354192,-0.035571742259432604,0.0,70.0,255.0,255.0,255.0
120,6.0,14.195503251749365,7.594704506231161,-0.6644007334032924,0.22858937398883228,0.031246142567136204,-0.2184504384820518,0.03714313694231919,0.006887399196031652,-0.03530595057582575,0.0,70.0,255.0,255.0,255.0
121,6.050000000000001,14.206979292377046,7.596275613597557,-0.6753674027459583,0.23044854218804645,0.031583835540995864,-0.22020824586959753,0.037031147525290464,0.006366087635178985,-0.03498131118934156,0.0,70.0,255.0,255.0,255.0
122,6.1000000000000005,14.21854810596817,7.597862889785261,-0.6864215579902522,0.23229248874136132,0.0318827513306541,-0.22194856960098597,0.03660938192986407,0.005451061791816869,-0.034612476327589015,0.0,70.0,255.0,255.0,255.0
123,6.15,14.230208541251182,7.5994638887306225,-0.6975622597060569,0.23410948038103285,0.03212894172017755,-0.22366949350235643,0.03602865856766613,0.004381388947827247,-0.03422221640966283,0.0,70.0,255.0,255.0,255.0
124,6.2,14.241959054006273,7.6010757839572785,-0.7087885073404878,0.23589535459812794,0.03232089022543683,-0.22537079124195225,0.035443310301985775,0.0034043209275580466,-0.0338441218960317,0.0,70.0,255.0,255.0,255.0
125,6.25,14.253798076710995,7.602695977753166,-0.7200993388302521,0.23765381141123143,0.032469373812933355,-0.2270539056919596,0.035006564490736025,0.002748185172585238,-0.033499360309163784,0.0,70.0,255.0,255.0,255.0
126,6.300000000000001,14.265724435147396,7.604322721338572,-0.7314938979096838,0.23939601104720154,0.03259570874269535,-0.22872072727286863,0.03480340960422268,0.002536171671430054,-0.033202838413970426,0.0,70.0,255.0,255.0,255.0
127,6.3500000000000005,14.277737677815715,7.605955548627436,-0.742971411557539,0.2411341523716537,0.03272299098007636,-0.23037418953335664,0.03480260672112934,0.0027371901881068084,-0.03299363132929223,0.0,70.0,255.0,255.0,255.0
128,6.4,14.289837850384561,7.607595020436579,-0.7545313168630194,0.24287627171931447,0.03286942776150603,-0.23202009040579785,0.034925970123644845,0.0032514969956487505,-0.03292593754427031,0.0,70.0,255.0,255.0,255.0
129,6.45,14.302025304987646,7.609242491403586,-0.7661734205981188,0.24462674938401818,0.033048140679641236,-0.23366678328778367,0.03509765989608837,0.003969204336051746,-0.03304505686970716,0.0,70.0,255.0,255.0,255.0
130,6.5,14.314300525322963,7.6108998345045435,-0.7778979951917978,0.2463860377089233,0.033266348195111206,-0.23532459609276857,0.03523862374272824,0.004787832142305604,-0.033400570891395365,0.0,70.0,255.0,255.0,255.0
131,6.550000000000001,14.326663908758539,7.6125691262230974,-0.7897058802073956,0.248150611758291,0.033526923893871796,-0.2370068403769232,0.035302440165452253,0.005630764140907019,-0.034001647509163124,0.0,70.0,255.0,255.0,255.0
132,6.6000000000000005,14.339115586498792,7.614252526893931,-0.8015986792294901,0.24991628172546854,0.03382942460920191,-0.23872476084368488,0.03530112358767212,0.0064029746577709545,-0.034732159194494905,0.0,70.0,255.0,255.0,255.0
133,6.65,14.351655536931085,7.615952068684018,-0.8135783562917641,0.2516807241170582,0.03416722135964889,-0.2404800562963727,0.03526568937459729,0.006967308384098203,-0.03539319425235332,0.0,70.0,255.0,255.0,255.0
134,6.7,14.364283658910498,7.617669249029896,-0.8256466848591274,0.25344285066292827,0.03452615544761173,-0.2422640802689202,0.035219849646672685,0.007180400190165415,-0.03578338955275706,0.0,70.0,255.0,255.0,255.0
135,6.75,14.376999821997378,7.619404684228779,-0.8378047643186561,0.2552027090817255,0.03488526137866543,-0.2440583952516484,0.035186912566587125,0.006900486258842875,-0.03570637477328109,0.0,70.0,255.0,255.0,255.0
136,6.800000000000001,14.38980392981867,7.621157775167762,-0.8500525243842922,0.256961541919587,0.035216204073496016,-0.24583471774624832,0.03518011644825236,0.006079233302802578,-0.035076259195232495,0.0,70.0,255.0,255.0,255.0
137,6.8500000000000005,14.402695976189337,7.622926304636128,-0.862388236093281,0.2587207207265507,0.03549318470894569,-0.24756602117117166,0.03519289892874866,0.004896225864658987,-0.03404397897901479,0.0,70.0,255.0,255.0,255.0
138,6.9,14.415676001891326,7.624707093638657,-0.8748091265014094,0.26048083181246184,0.035705826659961915,-0.2492391156441498,0.03521127237711141,0.003676472266000985,-0.032896716681585225,0.0,70.0,255.0,255.0,255.0
139,6.95,14.428744059370583,7.626496887302125,-0.887312147657696,0.26224184796426186,0.03586083193554579,-0.2508556928393302,0.03522294151760974,0.0027609431562325426,-0.03193364599151094,0.0,70.0,255.0,255.0,255.0
140,7.0,14.441900186687752,7.628293176832211,-0.8998946957853424,0.2640031259642228,0.03598192097558517,-0.2524324802433009,0.03521372599131212,0.0024902228219048084,-0.03145393001552366,0.0,70.0,255.0,255.0,255.0
141,7.050000000000001,14.455144371967005,7.630095079399683,-0.912555395682026,0.2657632205633931,0.03610985421773627,-0.25400108584088255,0.035177094042104784,0.0030261021810140676,-0.03160660242313984,0.0,70.0,255.0,255.0,255.0
142,7.1000000000000005,14.468476508744091,7.631904162253985,-0.9252948043694307,0.2675208353684333,0.036284531193686576,-0.2555931404856149,0.035127280696478635,0.0041622384336470475,-0.03224381300143131,0.0,70.0,255.0,255.0,255.0
143,7.15,14.481896455503849,7.633723532519052,-0.9381147097305875,0.26927594863304094,0.036526078061100975,-0.2572254671410257,0.035089221116102465,0.005495846840908314,-0.0330680509095016,0.0,70.0,255.0,255.0,255.0
144,7.2,14.495404103607395,7.635556770060095,-0.9510173510835332,0.27102975748004354,0.03683411587777741,-0.25889994557656504,0.03508838428398775,0.006616479865684255,-0.03377545305452978,0.0,70.0,255.0,255.0,255.0
145,7.25,14.508999431251853,7.6374069441068295,-0.964004704288244,0.2727847870614397,0.0371877260476694,-0.26060301244647865,0.03515818346695454,0.007118669074568373,-0.03404993313659288,0.0,70.0,255.0,255.0,255.0
146,7.300000000000001,14.52268258231354,7.639275542664862,-0.9770776523281811,0.274545575826739,0.037545982785234244,-0.2623049388902243,0.03531150738300681,0.006796497833061466,-0.033731270506176525,0.0,70.0,255.0,255.0,255.0
147,7.3500000000000005,14.536453988834527,7.641161542385353,-0.9902351981772665,0.2763159377997404,0.03786737583097555,-0.2639761394970963,0.03549797828625856,0.00582563625046717,-0.03298710934167559,0.0,70.0,255.0,255.0,255.0
148,7.4,14.550314176093513,7.6430622802479595,-1.0034752662778907,0.27809537365536485,0.03812854641028096,-0.2656036498243919,0.035631843158334675,0.004569324519554385,-0.03214390019322666,0.0,70.0,255.0,255.0,255.0
149,7.45,14.564263526200063,7.644974397026381,-1.0167955631597057,0.27987912211557386,0.038324308282930986,-0.267190529516419,0.03563023463328818,0.003392997520990093,-0.03151820146393147,0.0,70.0,255.0,255.0,255.0
150,7.5,14.57830208830507,7.646894711076253,-1.0301943192295326,0.28165839711869367,0.03846784616237997,-0.26875546997078503,0.03540556811305606,0.002655054260181089,-0.03142624419791851,0.0,70.0,255.0,255.0,255.0
151,7.550000000000001,14.592429365911933,7.648821181642619,-1.0436711101567842,0.28341967892687947,0.038589813708949094,-0.2703331539362108,0.034923076892212634,0.0025472538062842887,-0.03202197522578221,0.0,70.0,255.0,255.0,255.0
152,7.6000000000000005,14.606644056197759,7.6507536924471475,-1.0572276346231537,0.28515070480791493,0.0387225715430084,-0.27195766749336325,0.03428257771940224,0.002966172275176149,-0.03312057014490666,0.0,70.0,255.0,255.0,255.0
153,7.65,14.620944436392724,7.65269343879692,-1.0708668769061205,0.2868479366988197,0.03888643093646671,-0.2736452109507015,0.03366247385017118,0.0036767385309666167,-0.03436268864398517,0.0,70.0,255.0,255.0,255.0
154,7.7,14.63532884986764,7.654642335540794,-1.0845921557182239,0.28851695219293205,0.03909024539610506,-0.27539393635776177,0.033243451076003794,0.004444443802942288,-0.03539239377030601,0.0,70.0,255.0,255.0,255.0
155,7.75,14.649796131612018,7.65660246333653,-1.0984062705418967,0.2901722818064201,0.03933087531676094,-0.2771844503277321,0.0332115254316534,0.0050331418566251784,-0.03586914601587665,0.0,70.0,255.0,255.0,255.0
156,7.800000000000001,14.664346078048283,7.65857542307247,-1.112310600750997,0.2918381047360974,0.03959355958176758,-0.27898085095934944,0.03364998458241786,0.005308939156911663,-0.03562045563030303,0.0,70.0,255.0,255.0,255.0
157,7.8500000000000005,14.678979942085627,7.660561819294707,-1.1263043556378316,0.29353728026466186,0.039861769232452104,-0.2807464958907624,0.03440723531245027,0.005314243413145903,-0.03478049352860779,0.0,70.0,255.0,255.0,255.0
158,7.9,14.693699806074749,7.6625615999957155,-1.1403852503400733,0.2952788282673424,0.04012498392308217,-0.2824589003122102,0.03520189780488181,0.005157474269879003,-0.03363630094170844,0.0,70.0,255.0,255.0,255.0
159,7.95,14.708507824912362,7.664574317687015,-1.1545502456690526,0.29705747004515004,0.040377516659440005,-0.28411012598493324,0.03574990045560611,0.004936826335733002,-0.03248499734742616,0.0,70.0,255.0,255.0,255.0
160,8.0,14.723405553079264,7.6665993516616595,-1.1687962629385666,0.29885381831290303,0.04061866655665547,-0.28570740004695283,0.035764367456003754,0.004752331693769207,-0.03162118106263545,0.0,70.0,255.0,255.0,255.0
161,8.05,14.738393206743652,7.668636184342681,-1.183120985673748,0.3006339067907504,0.040852749828816926,-0.2872722440911968,0.03510989853285906,0.004663050171149763,-0.031208463325493874,0.0,70.0,255.0,255.0,255.0
162,8.1,14.753468943758339,7.670684626644541,-1.1975234873476863,0.30236480816618894,0.041084971573770446,-0.2888282463795022,0.033975660516993855,0.004655921670781993,-0.031190183013518613,0.0,70.0,255.0,255.0,255.0
163,8.15,14.76862968756027,7.672744681500058,-1.2120038103116981,0.3040314728424498,0.041318341995895125,-0.29039126239254864,0.032723594601691275,0.004695135951493512,-0.0314210586379593,0.0,70.0,255.0,255.0,255.0
164,8.200000000000001,14.783872091042584,7.674816460844131,-1.2265626135869412,0.30563716762635806,0.0415544851689198,-0.29197035224329815,0.03171629442189072,0.004754451320998498,-0.031760017772208826,0.0,70.0,255.0,255.0,255.0
165,8.25,14.799193404322907,7.67690013001695,-1.241200845536028,0.3072031022846389,0.041793787127994975,-0.2935672641697695,0.031306948802445334,0.004809559339946645,-0.03206216702955622,0.0,70.0,255.0,255.0,255.0
166,8.3,14.814592401271048,7.67899583955693,-1.2559193400039181,0.3087678625066026,0.04203544110291446,-0.29517656894625377,0.03167079424706287,0.004845573444001161,-0.03224014328226943,0.0,70.0,255.0,255.0,255.0
167,8.35,14.830070190573567,7.681103674127241,-1.2707185024306533,0.31037018170934516,0.04227834447239509,-0.29679127849799647,0.03264023916802472,0.004862069904909561,-0.032300639219351446,0.0,70.0,255.0,255.0,255.0
168,8.4,14.845629419441982,7.68322367400417,-1.2855984678537178,0.31203188642340507,0.04252164809340542,-0.2984066328681889,0.03387276807718109,0.004861981924975112,-0.03227592138288493,0.0,70.0,255.0,255.0,255.0
169,8.450000000000001,14.861273379215907,7.685355838936582,-1.3005591657174722,0.31375745851706327,0.0427645426648926,-0.30001887063628496,0.035018861251323585,0.004845368379591264,-0.03218253063135279,0.0,70.0,255.0,255.0,255.0
170,8.5,14.877005165293689,7.687500128270659,-1.3156003549173463,0.31553377254853743,0.043006184931364544,-0.3016248859313242,0.03573585598157791,0.004809430946206561,-0.03202609487504837,0.0,70.0,255.0,255.0,255.0
171,8.55,14.892826756470761,7.689656457429718,-1.3307216543106046,0.31733104411522106,0.04324548575951326,-0.3032214801237898,0.03584086387267149,0.004754656052963213,-0.03181753697192313,0.0,70.0,255.0,255.0,255.0
172,8.6,14.90873826970521,7.69182467684661,-1.3459225029297253,0.3191178589358046,0.043481650536660865,-0.3048066396285165,0.03543242710026817,0.004695798710052657,-0.031607260109089985,0.0,70.0,255.0,255.0,255.0
173,8.65,14.924738542364341,7.6940046224833845,-1.3612023182734563,0.3208742868252479,0.043715065630518524,-0.3063822061346988,0.03473544964158748,0.004656936348013119,-0.031475255830448745,0.0,70.0,255.0,255.0,255.0
174,8.700000000000001,14.940825698387735,7.696196183409662,-1.3765607235431951,0.3225914038999633,0.04394734417146218,-0.3079541652115614,0.03397534682001435,0.004664075160665249,-0.031503146415734484,0.0,70.0,255.0,255.0,255.0
175,8.75,14.956997682754338,7.698399356900531,-1.3919977347946124,0.3242718215072493,0.04418147314658505,-0.30953252077627225,0.033377599296358085,0.0047527168757888205,-0.03178142549828955,0.0,70.0,255.0,255.0,255.0
176,8.8,14.97325288053846,7.700614330724321,-1.4075139756208224,0.32592916382959913,0.04442261585904106,-0.31113230776139034,0.03307129804657194,0.004935802343997153,-0.03234350836369693,0.0,70.0,255.0,255.0,255.0
177,8.85,14.989590599137298,7.702841618486435,-1.4231109655707515,0.3275789513119065,0.044675053380984764,-0.31276687161264194,0.033025483667792344,0.005154735255175069,-0.033068548782355656,0.0,70.0,255.0,255.0,255.0
178,8.9,15.006010775669651,7.705081836062419,-1.4387906627820866,0.32923171219637837,0.044938089384558566,-0.3144391626396259,0.03315168044402128,0.0053102726821130375,-0.033743987696199795,0.0,70.0,255.0,255.0,255.0
179,8.950000000000001,15.022513770356936,7.707335427424891,-1.454554881834714,0.33089411935630864,0.04520608064919607,-0.3161412703822619,0.03337215240168945,0.005305044264769521,-0.034158823099827984,0.0,70.0,255.0,255.0,255.0
180,9.0,15.039100187605282,7.709602444127339,-1.4704047898203128,0.3325689274365473,0.04546859381103552,-0.3178550449496087,0.033613793452147434,0.005031729523619077,-0.03410824975202953,0.0,70.0,255.0,255.0,255.0
181,9.05,15.05577066310059,7.711882286805994,-1.486340386329675,0.3342554987015234,0.045709253601557975,-0.31955209535746487,0.033827883332548936,0.004448335036233431,-0.03350083050561725,0.0,70.0,255.0,255.0,255.0
182,9.1,15.072525737475434,7.7141733694874945,-1.5023599993560592,0.3359517157698022,0.04591342731465886,-0.3212051280001704,0.03398657063087285,0.0036870318306903016,-0.03248479184774222,0.0,70.0,255.0,255.0,255.0
183,9.15,15.08936583467757,7.71647362953746,-1.518460899129692,0.33765415576461066,0.046077956784627006,-0.3228005745422391,0.03405605702173631,0.002981040522431755,-0.03134422462027775,0.0,70.0,255.0,255.0,255.0
184,9.200000000000001,15.106291153051895,7.718781165165957,-1.5346400568102831,0.33935732147197584,0.04621153136690204,-0.3243395504621982,0.033996556392956734,0.0025618083861367325,-0.030373822257079297,0.0,70.0,255.0,255.0,255.0
185,9.25,15.123301566824768,7.72109478267415,-1.5508948541759118,0.34105381140390634,0.04633413762324068,-0.325837956767947,0.03376722689534262,0.002660318410274698,-0.029865575493448482,0.0,70.0,255.0,255.0,255.0
186,9.3,15.140396534192286,7.723414578928281,-1.5672238524870779,0.3427340441615101,0.046477563207929506,-0.32732610801154305,0.033356655802307955,0.0033784565787620124,-0.029966456327179536,0.0,70.0,255.0,255.0,255.0
187,9.35,15.15757497124092,7.725742538994943,-1.583627464977066,0.34438947698413713,0.04667198328111688,-0.328834602400665,0.032830005371131676,0.004530890335985305,-0.03054417193875114,0.0,70.0,255.0,255.0,255.0
188,9.4,15.1748354818907,7.728081777256393,-1.6001073127271443,0.34601704469862327,0.04693065224152804,-0.33038052520541816,0.032303159068192144,0.005770133992832882,-0.03132722571093094,0.0,70.0,255.0,255.0,255.0
189,9.450000000000001,15.192176675710781,7.730435604219096,-1.616665517497608,0.34761979289095635,0.04724899668040017,-0.33196732497175807,0.03189439591881893,0.006742174404639201,-0.03203931444524244,0.0,70.0,255.0,255.0,255.0
190,9.5,15.209597461179795,7.732806676924433,-1.6333040452243202,0.34920648429050516,0.04760486968199196,-0.3335844566499424,0.031709280319525135,0.0070990248071112205,-0.03240147624612444,0.0,70.0,255.0,255.0,255.0
191,9.55,15.227097324139832,7.735196091187295,-1.6500239631626021,0.35079072092290886,0.04795889916111129,-0.3352074725963705,0.03179929299097495,0.006670752402104796,-0.03226728357950126,0.0,70.0,255.0,255.0,255.0
192,9.600000000000001,15.244676533272086,7.737602566840544,-1.6668247924839572,0.35238641358960265,0.04827194492220244,-0.33681118500789253,0.03212893235815528,0.005639290275727404,-0.031744860723681434,0.0,70.0,255.0,255.0,255.0
193,9.65,15.262335965498792,7.7400232856795155,-1.6837050816633914,0.3540036141587244,0.04852282818868403,-0.33838195866873866,0.03261494307054136,0.004369379216573321,-0.0310596930489071,0.0,70.0,255.0,255.0,255.0
194,9.700000000000001,15.280076894687959,7.7424548496594126,-1.700662988350831,0.3556479078966568,0.04870888284385977,-0.33991715431278324,0.03316637275450063,0.0032355546010442993,-0.030429292922140583,0.0,70.0,255.0,255.0,255.0
195,9.75,15.297900756288458,7.7448941739639015,-1.7176967970946697,0.35732025143417445,0.04884638364878846,-0.3414248879609527,0.033707633178181595,0.0026155637140590215,-0.03006045425408832,0.0,70.0,255.0,255.0,255.0
196,9.8,15.315808919831376,7.747339488024291,-1.7348054771469263,0.35901867121447495,0.04897043921526567,-0.3429231997381921,0.03418668505332789,0.002704594418823092,-0.030064269494878282,0.0,70.0,255.0,255.0,255.0
197,9.850000000000001,15.333802623409905,7.749791217885428,-1.751989117068489,0.36073891993950724,0.04911684309067077,-0.34443131491044054,0.03453790155916181,0.003342904272152225,-0.03039097724093498,0.0,70.0,255.0,255.0,255.0
198,9.9,15.351882811825327,7.7522511723333585,-1.7692486086379704,0.36247246137039113,0.04930472964248089,-0.3459622974622856,0.03467259312444071,0.004202232590877486,-0.030919410018737103,0.0,70.0,255.0,255.0,255.0
199,9.950000000000001,15.370049869546945,7.754721690849676,-1.7865853468147175,0.3642061792519513,0.04953706634975852,-0.34752325591231426,0.034507339171163665,0.004955234229875316,-0.03153022715289833,0.0,70.0,255.0,255.0,255.0
200,10.0,15.388303429750522,7.757204878968334,-1.8040009342292018,0.3659231952875075,0.049800253065468425,-0.3491153201775754,0.03395622426527467,0.005262776280812176,-0.03212071606153444,0.0,70.0,255.0,255.0,255.0
201,10.05,15.406642189075695,7.759701716156223,-1.821496878832475,0.3676018016784788,0.050063343977839736,-0.3507353275184677,0.03299914162049333,0.004951522603047209,-0.03262286454848162,0.0,70.0,255.0,255.0,255.0
202,10.100000000000001,15.42506360991837,7.762211213366118,-1.8390744669810486,0.36922310944955683,0.050295405325773146,-0.35237760663242357,0.031802072126119185,0.0041954329623727915,-0.03297486667612759,0.0,70.0,255.0,255.0,255.0
203,10.15,15.443564500020651,7.7647312566888,-1.8567346394957174,0.3707820088910907,0.050482887274077015,-0.35403281418608046,0.03065459119220293,0.003334510933861168,-0.03309819135137726,0.0,70.0,255.0,255.0,255.0
204,10.200000000000001,15.462141810807479,7.767259502093526,-1.8744777483996566,0.3722885685687771,0.05062885641915926,-0.3556874257675613,0.029856018814555796,0.0026971681521992252,-0.03291702457355328,0.0,70.0,255.0,255.0,255.0
205,10.25,15.480793356877529,7.769794142330716,-1.8923033820724735,0.3737676107725463,0.05075260408929694,-0.3573245166434358,0.02970346043653649,0.002613237921966771,-0.03235271879591384,0.0,70.0,255.0,255.0,255.0
206,10.3,15.499518571884733,7.772334762502456,-1.9102102000640002,0.37525891461243077,0.05089018021135594,-0.3589226976471527,0.030331060817267996,0.0032429748425322202,-0.03138944713652059,0.0,70.0,255.0,255.0,255.0
207,10.350000000000001,15.518319248338772,7.774883160351852,-1.9281956518371888,0.3768007168542731,0.05107690157355016,-0.36046346135708784,0.03152485888708867,0.004388184391324046,-0.030192166777198715,0.0,70.0,255.0,255.0,255.0
208,10.4,15.53719864357016,7.777442452659811,-1.946256546199709,0.37841140050113964,0.051328998650488344,-0.36194191432487255,0.032876314836904896,0.0056660640006533924,-0.029047731335474225,0.0,70.0,255.0,255.0,255.0
209,10.450000000000001,15.556160388388886,7.780016060216901,-1.964389843269676,0.38008834833796357,0.0516435079736155,-0.36336823449063527,0.03396303778568921,0.006696745841949792,-0.02825342280448062,0.0,70.0,255.0,255.0,255.0
210,10.5,15.575207478403957,7.782606803457172,-1.9825933696487725,0.38180770427970856,0.051998673234683324,-0.3647672566053206,0.03435795263282415,0.007108327975924311,-0.028104399430706195,0.0,70.0,255.0,255.0,255.0
211,10.55,15.594341158816857,7.785215927540369,-2.000866568930208,0.383524143601246,0.05235434077120793,-0.3661786744337059,0.033850041683436416,0.006716205066581438,-0.028733659259883026,0.0,70.0,255.0,255.0,255.0
212,10.600000000000001,15.613559892764082,7.787842237534293,-2.019211237092143,0.3851927084480522,0.05267029374134147,-0.3676406225313089,0.03266930817904523,0.005701712921002411,-0.029927515166372487,0.0,70.0,255.0,255.0,255.0
213,10.65,15.632860429661662,7.790482956914503,-2.037630631183339,0.3867910744191505,0.05292451206330817,-0.36917142595034314,0.0312693336098846,0.004432188774305956,-0.03127815603387596,0.0,70.0,255.0,255.0,255.0
214,10.700000000000001,15.652239000205997,7.793134688740624,-2.0561283796871774,0.38831964180904066,0.05311351261877206,-0.3707684381346965,0.03010497689537317,0.00328190908627235,-0.032363736422702516,0.0,70.0,255.0,255.0,255.0
215,10.75,15.671692393842566,7.79579430817638,-2.0747074749968086,0.3898015721086878,0.053252702971935406,-0.3724077995926134,0.029632654438316308,0.002625431526848132,-0.032757702129115884,0.0,70.0,255.0,255.0,255.0
216,10.8,15.691219157416866,7.798459959037817,-2.0933691596464388,0.3912829072528723,0.053376055771456876,-0.3740442083476081,0.030081919301139237,0.0026582654980344955,-0.03224934239778321,0.0,70.0,255.0,255.0,255.0
217,10.850000000000001,15.710820684567853,7.801131913753526,-2.1121118958315694,0.39280976403880175,0.053518529521738856,-0.3756327338323917,0.031227092546970425,0.0032359196352693687,-0.031068588408711406,0.0,70.0,255.0,255.0,255.0
218,10.9,15.730500133820746,7.803811811989991,-2.130932433029678,0.39440561650756933,0.05369964773498381,-0.37715106718847924,0.032617166574233636,0.004055064351238258,-0.0296688286779645,0.0,70.0,255.0,255.0,255.0
219,10.950000000000001,15.75026124621861,7.806501878527024,-2.1498270025504174,0.3960714806962251,0.05392403595686268,-0.37859961670018816,0.03380390777998343,0.00481524485174134,-0.028504778357518745,0.0,70.0,255.0,255.0,255.0
220,11.0,15.770107281890368,7.809204215585678,-2.1687923946996968,0.3977860072855677,0.05418117222015795,-0.3800015450242311,0.034343504206191255,0.005214001861020279,-0.02803271746056879,0.0,70.0,255.0,255.0,255.0
221,11.05,15.790039846947167,7.81191999574904,-2.1878271570528405,0.39950583111684423,0.05444543614296471,-0.38140288844624504,0.03400913425863905,0.005091385622701949,-0.02848211800210443,0.0,70.0,255.0,255.0,255.0
222,11.100000000000001,15.810057865002053,7.814648759199974,-2.2069326835443213,0.4011869207114316,0.05469031078242814,-0.38284975682444156,0.032993137483927626,0.004560948864451575,-0.029627315348301764,0.0,70.0,255.0,255.0,255.0
223,11.15,15.83015853901831,7.817389026827283,-2.2261121327352846,0.402805144865237,0.05490153102940987,-0.3843656199810752,0.03169118424128925,0.003860374333530814,-0.031017345105155414,0.0,70.0,255.0,255.0,255.0
224,11.200000000000001,15.850338379488576,7.820138912302915,-2.245369245542429,0.4043560391355605,0.05507634821578122,-0.3859514913349571,0.030499252124016607,0.003217484466855325,-0.032204003294022954,0.0,70.0,255.0,255.0,255.0
225,11.25,15.870594142931866,7.822896661648861,-2.2647072818687803,0.40585507007763866,0.0552232794760954,-0.3875860203104775,0.02981328211930645,0.0028504957611197312,-0.032743502620791176,0.0,70.0,255.0,255.0,255.0
226,11.3,15.89092388649634,7.825661240250525,-2.2841278475734765,0.40733736734749115,0.0553613977918932,-0.3892258415970362,0.029840890985433077,0.0028760521508353065,-0.032409038740333074,0.0,70.0,255.0,255.0,255.0
227,11.350000000000001,15.911327879666615,7.82843280142805,-2.303629866028484,0.40883915917618197,0.05551088469117893,-0.3908269241845108,0.030431313226486623,0.0032348769818391077,-0.031392966048571225,0.0,70.0,255.0,255.0,255.0
228,11.4,15.931807802413958,7.8312123287196425,-2.3232105399919276,0.4103804986701398,0.05568488549007711,-0.39236513820189334,0.03126797990891106,0.0037888462406598933,-0.030090975050889313,0.0,70.0,255.0,255.0,255.0
229,11.450000000000001,15.952365929533629,7.834001289977058,-2.3428663798486733,0.41196595716707307,0.05588976931524492,-0.39383602168959975,0.032038710763693246,0.004401530567221812,-0.028899068606325073,0.0,70.0,255.0,255.0,255.0
230,11.5,15.973004398130666,7.836801305651167,-2.3625941421608876,0.41358436974650914,0.05612503854679929,-0.39525504506252584,0.032427423262682,0.004948024418283126,-0.028213225436202194,0.0,70.0,255.0,255.0,255.0
231,11.55,15.99372436650828,7.839613793831738,-2.382391884354926,0.41520869949334127,0.05638457175707323,-0.39665734423321997,0.03226795448139086,0.005351631880934349,-0.028241074356039064,0.0,70.0,255.0,255.0,255.0
232,11.600000000000001,16.01452526808,7.842439762826874,-2.4022598765842096,0.4168111651946482,0.05666020173489272,-0.39807915249812975,0.03168794993442248,0.005583179572354879,-0.028831776168392054,0.0,70.0,255.0,255.0,255.0
233,11.65,16.035405483027745,7.845279814005227,-2.422199799604739,0.4183774944867835,0.05694288971430872,-0.39954052185005917,0.030949716634687263,0.005619765179432079,-0.029668638141311376,0.0,70.0,255.0,255.0,255.0
234,11.700000000000001,16.05636301752868,7.848134051798305,-2.4422139287692155,0.41990613685811695,0.05722217825283593,-0.4010460163122609,0.030306277782443658,0.005436906083833293,-0.03043934931996617,0.0,70.0,255.0,255.0,255.0
235,11.75,16.077396096713557,7.851002031830511,-2.462304401235965,0.4214081222650279,0.05748658032269205,-0.4025844567820558,0.030008959563687654,0.005001415889793748,-0.030827651578180237,0.0,70.0,255.0,255.0,255.0
236,11.8,16.09850382975518,7.853882709830574,-2.482472374447421,0.4229070328144857,0.057722319841815306,-0.4041287814700789,0.0301871512288443,0.004316394684344971,-0.030667316516552745,0.0,70.0,255.0,255.0,255.0
237,11.850000000000001,16.119686799995005,7.8567742638146925,-2.502717279382973,0.4244268373879123,0.057918219791126546,-0.40565118843371106,0.030731479108681015,0.003513243889941009,-0.030086269604368,0.0,70.0,255.0,255.0,255.0
238,11.9,16.140946513493972,7.859674531809687,-2.523037493290792,0.4259801807253538,0.05807364423080941,-0.4071374084305157,0.03141856147728106,0.00281293220298906,-0.029347292896764188,0.0,70.0,255.0,255.0,255.0
239,11.950000000000001,16.16228481806754,7.862581628237773,-2.5434310202260244,0.4275686935356404,0.05819951301142545,-0.4085859177233875,0.03202960467909577,0.0024431061691920775,-0.028703907073923673,0.0,70.0,255.0,255.0,255.0
240,12.0,16.183703382847536,7.8654944831108295,-2.563896085063131,0.4291831411932634,0.058317954847728615,-0.4100077991379081,0.0323527757782216,0.0026382933739022008,-0.028408102982657724,0.0,70.0,255.0,255.0,255.0
241,12.05,16.205203132186867,7.868413423722546,-2.584431800139815,0.4308039711134626,0.05846334234881567,-0.41142672802165325,0.03227686717863776,0.0034971017359275436,-0.028589519718025258,0.0,70.0,255.0,255.0,255.0
242,12.100000000000001,16.226783779958883,7.871340817345711,-2.6050387578652963,0.43241082791112717,0.05866766502132137,-0.4128667511097106,0.0318715415581039,0.004797597782690843,-0.029137737488937887,0.0,70.0,255.0,255.0,255.0
243,12.15,16.24844421497798,7.874280190224678,-2.6257184752507863,0.43399112526927297,0.05894310212708476,-0.41434050177054704,0.031290629530644765,0.006133074773373437,-0.029827598196963123,0.0,70.0,255.0,255.0,255.0
244,12.200000000000001,16.27018289248581,7.87723512755842,-2.646472808042351,0.43553989086419165,0.05928097249865871,-0.4158495109294069,0.030688590211980227,0.007091834739814118,-0.030438448957692543,0.0,70.0,255.0,255.0,255.0
245,12.25,16.2919982040644,7.880208287474544,-2.667303426343727,0.437059984290471,0.05965228560106617,-0.4173843466663163,0.030215927997545577,0.0072694665584016604,-0.030755973787011115,0.0,70.0,255.0,255.0,255.0
246,12.3,16.313888890914857,7.883200356118526,-2.6882112427089826,0.4385614836639462,0.06000791915449888,-0.41892510830810803,0.029958153952236444,0.00647431259110931,-0.03066803118501049,0.0,70.0,255.0,255.0,255.0
247,12.350000000000001,16.335854352430793,7.886209079389994,-2.7091959371745378,0.44005579968569464,0.0602997168601771,-0.42045114978481735,0.029898718297260984,0.0049480199924012425,-0.030248188365433748,0.0,70.0,255.0,255.0,255.0
248,12.4,16.357894470883426,7.889230327804544,-2.7302563576874643,0.4415513554936723,0.060502721153739,-0.4219499271446514,0.02998339592288346,0.0031647920134325602,-0.02965690638965235,0.0,70.0,255.0,255.0,255.0
249,12.450000000000001,16.38000948798016,7.892259351505368,-2.751390929889003,0.443054139277983,0.060616196061520355,-0.4234168404237826,0.030162234937591847,0.0016083893689788908,-0.02905558380863482,0.0,70.0,255.0,255.0,255.0
250,12.5,16.402199884811225,7.895291947410696,-2.7725980417298426,0.4445675789874315,0.06066356009063689,-0.4248554855255149,0.030391530879469997,0.0007478030963348203,-0.028603992545317425,0.0,70.0,255.0,255.0,255.0
251,12.55,16.424466245878904,7.898325707514432,-2.7938764784415544,0.44609329236593,0.06069097637115384,-0.4262772396783143,0.030637743121886274,0.0008255080399699466,-0.028391129434579554,0.0,70.0,255.0,255.0,255.0
252,12.600000000000001,16.446809214047818,7.901361045047811,-2.815225765697674,0.4476313532996201,0.06074611089463389,-0.42769459846897284,0.030854517653366997,0.001676802435213176,-0.028385872686076397,0.0,70.0,255.0,255.0,255.0
253,12.65,16.469229381208866,7.904400318603895,-2.8366459382884517,0.4491787441312667,0.060858656614675155,-0.42911582694692196,0.03097401521365839,0.002941276985524155,-0.028509251768893407,0.0,70.0,255.0,255.0,255.0
254,12.700000000000001,16.491727088460944,7.907446910709279,-2.858137348392366,0.45072875482098596,0.0610402385931863,-0.4305455236458622,0.0309229828580726,0.004248034356546526,-0.028685416273521724,0.0,70.0,255.0,255.0,255.0
255,12.75,16.514302256690964,7.910504342463214,-2.879700490653038,0.45227104241707394,0.06128346005032981,-0.43198436857427414,0.030617948485556212,0.0052233303807547316,-0.028836074679894352,0.0,70.0,255.0,255.0,255.0
256,12.8,16.53695419270265,7.913575256714312,-2.9013357852497936,0.4537905496695416,0.061562571631261775,-0.4334291311138516,0.030030360741051254,0.005658620285142746,-0.028914677184133097,0.0,70.0,255.0,255.0,255.0
257,12.850000000000001,16.55968131165792,7.91666059962634,-2.923043403764423,0.45527407849117907,0.06184932207884408,-0.43487583629268745,0.029284982650423785,0.005632975395553075,-0.02892925329120999,0.0,70.0,255.0,255.0,255.0
258,12.9,16.58248160055177,7.919760188922196,-2.9448233688790624,0.45671904793458395,0.06212586917081708,-0.4363220564429726,0.028599610820378984,0.0053393774324561605,-0.028904314972821865,0.0,70.0,255.0,255.0,255.0
259,12.950000000000001,16.605353216451377,7.922873186543422,-2.9666756094087203,0.45813403957321697,0.0623832598220897,-0.43776626778996963,0.028191894237039605,0.004960871805703704,-0.028856550630917965,0.0,70.0,255.0,255.0,255.0
260,13.0,16.62829500450909,7.925998514904405,-2.9885999956580593,0.4595382373582879,0.06262195635138745,-0.4392077115060644,0.028276628558643324,0.00469081011278405,-0.02879968076330286,0.0,70.0,255.0,255.0,255.0
261,13.05,16.651307040187206,7.92913538217856,-3.0105963805593268,0.4609617024290813,0.0628523408333681,-0.4406462358662999,0.028948412981577576,0.004638845318893914,-0.028743448541979078,0.0,70.0,255.0,255.0,255.0
262,13.100000000000001,16.674391174752,7.932283748987742,-3.0326646192446893,0.4624330786564457,0.06308584088327684,-0.4420820563602623,0.030039304659368327,0.004749431181583219,-0.0286971141489456,0.0,70.0,255.0,255.0,255.0
263,13.15,16.69755034805285,7.935443966266888,-3.054804586195353,0.46396563289501813,0.06332728395152643,-0.4435159472811945,0.03123211026938577,0.004904756407331234,-0.028673488340080766,0.0,70.0,255.0,255.0,255.0
264,13.200000000000001,16.7207877380415,7.938616477382895,-3.077016213972809,0.46555628968338425,0.06357631652400997,-0.4449494051942704,0.0322038924096546,0.005007592639127978,-0.028688381202757185,0.0,70.0,255.0,255.0,255.0
265,13.25,16.74410597702119,7.941801597919289,-3.09929952671478,0.4671860221359836,0.06382804321543922,-0.4463847854014702,0.03264756525176438,0.004969513084063237,-0.028765202266933798,0.0,70.0,255.0,255.0,255.0
266,13.3,16.7675063402551,7.944999281704439,-3.121654692512956,0.4688210462085607,0.06407326783241629,-0.4478259254209638,0.03240890108209271,0.004745625479340987,-0.028911528647768137,0.0,70.0,255.0,255.0,255.0
267,13.350000000000001,16.790988081642045,7.948208924702531,-3.1440821192568764,0.47042691224419286,0.06430260576337332,-0.449275938266247,0.031607682162260176,0.0043710714407119156,-0.029082290112603104,0.0,70.0,255.0,255.0,255.0
268,13.4,16.81454903147952,7.951429542280776,-3.1665822863395805,0.4719818144247867,0.06451037497648748,-0.4507341544322241,0.030502903814877413,0.003920664536405383,-0.02920173166720552,0.0,70.0,255.0,255.0,255.0
269,13.450000000000001,16.838186263084523,7.9546599622001795,-3.189155534700099,0.4734772026256806,0.06469467221701386,-0.45219611143296756,0.029365310015805335,0.0034682448174727654,-0.029196637845307905,0.0,70.0,255.0,255.0,255.0
270,13.5,16.861896751742087,7.957899009502477,-3.2118018974828773,0.47491834542636724,0.06485719945823476,-0.4536538182167549,0.028457119756453153,0.0030751468752754363,-0.02899153814093225,0.0,70.0,255.0,255.0,255.0
271,13.55,16.88567809762716,7.961145682146003,-3.2345209165217743,0.4763229146013259,0.0650021869045414,-0.4550952652470608,0.027928243762431748,0.0027786527633466562,-0.02855663733294378,0.0,70.0,255.0,255.0,255.0
272,13.600000000000001,16.90952904320222,7.9643992281929314,-3.2573114240075833,0.4777111698026104,0.06513506473456943,-0.45650948195004926,0.027762693966693064,0.0026035790932965597,-0.02797549696214041,0.0,70.0,255.0,255.0,255.0
273,13.65,16.93344921460742,7.96765918861946,-3.2801718647167792,0.4790991839979952,0.06526254481387106,-0.45789281494327483,0.027885225521018242,0.002575289409456616,-0.027398652590138184,0.0,70.0,255.0,255.0,255.0
274,13.700000000000001,16.95743896160202,7.9709254826743186,-3.303100705501911,0.48049969235471224,0.06539259367551509,-0.4592493472090631,0.028220555172353556,0.002712714804431471,-0.026977841308939432,0.0,70.0,255.0,255.0,255.0
275,13.75,16.981499183842892,7.974198447987011,-3.3260967994376855,0.4819212395152306,0.0655338162943142,-0.46059059907416877,0.02868796504564841,0.003033862119128372,-0.026860626521241215,0.0,70.0,255.0,255.0,255.0
276,13.8,17.005631085553542,7.97747886430375,-3.3491597654093277,0.4833684888592771,0.06569597988742792,-0.4619354098611872,0.029226375615820643,0.0035340758212321077,-0.027115721554382688,0.0,70.0,255.0,255.0,255.0
277,13.850000000000001,17.02983603272882,7.980768045975754,-3.3722903404238043,0.48484387707681265,0.06588722387643742,-0.46330217122960704,0.029781635213055324,0.004133773025039034,-0.02765124651418205,0.0,70.0,255.0,255.0,255.0
278,13.9,17.054115473261223,7.984067586691394,-3.3954899825322884,0.4863466523805826,0.06610935718993183,-0.4647005345126054,0.030273583378814806,0.004697338664971795,-0.028287294335882507,0.0,70.0,255.0,255.0,255.0
279,13.950000000000001,17.07847069796688,7.987378981694747,-3.418760393875065,0.4878712354146941,0.0663569577429346,-0.4661309006631953,0.030607294469575663,0.0050819216056652294,-0.02883922302672204,0.0,70.0,255.0,255.0,255.0
280,14.0,17.102902596802693,7.990703282465687,-3.442103072598608,0.4894073818275402,0.06661754935049835,-0.4675844568152776,0.03069498276708771,0.0051453953243907335,-0.02912996509807364,0.0,70.0,255.0,255.0,255.0
281,14.05,17.127411436149632,7.994040736629797,-3.4655188395565926,0.4909407336914029,0.06687149727537367,-0.46904389717300266,0.030499027665342737,0.004824531131664145,-0.029067189735920707,0.0,70.0,255.0,255.0,255.0
282,14.100000000000001,17.151996670171833,7.9973904321932245,-3.489007462315908,0.49245728459407445,0.06710000246366477,-0.4704911757888697,0.03007524070248735,0.004225804330904026,-0.028704924906364226,0.0,70.0,255.0,255.0,255.0
283,14.15,17.17665716460904,8.000750736876164,-3.5125679571354795,0.49394825776165163,0.06729407770846407,-0.4719143896636391,0.029536804600382993,0.003551719566985412,-0.028166762140990897,0.0,70.0,255.0,255.0,255.0
284,14.200000000000001,17.201391495948,8.004119839964071,-3.536198901282272,0.49541096505411275,0.0674551744203633,-0.47330785200296877,0.02900975412920559,0.0030123726654451843,-0.027578553297757935,0.0,70.0,255.0,255.0,255.0
285,14.25,17.22619826111445,8.0074962543182,-3.5598987423357764,0.4968492331745722,0.06759531497500859,-0.47467224499341487,0.028620122533951076,0.0028205472590414615,-0.027055503762429822,0.0,70.0,255.0,255.0,255.0
286,14.3,17.251076419265456,8.010879371461572,-3.5836661257816136,0.49827297730750786,0.06773722914626745,-0.47601340237921175,0.028437000901959664,0.003081086365419594,-0.02666829339430521,0.0,70.0,255.0,255.0,255.0
287,14.350000000000001,17.276025558845202,8.014269977232827,-3.6075000825736976,0.49969293326476816,0.06790342361155055,-0.4773390743328454,0.02843376561187938,0.0036776017262596383,-0.026445417496478996,0.0,70.0,255.0,255.0,255.0
288,14.4,17.301045712591932,8.017669713822727,-3.631400033214898,0.5011163538686958,0.06810498931889342,-0.47865794412885965,0.02854367374567346,0.004381190992930328,-0.02641013262487668,0.0,70.0,255.0,255.0,255.0
289,14.450000000000001,17.32613719423207,8.021080476164716,-3.6553658769865836,0.5025473006393355,0.06834154271084358,-0.47998008759533306,0.02869988948113189,0.00496201430557619,-0.026586050962063013,0.0,70.0,255.0,255.0,255.0
290,14.5,17.351300442655866,8.024503868093811,-3.6793980419744314,0.503986342816809,0.06860119074945104,-0.48131654922506595,0.028832545742929483,0.0051884529348456,-0.027004010528353106,0.0,70.0,255.0,255.0,255.0
291,14.55,17.376535828513752,8.027940595239661,-3.70349753190909,0.5054305552136285,0.06886038800432814,-0.48268048864816837,0.028900194834236004,0.00494454998030136,-0.02766066232782194,0.0,70.0,255.0,255.0,255.0
292,14.600000000000001,17.40184349817723,8.031389906894244,-3.7276660908392483,0.5068763623002326,0.06909564574748117,-0.48408261545784814,0.028910629251654996,0.004349196689368284,-0.028432565946667765,0.0,70.0,255.0,255.0,255.0
293,14.65,17.427223464743776,8.03485015981441,-3.751905793454875,0.508321618138794,0.06929530767326497,-0.48552374524283515,0.028886728855681554,0.003638108536208051,-0.029111868198450352,0.0,70.0,255.0,255.0,255.0
294,14.700000000000001,17.452675659991108,8.03831943766157,-3.776218465363532,0.5097650351858007,0.06945945660110198,-0.4869938022776932,0.028844487481549663,0.0030461435393647207,-0.029484981781857655,0.0,70.0,255.0,255.0,255.0
295,14.75,17.478199968262356,8.04179610547452,-3.8006051736826443,0.5112060668869489,0.06959992202720144,-0.4884722434210209,0.028797666523061594,0.0028096037045344247,-0.02933647277263418,0.0,70.0,255.0,255.0,255.0
296,14.8,17.503796266679803,8.04527942986429,-3.825065689705634,0.5126448018381069,0.06974041697155542,-0.4899274495549566,0.02875550647303271,0.003047287140311994,-0.02857474494022405,0.0,70.0,255.0,255.0,255.0
297,14.850000000000001,17.529464448446166,8.048770147171675,-3.84959791863814,0.5140816175342522,0.06990465074123264,-0.4913297179150433,0.028723717380430003,0.003640203591537272,-0.02739056580280952,0.0,70.0,255.0,255.0,255.0
298,14.9,17.55520442843323,8.052269894938414,-3.874198661497138,0.5155171735761499,0.07010443733070915,-0.49266650613523755,0.028709410834792948,0.004351782787459513,-0.02613782581635249,0.0,70.0,255.0,255.0,255.0
299,14.950000000000001,17.58101616580378,8.055780590904746,-3.8988645692516637,0.5169525586177315,0.0703398290199786,-0.49394350049667857,0.028722160591954093,0.004946838110519991,-0.025179569696254234,0.0,70.0,255.0,255.0,255.0
300,15.0,17.606899684295,8.059303877840412,-3.923593011546806,0.5183893896353453,0.07059912114176115,-0.49518446310486297,0.02877678816126661,0.005189169541885974,-0.024878070409428688,0.0,70.0,255.0,255.0,255.0
301,15.05,17.632855104767316,8.062840503018922,-3.94838301556215,0.5198302374338581,0.07085874597416719,-0.49643130753762144,0.028877779273628335,0.004959728031295185,-0.0254074441580876,0.0,70.0,255.0,255.0,255.0
302,15.100000000000001,17.658882708038387,8.066389752437829,-3.973236142300568,0.5212771675627081,0.07109509394489066,-0.49772520752067173,0.02899450122804126,0.0043753968711257585,-0.026555287391838434,0.0,70.0,255.0,255.0,255.0
303,15.15,17.684982821523587,8.069950012413411,-3.998155536314217,0.5227296875566623,0.07129628566127977,-0.4990868362768053,0.029075627808339277,0.003669352389934488,-0.02790587282537338,0.0,70.0,255.0,255.0,255.0
304,15.200000000000001,17.711155676794053,8.073519381003956,-4.023144825928249,0.5241847303435421,0.07146202918388411,-0.5005157948032091,0.02907358343762212,0.003073077444959438,-0.029037392114394933,0.0,70.0,255.0,255.0,255.0
305,15.25,17.73740129455794,8.0770962153318,-4.048207115794538,0.5256370459004245,0.07160359340577571,-0.5019905754882448,0.028947208799579016,0.0028176808301694223,-0.029531292209439286,0.0,70.0,255.0,255.0,255.0
306,15.3,17.763719381384096,8.080679740344534,-4.073343883477073,0.5270794512235,0.07174379726690105,-0.503468924024153,0.02867957689787204,0.003020374160200845,-0.029175618286725324,0.0,70.0,255.0,255.0,255.0
307,15.350000000000001,17.79010923968029,8.08427059505849,-4.098554008196953,0.5285050035902117,0.0719056308217958,-0.5049081373169173,0.028300049270768568,0.003572800999052106,-0.028159100480529276,0.0,70.0,255.0,255.0,255.0
308,15.4,17.816569881743117,8.087870303426714,-4.123834697208765,0.5299094561505768,0.07210107736680627,-0.5062848340722059,0.02786714553124625,0.0042562155796233014,-0.02686786703200994,0.0,70.0,255.0,255.0,255.0
309,15.450000000000001,17.84310018529535,8.09148070279517,-4.149182491604174,0.5312917181433363,0.07233125237975813,-0.5075949240201183,0.027442992838899727,0.004854278683730229,-0.0256907219867486,0.0,70.0,255.0,255.0,255.0
310,15.5,17.86969905355745,8.09510342866469,-4.174594189610777,0.5326537554344668,0.07258650523517929,-0.5088539062708808,0.02707838596336387,0.005156144432305609,-0.02501671413250861,0.0,70.0,255.0,255.0,255.0
311,15.55,17.896365560838795,8.098739353318688,-4.200067882231262,0.5339995567396727,0.07284686682298869,-0.5100965954333692,0.02680391313347741,0.005052201900923592,-0.025049430013801555,0.0,70.0,255.0,255.0,255.0
312,15.600000000000001,17.923099009231418,8.102388115346988,-4.225603849154114,0.5353341467478145,0.07309172542527165,-0.5113588492722609,0.026642597726578288,0.004618807058420771,-0.02563926639691516,0.0,70.0,255.0,255.0,255.0
313,15.65,17.949898975513577,8.106048525861215,-4.251203767158488,0.5366638165123305,0.07330874752883076,-0.5126605220730607,0.02661849402727512,0.00402037736577654,-0.026472542496502882,0.0,70.0,255.0,255.0,255.0
314,15.700000000000001,17.97676539088265,8.109718990099871,-4.27686990136142,0.537995996150542,0.0734937631618493,-0.5140061035219112,0.026747731920551132,0.0034230945338720176,-0.02723934697854702,0.0,70.0,255.0,255.0,255.0
315,15.75,18.00369857512863,8.1133979021774,-4.302604377510679,0.5393385897043856,0.07365105698221797,-0.5153844567709154,0.02704321005282395,0.0029937321176731757,-0.02762590720468694,0.0,70.0,255.0,255.0,255.0
316,15.8,18.03069924985309,8.117084095798093,-4.328408347038511,0.5407003171558245,0.07379313637361662,-0.5167686942423799,0.027499082922588514,0.002823592127754182,-0.02746731433873606,0.0,70.0,255.0,255.0,255.0
317,15.850000000000001,18.057768606844213,8.120777215814762,-4.354281246934917,0.5420884979966445,0.07393341619499338,-0.518131188204789,0.02804872066128894,0.002868334402705841,-0.026890174258653587,0.0,70.0,255.0,255.0,255.0
318,15.9,18.084908099652754,8.124477437417593,-4.38022146585899,0.5435051892219533,0.0740799698138872,-0.5194577116682453,0.028578039198734473,0.0030267504820713498,-0.026154783494192202,0.0,70.0,255.0,255.0,255.0
319,15.950000000000001,18.11211912576641,8.12818521279615,-4.406227018101742,0.5449463019165179,0.07423609124320052,-0.5207466665542082,0.02896710512061418,0.003199543647447456,-0.025512263058491413,0.0,70.0,255.0,255.0,255.0
320,16.0,18.139402729844406,8.131901046541913,-4.432296132514411,0.5464018997340148,0.07439992417863195,-0.5220089379740944,0.029104764499976454,0.003276945746577553,-0.02521159178145993,0.0,70.0,255.0,255.0,255.0
321,16.05,18.16675931573981,8.135625205214014,-4.458427911899151,0.5478567783665156,0.07456378581785827,-0.5232678257323542,0.028939242355363604,0.0032006556940800124,-0.02538117277186558,0.0,70.0,255.0,255.0,255.0
322,16.1,18.194188407681057,8.139357425123698,-4.484622915087646,0.5492958239695511,0.07471998974803995,-0.524547055251281,0.02852699515472068,0.003028787730130489,-0.025914628642809134,0.0,70.0,255.0,255.0,255.0
323,16.150000000000002,18.221688898136765,8.143097204188818,-4.510882617424279,0.5507094778819877,0.07486666459087132,-0.5258592885966351,0.02798571281559248,0.0028708491454310092,-0.02659373145110777,0.0,70.0,255.0,255.0,255.0
324,16.2,18.249259355469256,8.146844091582786,-4.53720884394731,0.5520943952511104,0.07500707466258305,-0.5272064283963918,0.027443334775867356,0.002825817124119112,-0.02720502736055508,0.0,70.0,255.0,255.0,255.0
325,16.25,18.276898337661876,8.150597911655076,-4.5636032602639185,0.5534538113595744,0.07514924630328323,-0.5285797913326906,0.027025750593523412,0.002994428951730299,-0.027543762966519836,0.0,70.0,255.0,255.0,255.0
326,16.3,18.304604736605214,8.154359016213114,-4.590066823080579,0.5547969703104627,0.07530651755775608,-0.5299608046930437,0.026803434835187545,0.0034208713426409076,-0.027501421147757554,0.0,70.0,255.0,255.0,255.0
327,16.35,18.332378034692923,8.158128563410852,-4.616599340733223,0.5561341548430931,0.07549133343754733,-0.5313299334474664,0.026759662356923286,0.004014743115199337,-0.027136719095466333,0.0,70.0,255.0,255.0,255.0
328,16.400000000000002,18.360218152089523,8.161908149556869,-4.643199816425326,0.557472936546155,0.07570799186927601,-0.5326744766025904,0.02684358506286344,0.00461078533753323,-0.026584882775360086,0.0,70.0,255.0,255.0,255.0
329,16.45,18.388125328347538,8.16569936259778,-4.669866788393482,0.5588185133493795,0.07595241197130065,-0.5339884217250024,0.027005756242814982,0.005044413962629335,-0.02598091421219806,0.0,70.0,255.0,255.0,255.0
330,16.5,18.41610000342446,8.169503390753999,-4.696598658597826,0.5601735121704365,0.07621243326553895,-0.5352725680238102,0.02720025177538332,0.005153357093767852,-0.02544934702894963,0.0,70.0,255.0,255.0,255.0
331,16.55,18.44414267956458,8.173320605924333,-4.723394045195863,0.5615385385269178,0.07646774768067743,-0.5365333564278973,0.0273942444092512,0.004862059401311569,-0.02506591652968737,0.0,70.0,255.0,255.0,255.0
332,16.6,18.472253857277153,8.177150165522066,-4.750251994240616,0.5629129366113617,0.0766986392056701,-0.5377791596767789,0.0275552878175489,0.004276715333872971,-0.024854858611700337,0.0,70.0,255.0,255.0,255.0
333,16.650000000000002,18.500433973225718,8.1809904698449,-4.777171961163541,0.5642940673086727,0.07689541921406473,-0.5390188422890674,0.027638175372146634,0.003602373141653459,-0.024831212972475925,0.0,70.0,255.0,255.0,255.0
334,16.7,18.52868326400802,8.184839707443473,-4.804153878469522,0.5656767541485763,0.07705887651983545,-0.5402622809740265,0.02759415307451718,0.0030493009186116637,-0.025010802969838153,0.0,70.0,255.0,255.0,255.0
335,16.75,18.557001648640576,8.188696357496884,-4.8311981892609435,0.5670534826161244,0.0772003493059259,-0.5415199225860512,0.027373242303951884,0.0028281333493751504,-0.025414839593373983,0.0,70.0,255.0,255.0,255.0
336,16.8,18.585388612269632,8.192559742374065,-4.8583058707281275,0.5684140783789715,0.07734168985477297,-0.5428037649333639,0.026959074704890895,0.003044177765332279,-0.02603593837458007,0.0,70.0,255.0,255.0,255.0
337,16.85,18.613843056478473,8.196430526482361,-4.88547856575428,0.5697493900866135,0.07750476708245913,-0.5441235164235092,0.026420957937034473,0.003592987624045918,-0.02676300729724801,0.0,70.0,255.0,255.0,255.0
338,16.900000000000002,18.642363551278294,8.200310219082311,-4.912718222370478,0.571056174172675,0.07770098861717756,-0.5454800656630887,0.025882781049091363,0.004265130020009167,-0.02740942617398545,0.0,70.0,255.0,255.0,255.0
339,16.95,18.67094867389574,8.204200625344079,-4.940026572320589,0.5723376681915227,0.07793128008446004,-0.5468644590409077,0.02547040535034739,0.0048518089355908955,-0.0277836128354636,0.0,70.0,255.0,255.0,255.0
340,17.0,18.699597318097446,8.208103347090757,-4.967404668274569,0.5736032147077097,0.07818616951073665,-0.5482584269466351,0.02529876035914924,0.005150146806265354,-0.02769931324531072,0.0,70.0,255.0,255.0,255.0
341,17.05,18.72830899536651,8.212019242295153,-4.994852415015252,0.5748675442274376,0.07844629476508658,-0.5496343903654388,0.025423256304790698,0.0050546561114472865,-0.02707601761837708,0.0,70.0,255.0,255.0,255.0
342,17.1,18.75708407252019,8.215947976567266,-5.022368107311113,0.5761455403381888,0.07869163512188138,-0.5509660287084728,0.02579640491440216,0.004636742094810131,-0.026059359286279005,0.0,70.0,255.0,255.0,255.0
343,17.150000000000002,18.78592354940033,8.21988840580734,-5.0499490178860995,0.5774471847188778,0.07890996897456759,-0.5522403262940667,0.026314336796318116,0.004051698851448293,-0.024926513566647657,0.0,70.0,255.0,255.0,255.0
344,17.2,18.814828790992078,8.223838973464723,-5.07759213994052,0.5787769740178206,0.0790968050070262,-0.5534586800651375,0.02686473834110359,0.0034567500522442174,-0.023967006759662013,0.0,70.0,255.0,255.0,255.0
345,17.25,18.843801246802112,8.227798086308043,-5.105294885892613,0.5801336585529882,0.07925564397979201,-0.5546370269700329,0.02734369760979405,0.0030072701031613747,-0.02346790742553395,0.0,70.0,255.0,255.0,255.0
346,17.3,18.872842156847376,8.231764537862702,-5.133055842637523,0.5815113437788,0.07939753201734234,-0.5558054708076909,0.027688412897219905,0.002789971681949055,-0.0235732778658182,0.0,70.0,255.0,255.0,255.0
347,17.35,18.901952381179992,8.235737839509778,-5.160875432973382,0.5829024998427101,0.07953464114798692,-0.5569943547566147,0.027877058771608176,0.00277640763286513,-0.024151443669762074,0.0,70.0,255.0,255.0,255.0
348,17.400000000000002,18.931132406831647,8.2397180019775,-5.1887552781131845,0.5842990496559608,0.07967517278062886,-0.5582206151746671,0.027895396240040782,0.0028925500986431985,-0.02493263144707214,0.0,70.0,255.0,255.0,255.0
349,17.45,18.960382286145588,8.24370535678784,-5.216697494490849,0.5856920394667142,0.07982389615785124,-0.559487617901322,0.02773115410334981,0.003067391321387447,-0.025641786698926694,0.0,70.0,255.0,255.0,255.0
350,17.5,18.98970161077832,8.247700391593286,-5.244704039903317,0.5870721650662958,0.0799819119127676,-0.5607847938445598,0.027370458526831953,0.0032287914283557484,-0.02600108502468501,0.0,70.0,255.0,255.0,255.0
351,17.55,19.019089502652218,8.251703547979117,-5.272775973875305,0.5884290853193974,0.08014677530068681,-0.5620877264037905,0.02682206646440477,0.0033326832674873685,-0.025864810312192787,0.0,70.0,255.0,255.0,255.0
352,17.6,19.04854451931026,8.255715069123355,-5.300912812543696,0.5897543717127363,0.08031518023951634,-0.5633712748757791,0.026176199160232727,0.003378559775946144,-0.025341206361684243,0.0,70.0,255.0,255.0,255.0
353,17.650000000000002,19.07806493982349,8.259735066003069,-5.329113101362883,0.5910467052354207,0.08048463127828143,-0.5646218470399589,0.025584917406717977,0.0033763291925836825,-0.02465578115824485,0.0,70.0,255.0,255.0,255.0
354,17.7,19.1076491898338,8.263763532251183,-5.357374997247692,0.5923128634534081,0.0806528131587747,-0.5658368529916036,0.025209619603927536,0.0033274841957364742,-0.02402621940431615,0.0,70.0,255.0,255.0,255.0
355,17.75,19.137296226168832,8.267800347318946,-5.385696786662043,0.5935676671958134,0.08081737969785507,-0.5670244689803905,0.025218477607324985,0.003225536210749169,-0.023659687207011615,0.0,70.0,255.0,255.0,255.0
356,17.8,19.167005956553382,8.271845270220968,-5.414077444145731,0.5948347112141406,0.08097536677984962,-0.5682028217123047,0.0256838340654042,0.0030725819602395177,-0.02366734102530188,0.0,70.0,255.0,255.0,255.0
357,17.85,19.196779697290246,8.275897883996931,-5.442517068833274,0.5961360506023539,0.08112463789387903,-0.5693912030829207,0.026453669061510254,0.0029093532639024033,-0.023998322959251084,0.0,70.0,255.0,255.0,255.0
358,17.900000000000002,19.226619561613617,8.279957734010356,-5.471016564454023,0.5974800781202916,0.08126630210623986,-0.5706026540082298,0.027248570498628055,0.0028021331310412734,-0.024529651845384137,0.0,70.0,255.0,255.0,255.0
359,17.95,19.256527705102275,8.284024514207555,-5.499577334234097,0.5988609076522167,0.08140485120698315,-0.5718441682674591,0.027784306874423237,0.0028159586095810596,-0.02514004896996269,0.0,70.0,255.0,255.0,255.0
360,18.0,19.28650565237884,8.288098219131054,-5.528200981280769,0.6002585088077339,0.08154789796719797,-0.5731166589052261,0.02777166833816125,0.0030170357570469264,-0.025724175471264488,0.0,70.0,255.0,255.0,255.0
361,18.05,19.31655355598305,8.292179304004275,-5.556889000124619,0.6016380744860328,0.08170655478268785,-0.5744165858145855,0.0270755110278742,0.0034307884241968623,-0.026213051693435574,0.0,70.0,255.0,255.0,255.0
362,18.1,19.346669459827442,8.296268874609323,-5.585642639862227,0.6029660599105213,0.08189097680961765,-0.5757379640745697,0.025896304081385324,0.003982255607759555,-0.026549138165687935,0.0,70.0,255.0,255.0,255.0
363,18.150000000000002,19.3768501619741,8.300368401685237,-5.614462796532076,0.6042277048941713,0.0821047803434638,-0.5770714996311543,0.024614460270555583,0.0045360706851127475,-0.02666113593585706,0.0,70.0,255.0,255.0,255.0
364,18.2,19.40709223031686,8.30447935264367,-5.643349789825343,0.6054275059375769,0.08234458387812893,-0.5784040776681554,0.02361250021643002,0.004955907472492527,-0.026480810822437917,0.0,70.0,255.0,255.0,255.0
365,18.25,19.43739291256786,8.30860286007305,-5.672303204298892,0.6065889549158143,0.08260037109071305,-0.5797195807133981,0.023270793097651676,0.005114339408507362,-0.025939648204165167,0.0,70.0,255.0,255.0,255.0
366,18.3,19.46775112580844,8.31273938975274,-5.7013217478966824,0.607754585247342,0.08285601781897967,-0.5809980424885719,0.023774494784944977,0.00495046480875061,-0.025025627025954122,0.0,70.0,255.0,255.0,255.0
367,18.35,19.498168371092593,8.316888461854948,-5.730403008547749,0.6089664043943088,0.08309541757158811,-0.5822221434159935,0.024911231163926573,0.004526099830393093,-0.02388773510073605,0.0,70.0,255.0,255.0,255.0
368,18.400000000000002,19.52864776624787,8.3210489315099,-5.759543962238282,0.6102457083637347,0.08330862780201898,-0.5833868159986455,0.026262632706064437,0.003969947765547488,-0.022785711171380285,0.0,70.0,255.0,255.0,255.0
369,18.45,19.559192941928966,8.32521932463515,-5.788741690147614,0.6115926676649153,0.08349241234814286,-0.5845007145331316,0.027406344938540883,0.0034198986790912045,-0.02198845599190591,0.0,70.0,255.0,255.0,255.0
370,18.5,19.589807033014363,8.329398172744714,-5.817994033691595,0.6129863428575888,0.0836506176699281,-0.5855856615978361,0.02792520589274261,0.0030136252565426958,-0.021753222387843607,0.0,70.0,255.0,255.0,255.0
371,18.55,19.620491576214725,8.333584386402142,-5.847300256307397,0.6143851882541895,0.08379377487379713,-0.5866760367719159,0.027606649694078556,0.002826839519798341,-0.022198752556779056,0.0,70.0,255.0,255.0,255.0
372,18.6,19.651245551839782,8.337777550232094,-5.8766616373687866,0.6157470078269967,0.08393330162190793,-0.587805536853514,0.026629587116033804,0.0028297087059314663,-0.02317097038222471,0.0,70.0,255.0,255.0,255.0
373,18.650000000000002,19.682066276997425,8.341977716564333,-5.906080809992749,0.6170481469657929,0.08407674574439028,-0.5889931338101384,0.025364193053434292,0.00294861377874156,-0.02436329210651067,0.0,70.0,255.0,255.0,255.0
374,18.7,19.71295036653636,8.346185224806533,-5.9355609507498,0.6182834271323401,0.08422816299978209,-0.5902418660641651,0.024181980166559924,0.0031106982792294957,-0.02545310413859525,0.0,70.0,255.0,255.0,255.0
375,18.75,19.74389461971066,8.350400532864311,-5.965104996599165,0.6194663449824489,0.08438781557231323,-0.5915384442239979,0.0234483367119509,0.003239178212588456,-0.026123452920057133,0.0,70.0,255.0,255.0,255.0
376,18.8,19.774897001034606,8.354624006363764,-5.9947147951722,0.6206282608035352,0.08455208082104093,-0.5928542113561708,0.02335825375716638,0.0032894032187869016,-0.026206588853305846,0.0,70.0,255.0,255.0,255.0
377,18.85,19.805957445791012,8.358855740946415,-6.024390417734782,0.6218021703581655,0.08471675589419192,-0.5941591031093285,0.02380137608319899,0.003275997746676751,-0.02579742765940196,0.0,70.0,255.0,255.0,255.0
378,18.900000000000002,19.837077218070423,8.363095681953183,-6.054130705483133,0.6230083984118551,0.0848796805957086,-0.595433954122111,0.024530478531303856,0.003233825557202863,-0.02511123695301265,0.0,70.0,255.0,255.0,255.0
379,18.95,19.868258285632198,8.367343709005986,-6.083933813146993,0.6242552182112959,0.0850401384499122,-0.5966702268046298,0.025298648146687697,0.0031911077375212926,-0.024366213701121353,0.0,70.0,255.0,255.0,255.0
380,19.0,19.899502739891552,8.371599695798174,-6.113797728163596,0.6255382632265238,0.08519879136946074,-0.5978705754922231,0.025853475232295864,0.00317763392114756,-0.023780937959916315,0.0,70.0,255.0,255.0,255.0
381,19.05,19.93081211195485,8.375863588142932,-6.143720870696216,0.6268405657345255,0.08535790184202696,-0.5990483206006214,0.026054787490537024,0.003208834319146092,-0.02348043981523773,0.0,70.0,255.0,255.0,255.0
382,19.1,19.962186796465005,8.380135485982377,-6.173702560223658,0.6281437419755775,0.08551967480137534,-0.6002186194737469,0.025969477314546907,0.003266300308446546,-0.023434750215578504,0.0,70.0,255.0,255.0,255.0
383,19.150000000000002,19.993626486152408,8.38441555562307,-6.20374273264359,0.6294375134659802,0.08568453187287162,-0.6013917956221793,0.025747645738505298,0.0033160839921109186,-0.02355800716751233,0.0,70.0,255.0,255.0,255.0
384,19.200000000000003,20.025130547811603,8.388703939169664,-6.233841739785876,0.6307185065494281,0.08585128320058644,-0.6025744201904981,0.025531026316727434,0.0033248707689281787,-0.023774441989488082,0.0,70.0,255.0,255.0,255.0
385,19.25,20.05669833680735,8.393000683943129,-6.26400017466264,0.631990616097653,0.08601701894976443,-0.6037692398211281,0.025477715736599293,0.0032502861024852336,-0.024012841861154044,0.0,70.0,255.0,255.0,255.0
386,19.3,20.08832960942137,8.39730564106464,-6.294218663767989,0.633266278123088,0.08617631181083496,-0.6049757043766135,0.025668656883937047,0.003075259505891381,-0.02422559127941426,0.0,70.0,255.0,255.0,255.0
387,19.35,20.12002496461966,8.401618315124212,-6.3244977451003015,0.6345574817860467,0.08632454490035357,-0.6061917989490695,0.02599978225958921,0.0028588010200891745,-0.024384503878405184,0.0,70.0,255.0,255.0,255.0
388,19.400000000000002,20.151785357599973,8.405938095554676,-6.354837843662896,0.6358662563490469,0.08646219191284388,-0.607414154764454,0.026280710077841718,0.002701838474017393,-0.024454962815578796,0.0,70.0,255.0,255.0,255.0
389,19.450000000000003,20.183611590254564,8.410264534315496,-6.385239160576747,0.6371855527938308,0.08659472874775531,-0.6086372952306274,0.026336873627030855,0.002702695898726404,-0.024396531161929857,0.0,70.0,255.0,255.0,255.0
390,19.5,20.215503912879356,8.414597568429452,-6.415701573185959,0.63849994371175,0.08673246150271652,-0.609853807880647,0.025991745735254312,0.0029691936958897713,-0.024167694595078615,0.0,70.0,255.0,255.0,255.0
391,19.55,20.24746158462574,8.418937780465768,-6.446224541364812,0.6397847273673563,0.08689164811734429,-0.6110540646901352,0.025169699188509753,0.0035439271922399485,-0.023756682245590355,0.0,70.0,255.0,255.0,255.0
392,19.6,20.27948238561609,8.423286733241186,-6.476806979654972,0.641016913630601,0.08708685422194051,-0.6122294761052061,0.02403493677505253,0.004296724050334433,-0.023229005831915117,0.0,70.0,255.0,255.0,255.0
393,19.650000000000002,20.3115632759888,8.427646465887962,-6.507447488975332,0.6421882210448615,0.08732132052237773,-0.6133769652733267,0.022887649153346956,0.004997494513148126,-0.022701209170783443,0.0,70.0,255.0,255.0,255.0
394,19.700000000000003,20.343701207720578,8.432018865293424,-6.538144676182305,0.6433056785459357,0.08758660367325533,-0.6144995970222844,0.022027026959747786,0.0054182850298900576,-0.0222922072565801,0.0,70.0,255.0,255.0,255.0
395,19.75,20.375893843843393,8.436405126255288,-6.568897448677561,0.6443909237408363,0.08786314902536674,-0.6156061859989848,0.021739264021292115,0.005332985731953954,-0.022108361109207664,0.0,70.0,255.0,255.0,255.0
396,19.8,20.40814030009466,8.44080518019596,-6.599705294782203,0.6454796049480649,0.08811990224645072,-0.6167104331332052,0.02216014542710809,0.004641432658303302,-0.02220147927136651,0.0,70.0,255.0,255.0,255.0
397,19.85,20.4404418043382,8.445217116479933,-6.630568491990881,0.6466069382835471,0.08832729229119707,-0.6178263339261214,0.023131519594343786,0.0035205498672752356,-0.022534997269652024,0.0,70.0,255.0,255.0,255.0
398,19.900000000000002,20.472800993923016,8.44963790942508,-6.661487928174815,0.6477927569074993,0.08847195723317824,-0.6189639328601704,0.024335966038435686,0.00230361470823226,-0.0230238368659208,0.0,70.0,255.0,255.0,255.0
399,19.950000000000003,20.50522108002895,8.45406431220325,-6.692464885276898,0.6490405348873907,0.0885576537620203,-0.6201287176127135,0.025442757462812438,0.0013297117666510871,-0.0235751526328265,0.0,70.0,255.0,255.0,255.0
400,20.0,20.537705047411755,8.458493674801282,-6.723500799936087,0.6503370326537805,0.08860492840984335,-0.621321448123453,0.02612718885330878,0.0009268354046909622,-0.0241108423187697,0.0,70.0,255.0,255.0,255.0
401,20.05,20.570254783294327,8.462924805044235,-6.7545970300892435,0.6516532537727215,0.08865033730248939,-0.6225398018445905,0.02621694520748008,0.0012574284220079335,-0.024577913488776915,0.0,70.0,255.0,255.0,255.0
402,20.1,20.602870372789027,8.467358708531531,-6.785754780120546,0.6529587271745285,0.08873067125204415,-0.6237792394723307,0.02580802913740854,0.0021711930296319792,-0.0249146414538437,0.0,70.0,255.0,255.0,255.0
403,20.150000000000002,20.63555065601178,8.47179787216944,-6.816974954036477,0.6542340566864624,0.08886745660545259,-0.6250312659899748,0.025118603242901827,0.0033570909414137873,-0.02503896784196158,0.0,70.0,255.0,255.0,255.0
404,20.200000000000003,20.668293778457674,8.476245454192076,-6.848257906719543,0.6554705874988187,0.08906638034618553,-0.6262831362565269,0.02436902943543373,0.0044968072984374885,-0.02487440831950849,0.0,70.0,255.0,255.0,255.0
405,20.25,20.701097714761662,8.480704510204058,-6.879603267662129,0.6566709596300058,0.08931713733529634,-0.6275187068219257,0.0237799525958593,0.005287691298683228,-0.02434430691087286,0.0,70.0,255.0,255.0,255.0
406,20.3,20.733960874420674,8.485177167925606,-6.911009777401736,0.6578485827584046,0.08959514947605385,-0.6287175669476142,0.023477621528655845,0.005562793047175774,-0.02343204159807044,0.0,70.0,255.0,255.0,255.0
407,20.35,20.766882573037503,8.489664025151663,-6.942475024356891,0.6590187217828714,0.08987341664001391,-0.6298619109817327,0.023431795089479124,0.005363722300977258,-0.02228904763823536,0.0,70.0,255.0,255.0,255.0
408,20.400000000000002,20.79986274659896,8.494164509589607,-6.973995968499909,0.6601917622673525,0.09013152170615157,-0.6309464717114377,0.023555868076030606,0.004818138076245759,-0.021180198526327132,0.0,70.0,255.0,255.0,255.0
409,20.450000000000003,20.832901749264238,8.498677177322278,-7.0055696715280344,0.6613743085904744,0.09035523044763849,-0.6319799308343654,0.023773525727577294,0.004056858575651745,-0.020378962340394935,0.0,70.0,255.0,255.0,255.0
410,20.5,20.86600017745801,8.503200032634371,-7.037193961583346,0.6625691148401103,0.09053720756371675,-0.6329843679454772,0.02401304738413046,0.00320239940165834,-0.02014792071447502,0.0,70.0,255.0,255.0,255.0
411,20.55,20.89915866074825,8.50773089807865,-7.068868108322582,0.6637756133288875,0.09067547038780432,-0.6339947229058129,0.024226508073255104,0.0023431476405377794,-0.020608232473495747,0.0,70.0,255.0,255.0,255.0
412,20.6,20.932377738790898,8.512267579673152,-7.100593433873927,0.6649917656474358,0.09077152232777053,-0.6350451911928268,0.024385722907283025,0.0015711205607615852,-0.021600216943529205,0.0,70.0,255.0,255.0,255.0
413,20.650000000000002,20.965657837312992,8.516808050311427,-7.132372627441865,0.6662141856196158,0.09083258244388048,-0.6361547446001659,0.02445615289090597,0.001015671438864274,-0.022807510780076257,0.0,70.0,255.0,255.0,255.0
414,20.700000000000003,20.99899915735286,8.52135083791754,-7.1642089083339435,0.6674373809365264,0.09087308947165695,-0.6373259422708344,0.024397380471441465,0.0008142199398264438,-0.02389748124684843,0.0,70.0,255.0,255.0,255.0
415,20.75,21.032401575406645,8.525895359258593,-7.196105221668948,0.6686539236667599,0.09091400443786313,-0.6385444927248507,0.024167857866075337,0.0011027110952355201,-0.02454000090743591,0.0,70.0,255.0,255.0,255.0
416,20.8,21.065864549719535,8.530442238361326,-7.228063357606429,0.6698541667231339,0.0909833605811805,-0.639779942361578,0.023755833358762857,0.0019261548509064141,-0.024562254615378976,0.0,70.0,255.0,255.0,255.0
417,20.85,21.09938699207896,8.534993695316711,-7.260083215905106,0.6710295070026362,0.09110661992295377,-0.6410007181863886,0.02322708484499003,0.003106480768799713,-0.02407912887587571,0.0,70.0,255.0,255.0,255.0
418,20.900000000000002,21.1329675004198,8.539552900353621,-7.2921634294250675,0.6721768752076329,0.09129400865806048,-0.6421878552491656,0.02269858796033475,0.004321973372256593,-0.023339874903438584,0.0,70.0,255.0,255.0,255.0
419,20.950000000000003,21.166604679599722,8.544123096182517,-7.324302001430023,0.6732993657986697,0.09153881726017943,-0.6433347056767325,0.02228972627946746,0.005234513415075526,-0.022598198920409374,0.0,70.0,255.0,255.0,255.0
420,21.0,21.200297436999666,8.54870678207964,-7.356496899992741,0.6744058478355797,0.09181745999956803,-0.6444476751412065,0.02210750250384308,0.005506756218132125,-0.02212004768340492,0.0,70.0,255.0,255.0,255.0
421,21.05,21.23404526438328,8.553304842182474,-7.388746768944143,0.675510116049054,0.09208949288199264,-0.645546710445073,0.022203958024036297,0.0049784334214209025,-0.022048296849153104,0.0,70.0,255.0,255.0,255.0
422,21.1,21.26784844860457,8.557915731367839,-7.421051571037248,0.6766262436379833,0.09231530334171012,-0.6466525048261218,0.022541462186964623,0.0038528398121684404,-0.022278698787925322,0.0,70.0,255.0,255.0,255.0
423,21.150000000000002,21.301707888747078,8.562536372516645,-7.4534120194267555,0.6777642622677504,0.09247477686320948,-0.6477745803238655,0.023033131632033133,0.002527390783058081,-0.022599236693032765,0.0,70.0,255.0,255.0,255.0
424,21.200000000000003,21.335624874831346,8.56716320905416,-7.4858290290696345,0.6789295568011866,0.09256804242001593,-0.6489124284954251,0.023584227231765453,0.0014070737194060712,-0.022808837291599104,0.0,70.0,255.0,255.0,255.0
425,21.25,21.369600844427197,8.571793176758646,-7.518303262276298,0.680122684990927,0.09261548423515009,-0.6500554640530254,0.02411411347225112,0.000890217412496952,-0.02269188295134228,0.0,70.0,255.0,255.0,255.0
426,21.3,21.40363714333044,8.576424757477675,-7.550834575474937,0.6813409681484117,0.09265706416126562,-0.6511816167905593,0.024568847364392354,0.0011799716039817554,-0.022144697847270578,0.0,70.0,255.0,255.0,255.0
427,21.35,21.437734941242038,8.581058883174773,-7.583421423955354,0.6825795697273662,0.09273348139554827,-0.6522699338377524,0.02489070276823213,0.0021113441317055504,-0.021328779934837172,0.0,70.0,255.0,255.0,255.0
428,21.400000000000002,21.471895100303175,8.58569810561723,-7.616061568858712,0.6838300384252349,0.09286819857443618,-0.653314494784043,0.025004409989293208,0.003339279346192825,-0.0205404743627291,0.0,70.0,255.0,255.0,255.0
429,21.450000000000003,21.50611794508456,8.590345703032217,-7.648752873433758,0.6850800107262955,0.09306740933016755,-0.6543239812740254,0.024840590902286408,0.004517331566944449,-0.020066312053224067,0.0,70.0,255.0,255.0,255.0
430,21.5,21.540403101375805,8.595004846550246,-7.681493966986115,0.6863140975154636,0.09331993173113062,-0.6553211259893654,0.024332080903022302,0.005312420751479863,-0.020200345918297558,0.0,70.0,255.0,255.0,255.0
431,21.55,21.574749354836108,8.59967769620533,-7.714284986032695,0.6875132188165978,0.09359865140531554,-0.6563440158658551,0.023465827341695444,0.005542332843688769,-0.02107379754239247,0.0,70.0,255.0,255.0,255.0
432,21.6,21.609154423257465,8.604364711690778,-7.7471283685727,0.6886606802496331,0.0938741650154995,-0.6574285057436047,0.02237833746114859,0.005270827951342483,-0.022439934386930815,0.0,70.0,255.0,255.0,255.0
433,21.650000000000002,21.64361542286107,8.60906511270688,-7.780027836607055,0.6897510525627126,0.09412573420044978,-0.6585880093045482,0.02130913517390809,0.004665608382481423,-0.023843434621539927,0.0,70.0,255.0,255.0,255.0
434,21.700000000000003,21.678129528513736,8.613777285110823,-7.812987169503155,0.6907915937670239,0.09434072585374764,-0.6598128492057587,0.020505157413452935,0.0038973995454938404,-0.024827079997091772,0.0,70.0,255.0,255.0,255.0
435,21.75,21.712694582237773,8.618499185292254,-7.846009121527631,0.6918015683040579,0.09451547415499917,-0.6610707173042574,0.02019355358910957,0.0031400995815999977,-0.024930789317867408,0.0,70.0,255.0,255.0,255.0
436,21.8,21.747309685344142,8.623228832526323,-7.879094241233581,0.6928109491259349,0.09465473581190764,-0.6623059281375454,0.02048215562027167,0.0025024452723343416,-0.023939226201363795,0.0,70.0,255.0,255.0,255.0
437,21.85,21.781975677150367,8.627964658873445,-7.912239714341386,0.6938497838660851,0.0947657186822326,-0.6634646399243938,0.021266996337843125,0.0020025468595363805,-0.02216313753029553,0.0,70.0,255.0,255.0,255.0
438,21.900000000000002,21.81669466373075,8.632705404394546,-7.94544070522602,0.6949376487597192,0.09485499049786128,-0.664522241890575,0.022326322043753066,0.0016436018100307592,-0.02019581046273089,0.0,70.0,255.0,255.0,255.0
439,21.950000000000003,21.85146944202634,8.637450157923231,-7.978691938530443,0.6960824160704604,0.09493007886323568,-0.6654842209706668,0.02341980508759889,0.001438245076279543,-0.018637489170814092,0.0,70.0,255.0,255.0,255.0
440,22.0,21.886302905337796,8.64219841228087,-8.011989127323087,0.6972796292684791,0.09499881500548923,-0.6663859908076564,0.02431766744308561,0.0013792088953579196,-0.01808843153936479,0.0,70.0,255.0,255.0,255.0
441,22.05,21.921197404953187,8.64695003942378,-8.045330537611209,0.698514182814769,0.09506799975277147,-0.6672930641246033,0.024886575815941114,0.0014556249952946132,-0.018842957325393428,0.0,70.0,255.0,255.0,255.0
442,22.1,21.956154323619273,8.651705212256147,-8.078718433735547,0.6997682868500732,0.0951443775050187,-0.6682702865401957,0.025120949914736457,0.0016754414849273758,-0.02057222411906423,0.0,70.0,255.0,255.0,255.0
443,22.150000000000002,21.991174233638194,8.656464477174282,-8.112157566265228,0.7010262778062426,0.09523554390126421,-0.6693502865365097,0.02505662560174926,0.00204184917897976,-0.022627775742734002,0.0,70.0,255.0,255.0,255.0
444,22.200000000000003,22.026256951399898,8.661228766646273,-8.145653462389198,0.7022739494102481,0.09534856242291667,-0.6705330641144691,0.02473664788027463,0.0025372192187234077,-0.024357042572908938,0.0,70.0,255.0,255.0,255.0
445,22.25,22.06140162857922,8.665999333416574,-8.179210872676675,0.7034999425942701,0.09548926582313655,-0.6717859907938006,0.024223795287525718,0.003150990245437413,-0.025111568438873633,0.0,70.0,255.0,255.0,255.0
446,22.3,22.096606945659325,8.670777693228587,-8.212832061468578,0.7046963289390007,0.09566366144746041,-0.6730442209583565,0.023569489831132273,0.0038626538124475474,-0.02456251093061468,0.0,70.0,255.0,255.0,255.0
447,22.35,22.13187126147312,8.67556569956132,-8.24651529477251,0.7058568915773833,0.0958755312043813,-0.6742422418868621,0.022810882325075,0.004577552002160701,-0.02300418977085883,0.0,70.0,255.0,255.0,255.0
448,22.400000000000002,22.167192634817063,8.680365246349025,-8.280256285657265,0.7069774171715082,0.09612141664767648,-0.6753446399354424,0.022008853872179657,0.005145458351130117,-0.021036862790779765,0.0,70.0,255.0,255.0,255.0
449,22.450000000000003,22.20256900319027,8.685177841226087,-8.314049758766055,0.7080577769646013,0.09639007703949432,-0.6763459281659401,0.021244978684364924,0.0054206169764370316,-0.019260774103457834,0.0,70.0,255.0,255.0,255.0
450,22.5,22.237998412513523,8.690004254052974,-8.347890878473859,0.7091019150399447,0.09666347834532019,-0.6772707173457881,0.020579225997252593,0.005268858095064388,-0.0182692107877358,0.0,70.0,255.0,255.0,255.0
451,22.55,22.273479194694264,8.69484418906062,-8.381776830500634,0.7101156995643265,0.09691696284900075,-0.6781728492447137,0.020048891431656557,0.004638934578160558,-0.018372919698350643,0.0,70.0,255.0,255.0,255.0
452,22.6,22.309009982469956,8.699695950337874,-8.41570816339833,0.7111068041831103,0.09712737180313624,-0.6791080093156232,0.019710112860593654,0.003659665191335648,-0.019356564583361546,0.0,70.0,255.0,255.0,255.0
453,22.650000000000002,22.344589875112575,8.704556926240933,-8.449687631432196,0.7120867108503859,0.09728292936813432,-0.6801085057030498,0.0196333668345261,0.0025735202163090776,-0.020760064469094175,0.0,70.0,255.0,255.0,255.0
454,22.700000000000003,22.380218653554994,8.709424243274688,-8.483719013968635,0.713070140866563,0.09738472382476715,-0.6811840157625326,0.019870010810763006,0.0016387744146584282,-0.022126201340100238,0.0,70.0,255.0,255.0,255.0
455,22.75,22.41589688919923,8.71429539862341,-8.51780603300845,0.7140737119314622,0.09744680680960016,-0.6823211258370598,0.02046722612831786,0.0011056053461189208,-0.022999653679001142,0.0,70.0,255.0,255.0,255.0
456,22.8,22.45162602474814,8.719168923955648,-8.551951126552341,0.7151168634793947,0.09749528435937904,-0.6834839811304327,0.021423569149092714,0.0011016078738990132,-0.023133689063215,0.0,70.0,255.0,255.0,255.0
457,22.85,22.48740857554717,8.724044927059348,-8.586154431121493,0.7162160688463715,0.09755696759699006,-0.6846344947433813,0.022586987914507972,0.0015356753438666715,-0.022659528584867417,0.0,70.0,255.0,255.0,255.0
458,22.900000000000002,22.523247631632778,8.728924620715347,-8.620414576026679,0.7173755622708455,0.09764885189376571,-0.6857499339889195,0.023696000467410272,0.002208572672657283,-0.021871224321223792,0.0,70.0,255.0,255.0,255.0
459,22.950000000000003,22.559146131774256,8.733809812248724,-8.654729424520385,0.7185856688931125,0.09777782486425579,-0.6868216171755037,0.02447702935590712,0.00291099865137312,-0.021055306317840916,0.0,70.0,255.0,255.0,255.0
460,23.0,22.59510619852209,8.738702403201772,-8.68909673774423,0.7198232652064362,0.09793995175890302,-0.6878554646207036,0.02466385084183287,0.0034287205199490245,-0.020508118554118937,0.0,70.0,255.0,255.0,255.0
461,23.05,22.6311284582949,8.743603807424615,-8.723514970982455,0.7210520539772958,0.0981206969162507,-0.6888724290309156,0.02413580632776302,0.003642372854173459,-0.020391158547283794,0.0,70.0,255.0,255.0,255.0
462,23.1,22.66721140391982,8.748514472893397,-8.757983980647321,0.7222368458392125,0.09830418904432037,-0.689894580475432,0.023070886527776224,0.003602202198393911,-0.020600752310429016,0.0,70.0,255.0,255.0,255.0
463,23.150000000000002,22.70335214287882,8.753434226329047,-8.792504429029998,0.7233591426300734,0.09848091713609008,-0.6909325042619585,0.02181535856884409,0.003425942006884952,-0.020921285332420325,0.0,70.0,255.0,255.0,255.0
464,23.200000000000003,22.739547318182826,8.758362564607006,-8.827077231073517,0.724418381696097,0.09864678324500886,-0.691986709008674,0.020734132842292752,0.003224830046910654,-0.021151687608700342,0.0,70.0,255.0,255.0,255.0
465,23.25,22.77579398104843,8.763298904653547,-8.861703099930866,0.7254325559143027,0.09880340014078115,-0.6930476730228285,0.02020137983116399,0.0031194659539934833,-0.021079946696644924,0.0,70.0,255.0,255.0,255.0
466,23.3,22.812090573774256,8.768242904621085,-8.8963819983758,0.7264385196792134,0.09895872984040821,-0.6940947036783385,0.02040597943242517,0.0031749613157217027,-0.020601816607168644,0.0,70.0,255.0,255.0,255.0
467,23.35,22.84843783301635,8.773194777637588,-8.9311125702987,0.7274731538575452,0.09912089627235332,-0.6951078546835454,0.021160421681898356,0.003334583462333285,-0.01986016613582109,0.0,70.0,255.0,255.0,255.0
468,23.400000000000002,22.88483788916001,8.77815499424832,-8.965892783844154,0.7285545618474032,0.09929218818664154,-0.6960807202919206,0.022092448704214007,0.003489430861947085,-0.01912093038693996,0.0,70.0,255.0,255.0,255.0
469,23.450000000000003,22.921293289201092,8.783123996456252,-9.000720642327892,0.7296823987279666,0.09946983935854803,-0.6970199477222394,0.022832779603021436,0.003542594912886443,-0.018637803387555607,0.0,70.0,255.0,255.0,255.0
470,23.5,22.957806129032807,8.788101978184175,-9.035594778616378,0.7308378398077053,0.09964644767793018,-0.6979445006306761,0.02300671375152774,0.003397471606980673,-0.0186600200670739,0.0,70.0,255.0,255.0,255.0
471,23.55,22.994377073181862,8.793088641224045,-9.07051509239096,0.7319830701031194,0.0998095865192461,-0.6988859497289468,0.022427129090374365,0.0030106956367959015,-0.01930246080448228,0.0,70.0,255.0,255.0,255.0
472,23.6,23.03100443604312,8.7980829368361,-9.105483373589273,0.7330805527167428,0.09994751724160977,-0.6998747467111244,0.021295538633125943,0.0024612355158382115,-0.020392336059948946,0.0,70.0,255.0,255.0,255.0
473,23.650000000000002,23.067685128453537,8.803083392948206,-9.140502567062072,0.734112623966432,0.10005571007082992,-0.7009251833349417,0.02000673472579706,0.0018954021438588597,-0.0215995618846776,0.0,70.0,255.0,255.0,255.0
474,23.700000000000003,23.104415698439762,8.808088507843182,-9.175575891922767,0.7350812261893225,0.10013705745599566,-0.7020347028995921,0.018947895597065667,0.0014575641927194738,-0.022591551054951253,0.0,70.0,255.0,255.0,255.0
475,23.75,23.14119325107247,8.813097098693806,-9.21070603735203,0.7360074135261385,0.10020146649010186,-0.7031843384404368,0.018495681244701245,0.0012826289701450833,-0.02305200100654048,0.0,70.0,255.0,255.0,255.0
476,23.8,23.178016439792376,8.818108654492192,-9.24589432576681,0.7369307943137926,0.10026532035301017,-0.7043399030002462,0.018839163880812748,0.0014360556717107897,-0.022821253928739793,0.0,70.0,255.0,255.0,255.0
477,23.85,23.214886330503848,8.823123630729107,-9.281140027652055,0.7378913299142198,0.10034507205727294,-0.7054664638333108,0.019807540338590002,0.001855998950617277,-0.022020373074838062,0.0,70.0,255.0,255.0,255.0
478,23.900000000000002,23.2518055727838,8.82814316169792,-9.316440972150142,0.7389115483476516,0.1004509202480719,-0.70654194030773,0.021049656681881856,0.002412596926504307,-0.02091177778513753,0.0,70.0,255.0,255.0,255.0
479,23.950000000000003,23.288777485338613,8.833168722753914,-9.351794221682828,0.739996295582408,0.10058633174992337,-0.7075576416118246,0.022209577399934233,0.002967661134789523,-0.019768766285110928,0.0,70.0,255.0,255.0,255.0
480,24.0,23.32580520234204,8.838201794872912,-9.387196736311324,0.741132506087645,0.10074768636155085,-0.7085188169362411,0.022938579915887658,0.003383993864147783,-0.01885598522974874,0.0,70.0,255.0,255.0,255.0
481,24.05,23.362890735947378,8.84324349139007,-9.422646103376453,0.7422901535739967,0.10092473113633815,-0.7094432401347994,0.023050154781500964,0.0035855944986451505,-0.01832478455376929,0.0,70.0,255.0,255.0,255.0
482,24.1,23.40003421769944,8.848294267986546,-9.458141060324804,0.7434375215657951,0.10110624581141536,-0.710351295391618,0.022643344303219237,0.0035984050448689686,-0.018158898914855115,0.0,70.0,255.0,255.0,255.0
483,24.150000000000002,23.437234488103957,8.85335411597121,-9.493681232915614,0.7445544880043187,0.10128457164082505,-0.7112591300262849,0.021944755097180746,0.003489734625894414,-0.018282278022496712,0.0,70.0,255.0,255.0,255.0
484,24.200000000000003,23.47448966649987,8.858422725150628,-9.529266973327433,0.7456319970755132,0.1014552192740048,-0.7121795231938677,0.02118088104907656,0.0033255908016727176,-0.018619071449776925,0.0,70.0,255.0,255.0,255.0
485,24.25,23.51179768781151,8.863499637898611,-9.564899185235001,0.7466725761092263,0.10161713072099232,-0.7131210371712626,0.020577971117674565,0.0031733769246145016,-0.019088067399053443,0.0,70.0,255.0,255.0,255.0
486,24.3,23.549156924110793,8.868584438222728,-9.600579077044559,0.7476897941872807,0.10177255696646625,-0.714088329933773,0.020265764780802442,0.0030743402266608655,-0.019627859604121056,0.0,70.0,255.0,255.0,255.0
487,24.35,23.586566667230237,8.873676893595258,-9.636308018228378,0.7486991525873066,0.10192456474365841,-0.7150838231316747,0.020214513686411806,0.0030294484677284572,-0.020184124504929457,0.0,70.0,255.0,255.0,255.0
488,24.400000000000002,23.624026839369524,8.878776894697094,-9.672087459357726,0.7497112455559218,0.1020755018132391,-0.716106742384266,0.020337570013495565,0.0030302361329503924,-0.02067649940311611,0.0,70.0,255.0,255.0,255.0
489,24.450000000000003,23.66153779178583,8.883884443776582,-9.707918692466805,0.7507329095886561,0.10222758835695345,-0.7171514730719863,0.020559299336753156,0.003076176126093344,-0.021009773092828254,0.0,70.0,255.0,255.0,255.0
490,24.5,23.69910013032839,8.888999653532789,-9.743802606664925,0.7517671754895972,0.10238311942584843,-0.7182077196935488,0.020809582234804225,0.003174526408677991,-0.02109570787673931,0.0,70.0,255.0,255.0,255.0
491,24.55,23.73671450933479,8.894122755719167,-9.77973946443616,0.7528138678121366,0.10254504099782125,-0.7192610438596603,0.021040725487964096,0.0033237578803024803,-0.020896550920568302,0.0,70.0,255.0,255.0,255.0
492,24.6,23.774381517109603,8.899254157632571,-9.815728711050891,0.7538712480383936,0.10271549521387868,-0.7202973747856056,0.021219533349636777,0.003483801083348226,-0.02046907859014624,0.0,70.0,255.0,255.0,255.0
493,24.650000000000002,23.812101634138628,8.904394305240555,-9.85176920191472,0.7549358211471002,0.10289342110615607,-0.7213079517186749,0.02130319328479402,0.0035893208437443036,-0.019928088002885147,0.0,70.0,255.0,255.0,255.0
494,24.700000000000003,23.849875099224313,8.909543499743187,-9.887859506222759,0.756001567366873,0.10307442729825311,-0.7222901835858941,0.02124243442906959,0.003576417981321356,-0.019401323359424794,0.0,70.0,255.0,255.0,255.0
495,24.75,23.887701790875315,8.91470174797038,-9.92399822027331,0.7570600645900072,0.1032510629042882,-0.7232480840546174,0.020983699943855072,0.003380545411424407,-0.019017119739395127,0.0,70.0,255.0,255.0,255.0
496,24.8,23.925581105683314,8.919868606033615,-9.96018431462822,0.7580999373612585,0.10341248183939555,-0.7241918955598337,0.0205108204433202,0.0029768287182818653,-0.018845423891988844,0.0,70.0,255.0,255.0,255.0
497,24.85,23.96351178461144,8.92504299615432,-9.996417409829293,0.7591111466343392,0.10354874577611639,-0.7251326264438163,0.019909124478800777,0.002437118761022816,-0.018855924772864796,0.0,70.0,255.0,255.0,255.0
498,24.900000000000002,24.001492220346748,8.930223480611227,-10.032697577272602,0.7600908498091385,0.10365619371549784,-0.7260774880371201,0.019328724445344392,0.001891548091492723,-0.018975624110950662,0.0,70.0,255.0,255.0,255.0
499,24.950000000000003,24.039520869592355,8.93540861552587,-10.069025158633005,0.7610440190788736,0.10373790058526566,-0.7270301888549113,0.018923736838516447,0.0014709258419287607,-0.019131133934635614,0.0,70.0,255.0,255.0,255.0
500,25.0,24.077596622254635,8.940597270669754,-10.105400596158093,0.7619832234929902,0.10380328629969071,-0.7279906014305837,0.018847599344340438,0.0012952732967974612,-0.01924383181179934,0.0,70.0,255.0,255.0,255.0
501,25.05,24.115719191941654,8.945788944155838,-10.141824218776064,0.7629287790133077,0.10386742791494541,-0.7289545720360913,0.019169792274809083,0.0014227267797650711,-0.01926897961936902,0.0,70.0,255.0,255.0,255.0
502,25.1,24.153889500155966,8.950984013461248,-10.178296053361702,0.7639002027204711,0.10394555897766722,-0.7299174993925206,0.01977949321201322,0.0018032483486862816,-0.019228154720529744,0.0,70.0,255.0,255.0,255.0
503,25.150000000000002,24.1921092122137,8.956183500053605,-10.214815968715316,0.764906728334509,0.10404775274981404,-0.7308773875081442,0.0204655452950675,0.0023281231545269065,-0.01916764399219062,0.0,70.0,255.0,255.0,255.0
504,25.200000000000003,24.230380172989417,8.96138878873623,-10.251383792112517,0.7659467572499778,0.10417837129311991,-0.7318342637917397,0.021009844322605886,0.0028803914712938194,-0.019127940436192148,0.0,70.0,255.0,255.0,255.0
505,25.25,24.2687038879387,8.966601337182917,-10.28799939509449,0.7670077127667696,0.10433579189694342,-0.7327901815517635,0.021189912003904965,0.0033503427523839946,-0.01915552504012652,0.0,70.0,255.0,255.0,255.0
506,25.3,24.307080944266094,8.971822367925924,-10.324662810267693,0.7680657484503683,0.10451340556835831,-0.7337498162957523,0.02089672374303575,0.0036727769829880685,-0.01927194434365731,0.0,70.0,255.0,255.0,255.0
507,25.35,24.345510462783736,8.977052677739753,-10.361374376724065,0.7690973851410732,0.10470306959524223,-0.7347173759861292,0.020258310597398577,0.003833524209184702,-0.019431456345664344,0.0,70.0,255.0,255.0,255.0
508,25.400000000000002,24.3839906827802,8.982292674885448,-10.398134547866306,0.7700915795101082,0.10489675798927678,-0.7356929619303187,0.019523686448152944,0.0038314837663477874,-0.019553799920579706,0.0,70.0,255.0,255.0,255.0
509,25.450000000000003,24.422519620734747,8.98754235353868,-10.434943672917097,0.7710497537858885,0.105086217971877,-0.7366727559781872,0.018943459299691767,0.0036680210925510437,-0.01956381760770398,0.0,70.0,255.0,255.0,255.0
510,25.5,24.46109565815879,8.992801296682636,-10.471801823464125,0.7719859254400774,0.10526356009853188,-0.7376493436910891,0.018776715345225625,0.00334736501734767,-0.01938609599907437,0.0,70.0,255.0,255.0,255.0
511,25.55,24.499718213278754,8.998068709548534,-10.508708607286206,0.772927425320411,0.10542095447361177,-0.7386113655780946,0.01914988617777169,0.002885139647545998,-0.01898944347189513,0.0,70.0,255.0,255.0,255.0
512,25.6,24.53838840069083,9.003343392129997,-10.545662960021934,0.7739009140578545,0.10555207406328648,-0.7395482880382787,0.01990185647038345,0.002343493975764943,-0.018447791458697793,0.0,70.0,255.0,255.0,255.0
513,25.650000000000002,24.57710830468454,9.008623916954862,-10.582663436090034,0.7749176109674494,0.10565530387118827,-0.7404561447239644,0.020725116837283508,0.0018267809409167057,-0.01789622392429635,0.0,70.0,255.0,255.0,255.0
514,25.700000000000003,24.615880161787576,9.013908922517116,-10.61970857449433,0.7759734257415829,0.10573475215737815,-0.7413379104307083,0.021316458344244893,0.0014464985172324418,-0.01746956302604019,0.0,70.0,255.0,255.0,255.0
515,25.75,24.654705647258698,9.0191973921706,-10.656797227133104,0.7770492568018739,0.10579995372291151,-0.7422031010265684,0.021371291884264565,0.001304206502084071,-0.017292072316443807,0.0,70.0,255.0,255.0,255.0
516,25.8,24.693585087467763,9.024488917889407,-10.693928884596987,0.7781105549300094,0.10586517280758656,-0.7430671176623527,0.020743358582819837,0.0014471772475488365,-0.017424081302941374,0.0,70.0,255.0,255.0,255.0
517,25.85,24.7325167027517,9.029783909451359,-10.73110393889934,0.7791235926601559,0.1059446714476664,-0.7439455091568625,0.019621443005846118,0.0018280243629931192,-0.01781290229434518,0.0,70.0,255.0,255.0,255.0
518,25.900000000000002,24.77149744673378,9.035083385034174,-10.768323435512674,0.780072699230594,0.10604797524388587,-0.7448484078917872,0.018369505876236758,0.002345028833516949,-0.018344940744796645,0.0,70.0,255.0,255.0,255.0
519,25.950000000000003,24.81052397267476,9.040388706975747,-10.805588779688518,0.7809605432477795,0.10617917433101809,-0.7457800032313422,0.01735005464631456,0.002886497660270493,-0.018898443108739116,0.0,70.0,255.0,255.0,255.0
520,26.0,24.849593501058557,9.045701302467275,-10.842901435835808,0.7818077046952254,0.10633662500991292,-0.7467382522026611,0.01691406117352301,0.003347790325669564,-0.019357596088198648,0.0,70.0,255.0,255.0,255.0
521,26.05,24.88870474314428,9.051022369476739,-10.880262604908784,0.7826519493651318,0.10651395336358505,-0.7477157628401621,0.017237052449203816,0.003666664181345425,-0.019654744136943236,0.0,70.0,255.0,255.0,255.0
522,26.1,24.92785869599507,9.056352697803634,-10.917673012119824,0.7835314099401458,0.10670329142804746,-0.7487037266163554,0.0181624880546849,0.0038280449368599534,-0.01978423572719379,0.0,70.0,255.0,255.0,255.0
523,26.150000000000002,24.967057884138296,9.061692698619543,-10.95513297757042,0.7844681981706003,0.10689675785727104,-0.7496941864128814,0.019365903949264407,0.003828628201674178,-0.019759537571317765,0.0,70.0,255.0,255.0,255.0
524,26.200000000000003,25.00630551581213,9.067042373589361,-10.992642430761112,0.7854680003350722,0.10708615424821488,-0.7506796803734872,0.020517262468544573,0.0036680236627617546,-0.019597177358043893,0.0,70.0,255.0,255.0,255.0
525,26.25,25.045604684171803,9.072401314044365,-11.030200945607769,0.7865199244174548,0.10726356022354722,-0.7516539041486858,0.02130048206652191,0.0033486415178529683,-0.019321552655249263,0.0,70.0,255.0,255.0,255.0
526,26.3,25.084957508253876,9.077768729611716,-11.06780782117598,0.7875980485417244,0.10742101840000018,-0.7526118356390121,0.021542371012728267,0.002885140384201179,-0.018955916510599025,0.0,70.0,255.0,255.0,255.0
527,26.35,25.124364489025975,9.083143415884365,-11.10546212917167,0.7886741615187276,0.10755207426196733,-0.7535494957997457,0.021297649067619773,0.0023406350514676433,-0.018530993957988073,0.0,70.0,255.0,255.0,255.0
528,26.400000000000002,25.16382492440575,9.088523937037913,-11.143162770755955,0.7897278134484864,0.10765508190514694,-0.7544649350348109,0.02071699487622425,0.0018212975216869154,-0.018097748129441982,0.0,70.0,255.0,255.0,255.0
529,26.450000000000003,25.203337270370824,9.09390892407488,-11.180908622675151,0.79074586100635,0.10773420401413603,-0.7553592706126899,0.019954695013169044,0.001440382046702382,-0.017718535103838917,0.0,70.0,255.0,255.0,255.0
530,26.5,25.242899510506383,9.099297357439326,-11.218698697817224,0.7917232829498033,0.10779912010981718,-0.7562367885451948,0.01916401055872541,0.0013016529265996724,-0.017452230586734174,0.0,70.0,255.0,255.0,255.0
531,26.55,25.282509598665804,9.104688836085861,-11.25653230152967,0.7926622620622226,0.10786436930679599,-0.7571044936713633,0.018445211749451573,0.001453287102570755,-0.017328303108321563,0.0,70.0,255.0,255.0,255.0
532,26.6,25.322165736712606,9.110083794370006,-11.29440914718436,0.7935678041247485,0.10794444882007426,-0.757969618856027,0.017844118475807136,0.001844939332684703,-0.017329084479555945,0.0,70.0,255.0,255.0,255.0
533,26.650000000000002,25.36186637907828,9.115483280967869,-11.332329263415273,0.7944466739098033,0.10804886324006446,-0.7588374021193189,0.017411431232972063,0.0023698180763531695,-0.017412173874298276,0.0,70.0,255.0,255.0,255.0
534,26.700000000000003,25.401610404103586,9.120888680694012,-11.370292887396293,0.7953089472480457,0.10818143062770957,-0.7597108362434568,0.01720913230265353,0.0029109609712918427,-0.017528682224465797,0.0,70.0,255.0,255.0,255.0
535,26.75,25.441397273803084,9.12630142403064,-11.408300347039619,0.7961675871400686,0.10833995933719365,-0.7605902703417655,0.01729550366817989,0.003356728127634767,-0.01762551567221493,0.0,70.0,255.0,255.0,255.0
536,26.8,25.481227162817593,9.131722676627732,-11.446351914430469,0.7970384976148637,0.10851710344047305,-0.7614733878106783,0.017684520915395296,0.0036422240258460192,-0.017671383878514746,0.0,70.0,255.0,255.0,255.0
537,26.85,25.52110112356457,9.137153134374687,-11.484447685820687,0.7979360392316082,0.10870418173977825,-0.762357408729617,0.018282333908103965,0.003763243980081654,-0.017673600525291988,0.0,70.0,255.0,255.0,255.0
538,26.900000000000002,25.561020766740754,9.14259309480171,-11.52258765530343,0.7988667310056741,0.10889342783848122,-0.7632407478632075,0.018919144995166448,0.003734954648848543,-0.017651784811079096,0.0,70.0,255.0,255.0,255.0
539,26.950000000000003,25.600987796665137,9.148042477158535,-11.560771760607008,0.7998279537311248,0.1090776772046631,-0.7641225872107249,0.019409801414127514,0.003576286889206415,-0.01762053553164833,0.0,70.0,255.0,255.0,255.0
540,27.0,25.641003562113866,9.153500862522176,-11.598999914024503,0.8008077111470868,0.10925105652740186,-0.7650028014163723,0.01956595612035983,0.0033154438865423685,-0.017593678751381958,0.0,70.0,255.0,255.0,255.0
541,27.05,25.681068567779846,9.158967582811275,-11.637272040748645,0.8017845493431608,0.10940922159331734,-0.7658819550858631,0.019296704590132663,0.0029767911538414182,-0.017579448092064354,0.0,70.0,255.0,255.0,255.0
542,27.1,25.721182017048182,9.164441784681507,-11.67558810953309,0.8027373816061001,0.109548735642786,-0.7667607462255788,0.01871195381539792,0.0025829239071128995,-0.01757651342071398,0.0,70.0,255.0,255.0,255.0
543,27.150000000000002,25.761342305940456,9.169922456375554,-11.713948115371203,0.8036557447247006,0.10966751398402863,-0.7676396064279345,0.018026580863050867,0.002171202488199242,-0.01758068688104686,0.0,70.0,255.0,255.0,255.0
