idx,t,px,py,pz,vx,vy,vz,ax,ay,az,yaw,mode,ledr,ledg,ledb
0,0.0,1.5000000000000013,1.5000000000000004,1.5691164231371369e-18,0.0005669780783934542,0.00044011180391212434,0.0011171929664675374,-0.009113187189324634,0.0013325879738790292,-0.026114619776450264,0.0,70.0,255.0,255.0,255.0
1,0.05,1.500028348903921,1.500022005590196,5.5859648323378444e-05,0.00011131871892722245,0.0005067412026060758,-0.00018853802235497587,-0.013530632385316821,0.002232308464122923,-0.03890760219261912,0.0,70.0,255.0,255.0,255.0
2,0.1,1.500011131871894,1.500050674120261,-1.8853802235496018e-05,-0.0007860851601382279,0.0006633426503244166,-0.002773567252794375,-0.017669780783968747,0.0035988819608867573,-0.05117192966467542,0.0,70.0,255.0,255.0,255.0
3,0.15000000000000002,1.4999497403879072,1.5000883398552285,-0.00022149707695605904,-0.0016556593594696523,0.0008666293986947515,-0.005305730988822518,-0.017113187188932955,0.004532587974304114,-0.05011461977645284,0.0,70.0,255.0,255.0,255.0
4,0.2,1.499845565935947,1.5001373370601305,-0.0005494269011177478,-0.0024974038790315234,0.001116601447754828,-0.007785029230439659,-0.016551630092354053,0.005472455651966968,-0.0490485551353285,0.0,70.0,255.0,255.0,255.0
5,0.25,1.499700000000004,1.500200000000004,-0.001000000000000025,-0.0033108223687050575,0.0014138749638914483,-0.010210586502355368,-0.015961532860031546,0.006447752900351489,-0.04793215066502508,0.0,70.0,255.0,255.0,255.0
6,0.30000000000000004,1.4995144836990766,1.5002787245565197,-0.0015704855513532846,-0.004093557165034678,0.001761376737789977,-0.012578244296942168,-0.015335312362418918,0.007467893375245893,-0.04675203104862122,0.0,70.0,255.0,255.0,255.0
7,0.35000000000000003,1.4992906442835006,1.500376137673783,-0.002257824429694242,-0.004844353604946949,0.0021606643014160376,-0.01488578960721749,-0.014737632000882961,0.00845260427901895,-0.0456222512613939,0.0,70.0,255.0,255.0,255.0
8,0.4,1.4990300483385819,1.5004947909866613,-0.0030590645120750336,-0.005567320365122974,0.002606637165691872,-0.017140469423081558,-0.014271760192463567,0.009273688755651044,-0.044724958801171194,0.0,70.0,255.0,255.0,255.0
9,0.45,1.4987339122469883,1.5006368013903522,-0.003971871372002398,-0.006271529624193306,0.003088033176981142,-0.01935828548733461,-0.014026849404458197,0.009823945596965089,-0.0442142320810315,0.0,70.0,255.0,255.0,255.0
10,0.5,1.4984028953761626,1.5008035943043594,-0.004994893060808495,-0.006970005305568794,0.0035890317253883808,-0.021561892631184708,-0.014083064970726866,0.010020350864814453,-0.04421640648751765,0.0,70.0,255.0,255.0,255.0
11,0.55,1.4980369117164314,1.500995704562891,-0.0061280606351208685,-0.007679836121265993,0.004090068263462587,-0.023779926136086375,-0.01446677158947196,0.009835480291209286,-0.0447731401569916,0.0,70.0,255.0,255.0,255.0
12,0.6000000000000001,1.497634911764036,1.5012126011307056,-0.007372885674417132,-0.00841668246451599,0.004572579754509309,-0.026039206646883868,-0.015077689065434718,0.009348586324797736,-0.04574886750850989,0.0,70.0,255.0,255.0,255.0
13,0.65,1.4971952434699798,1.501452962538342,-0.008731981299809255,-0.009187605027809465,0.005024926895942361,-0.028354812886937364,-0.015732456032813147,0.008715052053820393,-0.04688614566043924,0.0,70.0,255.0,255.0,255.0
14,0.7000000000000001,1.496716151261255,1.5017150938202999,-0.010208366963110869,-0.009989928067797305,0.005444084959891349,-0.030727821212927792,-0.016233903887052925,0.008117837435350772,-0.047899195472735426,0.0,70.0,255.0,255.0,255.0
15,0.75,1.4961962506632,1.501997371034331,-0.011804763421102035,-0.010810995416514757,0.005836710639477438,-0.033144732434210906,-0.016379721468973152,0.0077546804565287175,-0.048506308781864176,0.0,70.0,255.0,255.0,255.0
16,0.8,1.4956350517196035,1.5022987648842476,-0.01352284020653196,-0.01162790021469462,0.0062195530055442205,-0.03557845209111421,-0.016072637778163923,0.00772874805636814,-0.04856045310431163,0.0,70.0,255.0,255.0,255.0
17,0.8500000000000001,1.4950334606417306,1.5026193263348855,-0.015362608630213456,-0.01241825919433115,0.006609585445114252,-0.03800077774464207,-0.015437019662867257,0.007948481657416018,-0.04815132299361147,0.0,70.0,255.0,255.0,255.0
18,0.9,1.4943932258001704,1.502959723428759,-0.017322917980996166,-0.013171602180981345,0.007014401171285822,-0.04039358439047536,-0.014713007750999374,0.008232350115422449,-0.047480575107188006,0.0,70.0,255.0,255.0,255.0
19,0.9500000000000001,1.4937163004236325,1.503320766452014,-0.019401967069260992,-0.013889559969431087,0.007432820456656497,-0.04274883525536087,-0.014144108473868044,0.008403818880808878,-0.04675607227511515,0.0,70.0,255.0,255.0,255.0
20,1.0,1.4930042698032273,1.5037030054744247,-0.021597801506532253,-0.01458601302836815,0.00785478305936671,-0.04506919161798687,-0.013982011857027743,0.008273001900871435,-0.04618633041299884,0.0,70.0,255.0,255.0,255.0
21,1.05,1.4922576991207956,1.5041062447579507,-0.02390888623105968,-0.015287761155133861,0.00826012064674364,-0.047367468296660754,-0.014349250724454699,0.007749667343426303,-0.04589059521131096,0.0,70.0,255.0,255.0,255.0
22,1.1,1.491475493687714,1.504529017539099,-0.02633454833619833,-0.01602093810081362,0.00862974979370934,-0.04965825113911797,-0.015088824357900599,0.006980191008421066,-0.045841271752476015,0.0,70.0,255.0,255.0,255.0
23,1.1500000000000001,1.4906556053107143,1.5049692197373217,-0.028874711344971476,-0.01679664359092392,0.008958139747585747,-0.051951595471908356,-0.015900920888722858,0.0062328435217473555,-0.04595780099705439,0.0,70.0,255.0,255.0,255.0
24,1.2000000000000002,1.4897958293286215,1.5054248315138576,-0.031529707883389164,-0.017611030189685906,0.009253034145884076,-0.05425403123882341,-0.016489802077712667,0.00576674718126835,-0.04616891635920682,0.0,70.0,255.0,255.0,255.0
25,1.25,1.4888945022917457,1.50589452315191,-0.034300114468853816,-0.018445623798695188,0.009534814465712582,-0.05656848710782904,-0.016560296370871086,0.005841237347836703,-0.0464084161861892,0.0,70.0,255.0,255.0,255.0
26,1.3,1.487951266948752,1.506378312960429,-0.03718655659417207,-0.019267059826773014,0.009837157880667746,-0.058894872857442326,-0.01596998636350655,0.006573468350867806,-0.04663110544438423,0.0,70.0,255.0,255.0,255.0
27,1.35,1.4869677963090684,1.5068782389399769,-0.04018960175459805,-0.020042622435045843,0.010192161300799363,-0.06123159765226746,-0.014894862392789143,0.007764507222729478,-0.04680452239741728,0.0,70.0,255.0,255.0,255.0
28,1.4000000000000001,1.4859470047052474,1.5073975290905088,-0.043309716359398814,-0.02075654606605193,0.010613608602940694,-0.06357532509718405,-0.013676968367892783,0.009040844562147043,-0.046886449342821435,0.0,70.0,255.0,255.0,255.0
29,1.4500000000000002,1.4848921417024632,1.507939599800271,-0.046547134264316455,-0.02141031927183512,0.011096245757014067,-0.0659202425865496,-0.012656030534574647,0.010023644608492255,-0.046828775108571224,0.0,70.0,255.0,255.0,255.0
30,1.5,1.483805972778064,1.5085071536662102,-0.049901740618053775,-0.022022149119509393,0.01161597306378992,-0.06825820260804118,-0.012152746715399232,0.010334076679741067,-0.04658000484224767,0.0,70.0,255.0,255.0,255.0
31,1.55,1.4826899267905123,1.50910119710665,-0.05337295452512057,-0.022625593943375044,0.012129653424988174,-0.07057824307077437,-0.012331176781765762,0.009789373006285906,-0.04612447019063659,0.0,70.0,255.0,255.0,255.0
32,1.6,1.4815434133837264,1.509720119008709,-0.05695956492513121,-0.02325526679768597,0.01259491036441851,-0.07287064962710484,-0.013081842620965567,0.008611663550572857,-0.045542410219627516,0.0,70.0,255.0,255.0,255.0
33,1.6500000000000001,1.4803644001107437,1.5103606881430918,-0.060660019487831056,-0.0239337782054716,0.01299081978004546,-0.07513248409273712,-0.014160249929040525,0.007234733940264526,-0.044975469230731924,0.0,70.0,255.0,255.0,255.0
34,1.7000000000000002,1.4791500355631793,1.5110192009867136,-0.06447281333440492,-0.024671291790590022,0.013318383758444963,-0.07736819655017803,-0.015313301891195508,0.006098021704081802,-0.04456875709928504,0.0,70.0,255.0,255.0,255.0
35,1.75,1.4778972709316847,1.5116925265189363,-0.06839683914284886,-0.02546510839459115,0.01360062195045364,-0.07958935980266563,-0.016304707443359767,0.005642409313466601,-0.04446354579680581,0.0,70.0,255.0,255.0,255.0
36,1.8,1.4766035247237201,1.512379263181759,-0.07243174931467149,-0.026301762534926,0.013882624689791623,-0.08181455112985861,-0.016993045437163623,0.006088899764122857,-0.04472481332686018,0.0,70.0,255.0,255.0,255.0
37,1.85,1.475267094678192,1.5130807889879154,-0.07657829425583472,-0.027164412938307514,0.014209511926865925,-0.08406184113535164,-0.017345039850535926,0.00721802272392047,-0.04526136119959029,0.0,70.0,255.0,255.0,255.0
38,1.9000000000000001,1.4738870834298894,1.5138002143744456,-0.08083793342820665,-0.02803626651997959,0.01460442696218367,-0.08634068724981764,-0.01735308086707743,0.008591035527150126,-0.045895310097895936,0.0,70.0,255.0,255.0,255.0
39,1.9500000000000002,1.472463468026194,1.5145412316841338,-0.08521236298081648,-0.028899721025015257,0.015068615479580938,-0.08865137214514124,-0.017011787541809653,0.00977112172206862,-0.046443422601519235,0.0,70.0,255.0,255.0,255.0
40,2.0,1.4709971113273879,1.5153070759224037,-0.08970307064272078,-0.029737445274160557,0.015581539134390532,-0.09098502950996956,-0.01631644215926986,0.010328360658862223,-0.04672982129453884,0.0,70.0,255.0,255.0,255.0
41,2.0500000000000003,1.469489723498778,1.5160993855975728,-0.09431086593181344,-0.030531365240942243,0.01610145154546716,-0.09332435427459512,-0.01529459018738688,0.010041881084377202,-0.04666298978863587,0.0,70.0,255.0,255.0,255.0
42,2.1,1.4679439748032936,1.5169172210769504,-0.09903550607018029,-0.031266904292899245,0.016585727242828252,-0.09565132848883315,-0.014099676298284791,0.009087061404300378,-0.046297552907416384,0.0,70.0,255.0,255.0,255.0
43,2.15,1.4663630330694881,1.5177579583218557,-0.10387599878069675,-0.03194133287077072,0.017010157685897198,-0.09795410956533676,-0.012989104924332473,0.007830308099920913,-0.04575788245228113,0.0,70.0,255.0,255.0,255.0
44,2.2,1.4647498415162166,1.51861823684554,-0.10883091702671396,-0.03256581478533249,0.017368758052820343,-0.10022711673406126,-0.012237496659706082,0.00663735154751155,-0.04517083920792808,0.0,70.0,255.0,255.0,255.0
45,2.25,1.4631064515909549,1.5194948341271377,-0.11389871045410288,-0.03316508253674133,0.017673892840648353,-0.10247119348612957,-0.012117542567691153,0.005864101431196644,-0.04465315970102052,0.0,70.0,255.0,255.0,255.0
46,2.3000000000000003,1.4614333332625424,1.520385626129605,-0.11907803637532692,-0.03377756904210161,0.017955168195940008,-0.10469243270416331,-0.012749619454166528,0.005702923217998368,-0.044276001411366894,0.0,70.0,255.0,255.0,255.0
47,2.35,1.4597286946867447,1.5212903509467317,-0.12436795372451921,-0.03444004448215798,0.01824418516244819,-0.10689879362726626,-0.013927303907323996,0.00606468736976673,-0.04406479080711623,0.0,70.0,255.0,255.0,255.0
48,2.4000000000000004,1.4579893288143266,1.5222100446458497,-0.12976791573805355,-0.03517029943283401,0.01856163693291668,-0.10909891178487494,-0.015257772163068672,0.006737615522833806,-0.04403763561746238,0.0,70.0,255.0,255.0,255.0
49,2.45,1.4562116647434613,1.5231465146400234,-0.1352778449030067,-0.03596582169846485,0.01891794671473157,-0.1113025571890125,-0.016332678033825765,0.007512385840846569,-0.04421270774625924,0.0,70.0,255.0,255.0,255.0
50,2.5,1.4543927466444801,1.524101839317323,-0.1408981714569548,-0.03680356723621658,0.019312875517001338,-0.11352018255950086,-0.016741406217990473,0.008187261588221695,-0.044613530577372607,0.0,70.0,255.0,255.0,255.0
51,2.5500000000000003,1.4525313080198397,1.5250778021917235,-0.1466298631589568,-0.0376399623202639,0.01973667287355374,-0.11576391024674976,-0.01628035856937604,0.0086408782582037,-0.045234030206917075,0.0,70.0,255.0,255.0,255.0
52,2.6,1.4506287504124538,1.5260755066046783,-0.15247456248162977,-0.03843160309315419,0.020176963342821708,-0.11804358558019257,-0.015161923923190379,0.00885875788141366,-0.045962444703262495,0.0,70.0,255.0,255.0,255.0
53,2.6500000000000004,1.4486881477105242,1.5270954985260057,-0.15843422171697605,-0.039156154712582936,0.020622548661695106,-0.120360154717076,-0.013808990572683477,0.00885298272241819,-0.04661073591702147,0.0,70.0,255.0,255.0,255.0
54,2.7,1.4467131349411955,1.5281377614708478,-0.16451057795333737,-0.039812502150422535,0.021062261615063527,-0.12270465917189471,-0.012644938057992938,0.008627417443296537,-0.04698606873479172,0.0,70.0,255.0,255.0,255.0
55,2.75,1.444706897495482,1.529201724687512,-0.17070468763416552,-0.04042064851838223,0.02148529040602476,-0.12505876159055518,-0.012084757968144899,0.008178833567851207,-0.0469007366375368,0.0,70.0,255.0,255.0,255.0
56,2.8000000000000003,1.4426710700893572,1.5302862905114503,-0.1770164541123929,-0.041020977947237025,0.021880144971848647,-0.1273947328356484,-0.012342093121708864,0.0075258248215748225,-0.04627356540665428,0.0,70.0,255.0,255.0,255.0
57,2.85,1.4406047997007583,1.531389739184697,-0.18344416091773036,-0.041654857830553116,0.022237872888182242,-0.1296861181312206,-0.013254184549049697,0.006781120265286766,-0.045251677466043305,0.0,70.0,255.0,255.0,255.0
58,2.9000000000000004,1.438505584306302,1.5325100778002685,-0.18998506592551495,-0.042346396402141995,0.022558256998377324,-0.13191990058225272,-0.014477081396879754,0.006131292748312589,-0.04411485194986964,0.0,70.0,255.0,255.0,255.0
59,2.95,1.436370160060544,1.5336455648845346,-0.19663615097595563,-0.04310256597024109,0.0228510021630135,-0.13409760332620757,-0.01566770959446906,0.005770205458377475,-0.04315527838686106,0.0,70.0,255.0,255.0,255.0
60,3.0,1.4341953277092778,1.5347951780165698,-0.2033948262581357,-0.0439131673615889,0.02313527754421507,-0.13623542842093883,-0.016499608529452203,0.005889385492352517,-0.04266352287249642,0.0,70.0,255.0,255.0,255.0
61,3.0500000000000003,1.4319788433243852,1.5359590926389561,-0.21025969381804951,-0.04475252682318631,0.023439940712248752,-0.1383639556134572,-0.016791921624403905,0.0065701348098690104,-0.04278499487975762,0.0,70.0,255.0,255.0,255.0
62,3.1,1.4297200750269592,1.5371391720877947,-0.21723122181948143,-0.04559235952402929,0.023792291025201973,-0.1405139279089146,-0.016590382169523465,0.007650513971002582,-0.04338273354442812,0.0,70.0,255.0,255.0,255.0
63,3.1500000000000004,1.4274196073719823,1.5383383217414763,-0.22431108660894097,-0.04641156504013866,0.02420499210934901,-0.14270222896790002,-0.016032800389953472,0.00882641504884596,-0.0441779681716159,0.0,70.0,255.0,255.0,255.0
64,3.2,1.4250789185229453,1.5395596712987296,-0.23150144471627143,-0.04719563956302464,0.02467493253008657,-0.14493172472607618,-0.015258023098319029,0.009786212937856753,-0.044886244291231225,0.0,70.0,255.0,255.0,255.0
65,3.25,1.4227000434156798,1.540805814994485,-0.2388042590815486,-0.04793736734997056,0.025183613403134686,-0.14719085339702315,-0.014396807914063281,0.010235652434742448,-0.04521719984449668,0.0,70.0,255.0,255.0,255.0
66,3.3000000000000003,1.4202851817879483,1.542078032639043,-0.24622053005597375,-0.048635320354430966,0.025698497773560813,-0.14945344471052585,-0.013541968632058143,0.010026549691821707,-0.04502039446823147,0.0,70.0,255.0,255.0,255.0
67,3.35,1.4178365113802367,1.543375664771841,-0.2537496035526012,-0.049291564213176375,0.026186268372316857,-0.1516928928438463,-0.012781489569824167,0.00926670730045931,-0.044423728682566055,0.0,70.0,255.0,255.0,255.0
68,3.4000000000000004,1.4153560253666306,1.5446966594762748,-0.2613898193403584,-0.04991346931141338,0.026625168503606744,-0.15389581757878246,-0.012237031728856707,0.008194002767192288,-0.0436860958765134,0.0,70.0,255.0,255.0,255.0
69,3.45,1.4128451644490954,1.5460381816222017,-0.2691391853104794,-0.050515267386062046,0.027005668649036085,-0.15606150243149763,-0.012038659550905884,0.007057716683278592,-0.04306011740860538,0.0,70.0,255.0,255.0,255.0
70,3.5,1.4103044986280244,1.5473972263411784,-0.27699596958350814,-0.05111733526650397,0.027330940171934603,-0.158201829319643,-0.01231315981422565,0.006092014092762277,-0.042799612481408955,0.0,70.0,255.0,255.0,255.0
71,3.5500000000000003,1.407733430922445,1.5487712756393952,-0.2849593682424437,-0.05174658336748461,0.027614870058312313,-0.16034146367963853,-0.013101742308840869,0.005435927494912285,-0.04303328738719525,0.0,70.0,255.0,255.0,255.0
72,3.6,1.405129840291276,1.5501587133470096,-0.293030115951472,-0.05242750949738806,0.027874532921425832,-0.16250515805836252,-0.014238344865757924,0.005115384099885212,-0.043636943799924,0.0,70.0,255.0,255.0,255.0
73,3.6500000000000004,1.4024906799727062,1.5515587289315378,-0.30120988404828,-0.0531704178540604,0.028126408468300834,-0.16470515805963093,-0.015421869897447316,0.00512652493134258,-0.04436305624772041,0.0,70.0,255.0,255.0,255.0
74,3.7,1.39981279850587,1.5529713541938397,-0.3095006317574351,-0.05396969648713279,0.02838718541456009,-0.16694146368313456,-0.01633559044638133,0.005461894688107982,-0.04496671264775376,0.0,70.0,255.0,255.0,255.0
75,3.75,1.3970937103239929,1.5543974474729938,-0.31790403041659343,-0.054803976898698537,0.028672597937111632,-0.1692018293244063,-0.016670552829078922,0.006108272546234694,-0.04520038752590105,0.0,70.0,255.0,255.0,255.0
76,3.8000000000000003,1.394332400816,1.5558386139875509,-0.3264208146898757,-0.05563675177004068,0.02899801266918356,-0.17146150243572467,-0.01627726259876283,0.007031791610501159,-0.04493988255646619,0.0,70.0,255.0,255.0,255.0
77,3.85,1.3915300351469888,1.5572972487399122,-0.3350501806601659,-0.05643170315857482,0.02937577709816175,-0.17369581758005292,-0.015315014417005557,0.008110077978251695,-0.04431390404314728,0.0,70.0,255.0,255.0,255.0
78,3.9000000000000004,1.3886892305001426,1.558776191697367,-0.343790396447881,-0.05716825321174124,0.02980902046700873,-0.1758928928400394,-0.014106444392414375,0.009138219185600427,-0.04357627120713525,0.0,70.0,255.0,255.0,255.0
79,3.95,1.3858132098258147,1.560278150786613,-0.35263946994416984,-0.05784234759781626,0.03028959901672179,-0.17805344470076645,-0.0129850392697195,0.009896755846350302,-0.04297960542694046,0.0,70.0,255.0,255.0,255.0
80,4.0,1.382904995740361,1.5618051515990392,-0.36159574091795765,-0.05846675713871319,0.03079869605164376,-0.18019085338273344,-0.012276610221406692,0.010186877074391809,-0.0427828001189956,0.0,70.0,255.0,255.0,255.0
81,4.05,1.3799665341119434,1.5633580203917774,-0.3706585552824432,-0.059070008619956926,0.03130828672416097,-0.182331724712666,-0.012155267901969857,0.009915880422273204,-0.043113755813511956,0.0,70.0,255.0,255.0,255.0
82,4.1000000000000005,1.3769979948783653,1.5649359802714553,-0.37982891338922425,-0.059682283928910174,0.03179028409387108,-0.18450222896408464,-0.012532553177146966,0.009173255036021288,-0.04382203210203106,0.0,70.0,255.0,255.0,255.0
83,4.15,1.3739983057190523,1.5665370488011645,-0.38910877817885164,-0.06032326393767162,0.0322256122277631,-0.18671392792286912,-0.01320223598293424,0.00815332559866988,-0.044617266849206194,0.0,70.0,255.0,255.0,255.0
84,4.2,1.370965668484598,1.5681585414942316,-0.39850030618151117,-0.0610025075272036,0.03260561665373807,-0.18896395564900526,-0.01395716622765164,0.007070056285463089,-0.04521500550465629,0.0,70.0,255.0,255.0,255.0
85,4.25,1.367898054966332,1.5697976104665383,-0.40800517374375217,-0.06171898056043679,0.03293261785630941,-0.19123542847333475,-0.014595034257225414,0.006120256452524231,-0.045336477266122444,0.0,70.0,255.0,255.0,255.0
86,4.3,1.3647937704285544,1.5714518032798626,-0.41762384902884464,-0.06246201095292614,0.03321764229899049,-0.1934976033756175,-0.014996118007881698,0.005423661059511531,-0.044844721229092555,0.0,70.0,255.0,255.0,255.0
87,4.3500000000000005,1.3616518538710394,1.5731193746964374,-0.4273549340813139,-0.06321859236122496,0.03347498396226056,-0.195719900596244,-0.01515934163895949,0.005029629150010706,-0.04388514703591029,0.0,70.0,255.0,255.0,255.0
88,4.4,1.358471911192432,1.5747993016760886,-0.43719583908846904,-0.06397794511682209,0.03372060521399156,-0.19788611807920853,-0.015118364589428168,0.004977429468633332,-0.04274832106976878,0.0,70.0,255.0,255.0,255.0
89,4.45,1.3552540593593572,1.5764914352178365,-0.4471435458892348,-0.06473042882016777,0.033972726909123896,-0.19999473270322088,-0.014900608174106544,0.005301993371076286,-0.04172643316049385,0.0,70.0,255.0,255.0,255.0
90,4.5,1.3519988683104152,1.578196574367001,-0.45719531235879113,-0.06546800593423274,0.03425080455109919,-0.2020587613952579,-0.014535234101753503,0.006044078467493108,-0.04109926284441845,0.0,70.0,255.0,255.0,255.0
91,4.55,1.348707258765934,1.5799165156729464,-0.46734942202876056,-0.06618395223034312,0.03457713475587321,-0.20410465898766272,-0.014052521138752105,0.007191526621541655,-0.041013932696737365,0.0,70.0,255.0,255.0,255.0
92,4.6000000000000005,1.3453804730873808,1.5816542878425883,-0.4776057782575574,-0.06687325804810795,0.034969957213253355,-0.20616015466493165,-0.01351091942789484,0.008546550042054513,-0.041389267866243085,0.0,70.0,255.0,255.0,255.0
93,4.65,1.342019932961123,1.5834135113942718,-0.48796543749525373,-0.06753504417313261,0.03543178976007866,-0.20824358577428703,-0.013005144820099623,0.00977527820538171,-0.04203756075983889,0.0,70.0,255.0,255.0,255.0
94,4.7,1.3386269686700676,1.5851974668185962,-0.4984301368349861,-0.06817377253011792,0.035947485033791526,-0.21036391074091554,-0.012639375434742028,0.01053073479919675,-0.042765975140052204,0.0,70.0,255.0,255.0,255.0
95,4.75,1.3352025557081113,1.587008259897651,-0.5090018285693453,-0.06879898171660681,0.03648486323999833,-0.21252018328829225,-0.012508038659775345,0.010467439001327072,-0.04338647135614937,0.0,70.0,255.0,255.0,255.0
96,4.800000000000001,1.331747070498407,1.588845953142596,-0.5196821551638153,-0.06942457639609545,0.036994228933924234,-0.21470255787653048,-0.012654310257853574,0.009435407279245744,-0.04378728691179501,0.0,70.0,255.0,255.0,255.0
97,4.8500000000000005,1.3282600980685018,1.5907076827910434,-0.5304720843569983,-0.07006441274239217,0.03742840396792291,-0.21689891197947175,-0.013032505125099014,0.007714893292454228,-0.043962350263726524,0.0,70.0,255.0,255.0,255.0
98,4.9,1.3247406292241677,1.5925887935393883,-0.5413720463617625,-0.07072782690860535,0.037765718263169656,-0.21909879290290313,-0.013544692493772104,0.005833252582054804,-0.04393518880453362,0.0,70.0,255.0,255.0,255.0
99,4.95,1.3211873153776412,1.5944842546173603,-0.5523819636472886,-0.07141888199176938,0.03801172922612839,-0.22129243085992512,-0.014082402907300562,0.004333389110544594,-0.04372397863356969,0.0,70.0,255.0,255.0,255.0
100,5.0,1.3175987410249907,1.5963899664620012,-0.563501289447755,-0.07213606719933541,0.038199057174224116,-0.2234711907662601,-0.014544592610987728,0.0037501282308838313,-0.04334683308302445,0.0,70.0,255.0,255.0,255.0
101,5.050000000000001,1.3139737086577077,1.5983041603347827,-0.5747290827239147,-0.07287334125286815,0.03838674204921677,-0.22562711416822756,-0.014870750650386455,0.004347217221889466,-0.04282918072845421,0.0,70.0,255.0,255.0,255.0
102,5.1000000000000005,1.310311406899704,1.6002286406669228,-0.5860640008645778,-0.07362314226437405,0.03863377889641306,-0.22775410883910552,-0.015042696435441094,0.005858585412821249,-0.04224217023965915,0.0,70.0,255.0,255.0,255.0
103,5.15,1.3066113944312703,1.602167538224424,-0.5975044936078252,-0.07437761089641226,0.038972600590498896,-0.22985133119219348,-0.015051609680449829,0.007746163680821816,-0.04170252318272949,0.0,70.0,255.0,255.0,255.0
104,5.2,1.3028736458100627,1.6041259007259727,-0.6090491339837971,-0.07512830323241904,0.039408395264495244,-0.23192436115737847,-0.01489152575651076,0.009463074726179244,-0.04133708468457842,0.0,70.0,255.0,255.0,255.0
105,5.25,1.2990985641080284,1.6061083777508736,-0.620696929723563,-0.07586676347206334,0.03991890806311682,-0.23398503966065132,-0.014557600220088673,0.010476104019208066,-0.04127020563585715,0.0,70.0,255.0,255.0,255.0
106,5.300000000000001,1.2952869694628564,1.6081177915322844,-0.6324476379498623,-0.0765840632544279,0.04045600566641605,-0.23605138172096418,-0.014061661499620293,0.010503089800484311,-0.041556502995043765,0.0,70.0,255.0,255.0,255.0
107,5.3500000000000005,1.2914401577825856,1.6101539783175152,-0.6443020678956595,-0.07727292962202537,0.04096921704316525,-0.2381406899601557,-0.013477548294171804,0.009705217270661315,-0.04210449325310339,0.0,70.0,255.0,255.0,255.0
108,5.4,1.2875596765006538,1.612214713236601,-0.6562617069458778,-0.07793181808384508,0.04142652739348218,-0.24026183104627452,-0.012929707945219526,0.008446801319461628,-0.04273835482806465,0.0,70.0,255.0,255.0,255.0
109,5.45,1.283646975974201,1.6142966310568634,-0.6683282510002869,-0.07856590041654732,0.041813897175111414,-0.24241452544296216,-0.012550468425454042,0.007094684945130325,-0.04327490873532458,0.0,70.0,255.0,255.0,255.0
110,5.5,1.279703086458999,1.616396102954112,-0.680503159490174,-0.07918686492639049,0.042135995887995215,-0.24458932191980698,-0.012469015832716757,0.0060094183959469305,-0.04353635369763742,0.0,70.0,255.0,255.0,255.0
111,5.550000000000001,1.275728289481562,1.618510230645663,-0.6927871831922676,-0.079812801999819,0.04241483901470611,-0.2467681608127259,-0.012743116171765045,0.005398745254558968,-0.04343152057816324,0.0,70.0,255.0,255.0,255.0
112,5.6000000000000005,1.2717218062590172,1.6206375868555827,-0.7051799755714466,-0.08046117654356699,0.04267587041345111,-0.2489324739776233,-0.013282634863442944,0.005232340376615241,-0.043025264673257624,0.0,70.0,255.0,255.0,255.0
113,5.65,1.2676821718272053,1.622777817687008,-0.71768043059003,-0.08114106548616329,0.04293807305236763,-0.25107068728005166,-0.0139131949021154,0.0053973536520812715,-0.04245864957952428,0.0,70.0,255.0,255.0,255.0
114,5.7,1.2636076997104009,1.6249313941608194,-0.7302870442994518,-0.08185249603377853,0.04321560577865924,-0.25317833893557573,-0.014453826648730406,0.005790073605060897,-0.04187656708740661,0.0,70.0,255.0,255.0,255.0
115,5.75,1.2594969222238275,1.627099378264874,-0.7429982644835875,-0.08258644815103633,0.04351708041287372,-0.2552583439887923,-0.014730345773394937,0.006302259692714252,-0.04142037024964518,0.0,70.0,255.0,255.0,255.0
116,5.800000000000001,1.2553490548952972,1.6292831022021068,-0.755812878698331,-0.08332553061111803,0.043845831747930664,-0.25732037596054025,-0.014652587100183467,0.006856894216245024,-0.04117018858513788,0.0,70.0,255.0,255.0,255.0
117,5.8500000000000005,1.2511643691627157,1.631483961439667,-0.7687303020796415,-0.08405170686105468,0.04420276983449822,-0.2593753628473061,-0.01427732017722505,0.007405514463254548,-0.04111081169015929,0.0,70.0,255.0,255.0,255.0
118,5.9,1.2469438842091918,1.6337033791855566,-0.7817504149830616,-0.08475326262884053,0.04458638319425612,-0.2614314571295562,-0.013732104520824961,0.007881173349622017,-0.04119152237830326,0.0,70.0,255.0,255.0,255.0
119,5.95,1.2426890428998316,1.6359425997590926,-0.7948734477925972,-0.08542491731313717,0.044990887169460425,-0.26349451508513644,-0.013147511692945812,0.008199845809420125,-0.04136502338126791,0.0,70.0,255.0,255.0,255.0
120,6.0,1.238401392477878,1.6382024679025027,-0.8080998664915753,-0.08606801379813511,0.04540636777519813,-0.26556795946768297,-0.012645591749915752,0.008285505537175553,-0.041590183951845106,0.0,70.0,255.0,255.0,255.0
121,6.050000000000001,1.234082241520018,1.6404832365366124,-0.8214302437393655,-0.08668947648812875,0.04581943772317798,-0.26765353348032095,-0.012299309320318308,0.008106451773093326,-0.0418349511885685,0.0,70.0,255.0,255.0,255.0
122,6.1000000000000005,1.2297324448290652,1.6427844116748205,-0.8348652198396074,-0.08729794473016694,0.046217012952507464,-0.2697514545865398,-0.012124448063732807,0.007710077294631468,-0.04205242096690931,0.0,70.0,255.0,255.0,255.0
123,6.15,1.2253524470470014,1.6451049378318632,-0.8484053891980194,-0.08790192129450203,0.04659044545264113,-0.2718587755770119,-0.012122862539065693,0.007194316586089933,-0.04217348934543175,0.0,70.0,255.0,255.0,255.0
124,6.2,1.220942252699615,1.6474434562200846,-0.8620510973973086,-0.08851023098407351,0.04693644461111646,-0.273968803521083,-0.012295613759016888,0.006670030337141419,-0.04212385220813131,0.0,70.0,255.0,255.0,255.0
125,6.25,1.216501423948594,1.6497985822929748,-0.8758022695501277,-0.08913148267040372,0.04725744848635527,-0.276071160797825,-0.012643277902957273,0.0062437368063772425,-0.041818893943079694,0.0,70.0,255.0,255.0,255.0
126,6.300000000000001,1.2120291044325746,1.6521692010687201,-0.8896582134770911,-0.08977455877436924,0.04756081829175418,-0.27815069291539096,-0.013151201259775647,0.005976785870531742,-0.041229493840033715,0.0,70.0,255.0,255.0,255.0
127,6.3500000000000005,1.2075239680711571,1.6545546641221502,-0.9036173388416668,-0.09044660279638128,0.04785512707340844,-0.2801941101818284,-0.01374404840690513,0.005870539994434765,-0.040481276003900835,0.0,70.0,255.0,255.0,255.0
128,6.4,1.2029844441529365,1.656954713776061,-0.9176776244952739,-0.09114896361505975,0.04814787229119766,-0.28219882051578105,-0.014295606161973673,0.005906035830638423,-0.039793587839087596,0.0,70.0,255.0,255.0,255.0
129,6.45,1.1984090717096512,1.65936945135127,-0.9318372208932449,-0.09187616341257865,0.048445730656472286,-0.28417346896573714,-0.014671058911974733,0.0060595200218172,-0.039385628392241134,0.0,70.0,255.0,255.0,255.0
130,6.5,1.1937968278116786,1.6617992868417082,-0.9460949713918476,-0.09261606950625723,0.04875382429337938,-0.28613738335500516,-0.014737287314159353,0.006295537913247884,-0.03947419365570859,0.0,70.0,255.0,255.0,255.0
131,6.550000000000001,1.1891474647590254,1.664244833780608,-0.9604509592287455,-0.09334989214399458,0.049075284447797074,-0.288120888331308,-0.014435372820176262,0.006587430385596171,-0.04015467251888838,0.0,70.0,255.0,255.0,255.0
132,6.6000000000000005,1.1844618385972792,1.666706815286488,-0.9749070602249784,-0.09405960678827485,0.049412567331938995,-0.290152850606894,-0.013863833833149819,0.006926923566785703,-0.0412562279313855,0.0,70.0,255.0,255.0,255.0
133,6.65,1.179741504080198,1.6691860905138018,-0.9894662442894349,-0.09473627552730957,0.049767976804475644,-0.29224651112444655,-0.013211076449448633,0.007300700930668036,-0.042456728062811866,0.0,70.0,255.0,255.0,255.0
134,6.7,1.1749882110445482,1.6716836129669355,-1.004131711337423,-0.09538071443321972,0.0501426374250058,-0.2943985234131752,-0.012672924485968018,0.007686201929923975,-0.04342808643721385,0.0,70.0,255.0,255.0,255.0
135,6.75,1.170203432636876,1.6742003542563024,-1.0189060966307524,-0.09600356797590637,0.05053659699746804,-0.29658931976816794,-0.01244356351630671,0.008078074244566302,-0.04385635940604704,0.0,70.0,255.0,255.0,255.0
136,6.800000000000001,1.1653878542469576,1.6767372726666823,-1.0337906433142399,-0.09662507078485039,0.05095044484946243,-0.2987841593537799,-0.012620594172618738,0.008466779300397853,-0.043584729837431446,0.0,70.0,255.0,255.0,255.0
137,6.8500000000000005,1.160540925558391,1.6792953987412487,-1.0487845125661304,-0.09726562739316824,0.05138327492750783,-0.3009477927519111,-0.013115208335023887,0.00878446970107305,-0.04274369572059289,0.0,70.0,255.0,255.0,255.0
138,6.9,1.1556612915076407,1.681875600159433,-1.063885422589431,-0.09793659161835278,0.05182889181956973,-0.3030585289258392,-0.01374549596573349,0.008928456484103009,-0.041610455620522124,0.0,70.0,255.0,255.0,255.0
139,6.95,1.1507472663965557,1.6844782879232056,-1.0790903654587143,-0.09864017698974159,0.05227612057591813,-0.3051088383139633,-0.01433066971778807,0.008809098831941142,-0.04047479975157753,0.0,70.0,255.0,255.0,255.0
140,7.0,1.1457972738086666,1.6871032122170249,-1.0943963064208273,-0.09936965859013158,0.05270980170276385,-0.30710600890099693,-0.014704495916584293,0.00834023037643572,-0.039624378044100794,0.0,70.0,255.0,255.0,255.0
141,7.050000000000001,1.1408103005375425,1.689749268093482,-1.109800966348814,-0.10011062658140002,0.0531101436135617,-0.3090712761183734,-0.014775677062539572,0.007497340524742491,-0.03921866920368888,0.0,70.0,255.0,255.0,255.0
142,7.1000000000000005,1.1357862111505266,1.692414226578381,-1.1253034340326646,-0.10084722629638554,0.0534595357552381,-0.3110278758213658,-0.014560740752322943,0.006417808351533161,-0.03920171645916959,0.0,70.0,255.0,255.0,255.0
143,7.15,1.130725577907904,1.6950952216690058,-1.1409037539309506,-0.10156670065663231,0.053751924448715016,-0.31299144776429033,-0.014121531762323336,0.005345379892718327,-0.03943040050413682,0.0,70.0,255.0,255.0,255.0
144,7.2,1.1256295410848633,1.6977894190232525,-1.1566025788090937,-0.10225937947261787,0.05399407374450993,-0.3149709158717795,-0.013524396642794478,0.004529150994048159,-0.03976511548866579,0.0,70.0,255.0,255.0,255.0
145,7.25,1.1204996399606422,1.7004946290434568,-1.1724008455181285,-0.10291914032091176,0.05420483954811983,-0.3169679593131569,-0.012826471465343658,0.004196994925775854,-0.040062165713483644,0.0,70.0,255.0,255.0,255.0
146,7.300000000000001,1.1153376270527722,1.7032099029780645,-1.1882993747404094,-0.10354202661915224,0.054413773237087515,-0.31897713244312786,-0.012075671936151444,0.004458170954979579,-0.04023504556240898,0.0,70.0,255.0,255.0,255.0
147,7.3500000000000005,1.110145437298727,1.7059360063671656,-1.2042985587624413,-0.1041267075145269,0.05465065664361779,-0.3209914638693978,-0.011359963853929678,0.005215345843767594,-0.04029130324467722,0.0,70.0,255.0,255.0,255.0
148,7.4,1.1049249563013195,1.7086749686424263,-1.2203985211273491,-0.1046780230045452,0.054935307821464274,-0.3230062627675956,-0.010811920108610984,0.00625729667218522,-0.040264399239364757,0.0,70.0,255.0,255.0,255.0
149,7.45,1.0996776349982724,1.711429537149312,-1.2365991850392009,-0.105207899525388,0.05527638631083631,-0.3250179037933343,-0.01056400478312014,0.0073553228329137355,-0.0401723373611107,0.0,70.0,255.0,255.0,255.0
150,7.5,1.0944041663487807,1.71420260727351,-1.2529003115066826,-0.10573442348285722,0.05567084010475565,-0.32702349650370666,-0.010737590250009532,0.008295752624665198,-0.0400229031577215,0.0,70.0,255.0,255.0,255.0
151,7.550000000000001,1.0891041926499867,1.7169966211597876,-1.2693015346895715,-0.10628165855038896,0.05610596157330283,-0.32902019410910643,-0.011376460367884533,0.008951001296475525,-0.03982772197346218,0.0,70.0,255.0,255.0,255.0
152,7.6000000000000005,1.0837760004937418,1.7198132034308402,-1.2858023309175932,-0.10687206951964567,0.0565659402344032,-0.3310062687010529,-0.012354089146593417,0.00928808100040257,-0.03963307056240595,0.0,70.0,255.0,255.0,255.0
153,7.65,1.0784169856980221,1.722653215183228,-1.3024021615596768,-0.1075170674650483,0.05703476967334309,-0.33298350116534703,-0.013433585005806492,0.009296482369403058,-0.03951200253835552,0.0,70.0,255.0,255.0,255.0
154,7.7,1.073024293747237,1.7255166803981745,-1.319100681034128,-0.10821542802022632,0.057495588471343506,-0.3349574689548884,-0.01436112268620171,0.008970583315393021,-0.039538821779983024,0.0,70.0,255.0,255.0,255.0
155,7.75,1.0675954428959995,1.7284027740303622,-1.3358979084551657,-0.10895317973366847,0.05793182800488239,-0.33693738334334533,-0.014891139562811517,0.008308013223734534,-0.039794193683606593,0.0,70.0,255.0,255.0,255.0
156,7.800000000000001,1.06212897577387,1.7313098631986628,-1.3527944193684625,-0.10970454197650747,0.05832638979371696,-0.3389368883232491,-0.014898486592418436,0.0073357725770994975,-0.04030786607758241,0.0,70.0,255.0,255.0,255.0
157,7.8500000000000005,1.0566249886983488,1.734235413009734,-1.3697915972874906,-0.11044302839291031,0.05866540526259234,-0.3409681699511036,-0.014471791447601134,0.006194008476301249,-0.040974642943969464,0.0,70.0,255.0,255.0,255.0
158,7.9,1.051084672934579,1.737176403724922,-1.3868912363635728,-0.11115172112126759,0.058945790641347084,-0.34303435261764603,-0.013805627979879276,0.005118452171859467,-0.041608523008185294,0.0,70.0,255.0,255.0,255.0
159,7.95,1.045509816586222,1.7401299920738686,-1.4040950325492552,-0.11182359119089824,0.05917725047977829,-0.3451290222519221,-0.0131047911854143,0.004360292623428741,-0.042026314912901874,0.0,70.0,255.0,255.0,255.0
160,8.0,1.0399023138154893,1.7430941287728998,-1.421404138588765,-0.11246220023980902,0.05938181990368996,-0.3472369841089362,-0.012577851498907222,0.004160213128590051,-0.04206036872786978,0.0,70.0,255.0,255.0,255.0
161,8.05,1.034263596562241,1.7460681740642376,-1.4388187309601488,-0.11308137634078896,0.05959327179263729,-0.3493350591247091,-0.012341854334874114,0.004626934036000563,-0.041633214648495454,0.0,70.0,255.0,255.0,255.0
162,8.1,1.0285941761814104,1.7490534559521635,-1.456337644501236,-0.11369638567329643,0.059844513307290015,-0.35140030557378577,-0.012354176298434716,0.005606934045254697,-0.0408346047478636,0.0,70.0,255.0,255.0,255.0
163,8.15,1.0228939579949115,1.7520526253949666,-1.4739587615175274,-0.11431679397063244,0.06015396519716276,-0.35341851959949544,-0.012510150160660594,0.006796981670542657,-0.03984933666434376,0.0,70.0,255.0,255.0,255.0
164,8.200000000000001,1.0171624967843471,1.7550688524718798,-1.4916794964611855,-0.11494740068936249,0.06052421147434428,-0.35538523924022014,-0.012712113504553813,0.007875985118621642,-0.038874892927620586,0.0,70.0,255.0,255.0,255.0
165,8.25,1.0113992179259752,1.758105046542401,-1.5094972854415494,-0.11558800532108782,0.060941563709024926,-0.3573060088922575,-0.012857501061813714,0.008527124938040309,-0.038096359377148836,0.0,70.0,255.0,255.0,255.0
166,8.3,1.0056036962522383,1.7611630088427823,-1.5274100973504112,-0.11623315079554386,0.06137692396814831,-0.359194875177935,-0.012888035461933178,0.00858371738630126,-0.03761876250780727,0.0,70.0,255.0,255.0,255.0
167,8.35,0.9997759028464208,1.764242738939216,-1.5454167729593429,-0.11687680886728113,0.06179993544765505,-0.3610678851430382,-0.012832435759546623,0.008147299631611205,-0.037440597738003234,0.0,70.0,255.0,255.0,255.0
168,8.4,0.9939160153655102,1.7673430023875478,-1.563516885864715,-0.11751639437149852,0.06219165393130943,-0.36293893495173535,-0.012751999815741044,0.007443737695878028,-0.03752130982150881,0.0,70.0,255.0,255.0,255.0
169,8.450000000000001,0.988024263409271,1.7704619043323468,-1.5817106664545164,-0.11815200884885524,0.06254430921724285,-0.3648200161251891,-0.012700554330169478,0.006702853149076482,-0.03781360055630234,0.0,70.0,255.0,255.0,255.0
170,8.5,0.9821008144806247,1.773597433309272,-1.599998887477234,-0.11878644980451547,0.06286193924621708,-0.3667202950073656,-0.012740116281839686,0.006159259147375806,-0.038266175115708734,0.0,70.0,255.0,255.0,255.0
171,8.55,0.9761456184288194,1.7767480982569686,-1.618382695955253,-0.11942602047703921,0.06316023513198044,-0.36864663363676,-0.012899290530643537,0.005943744204528478,-0.03883327378164658,0.0,70.0,255.0,255.0,255.0
172,8.6,0.9701582124329208,1.7799134568224702,-1.63686355084091,-0.12007637885757982,0.06345631366666993,-0.37060362238553024,-0.013116080663455598,0.005999298663628139,-0.039443097540181604,0.0,70.0,255.0,255.0,255.0
173,8.65,0.9641379805430614,1.7830937296236355,-1.655443058193806,-0.12073762854338477,0.06376016499834325,-0.37259094339077814,-0.013281850576407628,0.0061943146322018805,-0.039982813327021915,0.0,70.0,255.0,255.0,255.0
174,8.700000000000001,0.9580844495785823,1.7862894733223045,-1.6741226451799878,-0.12140456391522059,0.06407574512989012,-0.37460190371823243,-0.013292382461360663,0.00640500321755777,-0.040325530021845246,0.0,70.0,255.0,255.0,255.0
175,8.75,0.9519975241515394,1.7895013041366246,-1.6929032485656292,-0.12206686678952083,0.06440066532009903,-0.37662349639296266,-0.013034061782823958,0.006495885092405729,-0.040342902864143326,0.0,70.0,255.0,255.0,255.0
176,8.8,0.9458777628996302,1.7927295398543144,-1.711784994819284,-0.12270797009350298,0.06472533363913069,-0.37863619400464676,-0.012461002881725136,0.006395245189394494,-0.039980916258408605,0.0,70.0,255.0,255.0,255.0
177,8.85,0.9397267271421891,1.7959738375005376,-1.730766867966094,-0.12331296707769335,0.06504018983903848,-0.3806215880188035,-0.01170501314845529,0.006176438114713356,-0.039351487625616244,0.0,70.0,255.0,255.0,255.0
178,8.9,0.9335464661918609,1.7992335588382182,-1.7498471536211644,-0.12387847140834851,0.06534297745060202,-0.3825713427672084,-0.010999665477684495,0.005977232213760786,-0.03866380050694396,0.0,70.0,255.0,255.0,255.0
179,8.950000000000001,0.9273388800013542,1.8025081352455978,-1.7690240022428148,-0.1244129336254618,0.06563791306041455,-0.3844879680694979,-0.01057597643038255,0.005924220227870869,-0.03813705324902106,0.0,70.0,255.0,255.0,255.0
180,9.0,0.9211051728293147,1.8057973501442597,-1.7882959504281142,-0.12493606905138677,0.06593539947338911,-0.3863850480921105,-0.010663589966841691,0.0061531445388229855,-0.037998204103550925,0.0,70.0,255.0,255.0,255.0
181,9.05,0.9148452730962155,1.8091016751929367,-1.8076625070520258,-0.12547929262214597,0.06625322751429685,-0.388287788479853,-0.011364297010052482,0.0067223612848499315,-0.03835634789810527,0.0,70.0,255.0,255.0,255.0
182,9.1,0.9085572435671001,1.8124226728956894,-1.8271247292760995,-0.12607249875239201,0.0666076356018741,-0.390220682881921,-0.012497619656470782,0.0074931773156095005,-0.03906554403205753,0.0,70.0,255.0,255.0,255.0
183,9.15,0.9022380232209763,1.8157624387531242,-1.846684575340218,-0.12672905458779304,0.0670025452458578,-0.39219434288305877,-0.013724056277453212,0.00821768891388075,-0.03984739257059111,0.0,70.0,255.0,255.0,255.0
184,9.200000000000001,0.8958843381083208,1.8191229274202751,-1.8663441635644054,-0.12744490438013734,0.06742940449326218,-0.39420542213898013,-0.014698164031512473,0.008652055264946057,-0.040426396842097034,0.0,70.0,255.0,255.0,255.0
185,9.25,0.8894935327829626,1.8225053792024504,-1.886105117554116,-0.1281988709909443,0.06786775077235241,-0.39623698256726847,-0.015083606321852905,0.008551583372162774,-0.040532345989663376,0.0,70.0,255.0,255.0,255.0
186,9.3,0.8830644510092264,1.8259097024975104,-1.9059678618211322,-0.12895326501232263,0.06828456283047846,-0.39825865673794647,-0.014714722830999616,0.007807710603779938,-0.040033319188803596,0.0,70.0,255.0,255.0,255.0
187,9.35,0.8765982062817304,1.8293338354854982,-1.9259309832279106,-0.12967034327404425,0.0686485218327304,-0.40024031448614883,-0.013754391675546707,0.0066170997091941075,-0.039073515733423214,0.0,70.0,255.0,255.0,255.0
188,9.4,0.870097416681822,1.8327745546807834,-1.945991893269747,-0.1303287041798773,0.06894627280139787,-0.4021660083112888,-0.012535065123508993,0.005347443365888438,-0.037940288884441564,0.0,70.0,255.0,255.0,255.0
189,9.450000000000001,0.8635653358637426,1.836228462765638,-1.9661475840590394,-0.13092384978639515,0.06918326616931925,-0.404034343374593,-0.011397428049608749,0.004373106497879142,-0.03692341998864368,0.0,70.0,255.0,255.0,255.0
190,9.5,0.8570050317031824,1.8396928812977154,-1.9863953276072064,-0.13146844698483817,0.06938358345118578,-0.40585835031015316,-0.010673966097685117,0.00406849400069742,-0.036300383965648386,0.0,70.0,255.0,255.0,255.0
191,9.55,0.8504184911652588,1.8431668211107566,-2.0067334190900548,-0.13199124639616366,0.06959011556938899,-0.4076643817711578,-0.010542872272001347,0.0046138825471997436,-0.036216948773071245,0.0,70.0,255.0,255.0,255.0
192,9.600000000000001,0.8438059070635661,1.8466518928546543,-2.027161765784322,-0.1325227342120383,0.06984497170590576,-0.4094800451874603,-0.010915769352326521,0.005788540397744235,-0.036592281146119454,0.0,70.0,255.0,255.0,255.0
193,9.65,0.837166217744055,1.8501513182813472,-2.047681423608801,-0.13308282333139632,0.07016896960916341,-0.41132360988576977,-0.011585566678407044,0.0071615819114523305,-0.0372395637800782,0.0,70.0,255.0,255.0,255.0
194,9.700000000000001,0.8304976247304264,1.8536687898155706,-2.068294126772899,-0.133681290879879,0.07056112989705099,-0.4132040015654681,-0.012345037522953906,0.008296171424038157,-0.03796663649024978,0.0,70.0,255.0,255.0,255.0
195,9.75,0.8237980886560671,1.8572074312710523,-2.0890018237653476,-0.1343173270836917,0.07099858675156723,-0.41512027353479475,-0.012992557259416948,0.00875448724515504,-0.038586118147598825,0.0,70.0,255.0,255.0,255.0
196,9.8,0.8170658920220573,1.8607686484907273,-2.1098061541263786,-0.1349805466058207,0.0714365786215665,-0.417062613380228,-0.01340824029548715,0.008316899067817296,-0.03898662464654201,0.0,70.0,255.0,255.0,255.0
197,9.850000000000001,0.810300033995485,1.864351089133209,-2.1307080851033704,-0.13565815111324042,0.07183027665834896,-0.41901893599944895,-0.013587099679734926,0.007199554550840759,-0.03916192844655164,0.0,70.0,255.0,255.0,255.0
198,9.9,0.8035000769107332,1.8679516761565622,-2.1517080477263235,-0.1363392565737942,0.07215653407665057,-0.42097880622488315,-0.013556421076565961,0.005835413137256218,-0.03913520890899136,0.0,70.0,255.0,255.0,255.0
199,9.950000000000001,0.7966661083381056,1.871566742540874,-2.1728059657258587,-0.13701379322089702,0.07241381797207458,-0.4229324568903481,-0.013336734212865409,0.004655354658833488,-0.038924346404867194,0.0,70.0,255.0,255.0,255.0
200,10.0,0.7897986975886435,1.8751930579537697,-2.1940012934153583,-0.13767292999508074,0.07262206954253392,-0.42487124086536987,-0.012947786216632728,0.00408148242678763,-0.038547124795895726,0.0,70.0,255.0,255.0,255.0
201,10.05,0.7828988153385975,1.8788289494951274,-2.2152930898123957,-0.1383085718425603,0.07282196621475334,-0.42678716936993766,-0.012416427618389125,0.004331668035062464,-0.03802881371286482,0.0,70.0,255.0,255.0,255.0
202,10.100000000000001,0.7759678404043875,1.882475254575245,-2.236680010352352,-0.13891457275691965,0.07305523634604016,-0.42867412223665635,-0.011816671089637243,0.005242425547913321,-0.037440844228697756,0.0,70.0,255.0,255.0,255.0
203,10.15,0.7690073580629055,1.8861344731297314,-2.2581605020360613,-0.13949023895152401,0.07334620876954467,-0.43053125379280743,-0.011269588176143763,0.006467581389979493,-0.036900439744957936,0.0,70.0,255.0,255.0,255.0
204,10.200000000000001,0.7620188165092351,1.8898098754521995,-2.279733135731633,-0.14004153157453403,0.07370199448503811,-0.43236416621115215,-0.01090699998441691,0.0076625498006688275,-0.03653495224895664,0.0,70.0,255.0,255.0,255.0
205,10.25,0.7550032049054521,1.8935046725782352,-2.3013969186571765,-0.1405809389499657,0.07411246374961156,-0.4341847490177031,-0.010860307198046204,0.008499629667890751,-0.03646939199266619,0.0,70.0,255.0,255.0,255.0
206,10.3,0.7479607226142385,1.8972211218271606,-2.323151610633403,-0.14112756229433865,0.07455195745182719,-0.43601110541041876,-0.011186562051579418,0.008797081472988744,-0.0367586333227532,0.0,70.0,255.0,255.0,255.0
207,10.350000000000001,0.7408904486760183,1.900959868323418,-2.3449980291982184,-0.14169959515512365,0.07499217189691043,-0.4378606123499784,-0.011781740437200039,0.008599787546370585,-0.03731021911441701,0.0,70.0,255.0,255.0,255.0
208,10.4,0.7337907630987262,1.9047203390168517,-2.366937671868401,-0.14230573633805865,0.07541193620646425,-0.43974212732186047,-0.012448862582470355,0.008044377852600704,-0.03794666847460881,0.0,70.0,255.0,255.0,255.0
209,10.450000000000001,0.7266598750422124,1.9085010619440643,-2.3889722419304045,-0.14294448141337068,0.0757966096821705,-0.4416552791974393,-0.012982491956714526,0.007268245672498175,-0.0384830707060857,0.0,70.0,255.0,255.0,255.0
210,10.5,0.7194963149573891,1.9122999999850687,-2.411103199788145,-0.1436039855337301,0.07613876077371406,-0.44359043439246904,-0.013174994315201527,0.006399998901795989,-0.03873931655764551,0.0,70.0,255.0,255.0,255.0
211,10.55,0.7122994764888394,1.9161149380214357,-2.4333312853696514,-0.14426198084489084,0.0764366095723501,-0.44552921085320385,-0.01292403746199211,0.005531754324716864,-0.03862336628315255,0.0,70.0,255.0,255.0,255.0
212,10.600000000000001,0.7050701168729,1.9199436609423037,-2.4556561208734653,-0.14489638927992932,0.07669193620618575,-0.4474527710207843,-0.012341775086910367,0.004755627063657286,-0.03820368723896905,0.0,70.0,255.0,255.0,255.0
213,10.65,0.6978098375608465,1.9237841316420543,-2.47807656247173,-0.14549615835358187,0.07691217227871583,-0.44934957957710076,-0.011649553568515714,0.004200221884831379,-0.03762747843110148,0.0,70.0,255.0,255.0,255.0
214,10.700000000000001,0.6905205010375418,1.9276348781701753,-2.5005910788311754,-0.1460613446367809,0.07711195839466889,-0.45121551886389444,-0.011069605615343647,0.004002929047941528,-0.03704605164007724,0.0,70.0,255.0,255.0,255.0
215,10.75,0.6832037030971684,1.9314953274815212,-2.5231981143581192,-0.14660311891511624,0.07731246518350998,-0.4530541847411085,-0.010823678245197588,0.004300374724852674,-0.036609332452952614,0.0,70.0,255.0,255.0,255.0
216,10.8,0.6758601891460302,1.9353661246885263,-2.545896497305286,-0.14714371246130065,0.07754199586715416,-0.4548764521091897,-0.011023861526981982,0.005137439689795187,-0.03640067543710934,0.0,70.0,255.0,255.0,255.0
217,10.850000000000001,0.6684893318510383,1.9392495270682366,-2.568685759569038,-0.14770550506781444,0.0778262091524895,-0.4566942522848194,-0.0115657512897549,0.006332389513818981,-0.036391395565793516,0.0,70.0,255.0,255.0,255.0
218,10.9,0.6610896386392487,1.9431487456037753,-2.591565922533768,-0.14830028759027614,0.07817523481853605,-0.45851559166576905,-0.012238331068903374,0.007557531810631346,-0.03650789332576565,0.0,70.0,255.0,255.0,255.0
219,10.950000000000001,0.6536593030920107,1.9470670505500902,-2.614537318735615,-0.14892933817470477,0.07858196233355264,-0.460345041617396,-0.012832512155314113,0.008468289884100422,-0.03667892320016186,0.0,70.0,255.0,255.0,255.0
220,11.0,0.6461967048217783,1.9510069418371305,-2.6376004266955078,-0.14958353880580755,0.0790220638069461,-0.46218348398578524,-0.013146330000068929,0.008718502198723499,-0.03683137227867839,0.0,70.0,255.0,255.0,255.0
221,11.05,0.63870094921143,1.9549692569307848,-2.6607556671341936,-0.15024397117471167,0.07945381255342499,-0.4640281788452638,-0.013073943003494293,0.008144687382283244,-0.03692115807520935,0.0,70.0,255.0,255.0,255.0
222,11.100000000000001,0.6311723077043071,1.958952323092473,-2.684003244580034,-0.15089093310615698,0.07983653254517442,-0.46587559979330617,-0.012680627679539924,0.006964698331102248,-0.0369516628983213,0.0,70.0,255.0,255.0,255.0
223,11.15,0.6236118559008142,1.9629529101853023,-2.7073432271135243,-0.15151203394266566,0.08015028238653521,-0.46772334513509595,-0.012111714230456094,0.005600606583300305,-0.03693917670437585,0.0,70.0,255.0,255.0,255.0
224,11.200000000000001,0.6160211043100405,1.9669673513311265,-2.7307755790935437,-0.1521021045292026,0.08039659320350445,-0.46956951746374376,-0.011513632476600755,0.0044832587350107644,-0.03689205509367355,0.0,70.0,255.0,255.0,255.0
225,11.25,0.608401645447894,1.9709925695056527,-2.7543001788598986,-0.15266339719032573,0.08059860826003629,-0.4714125506444633,-0.01102699243050731,0.0040455698604890955,-0.03681315046044631,0.0,70.0,255.0,255.0,255.0
226,11.3,0.600754764591008,1.9750272121571302,-2.77791683415799,-0.15320480377225332,0.08080115018955336,-0.4732508325097884,-0.010733140351837367,0.00450367092112991,-0.03670797897492584,0.0,70.0,255.0,255.0,255.0
227,11.350000000000001,0.5930811650706687,1.979072684524608,-2.8016252621108775,-0.15373671122550947,0.08104897535214928,-0.4750833485419559,-0.010628101628518127,0.005638001310726004,-0.03660195284052037,0.0,70.0,255.0,255.0,255.0
228,11.4,0.585381093468457,1.983132109692345,-2.8254251690121857,-0.15426761393510513,0.08136495032062596,-0.4769110277938404,-0.010679287533743587,0.0070108577066241295,-0.03653539985686294,0.0,70.0,255.0,255.0,255.0
229,11.450000000000001,0.5776544036771581,1.9872091795566706,-2.8493163648902615,-0.15480463997888383,0.08175006112281169,-0.4787368885276422,-0.010852445117737197,0.00818552832282382,-0.03655285642509831,0.0,70.0,255.0,255.0,255.0
230,11.5,0.5699006294705686,1.9913071158046263,-2.87329885786495,-0.15535285844687885,0.08218350315290834,-0.48056631343635026,-0.01110169095385194,0.00873129295166919,-0.036716025879490743,0.0,70.0,255.0,255.0,255.0
231,11.55,0.5621191178324703,1.9954275298719615,-2.8973729962338965,-0.15591480907426902,0.08262319041797861,-0.48240849111559125,-0.011394521230190247,0.008427482080208826,-0.03704692602539694,0.0,70.0,255.0,255.0,255.0
232,11.600000000000001,0.5543091485631417,1.9995694348464241,-2.921539706976509,-0.15649231056989787,0.08302625136092923,-0.48427100603888995,-0.011726126645605905,0.0074541122766724754,-0.037440525739596,0.0,70.0,255.0,255.0,255.0
233,11.65,0.5464698867754805,2.0037301550080544,-2.9458000968377855,-0.1570874217388296,0.08336860164564586,-0.48615254368955085,-0.012090296473732387,0.0061851467392015635,-0.03771922386808235,0.0,70.0,255.0,255.0,255.0
234,11.700000000000001,0.5386004063892588,2.0079062950109887,-2.970154961345464,-0.1577013402172711,0.08364476603484938,-0.4880429284256982,-0.012470899406791247,0.004994488113463369,-0.03770994577916298,0.0,70.0,255.0,255.0,255.0
235,11.75,0.5306997527537534,2.0120946316115393,-2.9946043896803554,-0.15833451167950874,0.0838680504569922,-0.48992353826746715,-0.012870206458026612,0.004249211712847867,-0.037226801965539735,0.0,70.0,255.0,255.0,255.0
236,11.8,0.5227669552213079,2.016293100056688,-3.019147315172211,-0.15898836086307377,0.08406968720613417,-0.49176560862225216,-0.013282061440655912,0.004145748077588607,-0.03619671785624057,0.0,70.0,255.0,255.0,255.0
237,11.850000000000001,0.514800916667446,2.0205016003321528,-3.0437809505425806,-0.15966271782357433,0.08428262526475105,-0.4935432100530912,-0.013630095751721027,0.00457650529352982,-0.03483948732467823,0.0,70.0,255.0,255.0,255.0
238,11.9,0.5068006834389505,2.024721362583163,-3.06850163617752,-0.16035137043824588,0.08452733773548715,-0.49524955735472,-0.01379682260860271,0.005298438786383031,-0.03354583986889814,0.0,70.0,255.0,255.0,255.0
239,11.950000000000001,0.4987657796236214,2.0289543341057015,-3.0933059062780526,-0.1610424000844346,0.08481246914338936,-0.496897794039981,-0.013677383828608614,0.00606943297611906,-0.0327061949572105,0.0,70.0,255.0,255.0,255.0
240,12.0,0.490696443430507,2.033202609497502,-3.118191415581518,-0.16171910882110674,0.08513428103309906,-0.49852017685044103,-0.013165548482091394,0.0066438881689556695,-0.03270870098970313,0.0,70.0,255.0,255.0,255.0
241,12.05,0.4825938687415107,2.0374677622090114,-3.1431579239630967,-0.16235895493264374,0.08547685796028492,-0.5001686641389513,-0.012229121119033959,0.006883977824001519,-0.03372760115083473,0.0,70.0,255.0,255.0,255.0
242,12.100000000000001,0.4744605479372426,2.0417502952935305,-3.168208281995413,-0.16294202093301013,0.08582267881549921,-0.5018929369655245,-0.01103610107009989,0.006844435313579922,-0.0354708023516892,0.0,70.0,255.0,255.0,255.0
243,12.15,0.4662996666482097,2.0460500300905613,-3.193347217659649,-0.16346256503965373,0.08616130149164292,-0.5037157443741203,-0.009882319851722832,0.006654851029042064,-0.03738562178492444,0.0,70.0,255.0,255.0,255.0
244,12.200000000000001,0.45811429143327725,2.0503664254426948,-3.218579856432825,-0.16393025291818242,0.08648816391840342,-0.505631499144017,-0.009071313530600866,0.006435379049696266,-0.038906952713402276,0.0,70.0,255.0,255.0,255.0
245,12.25,0.44990664135639147,2.0546988464824016,-3.243910367574051,-0.16436969639271382,0.08680483939661254,-0.5076064396454605,-0.008903590289643937,0.006315188991301568,-0.03947443137102269,0.0,70.0,255.0,255.0,255.0
246,12.3,0.4416773217940059,2.059046909382356,-3.2693405003973712,-0.1648206119471468,0.08711968281753357,-0.5095789422811192,-0.009515766437478979,0.00636440123273907,-0.038812504579999185,0.0,70.0,255.0,255.0,255.0
247,12.350000000000001,0.4334245801616768,2.063410814764155,-3.2948682618021627,-0.1653212730364617,0.08744127951988645,-0.5114876901034604,-0.010696548918931459,0.006524821051012708,-0.037212594644486785,0.0,70.0,255.0,255.0,255.0
248,12.4,0.4251451944903597,2.0677910373343447,-3.3204892694077173,-0.16589026683903996,0.08777216492263484,-0.5133002017455679,-0.012041170711768467,0.00668392865930123,-0.03525722077726279,0.0,70.0,255.0,255.0,255.0
249,12.450000000000001,0.4168355534777728,2.0721880312564185,-3.3461982819767195,-0.16652539010763856,0.08810967238581657,-0.5150134121811867,-0.013131814263439567,0.006741964578260706,-0.033538628221618794,0.0,70.0,255.0,255.0,255.0
250,12.5,0.40849265547959585,2.0766020045729263,-3.371990610625836,-0.1672034482653839,0.08844636138046091,-0.5166540645677298,-0.013548109007377462,0.006599411809515843,-0.032649517581617715,0.0,70.0,255.0,255.0,255.0
251,12.55,0.4001152086512344,2.0810326673944646,-3.3978636884334925,-0.1678802010083763,0.08876961356676816,-0.5182783639393485,-0.01308123970447661,0.006211330998029396,-0.03289501456160693,0.0,70.0,255.0,255.0,255.0
252,12.600000000000001,0.3917046353787582,2.085478965929603,-3.423818447019771,-0.16851157223583157,0.08906749448026385,-0.5199435660238905,-0.011948519104987287,0.005658052044177353,-0.03402436685622234,0.0,70.0,255.0,255.0,255.0
253,12.65,0.38326405142765124,2.089939416842491,-3.4498580450358816,-0.16907505291887504,0.08933541877118589,-0.5216808006249707,-0.010582181450402572,0.005088501932748457,-0.03552078648145773,0.0,70.0,255.0,255.0,255.0
254,12.700000000000001,0.3747971300868707,2.0944125078067217,-3.475986527082268,-0.16956979038087183,0.0895763446735387,-0.5234956446720362,-0.009414576268790276,0.004649536530498821,-0.036871588013243084,0.0,70.0,255.0,255.0,255.0
255,12.75,0.36630707238956406,2.098897051309845,-3.502207609503085,-0.17001651054575406,0.08980037242423577,-0.525367959426295,-0.008871899088713775,0.004479145122182615,-0.037567591542719825,0.0,70.0,255.0,255.0,255.0
256,12.8,0.3577954790322953,2.1033925450491453,-3.5285233230248974,-0.1704569802897432,0.09002425918575696,-0.5272524038263082,-0.009172421597736236,0.004644074308401969,-0.03734151642755812,0.0,70.0,255.0,255.0,255.0
257,12.850000000000001,0.34926137436058974,2.1078994772284205,-3.554932849885716,-0.1709337527055277,0.09026477985507597,-0.5291021110690508,-0.01013855881034087,0.005078495248245218,-0.03638168618218529,0.0,70.0,255.0,255.0,255.0
258,12.9,0.34070210376174254,2.112419023034653,-3.5814335341318024,-0.1714708361707773,0.09053210871058148,-0.5308905724445268,-0.011400919337495319,0.0056456999736553826,-0.03508704588432998,0.0,70.0,255.0,255.0,255.0
259,12.950000000000001,0.332114290743512,2.1169526880994787,-3.6080219071301687,-0.17207384463927722,0.09082934985244151,-0.5326108156574838,-0.012590020521563439,0.006200402120271065,-0.03384867939941749,0.0,70.0,255.0,255.0,255.0
260,13.0,0.3234947192978148,2.121501958019897,-3.634694615697551,-0.17272983822293364,0.09115214892260859,-0.5342754403844685,-0.0133443412577261,0.006595989053526097,-0.033048041655492355,0.0,70.0,255.0,255.0,255.0
261,13.05,0.31484130692121864,2.1260679029917395,-3.6614494511686155,-0.17340827876504983,0.09148894875779412,-0.535915619823033,-0.013469726585207953,0.006752884588756558,-0.032891553760405756,0.0,70.0,255.0,255.0,255.0
262,13.100000000000001,0.30615389142130983,2.1306508528956765,-3.688286177679854,-0.17407681088145444,0.09182743738148424,-0.5375645957605091,-0.013066289942753606,0.006711603326792215,-0.03327984412564433,0.0,70.0,255.0,255.0,255.0
263,13.15,0.2974336258330732,2.135250646729888,-3.7152059107446664,-0.1747149077593252,0.09216010909047334,-0.5392436042355975,-0.012364257749736263,0.006564222648153262,-0.03398091343109755,0.0,70.0,255.0,255.0,255.0
264,13.200000000000001,0.2886824006453773,2.139866863804724,-3.742210538103414,-0.17531323665642806,0.09248385964629957,-0.5409626871036188,-0.011592427892059831,0.006402654521853179,-0.03476660814261123,0.0,70.0,255.0,255.0,255.0
265,13.25,0.2799023021674304,2.144499032694518,-3.7693021794550283,-0.17587415054853117,0.09280037454265866,-0.5427202650498586,-0.01097870790833233,0.006328880015660232,-0.03541226980741108,0.0,70.0,255.0,255.0,255.0
266,13.3,0.2710949855905242,2.1491469012589897,-3.7964825646083997,-0.1764111074472613,0.0931167476478656,-0.5445039140843599,-0.010654219846939483,0.006397161229498849,-0.03578672074464606,0.0,70.0,255.0,255.0,255.0
267,13.350000000000001,0.26226119142270427,2.1538107074593045,-3.8237525708634643,-0.17693957253322512,0.09344009066560854,-0.5462989371243232,-0.010591712654106633,0.006554159043670182,-0.03590350607964865,0.0,70.0,255.0,255.0,255.0
268,13.4,0.2534010283372017,2.1584909103255505,-3.851112458320832,-0.17747027871267196,0.09377216355223261,-0.5480942646923248,-0.010708296749836754,0.006699180995362042,-0.03582305330556146,0.0,70.0,255.0,255.0,255.0
269,13.450000000000001,0.24451416355143707,2.1631879238145277,-3.878561997332697,-0.1780104022082088,0.09411000876514475,-0.5498812424548793,-0.01093266884261146,0.006741893545303412,-0.03559920038487263,0.0,70.0,255.0,255.0,255.0
270,13.5,0.2355999881163808,2.167901911202065,-3.90610058256632,-0.1785635455969331,0.09444635290676295,-0.5516541847308121,-0.0112008737289504,0.006592546828221302,-0.03529486046627284,0.0,70.0,255.0,255.0,255.0
271,13.55,0.22665780899174376,2.172632559105204,-3.933727415805778,-0.17913048958110384,0.09476926344796688,-0.5534107285015066,-0.011467333420933645,0.006211384246146423,-0.034953824333028294,0.0,70.0,255.0,255.0,255.0
272,13.600000000000001,0.21768693915827042,2.1773788375468617,-3.9614416554164706,-0.17971027893902647,0.0950674913313776,-0.5551495671641149,-0.011687791841782924,0.0056735320600243,-0.0345869707170543,0.0,70.0,255.0,255.0,255.0
273,13.65,0.2086867810978411,2.182139308238342,-3.9892423725221895,-0.18029926876528213,0.09533661665396931,-0.5568694255732121,-0.01180078368917814,0.005118120969349604,-0.034207712507727805,0.0,70.0,255.0,255.0,255.0
274,13.700000000000001,0.1996570122817422,2.1869124992122586,-4.017128597973792,-0.18089035730794428,0.09557930342831256,-0.5585703384148877,-0.011737409558007506,0.004682545189815812,-0.03384227796359163,0.0,70.0,255.0,255.0,255.0
275,13.75,0.19059774536704668,2.191697238581173,-4.045099406363678,-0.18147300972108288,0.09580487117295089,-0.5602536533695712,-0.011417797175813926,0.0044929140236682485,-0.033504325623168185,0.0,70.0,255.0,255.0,255.0
276,13.8,0.18150971130963392,2.1964929863295537,-4.073153963310749,-0.18203213702552568,0.09602859483067938,-0.5619207709772045,-0.010815933648802845,0.004611101319795807,-0.03320469520984304,0.0,70.0,255.0,255.0,255.0
277,13.850000000000001,0.17239453166449412,2.201300098064241,-4.101291483461399,-0.18255460308596316,0.09626598130493047,-0.5635741228905555,-0.0100588915405736,0.004987237191533822,-0.03298590708968874,0.0,70.0,255.0,255.0,255.0
278,13.9,0.1632542510010376,2.2061195844600467,-4.1295113755998045,-0.18303802617958304,0.09652731854983276,-0.5652193616861734,-0.009367636092544318,0.005511971490701484,-0.032908800626607615,0.0,70.0,255.0,255.0,255.0
279,13.950000000000001,0.1540907290465358,2.2109528299192243,-4.157813419630016,-0.1834913666952176,0.09681717845400062,-0.5668650029532163,-0.008963753531418539,0.006068438516093622,-0.03302497447412733,0.0,70.0,255.0,255.0,255.0
280,14.0,0.14490511433151584,2.215801302305447,-4.186197875895126,-0.1839344015327249,0.09713416240144213,-0.5685218591335861,-0.009067890947678237,0.006547778429144557,-0.033391799744642015,0.0,70.0,255.0,255.0,255.0
281,14.05,0.13569728889326332,2.2206662461593685,-4.214665605543375,-0.18439815578998542,0.09747195629691507,-0.5702041829276805,-0.009776531051458592,0.006884723294975359,-0.034021707181519645,0.0,70.0,255.0,255.0,255.0
282,14.100000000000001,0.1264652987525173,2.2255484979351383,-4.243218294187894,-0.18491205463787075,0.09782263473093966,-0.5719240298517381,-0.010910394909721677,0.007061155537568808,-0.034788561763310355,0.0,70.0,255.0,255.0,255.0
283,14.15,0.11720608342947625,2.2304485096324624,-4.2718580085285485,-0.1854891952809576,0.09817807185067196,-0.5736830391040115,-0.012133240705221315,0.007069517543634163,-0.03547624582580511,0.0,70.0,255.0,255.0,255.0
284,14.200000000000001,0.10791637922442154,2.2353663051202055,-4.300586598098295,-0.18612537870839288,0.09852958648530308,-0.5754716544343186,-0.013102028530788401,0.006904213566150119,-0.03586556306753863,0.0,70.0,255.0,255.0,255.0
285,14.25,0.09859354555863696,2.2403014682809927,-4.32940517397198,-0.18679939813403643,0.09886849320728697,-0.5772695954107654,-0.01348266700544748,0.00655998158358706,-0.03573649404540191,0.0,70.0,255.0,255.0,255.0
286,14.3,0.0892364394110179,2.245253154440934,-4.358313557639372,-0.18747364540893763,0.09918558464366178,-0.5790453038388588,-0.013110855898265661,0.006048979859318848,-0.034994163709711756,0.0,70.0,255.0,255.0,255.0
287,14.350000000000001,0.0798461810177432,2.250220026745359,-4.387309704355866,-0.188110483723863,0.09947339119321885,-0.5807690117817366,-0.01214941227047267,0.005448979819178135,-0.03382609294355632,0.0,70.0,255.0,255.0,255.0
288,14.4,0.0704253910386316,2.255200493560256,-4.4163904588175456,-0.1886885866359849,0.0997304826255796,-0.5824279131332144,-0.010930356797520524,0.004890797495793464,-0.032581647306084704,0.0,70.0,255.0,255.0,255.0
289,14.450000000000001,0.06097732235414471,2.260193075007917,-4.445552495669188,-0.18920351940361504,0.0999624709427982,-0.584027176512345,-0.00979419295147832,0.004513681578099948,-0.03161832104119355,0.0,70.0,255.0,255.0,255.0
290,14.5,0.051505039098270096,2.265196740654536,-4.47479317646878,-0.18966800593113273,0.10018185078338959,-0.5855897452373338,-0.009073422382491203,0.004456304560429558,-0.03129019610117467,0.0,70.0,255.0,255.0,255.0
291,14.55,0.042010521761031434,2.270211260086256,-4.504111470192921,-0.19011086164186417,0.10040810139884115,-0.5871561961224625,-0.008946105961539497,0.004779870088311711,-0.03176872422692156,0.0,70.0,255.0,255.0,255.0
292,14.600000000000001,0.03249395293408368,2.27523755079442,-4.533508796081026,-0.19056261652728668,0.10065983779222076,-0.5887666176600259,-0.009322911719368554,0.005378449661108675,-0.032857183012868774,0.0,70.0,255.0,255.0,255.0
293,14.65,0.022954260108302767,2.280277243865478,-4.562988131958924,-0.19104315281380102,0.10094594636495202,-0.5904419144237494,-0.009995215554588488,0.006050928836875968,-0.03416620923895053,0.0,70.0,255.0,255.0,255.0
294,14.700000000000001,0.013389637652703575,2.2853321454309152,-4.592552987523401,-0.19156213808274553,0.10126493067590836,-0.592183238583921,-0.010754113416208688,0.006588286228748075,-0.03530180544863981,0.0,70.0,255.0,255.0,255.0
295,14.75,0.003798046300028214,2.2904037369330688,-4.622206455817316,-0.1921185641554219,0.10160477498782683,-0.5939720949686134,-0.01139567143657011,0.006778809498753091,-0.035882768169948065,0.0,70.0,255.0,255.0,255.0
296,14.8,-0.005822218762838614,2.295492622929698,-4.651950197020263,-0.19270170522640254,0.10194281162578367,-0.5957715154009158,-0.01179917247003115,0.006518253073872771,-0.035711079242517485,0.0,70.0,255.0,255.0,255.0
297,14.850000000000001,-0.01547212422261204,2.300598018095647,-4.681783607357407,-0.193298481402425,0.1022566002952141,-0.5975432028928651,-0.011963509616667312,0.0059226294614855846,-0.034915990855832746,0.0,70.0,255.0,255.0,255.0
298,14.9,-0.025152066903081114,2.3057182829592193,-4.711704517309549,-0.19389805618806927,0.10253507457193223,-0.599263114486499,-0.011922533897888443,0.005220079231760266,-0.03378269988667526,0.0,70.0,255.0,255.0,255.0
299,14.950000000000001,-0.03486192984141897,2.3108515255528403,-4.741709918806057,-0.19449073479221385,0.10277860821839013,-0.6009214728815326,-0.011703665737994862,0.004639746933809974,-0.032601030590306834,0.0,70.0,255.0,255.0,255.0
300,15.0,-0.0446011403823025,2.3159961437810583,-4.771796664597702,-0.19506842276186875,0.10299904926531323,-0.6025232175455297,-0.011335873223160542,0.004412420148369733,-0.03165071257171803,0.0,70.0,255.0,255.0,255.0
301,15.05,-0.054368772117605844,2.3211514304793717,-4.80196224056061,-0.1956243221145299,0.1032198502332271,-0.6040865441387044,-0.010849465230593769,0.004653691042522112,-0.031092506589125435,0.0,70.0,255.0,255.0,255.0
302,15.100000000000001,-0.06416357259375549,2.326318128804381,-4.832205319011573,-0.19615336928492813,0.10346441836956544,-0.6056324682044423,-0.010303888974847741,0.005245624567251639,-0.030911580836257002,0.0,70.0,255.0,255.0,255.0
303,15.15,-0.07398410904609866,2.331497872316328,-4.862525487381054,-0.19665471101201468,0.10374441268995227,-0.6071777022223301,-0.009795488014709974,0.005954162162025156,-0.031031942262771395,0.0,70.0,255.0,255.0,255.0
304,15.200000000000001,-0.08382904369495696,2.3366925700733763,-4.892923089233806,-0.19713291808639913,0.10405983458576795,-0.6087356624307194,-0.00943019799078959,0.006546152609798739,-0.031379759836003274,0.0,70.0,255.0,255.0,255.0
305,15.25,-0.09369740085473857,2.341903855774905,-4.923399053624126,-0.19759773081109364,0.10439902795093214,-0.6103156782059305,-0.009304844994743877,0.0067875472032685735,-0.03187839086740141,0.0,70.0,255.0,255.0,255.0
306,15.3,-0.10358881677606632,2.3471324728684695,-4.953954657054399,-0.19806340258587352,0.10473858930609481,-0.6119235015174596,-0.009463479428091504,0.006560409329425809,-0.032467146148995596,0.0,70.0,255.0,255.0,255.0
307,15.350000000000001,-0.11350374111332592,2.3523777147055145,-4.984591403775872,-0.1985440787539028,0.10505506888387472,-0.61356239282083,-0.009856458959520142,0.005980280194828325,-0.03307777903929221,0.0,70.0,255.0,255.0,255.0
308,15.4,-0.1234432246514566,2.357637979756857,-5.015310896336482,-0.19904904848182553,0.10533661732557764,-0.6152312794213888,-0.010379150406927828,0.005277864194797033,-0.03360692033993473,0.0,70.0,255.0,255.0,255.0
309,15.450000000000001,-0.13340864596150848,2.3629113764380723,-5.046114531718011,-0.19958199379459557,0.10558285530335443,-0.6169230848548235,-0.01091605511935323,0.004682216054030519,-0.03393475524111622,0.0,70.0,255.0,255.0,255.0
310,15.5,-0.14340142403091616,2.3681962652871924,-5.077003204821964,-0.20014065399376085,0.1058048389309807,-0.6186247549455004,-0.011356728149780615,0.004421353742278811,-0.033939686662520785,0.0,70.0,255.0,255.0,255.0
311,15.55,-0.15342271136088456,2.3734918603311703,-5.107977007212561,-0.20071766660957363,0.10602499067758231,-0.6203170535210756,-0.011637129877539731,0.004611245066277192,-0.033571682707034256,0.0,70.0,255.0,255.0,255.0
312,15.600000000000001,-0.16347319069187352,2.3787987643549506,-5.139034910174072,-0.20130436698151483,0.10626596343760841,-0.6219819232162038,-0.011753911550782536,0.005147846728048577,-0.03294177853083724,0.0,70.0,255.0,255.0,255.0
313,15.65,-0.17355314805903604,2.384118456674931,-5.170175199534182,-0.20189305776465188,0.10653977535038717,-0.6236112313741593,-0.011723434833127433,0.005819788984062768,-0.03225674001381407,0.0,70.0,255.0,255.0,255.0
314,15.700000000000001,-0.1836624964683387,2.3894527418899894,-5.201396033311488,-0.20247671046482757,0.10684794233601469,-0.6252075972175852,-0.011566094352288836,0.006418409747777076,-0.03173399309277514,0.0,70.0,255.0,255.0,255.0
315,15.75,-0.1938008191055188,2.3948032509085326,-5.23269595925594,-0.20304966719988077,0.10718161632516487,-0.6267846306834368,-0.011312251730088985,0.006743075123427644,-0.0315988531582434,0.0,70.0,255.0,255.0,255.0
316,15.8,-0.2039674631883268,2.400170903522506,-5.264074496379831,-0.20360793563783647,0.10752224984835745,-0.6283674825334096,-0.010986975420715361,0.006688036978674816,-0.03195940973581557,0.0,70.0,255.0,255.0,255.0
317,15.850000000000001,-0.21416161266930245,2.4055554758933684,-5.295532707509281,-0.2041483647419523,0.10785042002303236,-0.6299805716570184,-0.010608733998254682,0.006313740818653102,-0.03266969891253524,0.0,70.0,255.0,255.0,255.0
318,15.9,-0.22438229966252202,2.410955945524809,-5.327072553545533,-0.20466880903766194,0.10815362393022276,-0.6316344524246631,-0.010207949421420226,0.0057575719434765915,-0.03345152752993741,0.0,70.0,255.0,255.0,255.0
319,15.950000000000001,-0.23462849357306864,2.4163708382863907,-5.358696152751747,-0.20516915968409433,0.10842617721738002,-0.6333257244100121,-0.00982525511714627,0.005157431668267876,-0.03402941224761591,0.0,70.0,255.0,255.0,255.0
320,16.0,-0.24489921563093145,2.421798563246547,-5.390405125986534,-0.20565133454937656,0.10866936709704955,-0.6350373936494247,-0.009490302225859115,0.004642336440241479,-0.034132965972588636,0.0,70.0,255.0,255.0,255.0
321,16.05,-0.2551936270280063,2.4272377749960956,-5.42219989211669,-0.20611818990668024,0.10889041086140416,-0.636739021007271,-0.009221681726295783,0.004289380911481899,-0.03363030538947598,0.0,70.0,255.0,255.0,255.0
322,16.1,-0.2655110346215995,2.4326876043326875,-5.4540790280872615,-0.20657350272200614,0.10909830518819774,-0.6384004241883723,-0.00904844849355102,0.004113553633544598,-0.032666605306719276,0.0,70.0,255.0,255.0,255.0
323,16.150000000000002,-0.2758509773002069,2.4381476055149154,-5.486039934535527,-0.20702303475603534,0.10930176622475862,-0.6400056815379429,-0.009007471443955861,0.004114398766752458,-0.031530809539948024,0.0,70.0,255.0,255.0,255.0
324,16.2,-0.286213338097203,2.4436177809551634,-5.518079596241056,-0.20747424986640173,0.10950974506487299,-0.6415535051423671,-0.009126171892381851,0.004291350758833801,-0.03051441852273129,0.0,70.0,255.0,255.0,255.0
325,16.25,-0.2965984022868471,2.4490985800214027,-5.550195285049764,-0.20793565194527353,0.109730901300642,-0.643057123390216,-0.009430502070328917,0.004643569791529245,-0.029897254979438515,0.0,70.0,255.0,255.0,255.0
326,16.3,-0.30700690329173036,2.4545908710852276,-5.582385308580077,-0.20841730007343462,0.10997410204402591,-0.6445432306403109,-0.009920610028379961,0.005155465016137839,-0.029825942132699623,0.0,70.0,255.0,255.0,255.0
327,16.35,-0.31744013229419055,2.4600959902258053,-5.614649608113795,-0.20892771294811152,0.11024644780225579,-0.646039717603486,-0.010516632866802711,0.00575120548638175,-0.030215767972574525,0.0,70.0,255.0,255.0,255.0
328,16.400000000000002,-0.3278996745865415,2.465615515865453,-5.646989280340426,-0.2094689633601149,0.11054922259266409,-0.6475648074375684,-0.01108132564198172,0.006303993828860044,-0.030873346198578844,0.0,70.0,255.0,255.0,255.0
329,16.45,-0.33838702863020204,2.4711509124850717,-5.679406088857552,-0.2100358455123097,0.11087684718514179,-0.6491270522233439,-0.01147108295430077,0.0066781909373592185,-0.03159962694860852,0.0,70.0,255.0,255.0,255.0
330,16.5,-0.3489032591377725,2.4767032005839673,-5.71190198556276,-0.21061607165554497,0.11121704168640001,-0.6507247701324292,-0.01154368016872409,0.006739375069475528,-0.032198014108963946,0.0,70.0,255.0,255.0,255.0
331,16.55,-0.35944863579575653,2.4822726166537117,-5.744478565870795,-0.2111902135291821,0.11155078469208934,-0.6523468536342403,-0.011235365339656855,0.006428246203471488,-0.032553665006496146,0.0,70.0,255.0,255.0,255.0
332,16.6,-0.3700222804906907,2.4878582790531762,-5.777136670926184,-0.21173960818951065,0.11185986630674716,-0.6539801366330789,-0.010649495563835876,0.0058460999455167695,-0.03267489156888459,0.0,70.0,255.0,255.0,255.0
333,16.650000000000002,-0.3806225966147076,2.4934586032843864,-5.8098765795341025,-0.2122551630855657,0.11213539468664102,-0.6556143427911287,-0.009983589624568134,0.005185989554190584,-0.03260955858008785,0.0,70.0,255.0,255.0,255.0
334,16.7,-0.39124779679924726,2.4990718185218403,-5.842698105205297,-0.21273796715196747,0.11237846526216622,-0.6572410924910876,-0.009442270183113166,0.0046486593844985435,-0.032401386036262636,0.0,70.0,255.0,255.0,255.0
335,16.75,-0.40189639332990434,2.504696449810603,-5.875600688783211,-0.213199390103877,0.11260026062509088,-0.658854481394755,-0.009230767930668016,0.004434920606399828,-0.032102669936140416,0.0,70.0,255.0,255.0,255.0
336,16.8,-0.41256773580963496,2.5103318445843494,-5.908583553344773,-0.21366104394503427,0.1128219573228062,-0.6604513594847017,-0.009451215326261586,0.004644836883205272,-0.031751658913314884,0.0,70.0,255.0,255.0,255.0
337,16.85,-0.42326249772440777,2.5159786455428836,-5.9416458247316815,-0.21414451163650317,0.1130647443134114,-0.6620296472860865,-0.009999976952540512,0.005178986806164687,-0.03136550491387169,0.0,70.0,255.0,255.0,255.0
338,16.900000000000002,-0.4339821869732853,2.5216383190156906,-5.9747865180733815,-0.21466104164028832,0.11333985600342267,-0.6635879099760889,-0.010669723785267093,0.005837455879786901,-0.03096925864269906,0.0,70.0,255.0,255.0,255.0
339,16.95,-0.4447286018884366,2.527312631143226,-6.00800461572929,-0.21521148401502987,0.11364848990139009,-0.6651265731503564,-0.011253262886612436,0.0064205980979448185,-0.030600516551171353,0.0,70.0,255.0,255.0,255.0
340,17.0,-0.45550333537478827,2.5330031680058296,-6.041299175388417,-0.21578636792894956,0.11398191581321715,-0.666647961631206,-0.011549285404510723,0.006736979800825438,-0.030287343441681713,0.0,70.0,255.0,255.0,255.0
341,17.05,-0.46630723868133156,2.5387108227245476,-6.074669411892411,-0.21636641255548095,0.11432218788147264,-0.6681553074945246,-0.011453199928684876,0.006685832837494132,-0.03004641262682739,0.0,70.0,255.0,255.0,255.0
342,17.1,-0.47713997663033636,2.544435386793977,-6.1081147061378696,-0.21693168792181805,0.11465049909696656,-0.6696526028938887,-0.01103600455149012,0.006323360755589036,-0.029900384813785763,0.0,70.0,255.0,255.0,255.0
343,17.150000000000002,-0.48800040747351336,2.5501758726342443,-6.1416346721818,-0.21747001301062996,0.11495452395703154,-0.6711453459759031,-0.010452107309094627,0.005778779001008871,-0.029876110812043777,0.0,70.0,255.0,255.0,255.0
344,17.2,-0.49888697793139936,2.55593083918968,-6.17522924073546,-0.2179768986527275,0.11522837699706745,-0.6726402139750931,-0.00985796498371716,0.005182234936684793,-0.029989834471511045,0.0,70.0,255.0,255.0,255.0
345,17.25,-0.5097980973387861,2.561698710333951,-6.208898693579309,-0.21845580950900167,0.11547274745070002,-0.6741443294230542,-0.009408081127115775,0.004653150866484879,-0.030251919000701122,0.0,70.0,255.0,255.0,255.0
346,17.3,-0.5207325588822995,2.56747811393475,-6.242643673677765,-0.2189177067654391,0.11569369208371594,-0.6756654058751632,-0.00918875885169701,0.004264605659809462,-0.030657002933587307,0.0,70.0,255.0,255.0,255.0
347,17.35,-0.53168986801533,2.5732680795423226,-6.2764652341668254,-0.21937468539417138,0.11589920801668097,-0.677210029716413,-0.009172368477972093,0.004043933807640343,-0.031152116670796204,0.0,70.0,255.0,255.0,255.0
348,17.400000000000002,-0.5426700274217167,2.579068034736418,-6.310364676649407,-0.2198349436132363,0.11609808546447997,-0.6787806175422428,-0.009286322502943811,0.004011903640632752,-0.03164545894884796,0.0,70.0,255.0,255.0,255.0
349,17.45,-0.5536733623766537,2.5848778880887706,-6.34434329592105,-0.22030331764446576,0.11630039838074424,-0.6803745756112978,-0.00946107764466797,0.004189949334909571,-0.03204117120327865,0.0,70.0,255.0,255.0,255.0
350,17.5,-0.5647003591861632,2.5906980745744925,-6.378402134210536,-0.2207810513777031,0.11651708039797093,-0.6819847346625707,-0.009626408734897396,0.004606407409113444,-0.032260971231323765,0.0,70.0,255.0,255.0,255.0
351,17.55,-0.575751467514424,2.5965295961285677,-6.412541769387307,-0.2212659585179555,0.11676103912165559,-0.6836006727344301,-0.009738990771712697,0.005256770164452362,-0.03226506281883701,0.0,70.0,255.0,255.0,255.0
352,17.6,-0.5868269550379588,2.602374178486658,-6.446762201483979,-0.22175495045487437,0.11704275741441617,-0.6852112409444544,-0.009795453937733178,0.006020064852796381,-0.032055624027549356,0.0,70.0,255.0,255.0,255.0
353,17.650000000000002,-0.5979269625599114,2.6082338718700093,-6.481062893481752,-0.22224550391172881,0.11736304560693522,-0.6868062351371851,-0.00980083111746799,0.006692767275495726,-0.03165841702932326,0.0,70.0,255.0,255.0,255.0
354,17.7,-0.6090515054291317,2.6141104830473516,-6.515442824997698,-0.22273503356662117,0.11771203414196574,-0.6883770826473867,-0.00975152397126866,0.007065706652165105,-0.031111681181617,0.0,70.0,255.0,255.0,255.0
355,17.75,-0.6202004659165735,2.620005075284206,-6.549900601746491,-0.22322065630885568,0.11806961627215173,-0.6899174032553468,-0.00963425596119949,0.006929238144870453,-0.03044424269269541,0.0,70.0,255.0,255.0,255.0
356,17.8,-0.6313735710600172,2.625917444674567,-6.584434565323233,-0.22369845916274111,0.11840495795645278,-0.6914215069166563,-0.009448564774738877,0.00619400132730874,-0.029688433436714234,0.0,70.0,255.0,255.0,255.0
357,17.85,-0.6425703118328476,2.631845571079851,-6.6190427524381565,-0.22416551278632957,0.11868901640488261,-0.6928862465990182,-0.009245815771163901,0.005042053867754248,-0.028943522418245493,0.0,70.0,255.0,255.0,255.0
358,17.900000000000002,-0.6537901223386502,2.637786346315055,-6.653723189983134,-0.2246230407398575,0.11890916334322821,-0.6943158591584808,-0.009110353027341755,0.0038124584929910554,-0.028364416058135333,0.0,70.0,255.0,255.0,255.0
359,17.95,-0.6650326159068334,2.643736487414174,-6.688474338354005,-0.22507654808906374,0.11907026225418171,-0.6957226882048317,-0.009126113183410833,0.002852771841954649,-0.028104365142045395,0.0,70.0,255.0,255.0,255.0
360,18.0,-0.6762977771475566,2.649693372540473,-6.723295458803618,-0.2255356520581986,0.11919444052742367,-0.6971262956726854,-0.009384539448120677,0.0025046120395444404,-0.028310030024858435,0.0,70.0,255.0,255.0,255.0
361,18.05,-0.6875861811126532,2.6556559314669164,-6.758186967921273,-0.2260150020338758,0.11932072345813616,-0.6985536912073176,-0.00992054966320044,0.0029343107730728235,-0.029036028609485953,0.0,70.0,255.0,255.0,255.0
362,18.1,-0.6988992773509441,2.661625444886287,-6.793150827924349,-0.22652770702451863,0.11948787160473096,-0.700029898533634,-0.010619511415965732,0.003961836226507032,-0.030124971614764462,0.0,70.0,255.0,255.0,255.0
363,18.150000000000002,-0.7102389518151051,2.6676047186273895,-6.8281899577746366,-0.22707695317547238,0.11971690708078686,-0.701566188368794,-0.011278689174176737,0.005226443041683737,-0.03128671594048171,0.0,70.0,255.0,255.0,255.0
364,18.2,-0.7216069726684914,2.6735971355943655,-6.863307446761229,-0.2276555759419363,0.12001051590889933,-0.7031585701276821,-0.011697962688839159,0.006357145373758755,-0.032219109997644324,0.0,70.0,255.0,255.0,255.0
365,18.25,-0.7330045094092987,2.6796057702182794,-6.898505814787405,-0.2282467494443563,0.12035262161816274,-0.7047880993685585,-0.01168763286624186,0.006980332345163376,-0.032635637208144885,0.0,70.0,255.0,255.0,255.0
366,18.3,-0.744431647612927,2.685632397756182,-6.933786256698085,-0.2288243392285605,0.12070854914341567,-0.7064221338484966,-0.011161637504997213,0.0069026949740536026,-0.03239365259242177,0.0,70.0,255.0,255.0,255.0
367,18.35,-0.7558869433321548,2.691676625132621,-6.969148028172254,-0.22936291319485602,0.1210428911155681,-0.7080274646278006,-0.010242385651371144,0.0062796455154057185,-0.031606474573298016,0.0,70.0,255.0,255.0,255.0
368,18.400000000000002,-0.7673679389324126,2.6977366868677386,-7.004589003160865,-0.2298485777936976,0.12133651369495624,-0.7095827813058264,-0.00917032151138697,0.005431885890816446,-0.030519675890428033,0.0,70.0,255.0,255.0,255.0
369,18.45,-0.7788718011115245,2.7038102765021166,-7.040106306302837,-0.23027994534599472,0.12158607970464974,-0.7110794322168434,-0.008194297133246042,0.004679019623043956,-0.029391968758663012,0.0,70.0,255.0,255.0,255.0
370,18.5,-0.7903959334670121,2.7098952948382036,-7.075696946382549,-0.2306680075070222,0.12180441565726063,-0.7125219781816927,-0.0075449290868667696,0.004350002635478134,-0.02847143046631473,0.0,70.0,255.0,255.0,255.0
371,18.55,-0.8019386018622268,2.7159907180678426,-7.111358504121006,-0.2310344382546814,0.12202107996819755,-0.7139265752634749,-0.007346187030277118,0.0046142566497930915,-0.027901622093917666,0.0,70.0,255.0,255.0,255.0
372,18.6,-0.8134993772924802,2.7220974028350233,-7.1470896039088965,-0.23140262621004992,0.12226584132223994,-0.7153121403910845,-0.007562834090535375,0.005313241385529466,-0.0276818573658133,0.0,70.0,255.0,255.0,255.0
373,18.650000000000002,-0.8250788644832318,2.7282173022000666,-7.182889718160115,-0.23179072166373493,0.1225524041067505,-0.7166947610000562,-0.008088136668460422,0.006133192883117644,-0.02776353154700928,0.0,70.0,255.0,255.0,255.0
374,18.7,-0.8366784494588537,2.7343526432456984,-7.218759080008902,-0.23221143987689596,0.12287916061055171,-0.7180884935457854,-0.008804848777987928,0.0067731164604456495,-0.02809870261222258,0.0,70.0,255.0,255.0,255.0
375,18.75,-0.8483000084709214,2.740505218261122,-7.254698567514693,-0.23267120654153373,0.12322971575279507,-0.7195046312612785,-0.009600622814120996,0.0069397503522417026,-0.028642650249466328,0.0,70.0,255.0,255.0,255.0
376,18.8,-0.8599455701130071,2.746675614820978,-7.29070954313503,-0.23317150215830806,0.12357313564577588,-0.720952758570732,-0.01039515283549619,0.006486618752798989,-0.02934811078034727,0.0,70.0,255.0,255.0,255.0
377,18.85,-0.8716171586867522,2.7528625318256994,-7.3267938433717665,-0.23371072182508335,0.12387837762807496,-0.7224394423393132,-0.011109075189374984,0.005554568429877449,-0.030106189205181266,0.0,70.0,255.0,255.0,255.0
378,18.900000000000002,-0.8833166422955154,2.7590634525837854,-7.362953487368961,-0.23428240967724556,0.12412859248876362,-0.7239633774912502,-0.011631817129720279,0.004429002251082892,-0.030743587199744127,0.0,70.0,255.0,255.0,255.0
379,18.95,-0.8950453996544767,2.7652753910745758,-7.3991901811208916,-0.23487390353805537,0.12432127785318325,-0.7255138010592876,-0.011847846216284097,0.0033945751411579295,-0.03107475925272496,0.0,70.0,255.0,255.0,255.0
380,19.0,-0.906804032649321,2.7714955803691037,-7.43550486747489,-0.23546719429887397,0.12446805000287942,-0.7270708534165227,-0.011652579656362683,0.0027189679830730284,-0.030913959210820963,0.0,70.0,255.0,255.0,255.0
381,19.05,-0.9185921190843641,2.7777221960748637,-7.471897266462544,-0.23603916150369164,0.12459317465149056,-0.7286051969803697,-0.011011663166127228,0.0025458417656665233,-0.030184909143837757,0.0,70.0,255.0,255.0,255.0
382,19.1,-0.9304079487996901,2.7839548978342528,-7.508365387172927,-0.2365683606154867,0.12472263417944607,-0.7300893443309064,-0.010046179837353009,0.002820373007050847,-0.029059632900985122,0.0,70.0,255.0,255.0,255.0
383,19.150000000000002,-0.9422489551459128,2.7901944594928083,-7.5449062008956345,-0.23704377948742694,0.12487521195219564,-0.7315111602704683,-0.008981797610108089,0.003398910000917965,-0.02785755089043107,0.0,70.0,255.0,255.0,255.0
384,19.200000000000003,-0.9541123267484328,2.7964424190294723,-7.581516503199974,-0.2374665403764975,0.12506252517953786,-0.7328750994199495,-0.008062227895355711,0.004128582974605166,-0.02690780816134719,0.0,70.0,255.0,255.0,255.0
385,19.25,-0.9659956091835625,2.802700712010762,-7.618193710837629,-0.2378500022769625,0.12528807024965616,-0.734201941086603,-0.007521086532236154,0.004852349743034168,-0.02652948493402363,0.0,70.0,255.0,255.0,255.0
386,19.3,-0.9778973269761291,2.808971226054438,-7.654936697308634,-0.23821864902972112,0.12554776015384128,-0.7355280479133519,-0.007478194499910273,0.005471552646429956,-0.02687933889120586,0.0,70.0,255.0,255.0,255.0
387,19.35,-0.9898174740865346,2.8152554880261462,-7.691746515628965,-0.23859782172695354,0.12583522551429915,-0.7368898749757236,-0.007858093573165359,0.005966736745133261,-0.0278053957415203,0.0,70.0,255.0,255.0,255.0
388,19.400000000000002,-1.0017571091488244,2.821554748605868,-7.7286256848062065,-0.23900445838703765,0.1261444338283546,-0.7383085874875039,-0.00848910431816563,0.006330043059810109,-0.02899525352848542,0.0,70.0,255.0,255.0,255.0
389,19.450000000000003,-1.0137179199252384,2.8278699314089817,-7.765577374377715,-0.2394467321587701,0.12646822982028016,-0.7397894003285721,-0.009189955489063983,0.0065459181348703765,-0.030127947495373064,0.0,70.0,255.0,255.0,255.0
390,19.5,-1.0257017823647014,2.834201571587896,-7.802604624839064,-0.23992345393594405,0.12679902564184165,-0.7413213822370412,-0.009783074214508858,0.006619605072755164,-0.03089611970050754,0.0,70.0,255.0,255.0,255.0
391,19.55,-1.0377102653188328,2.840549833973166,-7.839709512601419,-0.240425039580221,0.12713019032755568,-0.7428790122986229,-0.010163297761867085,0.0065602087210958615,-0.031131674685269672,0.0,70.0,255.0,255.0,255.0
392,19.6,-1.0497442863227235,2.8469145906206514,-7.876892526068926,-0.24093978371213076,0.12745504651395123,-0.7444345497055682,-0.01032601463459848,0.0063562231356950605,-0.03088782842155524,0.0,70.0,255.0,255.0,255.0
393,19.650000000000002,-1.061804243690046,2.853295338624561,-7.914152967571976,-0.24145764104368084,0.1277658126411252,-0.7459677951407784,-0.010295538031090956,0.0059990529575948415,-0.030311551546979842,0.0,70.0,255.0,255.0,255.0
394,19.700000000000003,-1.0738900504270916,2.859691171884764,-7.951489305583004,-0.24196933751523986,0.12805495180971072,-0.7474657048602662,-0.01009226250279216,0.005500145418579905,-0.02955420139185705,0.0,70.0,255.0,255.0,255.0
395,19.75,-1.0860011774415699,2.866100833805532,-7.988899538058003,-0.24246686729396005,0.12831582718298318,-0.7489232152799641,-0.009738597961472806,0.004861304558545498,-0.028766036262695138,0.0,70.0,255.0,255.0,255.0
396,19.8,-1.0981367371564876,2.8725227546030623,-8.026381627111,-0.24294319731138714,0.12854108226556527,-0.7503423084865357,-0.009260875524685908,0.004100013401586722,-0.028045710619206687,0.0,70.0,255.0,255.0,255.0
397,19.85,-1.1102954971727086,2.8789549420320886,-8.063933768906656,-0.24339295484642864,0.12872582852314185,-0.7517277863418848,-0.008718687049480423,0.0033265059098841476,-0.027440493369734753,0.0,70.0,255.0,255.0,255.0
398,19.900000000000002,-1.1224760326411305,2.8853953374553765,-8.101554405745189,-0.24381506601633518,0.12887373285655368,-0.7530863578235092,-0.008209582718343711,0.0027172882332227033,-0.027003854969187557,0.0,70.0,255.0,255.0,255.0
399,19.950000000000003,-1.134677003774342,2.891842315317744,-8.139242404689007,-0.24421391311826302,0.12899755734646412,-0.7544281718388035,-0.00783996885884708,0.002445761262892532,-0.026800421762729343,0.0,70.0,255.0,255.0,255.0
400,20.0,-1.1468974239529568,2.898295093190023,-8.176997222929069,-0.2445990629022199,0.12911830898284293,-0.7557663999997821,-0.007706543263630294,0.0026831487212053418,-0.026891763220326936,0.0,70.0,255.0,255.0,255.0
401,20.05,-1.159136910064564,2.9047541462160282,-8.214819044688985,-0.24498456744462604,0.12926587221858465,-0.7571173481608362,-0.00785371295968229,0.003494562847938809,-0.027293221765667397,0.0,70.0,255.0,255.0,255.0
402,20.1,-1.1713958806974194,2.9112216804118813,-8.252708957745153,-0.24538443419818812,0.12946776526763681,-0.7584957221763489,-0.008234761643133304,0.00469243853933321,-0.02790665497531819,0.0,70.0,255.0,255.0,255.0
403,20.150000000000002,-1.183675353484383,2.917700922742792,-8.29066861690662,-0.24580804360893937,0.12973511607251798,-0.759908013658368,-0.008749767459126367,0.0059345913120623095,-0.028554893377474855,0.0,70.0,255.0,255.0,255.0
404,20.200000000000003,-1.1959766850583133,2.924195192019133,-8.32869975911099,-0.24625941094410075,0.13006122439884304,-0.7613512115140963,-0.009288374882210348,0.006865061277894213,-0.029045137199013027,0.0,70.0,255.0,255.0,255.0
405,20.25,-1.208301294578793,2.930707045182676,-8.36680373805803,-0.2467368810971604,0.1304216222003074,-0.7628125273782693,-0.009747210336241707,0.007126100556664738,-0.029178892208925333,0.0,70.0,255.0,255.0,255.0
406,20.3,-1.2206503731680294,2.937237354239164,-8.404981011848816,-0.24723413197772492,0.13077383445450952,-0.7642691007349889,-0.0100647854571978,0.006547935673362204,-0.02886140231783685,0.0,70.0,255.0,255.0,255.0
407,20.35,-1.2330247077765655,2.943784428628127,-8.443230648131529,-0.2477433596428802,0.13107641576764362,-0.765698667610053,-0.010225902741356485,0.005353623382475803,-0.028218294653825637,0.0,70.0,255.0,255.0,255.0
408,20.400000000000002,-1.2454247091323174,2.9503449958159282,-8.481550878609822,-0.24825672225186057,0.1313091967927571,-0.7670909302003714,-0.010226871920715475,0.003975302229175526,-0.02749116359606063,0.0,70.0,255.0,255.0,255.0
409,20.450000000000003,-1.2578503800017515,2.956915348307403,-8.519939741151566,-0.24876604683495174,0.13147394599056117,-0.7684477839696591,-0.010067044432982009,0.002853340945030425,-0.026925602867677867,0.0,70.0,255.0,255.0,255.0
410,20.5,-1.2703013138158126,2.9634923904149844,-8.558395657006788,-0.24926342669515877,0.13159453088726014,-0.7697834904871392,-0.009748624715255616,0.002432402432139824,-0.02677663064822866,0.0,70.0,255.0,255.0,255.0
411,20.55,-1.2827767226712674,2.970074801396129,-8.59691809020028,-0.2497409093064773,0.13171718623377515,-0.7711254470344819,-0.009286119570561802,0.0029335545985276212,-0.027167742389622163,0.0,70.0,255.0,255.0,255.0
412,20.6,-1.2952754047464603,2.976664109038362,-8.635508201710236,-0.25019203865221495,0.1318878863471129,-0.7725002647261014,-0.008742466552136285,0.004122252079996613,-0.027934758483283417,0.0,70.0,255.0,255.0,255.0
413,20.650000000000002,-1.307795926536489,2.98326359003084,-8.67416811667289,-0.2506151559616909,0.1321294114417748,-0.7739189228828103,-0.00822358401884049,0.005535015621793704,-0.028765860163915136,0.0,70.0,255.0,255.0,255.0
414,20.700000000000003,-1.3203369203426294,2.9898770501825394,-8.712900093998517,-0.251014397054099,0.13244138790929227,-0.775376850742493,-0.007842421745207773,0.006708428088941787,-0.029352591190701105,0.0,70.0,255.0,255.0,255.0
415,20.75,-1.3328973662418988,2.9965077288217694,-8.75170580174714,-0.2513993981362117,0.132800254250669,-0.7768541820018804,-0.007702300126610773,0.007176364307204253,-0.02938265046594779,0.0,70.0,255.0,255.0,255.0
416,20.8,-1.3454768601562506,3.0031570756076063,-8.790585512198705,-0.2517846270667601,0.1331590243400127,-0.7783151157890877,-0.007851249080781386,0.006704699079218557,-0.028707255162885303,0.0,70.0,255.0,255.0,255.0
417,20.85,-1.3580758289485748,3.0098236312557707,-8.829537313326048,-0.25218452304428984,0.13347072415859085,-0.7797249075181689,-0.00823975552557421,0.005528184148317905,-0.027529850899732367,0.0,70.0,255.0,255.0,255.0
418,20.900000000000002,-1.3706953124606795,3.0165041480234653,-8.868558002950522,-0.2526086026193175,0.1337118427548445,-0.781068100879061,-0.008762428367781183,0.004113819432660648,-0.026239055421761748,0.0,70.0,255.0,255.0,255.0
419,20.950000000000003,-1.3833366892105066,3.023194815531255,-8.907644123413954,-0.25306076588106796,0.1338821061018569,-0.7823488130603451,-0.009303781406866385,0.002926093552124698,-0.025223379690153536,0.0,70.0,255.0,255.0,255.0
420,21.0,-1.3960013890487863,3.029892358633651,-8.946792884256556,-0.25353898076000414,0.13400445211005696,-0.7835904388480763,-0.00975415613007069,0.0024300657473386167,-0.024868711544279165,0.0,70.0,255.0,255.0,255.0
421,21.05,-1.408690587286507,3.036595260742261,-8.986003167298762,-0.25403618149407503,0.13412511267659077,-0.784835684214773,-0.010049396926770093,0.002860795937964511,-0.025363609918471752,0.0,70.0,255.0,255.0,255.0
422,21.1,-1.4214050071981938,3.04330486990131,-9.025276452678034,-0.25454392045268115,0.1342905317038534,-0.7861267998399235,-0.010182147709225653,0.003994195475520712,-0.02649595446762021,0.0,70.0,255.0,255.0,255.0
423,21.150000000000002,-1.434144979331775,3.050024313912646,-9.064615847282754,-0.2550543962649976,0.13452453222414285,-0.787485279661535,-0.010162226985599432,0.005380522498077411,-0.027846962438538014,0.0,70.0,255.0,255.0,255.0
424,21.200000000000003,-1.4469104468246936,3.0567573231237244,-9.104024980644187,-0.2555601431512411,0.13482858395366115,-0.7889114960837773,-0.010002965448085988,0.006574050849517121,-0.02899454272942137,0.0,70.0,255.0,255.0,255.0
425,21.25,-1.4597009936468992,3.0635071723080123,-9.143506996891132,-0.2560546928098062,0.13518193730909456,-0.7903847339344772,-0.00972508467702582,0.007135447295558706,-0.02952254997623527,0.0,70.0,255.0,255.0,255.0
426,21.3,-1.4725159161056742,3.070275516854634,-9.183063454037635,-0.2565326516189437,0.13554212868321702,-0.7918637510814008,-0.009350137570884876,0.0068389703160587345,-0.029218445023637685,0.0,70.0,255.0,255.0,255.0
427,21.35,-1.4853542588087936,3.077061385176334,-9.222693371999272,-0.2569897065668947,0.13586583434070043,-0.7933065784368409,-0.008912492798351934,0.005865849800379408,-0.028257147080523737,0.0,70.0,255.0,255.0,255.0
428,21.400000000000002,-1.4982148867623637,3.083862100288704,-9.262394111881319,-0.25742390089877887,0.13612871366325496,-0.7946894657894532,-0.008469502850827482,0.004593274724085106,-0.027002278974563865,0.0,70.0,255.0,255.0,255.0
429,21.450000000000003,-1.5110966488986715,3.0906742565426595,-9.302162318578217,-0.25783665685197743,0.13632516181310894,-0.7960068063342973,-0.008090044446706912,0.003397563190077335,-0.025818309532432693,0.0,70.0,255.0,255.0,255.0
430,21.5,-1.5239985524475614,3.097494616470015,-9.341994792514749,-0.25823290534344956,0.1364684699822627,-0.7972712967426965,-0.00784154245783153,0.002648098450164227,-0.025061041928076122,0.0,70.0,255.0,255.0,255.0
431,21.55,-1.5369199394330164,3.1043211035408858,-9.381889448252487,-0.2586208110977606,0.13658997165812536,-0.7985129105271049,-0.007756766076116861,0.0025426701168118626,-0.02492195730656732,0.0,70.0,255.0,255.0,255.0
432,21.6,-1.5498606335573375,3.1111536136358273,-9.42184608356746,-0.25900858195106125,0.13672273699394388,-0.7997634924733532,-0.007805177134523333,0.0029733610340976213,-0.02530641292324276,0.0,70.0,255.0,255.0,255.0
433,21.650000000000002,-1.5628207976281225,3.11799337724028,-9.461865797499822,-0.2594013288112129,0.13688730776153513,-0.8010435518194292,-0.007922465573972914,0.0036962620555858194,-0.025993805113522228,0.0,70.0,255.0,255.0,255.0
434,21.700000000000003,-1.5758007664384588,3.124842344411981,-9.501950438749402,-0.25980082850845854,0.13709236319950246,-0.8023628729847054,-0.008036856765181177,0.004468610143426588,-0.026765132892947463,0.0,70.0,255.0,255.0,255.0
435,21.75,-1.5888008804789684,3.1317026135602304,-9.542102084798293,-0.26020501448773103,0.13733416877587779,-0.803720065108724,-0.008064736167567865,0.005044186875924339,-0.027405310282979656,0.0,70.0,255.0,255.0,255.0
436,21.8,-1.601821267887232,3.1385757612895686,-9.582322445260274,-0.2606073021252153,0.1375967818870949,-0.8051034040130034,-0.007963310945080515,0.0052848014304274216,-0.027788177964716,0.0,70.0,255.0,255.0,255.0
437,21.85,-1.61486161069149,3.14546229174894,-9.622612425199593,-0.2610013455822391,0.13786264891892053,-0.8064988829051956,-0.007787731064423653,0.0052452748275477745,-0.027921769989980305,0.0,70.0,255.0,255.0,255.0
438,21.900000000000002,-1.6279214024454558,3.1523620261814607,-9.662972333550794,-0.2613860752316577,0.13812130936984968,-0.8078955810120014,-0.00763886329160357,0.005055429967848468,-0.027856253484515037,0.0,70.0,255.0,255.0,255.0
439,21.950000000000003,-1.6410002182146557,3.159274422685925,-9.703401983300793,-0.26176523191139944,0.13836819191570537,-0.8092845082536471,-0.007609614739823023,0.004835595304264473,-0.027635471251308275,0.0,70.0,255.0,255.0,255.0
440,22.0,-1.6540979256365957,3.166198845373031,-9.743900784376159,-0.26214703670564,0.13860486890027612,-0.8106591281371323,-0.00779545692779493,0.004715107425967702,-0.02730969829372043,0.0,70.0,255.0,255.0,255.0
441,22.05,-1.6672149218852197,3.1731349095759525,-9.784467896114506,-0.26254477760417894,0.13883970265830214,-0.8120154780830191,-0.008237076390438247,0.004764184766781199,-0.02691759190671661,0.0,70.0,255.0,255.0,255.0
442,22.1,-1.6803524033970136,3.1800828156388614,-9.82510233218446,-0.2629707443446838,0.13908128737695424,-0.8133508873278039,-0.008842127045904924,0.004924607254652713,-0.026487346275416712,0.0,70.0,255.0,255.0,255.0
443,22.150000000000002,-1.693511996319688,3.187043038313648,-9.865802984847287,-0.26342899030876943,0.13933216338376742,-0.8146642127105608,-0.009443013660725974,0.005083789635440539,-0.026062020108419404,0.0,70.0,255.0,255.0,255.0
444,22.200000000000003,-1.7066953024278906,3.194016031977238,-9.906568753455517,-0.2639150457107564,0.1395896663404983,-0.8159570893386459,-0.009871910382908133,0.005141922392892795,-0.025698669748486225,0.0,70.0,255.0,255.0,255.0
445,22.25,-1.7199035008907637,3.2010020049476977,-9.947398693781151,-0.26441618134706024,0.1398463556230567,-0.8172340796854094,-0.009961454769324973,0.004999439363828628,-0.025451933839981677,0.0,70.0,255.0,255.0,255.0
446,22.3,-1.7331369205625966,3.208000667539544,-9.988292161424058,-0.2649111911876889,0.14008961027688116,-0.818502282722644,-0.009634583959283738,0.004611373254670426,-0.025348167695327106,0.0,70.0,255.0,255.0,255.0
447,22.35,-1.7463946200095326,3.215010965975386,-10.029248922053416,-0.2653796397429886,0.14030749294852374,-0.8197688964549421,-0.00900823627607572,0.004058067715995151,-0.025366140943106075,0.0,70.0,255.0,255.0,255.0
448,22.400000000000002,-1.7596748845368955,3.222031416834396,-10.070269051069552,-0.2658120148152965,0.14049541704848068,-0.8210388968169546,-0.008305445702005976,0.003488479090085761,-0.02545837004443996,0.0,70.0,255.0,255.0,255.0
449,22.450000000000003,-1.7729758214910623,3.229060507680234,-10.111352811735111,-0.2662101843131892,0.1406563408575323,-0.8223147334593861,-0.0077555176216659305,0.003049489016904161,-0.02556984975754517,0.0,70.0,255.0,255.0,255.0
450,22.5,-1.7862959029682144,3.2360970509201494,-10.15250052441549,-0.2665875665774631,0.1408003659501711,-0.8235958817927092,-0.0075947146707999735,0.0028791164700781025,-0.02563855702231166,0.0,70.0,255.0,255.0,255.0
451,22.55,-1.7996345781488086,3.243140544275251,-10.193712399914382,-0.2669696557802692,0.14094425250454012,-0.8248785891616173,-0.00793787448554184,0.0030441217476528948,-0.025630250130959098,0.0,70.0,255.0,255.0,255.0
452,22.6,-1.8129928685462413,3.2501914761706034,-10.234988383331652,-0.26738135402601726,0.14110477812493638,-0.8261589068058051,-0.00863951992422507,0.003478646357280013,-0.025569022352556203,0.0,70.0,255.0,255.0,255.0
453,22.650000000000002,-1.8263727135514103,3.2572510220877446,-10.276328290594963,-0.2678336077726917,0.14129211714026813,-0.8274354913968729,-0.009420611456900652,0.004045930368690165,-0.025502728152382304,0.0,70.0,255.0,255.0,255.0
454,22.700000000000003,-1.8397762293235105,3.2643206878846303,-10.31773193247134,-0.2683234151717073,0.1415093711618054,-0.8287091796210433,-0.010006158990738534,0.004600634359963607,-0.02547573075677434,0.0,70.0,255.0,255.0,255.0
455,22.75,-1.853205055068581,3.271401959203925,-10.359199208557067,-0.26883422367176557,0.14175218057626449,-0.8299830644725503,-0.01012775181514769,0.00499607610766617,-0.025541810098417272,0.0,70.0,255.0,255.0,255.0
456,22.8,-1.866659651690687,3.2784959059422567,-10.400730238918594,-0.2693361903532221,0.14200897877257201,-0.831263360630885,-0.009653545138155195,0.005152652574658134,-0.025724118492576054,0.0,70.0,255.0,255.0,255.0
457,22.85,-1.8801386741039032,3.2856028570811824,-10.442325544620155,-0.2697995781855811,0.1422674458337303,-0.8325554763218079,-0.008720863514466437,0.005110983218203913,-0.025957769645756912,0.0,70.0,255.0,255.0,255.0
458,22.900000000000002,-1.8936396095092451,3.2927226505256297,-10.483985786550775,-0.27020827670466874,0.1425200770943924,-0.8338591375954607,-0.007605768144136604,0.0049633239114221794,-0.026130717346717347,0.0,70.0,255.0,255.0,255.0
459,22.950000000000003,-1.90715950177437,3.2998548647906216,-10.525711458379702,-0.27056015499999475,0.14276377822487252,-0.8351685480564797,-0.00658590702153905,0.004801773077334204,-0.02613394050374751,0.0,70.0,255.0,255.0,255.0
460,23.0,-1.9206956250092446,3.306999028348117,-10.567502641356423,-0.27086686740682264,0.14300025440212583,-0.8364725316458355,-0.0059222500964351,0.004728560451328079,-0.025846230556680894,0.0,70.0,255.0,255.0,255.0
461,23.05,-1.9342461885150524,3.314154890230834,-10.609358711544285,-0.27115238000963826,0.14323663427000533,-0.8377531711121478,-0.005754518388090268,0.004798041846143519,-0.02521947636466848,0.0,70.0,255.0,255.0,255.0
462,23.1,-1.9478108630102084,3.3213226917751175,-10.651277958467638,-0.27144231924563167,0.14348005858674018,-0.8389944792823023,-0.006028914129863061,0.004956488368579315,-0.024401670624385474,0.0,70.0,255.0,255.0,255.0
463,23.150000000000002,-1.9613904204396155,3.3285028960895082,-10.693258159472515,-0.27175527142262457,0.14373228310686326,-0.8401933381745863,-0.006604427855050332,0.005102545547819304,-0.02365347005941487,0.0,70.0,255.0,255.0,255.0
464,23.200000000000003,-1.974986390152471,3.335695920085804,-10.735297292285097,-0.2721027620311367,0.1439903131415221,-0.8413598262882438,-0.007330212923295498,0.00514518708376599,-0.02323456783557276,0.0,70.0,255.0,255.0,255.0
465,23.25,-1.9886006966427292,3.3429019274036604,-10.77739414210134,-0.2724882927149541,0.14424680181523986,-0.8425167949581436,-0.008051219826854528,0.004993738031000561,-0.023413221056500788,0.0,70.0,255.0,255.0,255.0
466,23.3,-2.0022352194239663,3.350120600267328,-10.819548971780911,-0.27290788401382216,0.14448968694462216,-0.8437011483938939,-0.008669919770576406,0.004608093793656565,-0.024305575115768363,0.0,70.0,255.0,255.0,255.0
467,23.35,-2.0158914850441114,3.3573508960981227,-10.86176425694073,-0.27335528469201176,0.1447076111946055,-0.8449473524697204,-0.009166277168759507,0.004064834869232925,-0.02566930076710605,0.0,70.0,255.0,255.0,255.0
468,23.400000000000002,-2.0295707478931675,3.3645913613867884,-10.904043707027883,-0.2738245117306981,0.14489617043154546,-0.8462680784706045,-0.00953120575069022,0.0035055614962864468,-0.02705997117988801,0.0,70.0,255.0,255.0,255.0
469,23.450000000000003,-2.0432739362171812,3.371840513141277,-10.94639106478779,-0.2743084052670808,0.14505816734423416,-0.8476533495877092,-0.00974806646030224,0.003070252480208424,-0.028028953656900057,0.0,70.0,255.0,255.0,255.0
470,23.5,-2.0570015884198756,3.379097178121212,-10.988809041986654,-0.27479931837672833,0.1452031956795663,-0.8490709738362945,-0.009820842623975423,0.002888468776784947,-0.02812494116266606,0.0,70.0,255.0,255.0,255.0
471,23.55,-2.070753868054854,3.386360832709234,-11.031298162171419,-0.2752904895294783,0.14534701422191265,-0.8504658437039758,-0.009758063601639222,0.0030233825132341963,-0.02713733739092561,0.0,70.0,255.0,255.0,255.0
472,23.6,-2.0845306373728234,3.393631879543403,-11.073855626357052,-0.27577512473689225,0.14550553393088972,-0.851784707575387,-0.009549520318730131,0.0034196966299582243,-0.02537278131704568,0.0,70.0,255.0,255.0,255.0
473,23.650000000000002,-2.0983313805285433,3.400911386102323,-11.116476632928958,-0.27624544156135133,0.14568898388490847,-0.8530031218356804,-0.009188884340582959,0.003958844830354025,-0.023416668530984452,0.0,70.0,255.0,255.0,255.0
474,23.700000000000003,-2.1121551815289585,3.408200777931894,-11.15915593854062,-0.27669401317095055,0.14590141841392512,-0.8541263744284855,-0.008689922167759434,0.0045143158160509955,-0.021861738750672544,0.0,70.0,255.0,255.0,255.0
475,23.75,-2.1260007818456383,3.4155015279437153,-11.201889270371806,-0.2771144337781273,0.14614041546651357,-0.8551892957107476,-0.008057484269263782,0.004964368214199766,-0.021298949026160585,0.0,70.0,255.0,255.0,255.0
476,23.8,-2.1398666249067713,3.4228148194785453,-11.244674868111694,-0.2774997615978769,0.1463978552353451,-0.8562562693311015,-0.007310226755308236,0.005238888973835287,-0.022018734993167755,0.0,70.0,255.0,255.0,255.0
477,23.85,-2.153750758005426,3.43014131346725,-11.287514897304916,-0.2778454564536581,0.1466643043638971,-0.8573911692100644,-0.006553776754403273,0.005340014974253293,-0.023704282587999614,0.0,70.0,255.0,255.0,255.0
478,23.900000000000002,-2.167651170552137,3.437481249914935,-11.3304139850327,-0.27815513927331725,0.14693185673277043,-0.8586266975899015,-0.005956800010675778,0.005294583657278196,-0.025727806910325057,0.0,70.0,255.0,255.0,255.0
479,23.950000000000003,-2.1815662719327578,3.444834499140527,-11.373377567063907,-0.2784411364547257,0.14719376272962492,-0.8599639499010969,-0.005684505940717344,0.005132997076273682,-0.027458170595195952,0.0,70.0,255.0,255.0,255.0
480,24.0,-2.1954952841976096,3.4522006261878975,-11.41641038002281,-0.278723589867389,0.1474451564403978,-0.8613725146494211,-0.005897192326642653,0.004898067691083696,-0.028275346650019628,0.0,70.0,255.0,255.0,255.0
481,24.05,-2.2094386309194967,3.4595790147845666,-11.459514818528849,-0.27903085568738994,0.1476835694987333,-0.8627914845660989,-0.006655854552395368,0.004620035950475554,-0.02786128906997476,0.0,70.0,255.0,255.0,255.0
482,24.1,-2.2233983697663486,3.466968983137771,-11.50268952847942,-0.2793891753226285,0.14790716003544535,-0.8641586435564186,-0.007790057978773746,0.004301082633784148,-0.026466312105277723,0.0,70.0,255.0,255.0,255.0
483,24.150000000000002,-2.2373775484517595,3.474369730788111,-11.54593068288449,-0.2798098614852673,0.1481136777621117,-0.8654381157766267,-0.008986712819369913,0.003943659701066693,-0.024615880050404826,0.0,70.0,255.0,255.0,255.0
484,24.200000000000003,-2.2513793559148754,3.481780350913982,-11.589233340057083,-0.2802878466045655,0.14830152600555202,-0.8666202315614591,-0.009920305817523456,0.003559383524320836,-0.02283872572448331,0.0,70.0,255.0,255.0,255.0
485,24.25,-2.265406333112216,3.4891998833886664,-11.632592706040636,-0.28080189206701966,0.1484696161145438,-0.867721988349075,-0.010273746423816732,0.003139398317664188,-0.02165560843074843,0.0,70.0,255.0,255.0,255.0
486,24.3,-2.2794595451215773,3.4966273125254363,-11.67600553889199,-0.2813152212469472,0.14861546583731844,-0.8687857924045339,-0.00989255550121193,0.0026876805110376267,-0.021348229938311647,0.0,70.0,255.0,255.0,255.0
487,24.35,-2.293537855236911,3.5040614299723982,-11.71947128528109,-0.28179114761714086,0.14873838416564755,-0.8698568113429062,-0.008935874780702235,0.0022929505281155116,-0.021777788337651316,0.0,70.0,255.0,255.0,255.0
488,24.400000000000002,-2.3076386598832914,3.511501150942001,-11.762991220026281,-0.2822088087250174,0.14884476089013,-0.870963571238299,-0.007727304422733283,0.0020934815014417296,-0.022623031860824483,0.0,70.0,255.0,255.0,255.0
489,24.450000000000003,-2.3217587361094125,3.518945906061411,-11.80656764240492,-0.2825638780594142,0.14894773231579173,-0.8721191145289886,-0.006600331395478776,0.0022160422528116897,-0.02356604072684121,0.0,70.0,255.0,255.0,255.0
490,24.5,-2.335895047689233,3.5263959241735803,-11.85020313147918,-0.2828688418645653,0.14906636511541116,-0.8733201753109832,-0.005879803329955635,0.0027962737698672413,-0.024282266247688256,0.0,70.0,255.0,255.0,255.0
491,24.55,-2.350045620295869,3.5338525425729523,-11.893899659936018,-0.28315185839240975,0.14922735969277845,-0.8745473411537574,-0.0057399840484695375,0.003877353893422253,-0.024587469498449366,0.0,70.0,255.0,255.0,255.0
492,24.6,-2.364210233528474,3.541318660142858,-11.937657865594556,-0.28344284026941224,0.14945410050475338,-0.8757789222608281,-0.006097398609439253,0.0052445045312321525,-0.024548035708704674,0.0,70.0,255.0,255.0,255.0
493,24.650000000000002,-2.3783899043228103,3.5487979526234277,-11.9814775521621,-0.2837615982533537,0.14975181014590166,-0.8770021447246279,-0.006753952939497765,0.006522507533635036,-0.02432397385856433,0.0,70.0,255.0,255.0,255.0
494,24.700000000000003,-2.392586393353809,3.5562938411574483,-12.025358080067019,-0.284118235563362,0.1501063512581169,-0.8782113196466845,-0.0075112823538781015,0.007331412499311796,-0.024058509971780495,0.0,70.0,255.0,255.0,255.0
495,24.75,-2.4068017278791465,3.5638085877492394,-12.06929868412677,-0.2845127264887415,0.15048495139583284,-0.879407995721806,-0.008179068228697517,0.007291543898713115,-0.023903251984336293,0.0,70.0,255.0,255.0,255.0
496,24.8,-2.4210376660026833,3.5713423362970316,-12.1132988796392,-0.28493614238623177,0.1508355056479882,-0.8806016448451182,-0.008641960518884773,0.00623479202706001,-0.0239412393854721,0.0,70.0,255.0,255.0,255.0
497,24.85,-2.4352953421177697,3.578892138314038,-12.157358848611281,-0.28537692254062996,0.15110843059853885,-0.8818021196603532,-0.008879099545699987,0.004459753957375412,-0.024109136428052125,0.0,70.0,255.0,255.0,255.0
498,24.900000000000002,-2.4495753582567463,3.5864531793568855,-12.201479091605234,-0.28582405234080177,0.15128148104372574,-0.8830125584879234,-0.00889063673321644,0.0025282832361472884,-0.02428284426834182,0.0,70.0,255.0,255.0,255.0
499,24.950000000000003,-2.46387774735185,3.5940202864184108,-12.245660104460073,-0.2862659862139516,0.15136125892215357,-0.8842304040871873,-0.00866885154393593,0.0010166294285074429,-0.02435283313939607,0.0,70.0,255.0,255.0,255.0
500,25.0,-2.4782019568781415,3.601589305249101,-12.289902132013953,-0.28669093749519536,0.15138314398657648,-0.885447841801863,-0.008195905107211132,0.000501513339168369,-0.024208781757550923,0.0,70.0,255.0,255.0,255.0
501,25.05,-2.4925468411013694,3.6091586008170684,-12.33420488864026,-0.2870855767246727,0.1514114102560704,-0.8866512822629424,-0.007484434947624408,0.0012638509586437863,-0.023800486711778035,0.0,70.0,255.0,255.0,255.0
502,25.1,-2.5069105145506088,3.616730446274708,-12.378567260240247,-0.2874393809899578,0.15150952908244086,-0.8878278904730408,-0.006667042368491138,0.002981188263717627,-0.023217190140556454,0.0,70.0,255.0,255.0,255.0
503,25.150000000000002,-2.521290779200365,3.6243095537253125,-12.422987677687564,-0.28775228096152183,0.15170952908244217,-0.8889730012769981,-0.005964339288766496,0.005018811736245965,-0.022623716667169447,0.0,70.0,255.0,255.0,255.0
504,25.200000000000003,-2.535685742646761,3.631901399182952,-12.467464560367947,-0.28803581491883445,0.15201141025606546,-0.8900902621397577,-0.00560557254312144,0.006736149041186579,-0.022182931365222203,0.0,70.0,255.0,255.0,255.0
505,25.25,-2.5500943606922486,3.639510694750919,-12.51199670390154,-0.288312838215834,0.15238314398656083,-0.8911912944135203,-0.0058292926943703804,0.007498486660795223,-0.02205360233862308,0.0,70.0,255.0,255.0,255.0
506,25.3,-2.5645170264683443,3.647139713581608,-12.5565836898093,-0.2886187441882715,0.15276125892214498,-0.89229562237362,-0.006734612044256849,0.0069833705717226024,-0.02231061330046913,0.0,70.0,255.0,255.0,255.0
507,25.35,-2.5789562351110757,3.6547868206431335,-12.601226266138902,-0.28898629942025966,0.1530814810437331,-0.8934223557435672,-0.008086483894143015,0.00547171676394953,-0.022857627484285103,0.0,70.0,255.0,255.0,255.0
508,25.400000000000002,-2.5934156564103703,3.6624478616859815,-12.645925925383656,-0.2894273925776858,0.15330843059853994,-0.8945813851220485,-0.009456574876587354,0.003540246042632589,-0.023505925424949226,0.0,70.0,255.0,255.0,255.0
509,25.450000000000003,-2.6078989743688443,3.6701176637029875,-12.690684404651106,-0.2899319569079184,0.15343550564799635,-0.8957729482860621,-0.010410023784768185,0.0017652079731700354,-0.024062667506363766,0.0,70.0,255.0,255.0,255.0
510,25.5,-2.622408852101162,3.677791412250781,-12.735503220212262,-0.2904683949561626,0.15348495139585694,-0.8969876518726849,-0.010510980059397212,0.0007084561012948853,-0.024340818214163562,0.0,70.0,255.0,255.0,255.0
511,25.55,-2.6369458138644606,3.6854661588425732,-12.780383169838375,-0.2909830549138581,0.15350635125812584,-0.8982070301074785,-0.009556231094309808,0.0006685875005185693,-0.024243773373200384,0.0,70.0,255.0,255.0,255.0
512,25.6,-2.651507157592548,3.6931420473765937,-12.82532392322301,-0.2914240180655936,0.1535518101459088,-0.899412029210005,-0.007838677066418498,0.0014774924661509203,-0.023837707846574574,0.0,70.0,255.0,255.0,255.0
513,25.650000000000002,-2.66608821567102,3.700821339857164,-12.870324372759375,-0.29176692262049997,0.15365410050474093,-0.900590800892136,-0.005919384514996295,0.00275549546828735,-0.023267173708241273,0.0,70.0,255.0,255.0,255.0
514,25.700000000000003,-2.680683849854598,3.7085074574270678,-12.915383003312224,-0.2920159565170932,0.15382735969273753,-0.9017387465808291,-0.004366453530124659,0.0041226461062304764,-0.022679685323012677,0.0,70.0,255.0,255.0,255.0
515,25.75,-2.6952898113227293,3.716204075826438,-12.960498247417458,-0.29220356797351243,0.15406636511536398,-0.9028587694244372,-0.003738721800239375,0.005203726230007533,-0.02221911548012656,0.0,70.0,255.0,255.0,255.0
516,25.8,-2.709904206651949,3.723914093938604,-13.005668880254667,-0.29238982869711716,0.15434773231573828,-0.9039606581288417,-0.004314123252013857,0.005783957747462765,-0.021967067098316306,0.0,70.0,255.0,255.0,255.0
517,25.85,-2.724528794192441,3.7316388490580117,-13.050894313230343,-0.2926349802987138,0.15464476089011026,-0.9050554761342688,-0.005823516464564804,0.005906518499632085,-0.021907904767637376,0.0,70.0,255.0,255.0,255.0
518,25.900000000000002,-2.7391677046818206,3.739378570027615,-13.096174427868094,-0.29297218034357364,0.1549383841657015,-0.9061514486056055,-0.007720339278138866,0.005707049473580028,-0.021989855268778058,0.0,70.0,255.0,255.0,255.0
519,25.950000000000003,-2.7538260122267983,3.747132687474582,-13.141509458090903,-0.2934070142265277,0.15521546583746826,-0.9072544616611466,-0.009451528062021097,0.005312319490524686,-0.022164791666234862,0.0,70.0,255.0,255.0,255.0
520,26.0,-2.7685084061044734,3.754900116611362,-13.186899874034209,-0.29391733314977575,0.15546961611475396,-0.908367927772229,-0.010478188683649137,0.004860601682787902,-0.02239073851253437,0.0,70.0,255.0,255.0,255.0
521,26.05,-2.783217745541776,3.7626796490860572,-13.232346250868126,-0.2944548330948926,0.15570152600574705,-0.9094935355124001,-0.010514641865277952,0.0044406164740884435,-0.02263518434020284,0.0,70.0,255.0,255.0,255.0
522,26.1,-2.7979538894139626,3.7704702692119367,-13.277849227585449,-0.29496879733630355,0.1559136777621628,-0.9106314462062493,-0.009721709289634006,0.004056340294811278,-0.022851605483964477,0.0,70.0,255.0,255.0,255.0
523,26.150000000000002,-2.8127146252754063,3.7782710168622735,-13.323409395488751,-0.295427004023856,0.15610716003522818,-0.9117786960607965,-0.008463966997007688,0.0036989173603174663,-0.022971633655721746,0.0,70.0,255.0,255.0,255.0
524,26.200000000000003,-2.827496589816348,3.7860809852154595,-13.369027097191529,-0.2958151940360043,0.15628356949819455,-0.9129286095718214,-0.007107807182027415,0.003379964043759287,-0.022921660831620727,0.0,70.0,255.0,255.0,255.0
525,26.25,-2.8422961446790067,3.793899373812093,-13.414702256445933,-0.29613778474205876,0.1564451564396041,-0.9140708621439586,-0.006012486169026943,0.003101932306837085,-0.022617930469692737,0.0,70.0,255.0,255.0,255.0
526,26.3,-2.857110368290554,3.80172550085942,-13.460434183405924,-0.296416442652907,0.15659376272887826,-0.9151904026187907,-0.005385630965237809,0.0028670029294630694,-0.022031682720502488,0.0,70.0,255.0,255.0,255.0
527,26.35,-2.8719377889442974,3.809558750084981,-13.506221296707812,-0.29667634783858254,0.1567318567325504,-0.9162740304160089,-0.005201441249047534,0.0027054163580508828,-0.021287444858231197,0.0,70.0,255.0,255.0,255.0
528,26.400000000000002,-2.8867780030744123,3.817398686532675,-13.552061586447525,-0.29693658677781176,0.15686430436468335,-0.9173191471046138,-0.005354515344668798,0.0026599850481812126,-0.020602677708758677,0.0,70.0,255.0,255.0,255.0
529,26.450000000000003,-2.9016314476220786,3.825245180521449,-13.597953211418274,-0.2972117993730494,0.15699785523736853,-0.9183342981868847,-0.005749131321541867,0.002761111048243947,-0.02019462561211327,0.0,70.0,255.0,255.0,255.0
530,26.5,-2.9164991830117173,3.833098472056412,-13.643895016266214,-0.29751149990996595,0.15714041546950774,-0.9193386096658251,-0.006287903936286199,0.0030356317938462496,-0.020277492986586765,0.0,70.0,255.0,255.0,255.0
531,26.55,-2.931382597613075,3.8409592220684,-13.689887072384856,-0.29784058976667804,0.15730141841675316,-0.9203620474855434,-0.0068977993087138145,0.0034856841620189982,-0.0209456838465627,0.0,70.0,255.0,255.0,255.0
532,26.6,-2.946283241988385,3.848828613898087,-13.735931221014768,-0.29820127984083733,0.15748898388570964,-0.9214331780504814,-0.0075126189543528454,0.004041155111700334,-0.02203236799775965,0.0,70.0,255.0,255.0,255.0
533,26.650000000000002,-2.961202725597159,3.856708120456971,-13.782030390189904,-0.29859185166211333,0.1577055339279232,-0.9225652842853194,-0.008035360901947897,0.004580303286427778,-0.023222224275265546,0.0,70.0,255.0,255.0,255.0
534,26.700000000000003,-2.9761424271545964,3.8645991672908795,-13.8281877494433,-0.2990048159310321,0.15794701421435242,-0.923755400478008,-0.008350492706599155,0.004976617404928163,-0.024194288934964447,0.0,70.0,255.0,255.0,255.0
