idx,t,px,py,pz,vx,vy,vz,ax,ay,az,yaw,mode,ledr,ledg,ledb
0,0.0,-4.5000000000000036,-7.500000000000005,1.3075970192809473e-18,-0.0003276477430524949,-0.0002795020744272847,0.0007228125491096122,-0.009815681712943558,0.005330013829762947,-0.03335208366073079,0.0,70.0,255.0,255.0,255.0
1,0.05,-4.500016382387156,-7.500013975103727,3.614062745548192e-05,-0.0008184318286996728,-1.300138293913733e-05,-0.0009447916339269273,-0.01499656235530722,0.008028769015755444,-0.05015911503350483,0.0,70.0,255.0,255.0,255.0
2,0.1,-4.5000818431828735,-7.500001300138299,-9.447916339269143e-05,-0.0018273039785832168,0.0005233748271482597,-0.004293098954240871,-0.020723522569454644,0.010795020744325257,-0.0672281254910962,0.0,70.0,255.0,255.0,255.0
3,0.15000000000000002,-4.5001991127850145,-7.499961637621012,-0.00039316926796860517,-0.0028907840856451372,0.0010665006914933883,-0.0076676041830365475,-0.021815681713821533,0.010930013827881169,-0.0677520836607344,0.0,70.0,255.0,255.0,255.0
4,0.2,-4.500370921591438,-7.49989465006915,-0.0008612395816963461,-0.00400887214996537,0.0016163762099363765,-0.011068307320314311,-0.02291732671357849,0.011067838935741037,-0.06828032067308949,0.0,70.0,255.0,255.0,255.0
5,0.25,-4.500600000000011,-7.499800000000018,-0.0015000000000000365,-0.005182516757002986,0.002173284585067492,-0.014495636250345497,-0.02407351538442626,0.011221948177997376,-0.06883316103107524,0.0,70.0,255.0,255.0,255.0
6,0.30000000000000004,-4.500889173267138,-7.499677321610643,-0.002310803206730896,-0.006416223688407996,0.002738571027736114,-0.017951623423421836,-0.02529874001000465,0.01139666824938601,-0.06941714185552568,0.0,70.0,255.0,255.0,255.0
7,0.35000000000000003,-4.501241622368852,-7.499526142897245,-0.00329516234234222,-0.007712390758003451,0.003312951410006093,-0.021437350435898065,-0.026469420963781687,0.011555104187976895,-0.06997651933434201,0.0,70.0,255.0,255.0,255.0
8,0.4,-4.501660412342939,-7.4993460264696425,-0.004454538250320703,-0.009063165784786165,0.0038940814465338036,-0.024949275356856038,-0.027388199736488872,0.011638334190244848,-0.07042226976760171,0.0,70.0,255.0,255.0,255.0
9,0.45,-4.5021479389473305,-7.499136734752591,-0.005790089878027824,-0.010451210731652338,0.004476784829030578,-0.028479577412658236,-0.027885888448508922,0.011594543070625463,-0.07067939031252843,0.0,70.0,255.0,255.0,255.0
10,0.5,-4.502705533416104,-7.4988983479867395,-0.007302495991586526,-0.011851754629637057,0.00505353575359635,-0.03201721438810888,-0.02781494971886289,0.011373490281663123,-0.07068757075403029,0.0,70.0,255.0,255.0,255.0
11,0.55,-4.503333114410294,-7.498631381177232,-0.008991811316838712,-0.013232705703538628,0.00561413385719689,-0.035548334488061266,-0.027126820547085373,0.010958685351347697,-0.07042691262026841,0.0,70.0,255.0,255.0,255.0
12,0.6000000000000001,-4.504028803986458,-7.49833693460102,-0.010857329440392654,-0.014564436684345594,0.0061494042887311195,-0.03905990565013572,-0.0259976021283137,0.010419689000684684,-0.06995973555377753,0.0,70.0,255.0,255.0,255.0
13,0.65,-4.504789558078729,-7.4980164407483585,-0.012897801881852284,-0.015832465916369998,0.006656102757265359,-0.04254430804343902,-0.024752892414348082,0.009880835026532253,-0.0694055754620717,0.0,70.0,255.0,255.0,255.0
14,0.7000000000000001,-4.505612050578095,-7.497671324325293,-0.015111760244736556,-0.017039725925780402,0.007137487791384345,-0.04600046319634289,-0.023743649078866724,0.009468437834314614,-0.06890098940838377,0.0,70.0,255.0,255.0,255.0
15,0.75,-4.506493530671307,-7.49730269196922,-0.017497848201486574,-0.01820683082425667,0.00760294654069682,-0.049434406984277396,-0.02331623842053432,0.009298020225223524,-0.06858976360392628,0.0,70.0,255.0,255.0,255.0
16,0.8,-4.50743273366052,-7.496911029671224,-0.020055200943164295,-0.019371349767833834,0.008067289813906697,-0.05285943955673552,-0.023643463656419783,0.009425221904013625,-0.06854568697231903,0.0,70.0,255.0,255.0,255.0
17,0.8500000000000001,-4.50843066564809,-7.496495962987829,-0.022783792157160126,-0.02057117718989865,0.008545468731098183,-0.0562889756815093,-0.024569354672188126,0.00980166428403706,-0.06870090208691282,0.0,70.0,255.0,255.0,255.0
18,0.9,-4.50948985137951,-7.496056482798114,-0.025684098511315225,-0.021828285235052647,0.009047456242310403,-0.0597295297654268,-0.02577104645711259,0.010321962067560975,-0.06891990390858777,0.0,70.0,255.0,255.0,255.0
19,0.9500000000000001,-4.510613494171595,-7.495591217363598,-0.028756745133702806,-0.023148281835609907,0.00957766493785428,-0.06318096607236807,-0.026919655096158124,0.010872218412583123,-0.06906956580685249,0.0,70.0,255.0,255.0,255.0
20,1.0,-4.511804679563071,-7.495098716304328,-0.03200219511855203,-0.02452025074466846,0.010134678083568716,-0.06663648634611205,-0.027700143219355766,0.011346410169554844,-0.06901342145031367,0.0,70.0,255.0,255.0,255.0
21,1.05,-4.513065519246062,-7.4945777495552415,-0.03542039376831401,-0.025918296157545484,0.010712305954809764,-0.07008230821739944,-0.02793997750796251,0.01168093985359775,-0.06868376606388032,0.0,70.0,255.0,255.0,255.0
22,1.1,-4.514396509178826,-7.494027485708847,-0.03901042594029198,-0.02731424849546471,0.01130277206892849,-0.07350486295250008,-0.02769402347215788,0.011857290226480188,-0.06815936006127621,0.0,70.0,255.0,255.0,255.0
23,1.1500000000000001,-4.515796944095609,-7.493447472348349,-0.04277088006356402,-0.028687698504761272,0.011898034977457783,-0.07689824422352706,-0.02711303830666978,0.011866841178864718,-0.06759210494087509,0.0,70.0,255.0,255.0,255.0
24,1.2000000000000002,-4.517265279029302,-7.492837682211102,-0.046700250362644684,-0.030025552326131688,0.012489456186814962,-0.08026407344658759,-0.026351530069490536,0.011703201335500069,-0.0671273207907809,0.0,70.0,255.0,255.0,255.0
25,1.25,-4.518799499328222,-7.492198526729667,-0.05079728740822278,-0.031322851511710326,0.01306835511100779,-0.08361097630260515,-0.02556318870290397,0.011360348420552668,-0.06689650397477542,0.0,70.0,255.0,255.0,255.0
26,1.3,-4.520397564180473,-7.491530846700001,-0.0550613479929052,-0.032581871196422085,0.013625491028870229,-0.08695372384406513,-0.024848374564445663,0.010849993040551453,-0.06696633501924384,0.0,70.0,255.0,255.0,255.0
27,1.35,-4.522057686447864,-7.49083597762678,-0.05949265979262929,-0.03380768896815489,0.014153354415062935,-0.09030760980452954,-0.024251754236281897,0.010250013970480865,-0.06729718214350602,0.0,70.0,255.0,255.0,255.0
28,1.4000000000000001,-4.5237783330772885,-7.4901155112584945,-0.06409210897335815,-0.035007046620050275,0.014650492425918316,-0.09368344205841574,-0.023822115000449173,0.009691512378573464,-0.06779531269155287,0.0,70.0,255.0,255.0,255.0
29,1.4500000000000002,-4.525558391109869,-7.489370928384188,-0.06886100399847087,-0.03618990046819981,0.015122505652920282,-0.09708714107368482,-0.023619399450502954,0.009313950604905585,-0.06836166385054201,0.0,70.0,255.0,255.0,255.0
30,1.5,-4.5273973231241085,-7.4886032606932025,-0.07380082308072664,-0.03736898656510057,0.015581887486408874,-0.10051960844346994,-0.02369912994168999,0.009256205471341872,-0.06891254400256536,0.0,70.0,255.0,255.0,255.0
31,1.55,-4.529295289766379,-7.487812739635547,-0.07891296484281786,-0.03855981346236881,0.01604812620005447,-0.10397839547394136,-0.02407426316253236,0.009579600804521249,-0.06939140667965304,0.0,70.0,255.0,255.0,255.0
32,1.6,-4.531253304470345,-7.486998448073197,-0.08419866262812077,-0.039776412881353806,0.016539847566861,-0.10745874911143524,-0.02465541645948477,0.01017817836856949,-0.06973554772833346,0.0,70.0,255.0,255.0,255.0
33,1.6500000000000001,-4.533272931054515,-7.486158754878861,-0.08965883975396138,-0.041025355108317285,0.017065944036911418,-0.1109519502467747,-0.025280366493340978,0.010850745670598627,-0.0698621687684392,0.0,70.0,255.0,255.0,255.0
34,1.7000000000000002,-4.535355839981177,-7.485291853669506,-0.09529385765279824,-0.042304449530687904,0.01762492213392086,-0.11444496598827916,-0.025771897768667174,0.011388222350827704,-0.06969324991428633,0.0,70.0,255.0,255.0,255.0
35,1.75,-4.537503376007583,-7.484396262665469,-0.1011033363527893,-0.043602544885184,0.01820476627199419,-0.11792127523820334,-0.02595227288191282,0.01157883901736767,-0.06914935731100191,0.0,70.0,255.0,255.0,255.0
36,1.8,-4.5397160944696955,-7.4834713770423065,-0.10708598517661858,-0.044899676818879186,0.01878280603565763,-0.12135990171937935,-0.02573457278618463,0.011318317028230496,-0.06821321308731199,0.0,70.0,255.0,255.0,255.0
37,1.85,-4.541993343689471,-7.482517982061903,-0.11323932652472724,-0.046176002163802465,0.019336597974817238,-0.12474259654693454,-0.025211987851925244,0.010722680481656255,-0.06704323766577452,0.0,70.0,255.0,255.0,255.0
38,1.9000000000000001,-4.544333694686076,-7.481537717244825,-0.11956024483131203,-0.04742087560407171,0.019855074083823254,-0.1280642254859568,-0.02457101110016069,0.010020097014074025,-0.06591591899460791,0.0,70.0,255.0,255.0,255.0
39,1.9500000000000002,-4.5467354312498784,-7.480532474653521,-0.12604574907332292,-0.048633103273818534,0.02033860767622464,-0.13133418844639533,-0.023999582900202654,0.009439733417870855,-0.06511708474405964,0.0,70.0,255.0,255.0,255.0
40,2.0,-4.549197005013458,-7.479503856477202,-0.13269366367595156,-0.049820833894091976,0.02079904742561034,-0.13457593396036277,-0.0236757412350741,0.009212401162361772,-0.06492601742941195,0.0,70.0,255.0,255.0,255.0
41,2.0500000000000003,-4.551717514639288,-7.47845256991096,-0.1395033424693592,-0.051000677397325944,0.021259847792460818,-0.13782679018933652,-0.023694019120323873,0.009453704509088112,-0.06547005332541711,0.0,70.0,255.0,255.0,255.0
42,2.1,-4.55429707275319,-7.477377871697956,-0.14647634269488521,-0.05219023580612436,0.02174441787651915,-0.14112293929290448,-0.024011224207676207,0.010045691780291577,-0.06656255055962623,0.0,70.0,255.0,255.0,255.0
43,2.15,-4.5569365382199,-7.476278128123308,-0.15361563639864964,-0.053401799818093565,0.022264416970489975,-0.14448304524529915,-0.02452099703109667,0.010754274198276903,-0.06784142798041404,0.0,70.0,255.0,255.0,255.0
44,2.2,-4.5596372527349995,-7.475151430000907,-0.16092464721941513,-0.05464233550923403,0.02281984529634684,-0.14790708209094588,-0.025116483916587384,0.011346270550305348,-0.06893286332391169,0.0,70.0,255.0,255.0,255.0
45,2.25,-4.5624007717708235,-7.4739961435936735,-0.16840634460774423,-0.0559134482097523,0.02339904402552051,-0.15137633157769032,-0.025708771502053196,0.011587593629780457,-0.0694745916193451,0.0,70.0,255.0,255.0,255.0
46,2.3000000000000003,-4.565228597555975,-7.472811525598355,-0.17606228037718416,-0.05721321265943935,0.023978604659324887,-0.1548545412528804,-0.02623657684033276,0.011360291509276976,-0.06928000018445735,0.0,70.0,255.0,255.0,255.0
47,2.35,-4.568122093036767,-7.471598283127741,-0.18389179873303227,-0.05853710589378558,0.024535073176448208,-0.15830433159613605,-0.0266267516810359,0.01077996032190498,-0.06847737594654346,0.0,70.0,255.0,255.0,255.0
48,2.4000000000000004,-4.571082308145353,-7.47035801828071,-0.19189271353679777,-0.05987588782754294,0.025056600691515385,-0.16170227884753474,-0.026780525250647003,0.010077398267505089,-0.0673475532329243,0.0,70.0,255.0,255.0,255.0
49,2.45,-4.574109681819522,-7.4690926230585895,-0.20006202661778574,-0.06121515841885028,0.025542813003198717,-0.16503908691942848,-0.02660170754023028,0.00948175780806082,-0.06617803538687683,0.0,70.0,255.0,255.0,255.0
50,2.5,-4.577203823987238,-7.4678037369803905,-0.2083966222287406,-0.06253605858156597,0.026004776472321467,-0.16832008238622242,-0.025985210052770213,0.009221187022845356,-0.06524759744518382,0.0,70.0,255.0,255.0,255.0
51,2.5500000000000003,-4.580363287677678,-7.466492145411357,-0.21689403485640799,-0.0638136794241273,0.026464931705483252,-0.17156384666394686,-0.02490484834405393,0.009411702880512962,-0.06471549372229213,0.0,70.0,255.0,255.0,255.0
52,2.6,-4.583585191929651,-7.465157243809842,-0.2255530068951353,-0.06502654341597136,0.026945946760372763,-0.17479163175845164,-0.023564379791096712,0.00994905900553178,-0.06456067292693601,0.0,70.0,255.0,255.0,255.0
53,2.6500000000000004,-4.586865942019275,-7.46379755073532,-0.23437319803225315,-0.06617011740323697,0.02745983760603643,-0.17801991395664046,-0.022316808725353354,0.010621540656963191,-0.0646973101368492,0.0,70.0,255.0,255.0,255.0
54,2.7,-4.590202203669975,-7.4624112600492385,-0.24335499829079935,-0.0672582242885067,0.028008100826069082,-0.18126136277213656,-0.021521720886852336,0.011220124792021835,-0.06504068277427,0.0,70.0,255.0,255.0,255.0
55,2.75,-4.593591764448126,-7.460996740652713,-0.2524993343094668,-0.0683222894919222,0.028581850085238614,-0.18452398223406746,-0.021534350991636586,0.011543695574900426,-0.06549902792393203,0.0,70.0,255.0,255.0,255.0
56,2.8000000000000003,-4.597034432619167,-7.459553075040715,-0.2618073965142061,-0.06941165938767035,0.029162470383559125,-0.18781126556452976,-0.02251214167188209,0.011486323541909371,-0.06600627667461556,0.0,70.0,255.0,255.0,255.0
57,2.85,-4.600532930386893,-7.458080493614357,-0.2712804608659198,-0.07057350365911041,0.02973048243942955,-0.19112460990152902,-0.024185006543753218,0.011109211581228351,-0.06652002558580339,0.0,70.0,255.0,255.0,255.0
58,2.9000000000000004,-4.604091782985078,-7.456580026796772,-0.280919857504359,-0.07183016004204568,0.03027339154168196,-0.1944632681231101,-0.026040444975894417,0.01055103117826306,-0.06698059549707369,0.0,70.0,255.0,255.0,255.0
59,2.95,-4.607715946391098,-7.455053154460189,-0.2907267876782308,-0.07317754815669986,0.030785585557255857,-0.1978226694512364,-0.027553087233744833,0.009951029737109707,-0.06731405869088714,0.0,70.0,255.0,255.0,255.0
60,3.0,-4.611409537800748,-7.453501468241046,-0.30070212444948263,-0.07458546876542016,0.03126849451539293,-0.2011946739921988,-0.02821342327683496,0.009440021354567563,-0.06746025356307306,0.0,70.0,255.0,255.0,255.0
61,3.0500000000000003,-4.61517449326764,-7.45192630500865,-0.3108462550774507,-0.07599889048438335,0.03172958769271261,-0.2045686948075437,-0.027766212007751534,0.0090957768447808,-0.06739217347198068,0.0,70.0,255.0,255.0,255.0
62,3.1,-4.619009426849186,-7.450328509471775,-0.321158993930237,-0.07736208996619531,0.03217807219987101,-0.20793389133939688,-0.026430885409478577,0.008930458306188882,-0.0671237002543068,0.0,70.0,255.0,255.0,255.0
63,3.1500000000000004,-4.622910702264259,-7.448708497788663,-0.33163964421139036,-0.07864197902533121,0.0326226335233315,-0.21128106483297437,-0.024666959156949275,0.008938810153846788,-0.06669667151122938,0.0,70.0,255.0,255.0,255.0
64,3.2,-4.6268736247517195,-7.447066246119442,-0.34228710041353444,-0.07982878588189024,0.03307195321525569,-0.21460355849051982,-0.022945277497310457,0.009115243438184706,-0.06616928292839108,0.0,70.0,255.0,255.0,255.0
65,3.25,-4.630893580852448,-7.445401302467137,-0.35310000006044234,-0.08093650677506226,0.03353415786714997,-0.21789799312581348,-0.021719927929186866,0.00945220968366911,-0.06560000444385539,0.0,70.0,255.0,255.0,255.0
66,3.3000000000000003,-4.634967275429226,-7.443712830332727,-0.3640768997261158,-0.08200077867480893,0.0340171741836226,-0.22116355893490536,-0.021241844796371367,0.009931594719869707,-0.06503071708311436,0.0,70.0,255.0,255.0,255.0
67,3.35,-4.639093658719929,-7.441999585048775,-0.3752163559539329,-0.08306069125469939,0.03452731733913694,-0.22440106483412492,-0.021438771165183113,0.010488116032902894,-0.06450330859506526,0.0,70.0,255.0,255.0,255.0
68,3.4000000000000004,-4.643273344554696,-7.440260098598813,-0.3865170062095283,-0.08414465579132724,0.03506598578691289,-0.22761388979441188,-0.022106077369965504,0.011012889046035923,-0.06407626158158042,0.0,70.0,255.0,255.0,255.0
69,3.45,-4.647508124299062,-7.4384929864700835,-0.39797774493337407,-0.08527129899169594,0.035628606243740535,-0.23080869099228296,-0.02303820370990195,0.01138902215114257,-0.06380778395457809,0.0,70.0,255.0,255.0,255.0
70,3.5,-4.651800474453865,-7.436697237974439,-0.4095978753087566,-0.08644847616231743,0.03620488800202715,-0.2339946681898697,-0.02403488365496642,0.011507130586618786,-0.0637397286615271,0.0,70.0,255.0,255.0,255.0
71,3.5500000000000003,-4.656152971915294,-7.434872497669881,-0.42137721175236104,-0.08767478735719259,0.03677931930240241,-0.23718266385843567,-0.02496188666230026,0.011317331454829826,-0.06388598383650357,0.0,70.0,255.0,255.0,255.0
72,3.6,-4.6605679531895845,-7.433019306044199,-0.43331614169460014,-0.08894466482854746,0.03733662114751013,-0.24038326657352005,-0.025737759532695748,0.010881553086861118,-0.06421952224185956,0.0,70.0,255.0,255.0,255.0
73,3.6500000000000004,-4.665047438398148,-7.43113883555513,-0.44541553840971304,-0.09024856331046216,0.037867474611088525,-0.24360461608262163,-0.026261645115610577,0.010325997298821221,-0.0646801469644076,0.0,70.0,255.0,255.0,255.0
74,3.7,-4.669592809520631,-7.42923255858309,-0.4576766033028623,-0.09157082934010852,0.03836922087739225,-0.2468512812699608,-0.02641724565934922,0.00978815513636988,-0.06519389360762906,0.0,70.0,255.0,255.0,255.0
75,3.75,-4.674204521332159,-7.4273019134673905,-0.4701006665367091,-0.09289028787639708,0.03884629012472551,-0.25012400544338453,-0.026088509479649247,0.009407286617424404,-0.0657010342899389,0.0,70.0,255.0,255.0,255.0
76,3.8000000000000003,-4.67888183830827,-7.425347929570617,-0.48268900384720076,-0.09417968028807344,0.03930994953913469,-0.2534213846989547,-0.025242356805588173,0.009258566640646393,-0.06615914710466075,0.0,70.0,255.0,255.0,255.0
77,3.85,-4.683622489360967,-7.423370918513477,-0.4954428050066046,-0.0954145235569559,0.03977214678879015,-0.2567399201538506,-0.024055505388709264,0.009302035257086061,-0.06650223880113604,0.0,70.0,255.0,255.0,255.0
78,3.9000000000000004,-4.688423290663966,-7.421370714891738,-0.5083629958625858,-0.09658523082694437,0.0402401530648433,-0.2600716085790683,-0.022844544965394675,0.00944759728289668,-0.06663867503630683,0.0,70.0,255.0,255.0,255.0
79,3.95,-4.693281012443661,-7.419346903206993,-0.5214499658645114,-0.09769897805349537,0.04071690651707982,-0.2634037876574813,-0.021944561904607696,0.009604557768483346,-0.066483867722128,0.0,70.0,255.0,255.0,255.0
80,4.0,-4.6981931884693156,-7.41729902424003,-0.534703374628334,-0.09877968701740514,0.04120060884169163,-0.2667199953512811,-0.021691078426577803,0.009671741591432692,-0.06595217147472576,0.0,70.0,255.0,255.0,255.0
81,4.05,-4.7031589811454015,-7.415226842322824,-0.5481219653996395,-0.09986808589615315,0.04168408067622309,-0.26999900480495387,-0.022242485649393018,0.009595628090508512,-0.06502260257004178,0.0,70.0,255.0,255.0,255.0
82,4.1000000000000005,-4.708179997058931,-7.413130616172408,-0.5617032751088293,-0.10100393558234444,0.042160171650742484,-0.2732222556082853,-0.02339033546219227,0.009431238286783383,-0.06385413327629763,0.0,70.0,255.0,255.0,255.0
83,4.15,-4.713259374703636,-7.411010825157749,-0.5754441909604681,-0.10220711944237237,0.04262720450490143,-0.27638441813258363,-0.024729219311403483,0.009281842007347052,-0.06272505965029262,0.0,70.0,255.0,255.0,255.0
84,4.2,-4.718400709003168,-7.408867895721918,-0.5893417169220877,-0.10347685751348479,0.04308835585147719,-0.27949476157331454,-0.025845159402759776,0.00924070003591737,-0.0619223837555416,0.0,70.0,255.0,255.0,255.0
85,4.25,-4.7236070604549845,-7.406701989572602,-0.6033936671177995,-0.10479163538264835,0.043551274508493165,-0.2825766565081378,-0.026327223434652325,0.009401691072419283,-0.061726270487072465,0.0,70.0,255.0,255.0,255.0
86,4.3,-4.728879872541433,-7.4045127682710685,-0.6175993825729015,-0.10610957985695002,0.04402852495871912,-0.2856673886220218,-0.025967840457408187,0.009806007244961279,-0.0622647549695321,0.0,70.0,255.0,255.0,255.0
87,4.3500000000000005,-4.7342180184406795,-7.40229913707673,-0.6319604059800017,-0.10738841942838917,0.04453187523298929,-0.288803132005091,-0.024953968613417032,0.010371240035134122,-0.06335227704479252,0.0,70.0,255.0,255.0,255.0
88,4.4,-4.739618714484272,-7.40005958074777,-0.6464796957734106,-0.10860497671829172,0.04506564896223253,-0.29200261632650104,-0.023667761937673504,0.010945967087838682,-0.06462835908976894,0.0,70.0,255.0,255.0,255.0
89,4.45,-4.745078516112509,-7.3977925721805065,-0.6611606676126518,-0.10975519562215652,0.04562647194177316,-0.2952659679140679,-0.022494660623895157,0.011379868194261178,-0.06572104947015767,0.0,70.0,255.0,255.0,255.0
90,4.5,-4.7505942340464875,-7.395496933553592,-0.6760062925648174,-0.11085444278068124,0.04620363578165865,-0.2985747212735168,-0.021819981214932227,0.011529512766994543,-0.06627076522498498,0.0,70.0,255.0,255.0,255.0
91,4.55,-4.756163960390577,-7.393172208602341,-0.6910181397400035,-0.11193719374364974,0.046779423218472616,-0.3018930444365664,-0.02184549984045603,0.011326543396705802,-0.06609180412529003,0.0,70.0,255.0,255.0,255.0
92,4.6000000000000005,-4.7617879534208525,-7.390818991231745,-0.706195597008474,-0.11303899276472684,0.04733629012132923,-0.3051839016860458,-0.022424745795124323,0.010848277097608161,-0.06530757439536794,0.0,70.0,255.0,255.0,255.0
93,4.65,-4.7674678596670494,-7.388438579590208,-0.7215365299086081,-0.11417966832316218,0.04786425092823343,-0.3084238018761032,-0.02324961638784373,0.010250653276511201,-0.0641906881397758,0.0,70.0,255.0,255.0,255.0
94,4.7,-4.773205920253169,-7.386032566138922,-0.7370379771960843,-0.11536395440351122,0.04836135544898035,-0.3116029705000234,-0.024015825141354696,0.009699314366251599,-0.06301999179035844,0.0,70.0,255.0,255.0,255.0
95,4.75,-4.779004255107401,-7.38360244404531,-0.7526968269586104,-0.11658125083729765,0.04883418236485859,-0.31472580105513903,-0.0244169076490941,0.009368276507615292,-0.0620626499649779,0.0,70.0,255.0,255.0,255.0
96,4.800000000000001,-4.7848640453368985,-7.381149147902436,-0.7685105573015982,-0.11780564516842063,0.04929818309974188,-0.3178092354965212,-0.02429081286106083,0.00934730634849501,-0.0614735763149854,0.0,70.0,255.0,255.0,255.0
97,4.8500000000000005,-4.790784819624243,-7.3786726257353354,-0.7844777505082625,-0.11901033212340373,0.04976891299970809,-0.32087315868663757,-0.023753388532732345,0.009552015211422571,-0.06125015264641931,0.0,70.0,255.0,255.0,255.0
98,4.9,-4.796765078549239,-7.376172256602465,-0.800597873170262,-0.12018098402169386,0.050253384620884134,-0.3239342507611631,-0.023046593024300677,0.009815895329357005,-0.06133783940001081,0.0,70.0,255.0,255.0,255.0
99,4.95,-4.802802918026412,-7.373647287273247,-0.8168711755843788,-0.1213149914258338,0.05075050253264379,-0.32700694262663865,-0.02240241177062785,0.009975788093452564,-0.06168467101417274,0.0,70.0,255.0,255.0,255.0
100,5.0,-4.808896577691822,-7.371097206349201,-0.8332985674329259,-0.12242122519875664,0.05125096343022939,-0.3301027178625804,-0.022044322920322657,0.009857427822801412,-0.06224264423907444,0.0,70.0,255.0,255.0,255.0
101,5.050000000000001,-4.815045040546288,-7.368522190930224,-0.8498814473706369,-0.12351942371786606,0.051736245314923934,-0.3332312070505461,-0.022091108855448738,0.009377657783460336,-0.06296214236301001,0.0,70.0,255.0,255.0,255.0
102,5.1000000000000005,-4.821248520063609,-7.365923581817708,-0.8666216881379805,-0.12463033608430152,0.052188729208575424,-0.3363989320988814,-0.022476292148176924,0.008666366019927096,-0.06373190825902375,0.0,70.0,255.0,255.0,255.0
103,5.15,-4.827508074154718,-7.3633033180093665,-0.883521340580525,-0.12576705293268375,0.052602881916916644,-0.33960439787644847,-0.023049419440912544,0.007963061442239905,-0.06437534353752605,0.0,70.0,255.0,255.0,255.0
104,5.2,-4.833825225356877,-7.360663293626017,-0.9005821279256253,-0.12693527802839277,0.052985035352799414,-0.342836466452634,-0.02366124106325529,0.007497393399980012,-0.06470286261456293,0.0,70.0,255.0,255.0,255.0
105,5.25,-4.840201601957557,-7.358004814474087,-0.9178049872257884,-0.12813317703900928,0.053352621256914645,-0.34607468413790476,-0.024169809993157543,0.00748993760968375,-0.06452276375478183,0.0,70.0,255.0,255.0,255.0
106,5.300000000000001,-4.846638543060778,-7.355328031500325,-0.9351895963394158,-0.12935225902770853,0.05373402911376779,-0.3492887428281122,-0.024491977824503408,0.008042948298569996,-0.0637568285919432,0.0,70.0,255.0,255.0,255.0
107,5.3500000000000005,-4.853136827860328,-7.35263141156271,-0.9527338615085996,-0.13058237482145962,0.054156916086771645,-0.3524503669970991,-0.02462507923821633,0.009016273622552973,-0.06258846140360097,0.0,70.0,255.0,255.0,255.0
108,5.4,-4.859696780542924,-7.349912339891648,-0.9704346330391257,-0.13181476695153016,0.05463565647602309,-0.3555475889684723,-0.024591253687678005,0.010136427665585757,-0.06135621768527111,0.0,70.0,255.0,255.0,255.0
109,5.45,-4.866318304555481,-7.3471678459151075,-0.9882886204054468,-0.13304150019022742,0.05517055885333022,-0.3585859887656262,-0.02441313679710788,0.011122377234329406,-0.06040942631324597,0.0,70.0,255.0,255.0,255.0
110,5.5,-4.873000930561947,-7.344395284006315,-1.0062932319156883,-0.13425608063124095,0.05574789419945603,-0.36158853159979687,-0.024120446430409004,0.011702821738879265,-0.060094272769839474,0.0,70.0,255.0,255.0,255.0
111,5.550000000000001,-4.879743912618605,-7.341593056495162,-1.0244474735654265,-0.13545354483326832,0.05634084102721815,-0.36459541604261014,-0.02373995420565933,0.011737262308919583,-0.06057762951616752,0.0,70.0,255.0,255.0,255.0
112,5.6000000000000005,-4.886546285045274,-7.338761199903593,-1.0427527735199493,-0.13663007605180688,0.056921620430347986,-0.3676462945514136,-0.023304230060450237,0.011316651377857312,-0.06166436267656117,0.0,70.0,255.0,255.0,255.0
113,5.65,-4.893406920223786,-7.335900894452127,-1.061212103020568,-0.13778396783931335,0.05747250616500388,-0.37076185231026626,-0.022866404968535647,0.010643116007447162,-0.06296883001055686,0.0,70.0,255.0,255.0,255.0
114,5.7,-4.900324681829205,-7.333013949287093,-1.079828958750976,-0.13891671654866045,0.0579859320310927,-0.3739431775524693,-0.022491899393806136,0.009926384375891217,-0.0641000848133233,0.0,70.0,255.0,255.0,255.0
115,5.75,-4.907298591878652,-7.330102301249018,-1.0986064207758148,-0.14003315777869396,0.058465144602593,-0.3771718607915986,-0.022244441581253938,0.009378775434587538,-0.0646801917858264,0.0,70.0,255.0,255.0,255.0
116,5.800000000000001,-4.914327997607074,-7.327167434826833,-1.1175461448301358,-0.14114116070678584,0.058923809574551456,-0.38041119673105195,-0.02215491863974961,0.009120263538076046,-0.06451279320325298,0.0,70.0,255.0,255.0,255.0
117,5.8500000000000005,-4.92141270794933,-7.324209920291563,-1.13664754044892,-0.14224864964266892,0.059377170956400604,-0.3836231401119239,-0.022195296557736555,0.009112552101875337,-0.0637249037410692,0.0,70.0,255.0,255.0,255.0
118,5.9,-4.928552862571341,-7.321229717731193,-1.1559084588413282,-0.1433606903625595,0.05983506478473899,-0.38678368710515887,-0.02230583040017109,0.00925735539132333,-0.06259764642189136,0.0,70.0,255.0,255.0,255.0
119,5.95,-4.935748776985586,-7.318226413813089,-1.175325909159436,-0.14447923268268603,0.06030290649553294,-0.389882904754113,-0.022419265627338092,0.009464486193699884,-0.06141680786004855,0.0,70.0,255.0,255.0,255.0
120,6.0,-4.94300078583961,-7.31519942708164,-1.1948967493167395,-0.1456026169252933,0.06078151340410898,-0.3929253678911637,-0.02245777792060366,0.009642123141606618,-0.06045694143876901,0.0,70.0,255.0,255.0,255.0
121,6.050000000000001,-4.950309038678116,-7.312148262472678,-1.2146184459485523,-0.1467250104747464,0.0612671188096936,-0.3959285988979899,-0.02238088405634997,0.009735622933426669,-0.05987674545635535,0.0,70.0,255.0,255.0,255.0
122,6.1000000000000005,-4.9576732868870845,-7.309072715200671,-1.2344896092065385,-0.1478407053309283,0.061755075697451645,-0.39891304243679926,-0.02223551611004737,0.009754072616896536,-0.059668749631947016,0.0,70.0,255.0,255.0,255.0
123,6.15,-4.9650931092112085,-7.305972754902933,-1.2545097501922322,-0.14894856208575113,0.06224252607138325,-0.4018954738611846,-0.02210850186887825,0.009725690865636238,-0.059769535350762126,0.0,70.0,255.0,255.0,255.0
124,6.2,-4.97256814309566,-7.302848462593532,-1.274679156592657,-0.15005155551781613,0.06272764478401527,-0.40488999597187547,-0.022078124343760663,0.009669470382434042,-0.06011837139203724,0.0,70.0,255.0,255.0,255.0
125,6.25,-4.98009826476299,-7.299699990424531,-1.2949987497894198,-0.1511563745201272,0.06320947310962666,-0.40790731100038835,-0.022220390791449773,0.009600704026091478,-0.0606560517830701,0.0,70.0,255.0,255.0,255.0
126,6.300000000000001,-4.987683780547672,-7.29652751528257,-1.3154698876926958,-0.1522735945969611,0.06368771518662442,-0.4109556011501825,-0.02256863138203613,0.009530531441459544,-0.06132847671971309,0.0,70.0,255.0,255.0,255.0
127,6.3500000000000005,-4.995325624222686,-7.293331218905869,-1.336094309904438,-0.15341323765833081,0.06416252625377261,-0.41404015867235966,-0.02306086744123803,0.0094711574314843,-0.06204019097135749,0.0,70.0,255.0,255.0,255.0
128,6.4,-5.0030251043135054,-7.2901112626571924,-1.3568739035599318,-0.1545796813410849,0.06463483092977285,-0.41715962024731823,-0.023581094525582103,0.0094398811470775,-0.06264160145241782,0.0,70.0,255.0,255.0,255.0
129,6.45,-5.010783592356795,-7.2868677358128915,-1.3778102719291698,-0.15577134711088902,0.06510651436848036,-0.42030431881760144,-0.024015463104731793,0.00945763227591101,-0.0629712450332276,0.0,70.0,255.0,255.0,255.0
130,6.5,-5.018602239024594,-7.283600611220344,-1.398904335441692,-0.1569812276515581,0.06558059415736395,-0.423456744750641,-0.02426867756089024,0.00955506075310808,-0.06287484210485417,0.0,70.0,255.0,255.0,255.0
131,6.550000000000001,-5.0264817151219505,-7.280309676397155,-1.420155946404234,-0.15819821486697805,0.06606202044379117,-0.42659180302808686,-0.024290790881842383,0.00974225130114803,-0.06228832202388457,0.0,70.0,255.0,255.0,255.0
132,6.6000000000000005,-5.034422060511292,-7.276994409175965,-1.4415635157445006,-0.15941030673974232,0.06655481928747875,-0.42968557695302945,-0.02408548965018298,0.00996129765749032,-0.06133673356907288,0.0,70.0,255.0,255.0,255.0
133,6.65,-5.042422745795925,-7.273654194468407,-1.4631245040995369,-0.16060676383199635,0.0670581502095402,-0.43272547638499415,-0.023683483664616034,0.010114784545844913,-0.060259490075043054,0.0,70.0,255.0,255.0,255.0
134,6.7,-5.050482736894492,-7.270288594155011,-1.484836063383,-0.16177865510620393,0.06756629774206324,-0.43571152596053375,-0.023126223703417992,0.010106713800617229,-0.059308909547040045,0.0,70.0,255.0,255.0,255.0
135,6.75,-5.058600611306545,-7.266897564694201,-1.5066956566955902,-0.16291938620233815,0.06806882158960192,-0.43865636733969815,-0.02244494558523158,0.009831080933153657,-0.05872457979734236,0.0,70.0,255.0,255.0,255.0
136,6.800000000000001,-5.066774675514726,-7.263481711996051,-1.5287017001169698,-0.16402314966472709,0.06854940583537861,-0.441583983940268,-0.02167389273575182,0.00924666382013939,-0.05863152189817811,0.0,70.0,255.0,255.0,255.0
137,6.8500000000000005,-5.075002926273018,-7.260042624110663,-1.550854055089617,-0.16508677547591333,0.06899348797161586,-0.44451951952951596,-0.02091530915651063,0.008485423501181089,-0.05896476286431085,0.0,70.0,255.0,255.0,255.0
138,6.9,-5.083283353062317,-7.2565823631988895,-1.5731536520699214,-0.16611468058037815,0.06939794818549672,-0.4474804602266991,-0.02032851393938273,0.007780048268202222,-0.059568550135713494,0.0,70.0,255.0,255.0,255.0
139,6.95,-5.091614394331056,-7.253102829292113,-1.595602101112287,-0.1671196268698516,0.06977149279843609,-0.4504763745430873,-0.02007190315360674,0.007361573126551946,-0.06027983006524629,0.0,70.0,255.0,255.0,255.0
140,7.0,-5.099995315749302,-7.249605213919046,-1.6182012895242301,-0.16812187089573882,0.07013410549815191,-0.4535084432332237,-0.020299512126698005,0.0074605688942241954,-0.0609468387054779,0.0,70.0,255.0,255.0,255.0
141,7.050000000000001,-5.1084265814206296,-7.246089418742298,-1.6409529454356093,-0.1691495780825214,0.0705175496878585,-0.4565710584136351,-0.02106846334948287,0.008178692487081918,-0.06147332931132343,0.0,70.0,255.0,255.0,255.0
142,7.1000000000000005,-5.116910273557554,-7.24255345895026,-1.6638583953655937,-0.1702287172306871,0.0709519747468601,-0.45965577616435604,-0.02220795903840056,0.00933076125253507,-0.06180878373840404,0.0,70.0,255.0,255.0,255.0
143,7.15,-5.125449453143698,-7.238994221267612,-1.686918523052045,-0.17137037398636146,0.07145062581311201,-0.4627519367874755,-0.02340525778112834,0.010569591145515034,-0.061900062295783265,0.0,70.0,255.0,255.0,255.0
144,7.2,-5.13404731095619,-7.235408396368949,-1.7101335890443412,-0.17256924300879994,0.0720089338614116,-0.46584578239393437,-0.024334415430171674,0.011541445906182446,-0.061692795833034886,0.0,70.0,255.0,255.0,255.0
145,7.25,-5.142706377444578,-7.231793327881471,-1.7335031012914384,-0.17380381552937862,0.07260477040373026,-0.468921216370779,-0.02467700590749189,0.01189867146109691,-0.061132074704661754,0.0,70.0,255.0,255.0,255.0
146,7.300000000000001,-5.151427692509128,-7.228147919328576,-1.757025710681419,-0.17503694359954913,0.0731988010075213,-0.47195898986440055,-0.024278454332726795,0.011471479984948019,-0.06021362239501116,0.0,70.0,255.0,255.0,255.0
147,7.3500000000000005,-5.160210071804533,-7.224473447780719,-1.7806990002778784,-0.1762316609626513,0.07375191840222506,-0.4749425786102801,-0.023302738140618118,0.010441414940043359,-0.059082712904778845,0.0,70.0,255.0,255.0,255.0
148,7.4,-5.169050858605393,-7.220772727488353,-1.8045199685424471,-0.17736721741361094,0.07424294250152563,-0.47786726115487843,-0.022081410647079025,0.009172542861612953,-0.05799110744080238,0.0,70.0,255.0,255.0,255.0
149,7.45,-5.177946793545894,-7.217049153530566,-1.8284857263933663,-0.1784398020273592,0.07466917268838635,-0.48074168935436035,-0.020956495731283553,0.008038703853241458,-0.05720073485422361,0.0,70.0,255.0,255.0,255.0
150,7.5,-5.186894838808129,-7.213305810219515,-1.8525941374778832,-0.1794628669867393,0.07504681288684978,-0.4835873346403008,-0.020264445594797564,0.0074167266121527575,-0.05696085315201049,0.0,70.0,255.0,255.0,255.0
151,7.550000000000001,-5.195893080244568,-7.209544472241881,-1.8768444598573963,-0.18046624658683896,0.07541084534960163,-0.4864377746695614,-0.020183779925719847,0.0075014481795143695,-0.057386493463207344,0.0,70.0,255.0,255.0,255.0
152,7.6000000000000005,-5.204941463466813,-7.2057647256845545,-1.9012379149448393,-0.18148124497931128,0.07579695770480122,-0.4893259839866215,-0.020612044110812633,0.008134534699077989,-0.058331413593659676,0.0,70.0,255.0,255.0,255.0
153,7.65,-5.214041204742499,-7.201964776471401,-1.9257770582560585,-0.18252745099792023,0.07622429881950943,-0.49227091602892736,-0.021318983080842457,0.00899012085922024,-0.05950278066804149,0.0,70.0,255.0,255.0,255.0
154,7.7,-5.223194208566605,-7.198142295802604,-1.950465006547732,-0.18361314328739553,0.07669596979072324,-0.4952762620534257,-0.022072515397830728,0.009743365719661057,-0.0605920036775176,0.0,70.0,255.0,255.0,255.0
155,7.75,-5.232402519071239,-7.194295179492329,-1.975304684461401,-0.1847347025377033,0.07719863539147553,-0.4983301163966791,-0.02263723968489728,0.010058478033148077,-0.06130050336337067,0.0,70.0,255.0,255.0,255.0
156,7.800000000000001,-5.2416676788203755,-7.190422432263456,-2.0002980181874,-0.18587686725588526,0.07770181759403805,-0.5014063123897627,-0.022880878178188624,0.009763379978178222,-0.061467629859590645,0.0,70.0,255.0,255.0,255.0
157,7.8500000000000005,-5.250990205796827,-7.186524997732925,-2.0254453157003773,-0.18702279035552216,0.07817497338929336,-0.5044768793826382,-0.022853654180732264,0.00902678659056022,-0.06116067700963068,0.0,70.0,255.0,255.0,255.0
158,7.9,-5.260369957855928,-7.182604934924527,-2.0507457061256638,-0.18816223267395848,0.07860449625309407,-0.5075223800907258,-0.02267640994384479,0.008179794214857594,-0.06054788643714559,0.0,70.0,255.0,255.0,255.0
159,7.95,-5.269806429064223,-7.178664548107616,-2.07619755370945,-0.18929043134990664,0.07899295281077912,-0.5105316680263527,-0.022461041745280852,0.007541492941509631,-0.059805049969474666,0.0,70.0,255.0,255.0,255.0
160,8.0,-5.279299000990918,-7.174705639643449,-2.101798872928299,-0.19040833684848657,0.07935864554724503,-0.5135028850876733,-0.022326549045192934,0.0074292680144694145,-0.05911713339448177,0.0,70.0,255.0,255.0,255.0
161,8.05,-5.288847262749072,-7.170728683552891,-2.1275478422182172,-0.19152308625442593,0.07973587961222606,-0.5164433813658009,-0.022338767967333695,0.007998691581878603,-0.058594735350370186,0.0,70.0,255.0,255.0,255.0
162,8.1,-5.298451309616361,-7.166732051682226,-2.153443211064879,-0.19264221364521994,0.08015851470543289,-0.5193623586227103,-0.022452406764905675,0.009071139451943822,-0.058223081164898716,0.0,70.0,255.0,255.0,255.0
163,8.15,-5.308111484113594,-7.162712832082348,-2.1794840780804883,-0.1937683269309165,0.08064299355742044,-0.5222656894822908,-0.02257714870630423,0.010297042607110285,-0.05795098826837375,0.0,70.0,255.0,255.0,255.0
164,8.200000000000001,-5.317828142309453,-7.158667752326484,-2.205669780013108,-0.19489992851585036,0.08118821896614392,-0.5251574574495477,-0.02263623137448434,0.011331315194773595,-0.05773968455660139,0.0,70.0,255.0,255.0,255.0
165,8.25,-5.327601476965179,-7.1545940101857335,-2.231999823825443,-0.19603195006836494,0.0817761250768978,-0.5280396579379509,-0.022560620077261007,0.01184850585271846,-0.0575350190028967,0.0,70.0,255.0,255.0,255.0
166,8.3,-5.337431337316289,-7.150490139818794,-2.2584737458069033,-0.19715599052357646,0.08237306955141577,-0.5309109593498373,-0.02231696370520453,0.011681480733827243,-0.05730736813336357,0.0,70.0,255.0,255.0,255.0
167,8.35,-5.347317076017537,-7.146356703230592,-2.2850909197604268,-0.1982636464388854,0.08294427315028052,-0.5337703947512873,-0.02193849032163797,0.01093853905249631,-0.05710522676913854,0.0,70.0,255.0,255.0,255.0
168,8.4,-5.357257701960178,-7.142195712503766,-2.311850785282032,-0.19934983955574026,0.0834669234566654,-0.5366214820267512,-0.021494062830562655,0.009862991067510762,-0.05700909288957057,0.0,70.0,255.0,255.0,255.0
169,8.450000000000001,-5.367252059973111,-7.138010010884925,-2.338753067963102,-0.20041305272194165,0.0839305722570316,-0.5394713040402443,-0.021053519936575782,0.008706020171356244,-0.05708329805118595,0.0,70.0,255.0,255.0,255.0
170,8.5,-5.377299007232372,-7.133802655278063,-2.3657979156860565,-0.20145519154939784,0.08433752547380102,-0.5423298118318698,-0.020674979968937635,0.007700717898728726,-0.05739472532622081,0.0,70.0,255.0,255.0,255.0
171,8.55,-5.38739757912805,-7.129576258337545,-2.392986049146289,-0.20248055071883542,0.08470064404690447,-0.5452107765728664,-0.020393377211913588,0.006987646555423055,-0.05796339118382399,0.0,70.0,255.0,255.0,255.0
172,8.6,-5.397547062304255,-7.125332590873373,-2.420318993343343,-0.2034945292705892,0.08503629012934333,-0.5481261509502522,-0.020230927985931402,0.00660743161100541,-0.05867517259741106,0.0,70.0,255.0,255.0,255.0
173,8.65,-5.407747032055109,-7.121072629324611,-2.447798664241314,-0.20450364351742856,0.08536138720800501,-0.5510782938326075,-0.020209303933604872,0.006579944172102614,-0.05933180101203028,0.0,70.0,255.0,255.0,255.0
174,8.700000000000001,-5.417997426655998,-7.116796452152572,-2.475426822726604,-0.20551545966394968,0.08569428454655359,-0.5540593310514552,-0.020342975593035106,0.006923578479156589,-0.05973486216643842,0.0,70.0,255.0,255.0,255.0
175,8.75,-5.428298578021504,-7.112503200869956,-2.5032045973464596,-0.20653794107673207,0.08605374505592067,-0.5570517800492514,-0.020643422750854512,0.007660603904113827,-0.05969409834087891,0.0,70.0,255.0,255.0,255.0
176,8.8,-5.4386512207636715,-7.10819107764698,-2.531132000731529,-0.20757980193903514,0.08646034493696497,-0.5600287408855431,-0.021103839801028812,0.008769984325507352,-0.059124754777339916,0.0,70.0,255.0,255.0,255.0
177,8.85,-5.449056558215408,-7.103857166376259,-2.559207471435014,-0.20864832505683495,0.08693074348847141,-0.5629642555269854,-0.021656958574300944,0.010070056181543663,-0.05816032992691511,0.0,70.0,255.0,255.0,255.0
178,8.9,-5.459516053269355,-7.099498003298133,-2.5874284262842275,-0.20974549779646523,0.08746735055511934,-0.5658447738782346,-0.02218788227432711,0.011255553923383843,-0.057059134297565706,0.0,70.0,255.0,255.0,255.0
179,8.950000000000001,-5.470031107995054,-7.095110431320747,-2.6157919488228374,-0.21086711328426766,0.08805629888080979,-0.5686701689567419,-0.02257560333260855,0.01200843048128064,-0.05608951435558396,0.0,70.0,255.0,255.0,255.0
180,9.0,-5.480602764597782,-7.090692373410052,-2.6442954431799017,-0.21200305812972609,0.0886681936032474,-0.571453725313793,-0.02270731970375195,0.012020875808005371,-0.05550888131029552,0.0,70.0,255.0,255.0,255.0
181,9.05,-5.491231413808027,-7.086243611960422,-2.6729373213542167,-0.21313784525464285,0.08925838646161033,-0.5742210570877715,-0.022530750763216645,0.01115759096705915,-0.055450876419982364,0.0,70.0,255.0,255.0,255.0
182,9.1,-5.501916549123246,-7.081766534763891,-2.701717548888679,-0.21425613320604775,0.08978395269995332,-0.5769988129557913,-0.022105713241238334,0.009643066274023226,-0.0558353958066693,0.0,70.0,255.0,255.0,255.0
183,9.15,-5.512657027128632,-7.077265216690427,-2.730637202649796,-0.2153484165787667,0.09022269308901265,-0.5798045966684384,-0.02155553060516624,0.00790963500678643,-0.05647977368603563,0.0,70.0,255.0,255.0,255.0
184,9.200000000000001,-5.523451390781123,-7.07274426545499,-2.7596980085555227,-0.21641168626656437,0.09057491620063196,-0.5826467903243948,-0.021014098255900393,0.0064077345604651725,-0.057193793697951634,0.0,70.0,255.0,255.0,255.0
185,9.25,-5.534298195755288,-7.068207725070364,-2.7889018816822353,-0.21744982640435673,0.09086346654505917,-0.5855239760382336,-0.02061531708230646,0.005571883539534639,-0.05779037641784335,0.0,70.0,255.0,255.0,255.0
186,9.3,-5.545196373421558,-7.063657918800484,-2.818250406159346,-0.21847321797479502,0.09113210455458542,-0.5884258279661791,-0.020432644325474314,0.005626225233079651,-0.058159478470587445,0.0,70.0,255.0,255.0,255.0
187,9.35,-5.556145517552768,-7.059094514614905,-2.847744464478853,-0.21949309083690416,0.09142608906836713,-0.5913399238852923,-0.02043655209744699,0.006424158908924227,-0.05830265561099779,0.0,70.0,255.0,255.0,255.0
188,9.4,-5.567145682505249,-7.054515309893647,-2.8773843985478753,-0.22051687318453972,0.09177452044547785,-0.5942560935272789,-0.020554470829825533,0.007639425862482341,-0.058255523871908466,0.0,70.0,255.0,255.0,255.0
189,9.450000000000001,-5.578197204871222,-7.0499170625703576,-2.907170073831581,-0.2215485379198867,0.09219003165461537,-0.5971654762724832,-0.020714204109495427,0.00893405784996304,-0.05804962320681284,0.0,70.0,255.0,255.0,255.0
190,9.5,-5.589300536297237,-7.0452963067281855,-2.9371009461751236,-0.22258829359548926,0.09266792623047415,-0.6000610558479602,-0.020839430614838506,0.009975599358824638,-0.057721594370807594,0.0,70.0,255.0,255.0,255.0
191,9.55,-5.6004560342307705,-7.04065026994731,-2.967176179416377,-0.22363248098137056,0.09318759159049783,-0.6029376357095639,-0.020885898042521944,0.010572473136249982,-0.05730347077008702,0.0,70.0,255.0,255.0,255.0
192,9.600000000000001,-5.6116637843953745,-7.035977547569136,-2.99739470974608,-0.22467688339974146,0.09372517354409915,-0.6057914029249689,-0.020869010770052654,0.010748503217694605,-0.05683482090961256,0.0,70.0,255.0,255.0,255.0
193,9.65,-5.622923722570745,-7.0312777525929,-3.027755319708874,-0.22571938205837583,0.09426244191226729,-0.6086211178005252,-0.020824814513442647,0.010601938931831256,-0.05637896998722525,0.0,70.0,255.0,255.0,255.0
194,9.700000000000001,-5.634235722601212,-7.026551303377909,-3.0582568215261325,-0.22675936485108572,0.09478536743728228,-0.6114292999236914,-0.020782884839842808,0.010224145928017236,-0.05601340112080244,0.0,70.0,255.0,255.0,255.0
195,9.75,-5.645599659055853,-7.021799215849172,-3.088898249701243,-0.2277976705423601,0.09528485650506902,-0.6142224579126054,-0.020774932486400388,0.009709681729486164,-0.05581928339486453,0.0,70.0,255.0,255.0,255.0
196,9.8,-5.657015489655448,-7.017022817727402,-3.119679067317393,-0.22883685809972576,0.09575633561023089,-0.6170112282631779,-0.020817050218280286,0.009128917187073426,-0.05583335173602322,0.0,70.0,255.0,255.0,255.0
197,9.850000000000001,-5.668483344865826,-7.012223582288149,-3.150599372527561,-0.22987937556418814,0.09619774822377636,-0.6198057930862078,-0.020887404822023115,0.00854173498003874,-0.05599535678784129,0.0,70.0,255.0,255.0,255.0
198,9.9,-5.680003427211867,-7.0074030429050245,-3.181659646626014,-0.23092559858192807,0.09661050910823477,-0.622610763941962,-0.020946271115906967,0.008035429133013139,-0.05619130014142826,0.0,70.0,255.0,255.0,255.0
199,9.950000000000001,-5.691575904724019,-7.002562531377325,-3.212860448921757,-0.23197400267577883,0.09700129113707767,-0.6254249231003506,-0.020954256531702242,0.007714533263225576,-0.05630348559657605,0.0,70.0,255.0,255.0,255.0
200,10.0,-5.703200827479445,-6.997702913791317,-3.244202138936049,-0.2330210242350983,0.09738196243455732,-0.6282411125016196,-0.0208608394394183,0.007681711019014159,-0.056209290697761816,0.0,70.0,255.0,255.0,255.0
201,10.05,-5.7148780071475285,-6.99282433513387,-3.275684560171919,-0.23406008661972066,0.09776946223897909,-0.6310458521701268,-0.020645901083593543,0.00797908422311977,-0.05584983557271883,0.0,70.0,255.0,255.0,255.0
202,10.100000000000001,-5.726606836141417,-6.987925967567419,-3.3073067241530616,-0.23508561434345765,0.0981798708568693,-0.6338260960588915,-0.02038136994153561,0.00852008133751525,-0.055306455901593665,0.0,70.0,255.0,255.0,255.0
203,10.15,-5.738386568581874,-6.983006348048183,-3.3390671697778083,-0.23609822361387423,0.09862147037273061,-0.6365764977602861,-0.0201901010245642,0.009139980900307876,-0.05473312548440745,0.0,70.0,255.0,255.0,255.0
204,10.200000000000001,-5.750216658502804,-6.978063820530146,-3.37096437392909,-0.23710462444591407,0.09909386894690009,-0.6392994086073323,-0.02019337574683533,0.009664947126086787,-0.054279229919851346,0.0,70.0,255.0,255.0,255.0
205,10.25,-5.762097031026466,-6.973096961153493,-3.4029971106385415,-0.23811756118855776,0.09958796508533929,-0.6420044207522713,-0.02052968178221093,0.0099274835171137,-0.054083507193691815,0.0,70.0,255.0,255.0,255.0
206,10.3,-5.77402841462166,-6.968105024021612,-3.4351648160043173,-0.23915759262413516,0.10008661729861146,-0.6447077593267014,-0.021253144981514538,0.00984145920757129,-0.05421439221984237,0.0,70.0,255.0,255.0,255.0
207,10.350000000000001,-5.786012790288879,-6.963088299423632,-3.4674678865712116,-0.2402428756867092,0.10057211100609642,-0.6474258599742555,-0.022185343850633643,0.009463347595595195,-0.054614344081249655,0.0,70.0,255.0,255.0,255.0
208,10.4,-5.798052702190331,-6.958047812921002,-3.499907402001743,-0.24137612700919853,0.10103295205817098,-0.6501691937348264,-0.02301425718727046,0.008919239340698937,-0.05515983428479032,0.0,70.0,255.0,255.0,255.0
209,10.450000000000001,-5.810150402989799,-6.9529850042178145,-3.5324848059446943,-0.24254430140543626,0.10146403494016631,-0.6529418434027345,-0.02343289316124597,0.008338964945941996,-0.0557201075451097,0.0,70.0,255.0,255.0,255.0
210,10.5,-5.822307132330875,-6.9479014094269855,-3.5652015863420163,-0.24371941632532312,0.10186684855276518,-0.6557412044893374,-0.023132508023238074,0.007844345588026158,-0.05616866187958536,0.0,70.0,255.0,255.0,255.0
211,10.55,-5.834522344622331,-6.942798319362538,-3.598058926393628,-0.24485755220776007,0.10224846949896893,-0.6585587095906931,-0.021980120389564206,0.0075078528388949906,-0.056433108368247886,0.0,70.0,255.0,255.0,255.0
212,10.600000000000001,-5.846792887551651,-6.937676562477089,-3.6310574573010856,-0.24591742836427954,0.10261763383665468,-0.6613845153261622,-0.020245273303487465,0.0073428919167284334,-0.056519804136723195,0.0,70.0,255.0,255.0,255.0
213,10.65,-5.859114087458759,-6.9325365559788725,-3.6641973779262442,-0.2468820795381088,0.10298275869064177,-0.6642106900043654,-0.01842736906150222,0.007347537261725989,-0.05646306185149719,0.0,70.0,255.0,255.0,255.0
214,10.700000000000001,-5.8714810955054615,-6.9273782866080245,-3.697478526301522,-0.24776016527042977,0.10335238756282727,-0.6670308215113119,-0.017033373287222986,0.0075186802692250865,-0.056300852720303496,0.0,70.0,255.0,255.0,255.0
215,10.75,-5.883890103985802,-6.92220131722259,-3.7309004600773754,-0.2485854168668311,0.10373462671756428,-0.6698407752763957,-0.016560239503515817,0.007851124806634857,-0.05608585461240878,0.0,70.0,255.0,255.0,255.0
216,10.8,-5.896339637192145,-6.917004823936268,-3.7644626038291618,-0.24941618922078135,0.10413750004349076,-0.6726394069725528,-0.017247259240260604,0.008328155078274335,-0.0558521486664354,0.0,70.0,255.0,255.0,255.0
217,10.850000000000001,-5.90883172290788,-6.911787567218241,-3.7981644007746307,-0.25031014279085717,0.10456744222539172,-0.6754259901430393,-0.01881920396114012,0.008884245577078786,-0.05558727853238743,0.0,70.0,255.0,255.0,255.0
218,10.9,-5.92137065147123,-6.906548079713729,-3.8320052028434657,-0.25129810961689536,0.10502592460119864,-0.6781981348257915,-0.020728947220405303,0.009409772451007825,-0.05526875746992843,0.0,70.0,255.0,255.0,255.0
219,10.950000000000001,-5.93396153386957,-6.901284974758121,-3.86598421425721,-0.2523830375128977,0.1055084194704925,-0.6809528658900321,-0.022414779191581857,0.00978733961805034,-0.05488888250644308,0.0,70.0,255.0,255.0,255.0
220,11.0,-5.94660895522252,-6.89599723776668,-3.900100489432469,-0.25353958753605355,0.10600465856300367,-0.6836870230764358,-0.023318561933827198,0.009907145861731692,-0.05443598493877211,0.0,70.0,255.0,255.0,255.0
221,11.05,-5.959315492623175,-6.8906845089018205,-3.9343529165648534,-0.2547148937062804,0.10649913405666567,-0.6863964643839093,-0.0231514953296319,0.009719014027353978,-0.05391121071878224,0.0,70.0,255.0,255.0,255.0
222,11.100000000000001,-5.972080444593148,-6.885347324361013,-3.96874013587086,-0.25585473706901674,0.10697655996573907,-0.689078144148314,-0.02213236306705113,0.009284601299697215,-0.053370149332820915,0.0,70.0,255.0,255.0,255.0
223,11.15,-5.984900966330077,-6.879986852905247,-4.003260730979685,-0.25692813001298553,0.10742759418663539,-0.6917334793171914,-0.020721550681557233,0.008729736570778357,-0.05290367983055155,0.0,70.0,255.0,255.0,255.0
224,11.200000000000001,-5.997773257594447,-6.8746045649423495,-4.037913483802579,-0.25792689213717246,0.1078495336228169,-0.6943685121313692,-0.019381169619592242,0.008191448438044091,-0.05259639114667536,0.0,70.0,255.0,255.0,255.0
225,11.25,-6.010693655543794,-6.869201899542965,-4.072697582192822,-0.25886624697494476,0.1082467390304398,-0.696993118431859,-0.01857744749322876,0.007808310394263884,-0.05251817766058764,0.0,70.0,255.0,255.0,255.0
226,11.3,-6.023659882291941,-6.8637798910393055,-4.107612795645765,-0.25978463688649533,0.1086303646622433,-0.699620329897428,-0.0185588806538739,0.007655275991425015,-0.05269732081272238,0.0,70.0,255.0,255.0,255.0
227,11.350000000000001,-6.036672119232444,-6.858338863076741,-4.1426596151825645,-0.26072213504033215,0.1090122666295823,-0.7022628505131312,-0.01916136708084437,0.0076937128601350935,-0.05308858101269465,0.0,70.0,255.0,255.0,255.0
228,11.4,-6.049732095795974,-6.852878664376347,-4.177839080697078,-0.26170077359457977,0.1093997359482568,-0.7049291879986974,-0.020036505064435772,0.007835756790353088,-0.05359838800957917,0.0,70.0,255.0,255.0,255.0
229,11.450000000000001,-6.062842196591902,-6.847398889481915,-4.213152533982434,-0.2627257855467757,0.10979584230861761,-0.7076226893140891,-0.020846369835325618,0.007993067096467854,-0.054119865261093025,0.0,70.0,255.0,255.0,255.0
230,11.5,-6.076004674350652,-6.8418990801454855,-4.248601349628487,-0.26378541057811233,0.11019904265790359,-0.7103411745248067,-0.021247732009754827,0.008067631209485171,-0.054551257799051456,0.0,70.0,255.0,255.0,255.0
231,11.55,-6.089220737649713,-6.8363789852161245,-4.284186651434915,-0.2648505587477512,0.11060260542956613,-0.7130778150939943,-0.021060348023205222,0.008007108114060912,-0.05483330556392829,0.0,70.0,255.0,255.0,255.0
232,11.600000000000001,-6.102489730225427,-6.830838819602529,-4.319909131137886,-0.26589144538043286,0.11099975346930968,-0.7158245050811995,-0.020428508935754763,0.007861479660586923,-0.05495916298006165,0.0,70.0,255.0,255.0,255.0
233,11.65,-6.115809882187756,-6.825279009869194,-4.355769101943035,-0.2668934096413267,0.11138875339562482,-0.7185737313920004,-0.019645249572963763,0.007725464705998775,-0.05493829260663219,0.0,70.0,255.0,255.0,255.0
234,11.700000000000001,-6.12917907118956,-6.819699944262966,-4.391766504277086,-0.26785597033772923,0.11177229993990956,-0.7213183343418628,-0.018993723998850243,0.007683369423094888,-0.054784660629092485,0.0,70.0,255.0,255.0,255.0
235,11.75,-6.142595479221529,-6.814101779875203,-4.427900935377221,-0.2687927820412117,0.1121570903379343,-0.7240521974549097,-0.018763559199541646,0.00781710882398201,-0.05452080046772778,0.0,70.0,255.0,255.0,255.0
236,11.8,-6.156058349393681,-6.808484235229173,-4.464171724022577,-0.2697323262576834,0.11255401082230776,-0.7267704143886355,-0.019099587394588724,0.008163377800052274,-0.05416843129069093,0.0,70.0,255.0,255.0,255.0
237,11.850000000000001,-6.1695687118472975,-6.802846378792972,-4.500577976816085,-0.2707027407806706,0.11297342811793953,-0.7294690405839788,-0.019839189251236178,0.008658596935795515,-0.0537556062284672,0.0,70.0,255.0,255.0,255.0
238,11.9,-6.183128623471748,-6.797186892417379,-4.537118628080975,-0.271716245182807,0.11341987051588731,-0.7321459750114823,-0.020667904568405504,0.009183316786032236,-0.053329280725122885,0.0,70.0,255.0,255.0,255.0
239,11.950000000000001,-6.196740336365578,-6.791504391741383,-4.573792574317233,-0.27276953123751113,0.11389175979654276,-0.7348019686564911,-0.021278874028496375,0.009620681318178725,-0.0529471798667025,0.0,70.0,255.0,255.0,255.0
240,12.0,-6.210405576595499,-6.785797716437725,-4.610598824946624,-0.27384413258565665,0.11438193864770518,-0.7374406929981525,-0.021366096460173623,0.00987195214268155,-0.052661577626089695,0.0,70.0,255.0,255.0,255.0
241,12.05,-6.224124749624144,-6.780066197876613,-4.647536643617048,-0.2749061408835285,0.11487895501081091,-0.7400681264191,-0.020780929438934947,0.009885581151891643,-0.05249968256055837,0.0,70.0,255.0,255.0,255.0
242,12.100000000000001,-6.237896190683852,-6.774309820936644,-4.684605637588534,-0.27592222552955015,0.11537049676289435,-0.7426906612542084,-0.019701913546654737,0.009668608120882993,-0.052455708143650526,0.0,70.0,255.0,255.0,255.0
243,12.15,-6.251716972177099,-6.768529148200323,-4.721805709742469,-0.27687633223819397,0.11584581582289921,-0.7453136972334651,-0.01847679182676032,0.009257631786763199,-0.052507288456116186,0.0,70.0,255.0,255.0,255.0
244,12.200000000000001,-6.265583823907671,-6.762725239354354,-4.759137007311881,-0.2777699047122262,0.11629625994157067,-0.74794139009982,-0.017450127205798083,0.008700105770120814,-0.05262661990297346,0.0,70.0,255.0,255.0,255.0
245,12.25,-6.2794939626483215,-6.756899522206166,-4.796599848752451,-0.2786213449587738,0.1167158263999113,-0.7505763592237624,-0.016947999015748394,0.008035129224115423,-0.052788879703058456,0.0,70.0,255.0,255.0,255.0
246,12.3,-6.293445958403549,-6.751053656714363,-4.834194643234257,-0.279464704613801,0.11709977286398221,-0.7532202780701258,-0.017137067810768514,0.007299985238162776,-0.05297335128782166,0.0,70.0,255.0,255.0,255.0
247,12.350000000000001,-6.307440433109702,-6.745189544919768,-4.871921876559464,-0.2803350517398506,0.11744582492372757,-0.7558736943525446,-0.01790327311290696,0.006585105780043676,-0.05314249359891221,0.0,70.0,255.0,255.0,255.0
248,12.4,-6.321479463577534,-6.73930907422199,-4.9097820126695115,-0.2812550319250917,0.11775828344198658,-0.758534527430017,-0.01899397241338363,0.006029699190257531,-0.053239793889048315,0.0,70.0,255.0,255.0,255.0
249,12.450000000000001,-6.335565936302211,-6.733413716575569,-4.947775329302465,-0.282234448981189,0.11804879484275332,-0.7611976737414494,-0.020147843254392228,0.00577115667335093,-0.053206853341425386,0.0,70.0,255.0,255.0,255.0
250,12.5,-6.349702908475653,-6.7275041947377145,-4.9859017800436565,-0.28326981625053094,0.11833539910932167,-0.7638552127641596,-0.02111789815266718,0.00593550298901846,-0.052982903561371586,0.0,70.0,255.0,255.0,255.0
251,12.55,-6.363892917927264,-6.721580176664637,-5.024160850578881,-0.2843462387964557,0.11864234514165517,-0.7664959640975866,-0.021758538246796633,0.006569303069969834,-0.05254639946734585,0.0,70.0,255.0,255.0,255.0
252,12.600000000000001,-6.378137532355298,-6.715639960223549,-5.062551376453415,-0.2854456700752106,0.11899232941631865,-0.7691098527108942,-0.022052266729666314,0.007545654073926045,-0.05197608902340889,0.0,70.0,255.0,255.0,255.0
253,12.65,-6.392437484934785,-6.709680943723005,-5.101071835849971,-0.28655146546942234,0.11939691054904777,-0.7716935729999275,-0.022018367470089117,0.008626368654063299,-0.051412603587230876,0.0,70.0,255.0,255.0,255.0
254,12.700000000000001,-6.4067926789022405,-6.703700269168644,-5.139720733753408,-0.2876475068222195,0.11985496628172498,-0.7742511130696172,-0.021679525416828938,0.009556805997590345,-0.05099874062297616,0.0,70.0,255.0,255.0,255.0
255,12.75,-6.421202235617007,-6.697695447094833,-5.178496947156932,-0.28871941801110523,0.12035259114880681,-0.7767934470622251,-0.0210684270214756,0.01009083084966278,-0.050871487402393,0.0,70.0,255.0,255.0,255.0
256,12.8,-6.435664620703351,-6.691665010053764,-5.21740007845963,-0.28975434952436707,0.12086404936669126,-0.7793382618098565,-0.020226727920835685,0.010102802481526396,-0.05109485037726458,0.0,70.0,255.0,255.0,255.0
257,12.850000000000001,-6.450177670569444,-6.6856090421581635,-5.256430773337918,-0.2907420908031888,0.12136287139695945,-0.7819029320999515,-0.019249338290538986,0.009680389810551304,-0.05158867478440854,0.0,70.0,255.0,255.0,255.0
258,12.9,-6.46473882978367,-6.679528722914068,-5.2955903716696255,-0.29167928335342097,0.12183208834774639,-0.7844971292882974,-0.01829423602730529,0.009016714305953855,-0.05219342812576855,0.0,70.0,255.0,255.0,255.0
259,12.950000000000001,-6.479345598904786,-6.673425833323389,-5.334880486266748,-0.29257151440591933,0.12226454282755483,-0.7871222749125284,-0.017538717082032917,0.008314906050710391,-0.05274541027286972,0.0,70.0,255.0,255.0,255.0
260,13.0,-6.493995981224262,-6.667302268631312,-5.374302599160878,-0.29343315506162426,0.12266357895281743,-0.7897716703155844,-0.01714844038085417,0.007781173612642078,-0.05309515615223859,0.0,70.0,255.0,255.0,255.0
261,13.05,-6.508688914410948,-6.661159475428107,-5.413857653298306,-0.29428635844400475,0.12304266018881904,-0.7924317905277523,-0.01720177617823282,0.007531748076239353,-0.053160912311156494,0.0,70.0,255.0,255.0,255.0
262,13.100000000000001,-6.523424617068662,-6.65499800261243,-5.453545778213654,-0.29515333267944754,0.12341675376044137,-0.7950877615467,-0.017623200621397217,0.007528217918739699,-0.05295461976544402,0.0,70.0,255.0,255.0,255.0
263,13.15,-6.538204247678893,-6.648817800052063,-5.493366429452976,-0.29604867850614447,0.12379548198069301,-0.7977272525042967,-0.01825102874652984,0.007673021208365327,-0.05252827598383192,0.0,70.0,255.0,255.0,255.0
264,13.200000000000001,-6.553029484919277,-6.642618454414361,-5.533318503464083,-0.29697843555410053,0.1241840558812779,-0.8003405891450832,-0.018906119075801087,0.007875970731952009,-0.05193961828453553,0.0,70.0,255.0,255.0,255.0
265,13.25,-6.567902091234303,-6.636399394463935,-5.573400488367485,-0.2979392904137246,0.12458307905388821,-0.8029212143327502,-0.019405783483250616,0.00804452131957234,-0.051235906636648565,0.0,70.0,255.0,255.0,255.0
266,13.3,-6.582823413960649,-6.630160146508972,-5.613610624897358,-0.2989190139024256,0.12498850801323513,-0.8054641798087481,-0.01964719300762141,0.008124144608157025,-0.05046047473777904,0.0,70.0,255.0,255.0,255.0
267,13.350000000000001,-6.5977939926245455,-6.623900543662612,-5.653946906348359,-0.2999040097144867,0.12539549351470392,-0.8079672618065281,-0.019662427987654496,0.008127670915403229,-0.04971098135255758,0.0,70.0,255.0,255.0,255.0
268,13.4,-6.612813814932098,-6.617620597157502,-5.694407351078011,-0.30088525670119104,0.12580127510477546,-0.8104352779440038,-0.019535401900228067,0.008089429298152595,-0.049137011062061475,0.0,70.0,255.0,255.0,255.0
269,13.450000000000001,-6.627882518294665,-6.611320416152134,-5.73499043414276,-0.3018575499045095,0.12620443644451917,-0.8128809629127343,-0.019344405683519028,0.008035010555218491,-0.04888837766001686,0.0,70.0,255.0,255.0,255.0
270,13.5,-6.642999569922549,-6.60500015351305,-5.7756954473692845,-0.30281969726954294,0.1266047761602973,-0.8153241157100055,-0.019168379065970242,0.007988713137319081,-0.04910918932896635,0.0,70.0,255.0,255.0,255.0
271,13.55,-6.658164488021619,-6.598659938536104,-5.81652284571376,-0.30377438781110655,0.12700330775825108,-0.8177918818456309,-0.019055512396981555,0.007964960204098759,-0.049852013913476156,0.0,70.0,255.0,255.0,255.0
272,13.600000000000001,-6.6733770087036595,-6.592299822737225,-5.857474635553848,-0.3047252485092411,0.12740127218070718,-0.8203093171013531,-0.01900615502696823,0.007961098419606571,-0.05095614013974625,0.0,70.0,255.0,255.0,255.0
273,13.65,-6.688637012872543,-6.585919811318034,-5.898553777423896,-0.3056750033138034,0.12779941760021174,-0.8228874958596055,-0.01900913521435399,0.007969261599161115,-0.05212647697021566,0.0,70.0,255.0,255.0,255.0
274,13.700000000000001,-6.70394450903504,-6.5795198809772035,-5.939763385139808,-0.3066261620306765,0.1281981983406233,-0.8255219647983747,-0.019062458656193826,0.007983987047310848,-0.053055122822787126,0.0,70.0,255.0,255.0,255.0
275,13.75,-6.719299629075611,-6.573099991483971,-5.981105973903733,-0.30758124917942276,0.12859781630494282,-0.8281930081418842,-0.01917272822433702,0.008000626132087518,-0.05344733604717433,0.0,70.0,255.0,255.0,255.0
276,13.8,-6.734702633952982,-6.566660099346709,-6.022582685953997,-0.3085434348531102,0.12899826095383204,-0.8308666984030921,-0.019337470691560554,0.008016014574963037,-0.05315767007507688,0.0,70.0,255.0,255.0,255.0
277,13.850000000000001,-6.750153972560922,-6.560200165388588,-6.064192643744042,-0.3095149962485788,0.12939941776243913,-0.8335087751493919,-0.019512951905298337,0.008027935405419129,-0.05231434153918357,0.0,70.0,255.0,255.0,255.0
278,13.9,-6.76565413357784,-6.553720157570465,-6.105933563468936,-0.31049473004364003,0.12980105449437396,-0.8360981325570105,-0.01962805724238237,0.008033524305428585,-0.0511880367676909,0.0,70.0,255.0,255.0,255.0
279,13.950000000000001,-6.781203445565286,-6.547220059939151,-6.147802456999743,-0.31147780197281705,0.130202770192982,-0.838627578826161,-0.01961247297774804,0.008029041255497305,-0.05006390494166624,0.0,70.0,255.0,255.0,255.0
280,14.0,-6.796801913775122,-6.540699880551167,-6.189796321351552,-0.31245597734141484,0.1306039586199237,-0.8411045230511771,-0.019392736007972644,0.008008782334645304,-0.04922547580648029,0.0,70.0,255.0,255.0,255.0
281,14.05,-6.812449043299427,-6.534159664077158,-6.231912909304861,-0.3134170755736143,0.13100364842644652,-0.843550126406809,-0.018940805303646613,0.007970981496630003,-0.04882956685774431,0.0,70.0,255.0,255.0,255.0
282,14.100000000000001,-6.828143621332483,-6.5275995157085225,-6.274151333992233,-0.3143500578717795,0.1314010567695867,-0.8459874797369515,-0.01834380891434506,0.007927159958587282,-0.04881922097608182,0.0,70.0,255.0,255.0,255.0
283,14.15,-6.843884049086605,-6.5210195584002,-6.316511657278556,-0.3152514564650488,0.13179636442230525,-0.8484320485044172,-0.01775770341501115,0.007896641178017916,-0.049050327008970385,0.0,70.0,255.0,255.0,255.0
284,14.200000000000001,-6.859668766978988,-6.514419879266292,-6.3589945388426745,-0.3161258282132806,0.13219072088738848,-0.8508925124378486,-0.01734042332524055,0.007899847930747939,-0.0493816583438722,0.0,70.0,255.0,255.0,255.0
285,14.25,-6.875496631907933,-6.507800486311461,-6.401600908522341,-0.3169854987975729,0.13258634921538004,-0.8533702143388044,-0.017248309095041492,0.00796424453026745,-0.04966679802187457,0.0,70.0,255.0,255.0,255.0
286,14.3,-6.891367316858745,-6.501161244344754,-6.444331560276555,-0.31785065912278476,0.13298714534041522,-0.855859192240036,-0.017553107627588105,0.008100059438564955,-0.049818514707933303,0.0,70.0,255.0,255.0,255.0
287,14.350000000000001,-6.907281697820212,-6.494501771777419,-6.487186827746345,-0.3187408095603317,0.13339635515923653,-0.8583520658095978,-0.0181473369135432,0.008263424759835658,-0.04985063935869505,0.0,70.0,255.0,255.0,255.0
288,14.4,-6.923241397814778,-6.48782160882883,-6.530166766857515,-0.3196653928141391,0.1338134878163988,-0.8608442561759055,-0.018824765461378234,0.008379910981659577,-0.04980711207300814,0.0,70.0,255.0,255.0,255.0
289,14.450000000000001,-6.9392482371016255,-6.4811204229957795,-6.573271253363935,-0.3206232861064695,0.1342343462574025,-0.8633327770168986,-0.01937305982826487,0.008378280308019015,-0.049717060751319764,0.0,70.0,255.0,255.0,255.0
290,14.5,-6.955303726425425,-6.47439817420309,-6.616500044559205,-0.32160269879696557,0.1346513158472007,-0.8658159622510375,-0.019578036935818943,0.008186267517373835,-0.04960327616094773,0.0,70.0,255.0,255.0,255.0
291,14.55,-6.971408506981322,-6.467655291411059,-6.659852849589039,-0.3225810898000514,0.13505297300913988,-0.8682931046329934,-0.019333477472915916,0.007774981215824539,-0.049482947736123606,0.0,70.0,255.0,255.0,255.0
292,14.600000000000001,-6.9875618354054305,-6.460892876902176,-6.703329355022504,-0.32353604654425716,0.13542881396878315,-0.8707642570246499,-0.01875225135696823,0.007220912563266069,-0.04937822158979088,0.0,70.0,255.0,255.0,255.0
293,14.65,-7.003762111635748,-6.454112410014181,-6.746929275291504,-0.3244563149357482,0.13577506426546648,-0.8732309267919725,-0.01805782681394419,0.006662782494082364,-0.049321224699294675,0.0,70.0,255.0,255.0,255.0
294,14.700000000000001,-7.020007466899005,-6.447315370475629,-6.790652447701701,-0.3253418292256516,0.13609509221819138,-0.8756963794945793,-0.017473910787835223,0.006239804729712972,-0.04935009865105755,0.0,70.0,255.0,255.0,255.0
295,14.75,-7.036296294558313,-6.440502900792362,-6.834498913240962,-0.32620370601453175,0.13639904473843778,-0.8781659366570782,-0.01722350586543797,0.006082666751971999,-0.0495200973339216,0.0,70.0,255.0,255.0,255.0
296,14.8,-7.0526278375004585,-6.433675466001786,-6.878469041367409,-0.3270641798121954,0.13670335889338858,-0.8806483892279715,-0.01741955590803812,0.006253815232515336,-0.049849694347248175,0.0,70.0,255.0,255.0,255.0
297,14.850000000000001,-7.0690027125395325,-6.426832564903023,-6.922563752163759,-0.32794566160533556,0.1370244262616893,-0.883150906091803,-0.017958249733229792,0.006688449463077006,-0.05023647428243905,0.0,70.0,255.0,255.0,255.0
298,14.9,-7.085422403660992,-6.419973023375617,-6.966784131976589,-0.32886000478551836,0.13737220383969628,-0.8856720366562154,-0.018629335208508735,0.007252595405482509,-0.050507989130199604,0.0,70.0,255.0,255.0,255.0
299,14.950000000000001,-7.101888713018084,-6.4130953445190535,-7.011130955829381,-0.32980859512618643,0.13774968580223756,-0.888201705004823,-0.01922472359394689,0.007803013594021024,-0.05049597121784544,0.0,70.0,255.0,255.0,255.0
300,15.0,-7.118403263173611,-6.406198054795393,-7.055604302477072,-0.33078247714491305,0.13815250519909839,-0.890721633778,-0.01954397689738485,0.008195046826209307,-0.050020390446992025,0.0,70.0,255.0,255.0,255.0
301,15.05,-7.134966960732576,-6.399280093999144,-7.100203119207181,-0.3317629928159249,0.1385691904848585,-0.8932037440495222,-0.019481725468661892,0.00835027067394023,-0.04901067580727059,0.0,70.0,255.0,255.0,255.0
302,15.100000000000001,-7.151579562455203,-6.392341135746907,-7.144924676882024,-0.33273064969177923,0.1389875322664924,-0.895622701358727,-0.019100157636309234,0.008308925948874446,-0.04767942440437878,0.0,70.0,255.0,255.0,255.0
303,15.15,-7.168240025701754,-6.385381340772494,-7.189765389343053,-0.33367300857955584,0.13940008307974594,-0.8979716864899601,-0.018539424426755602,0.008162360359520449,-0.0464049539785627,0.0,70.0,255.0,255.0,255.0
304,15.200000000000001,-7.184946863313159,-6.3784011274389325,-7.23472184553102,-0.3345845921344548,0.13980376830244445,-0.9002631967565833,-0.017940481549327814,0.008001940427782017,-0.0455648509759321,0.0,70.0,255.0,255.0,255.0
305,15.25,-7.201698484915199,-6.37140096394225,-7.279791709018712,-0.3354670567344886,0.14020027712252414,-0.9025281715875533,-0.017436577220042437,0.007929127294747929,-0.045530275609184656,0.0,70.0,255.0,255.0,255.0
306,15.3,-7.218493568986608,-6.36438109972668,-7.324974662689775,-0.33632824985645904,0.14059668103191925,-0.9048162243175017,-0.017106316110204745,0.007997875964083079,-0.046469001024984635,0.0,70.0,255.0,255.0,255.0
307,15.350000000000001,-7.235331309900845,-6.357341295839058,-7.370273331450462,-0.3371776883455091,0.14100006471893245,-0.9071750716900517,-0.016957483358481795,0.008154914341496067,-0.04811510548954345,0.0,70.0,255.0,255.0,255.0
308,15.4,-7.252211337821159,-6.350281093254787,-7.41569216985878,-0.3380239981923072,0.14141217246606885,-0.9096277348664561,-0.016977442609000803,0.008299734718697493,-0.0499604000844478,0.0,70.0,255.0,255.0,255.0
309,15.450000000000001,-7.269133709720076,-6.343200078592451,-7.461236104937107,-0.3388754326064092,0.1418300381908022,-0.9121711116984965,-0.01715283738814577,0.008342138447847702,-0.0514863032008428,0.0,70.0,255.0,255.0,255.0
310,15.5,-7.2860988810817995,-6.336098089435707,-7.50690928102863,-0.3397392819311218,0.14224638631085362,-0.9147763651865404,-0.01746570489773447,0.008192499938353137,-0.0521945444116767,0.0,70.0,255.0,255.0,255.0
311,15.55,-7.303107637913188,-6.328975439961366,-7.5527137414557615,-0.3406220030961826,0.1426492881846375,-0.9173905661396642,-0.01789403573164705,0.00781113922192489,-0.05183294713155817,0.0,70.0,255.0,255.0,255.0
312,15.600000000000001,-7.320161081391418,-6.321833160617243,-7.598648337642596,-0.3415286855042865,0.1430275002330461,-0.9199596598996962,-0.018389069769497723,0.00727318824758072,-0.05059544501309077,0.0,70.0,255.0,255.0,255.0
313,15.65,-7.3372605064636165,-6.314672689938061,-7.644709707445731,-0.3424609100731324,0.14337660700939558,-0.9224501106409733,-0.018869965976531233,0.00671776836513871,-0.048898993469670415,0.0,70.0,255.0,255.0,255.0
314,15.700000000000001,-7.354407172398731,-6.307495499916303,-7.690893348706694,-0.3434156821019396,0.14369927706955998,-0.9248495592466632,-0.019249194539394665,0.0062822796736305975,-0.04717599682697582,0.0,70.0,255.0,255.0,255.0
315,15.75,-7.3716020746738105,-6.300302762231105,-7.737194663370397,-0.34438582952707186,0.14400483497675864,-0.9271677103236708,-0.019456593864486393,0.006092854303485495,-0.04585154674341396,0.0,70.0,255.0,255.0,255.0
316,15.8,-7.388845755351438,-6.2930950164186275,-7.783610119739061,-0.34536134148838826,0.14430856249990853,-0.9294347139210046,-0.01945702814243333,0.006211366681441177,-0.04516424541325392,0.0,70.0,255.0,255.0,255.0
317,15.850000000000001,-7.406138208822649,-6.285871905981114,-7.830138134762498,-0.3463315323413152,0.14462597164490276,-0.9316841348649962,-0.01925071308841453,0.0065878571442468115,-0.0450522053681901,0.0,70.0,255.0,255.0,255.0
318,15.9,-7.42347890858557,-6.278632419254137,-7.87677853322556,-0.3472864127972297,0.1449673482143332,-0.9339399344578236,-0.01885905712128988,0.007112828184574482,-0.04533705261131615,0.0,70.0,255.0,255.0,255.0
319,15.950000000000001,-7.440866850102372,-6.271375171159681,-7.92353212820828,-0.3482174380534442,0.1453372544633602,-0.9362178401261279,-0.01831658492026378,0.007669255677456022,-0.04584159760305795,0.0,70.0,255.0,255.0,255.0
320,16.0,-7.458300652390914,-6.264098693807801,-7.970400317238173,-0.3491180712892561,0.14573427378207882,-0.9385240942181294,-0.017647966264089376,0.008148064199442473,-0.046371296585423494,0.0,70.0,255.0,255.0,255.0
321,16.05,-7.475778657231298,-6.256801743781473,-8.017384537630093,-0.3499822346798531,0.14615206088330446,-0.9408549697846702,-0.016883539344370035,0.008483906873824054,-0.04680554907023904,0.0,70.0,255.0,255.0,255.0
322,16.1,-7.493298875858899,-6.249483487719471,-8.06448581421664,-0.3508064252236931,0.14658266446946122,-0.9432046491251533,-0.016126213075384754,0.008659019539880575,-0.047156759155697614,0.0,70.0,255.0,255.0,255.0
323,16.150000000000002,-7.510859299753667,-6.242143477334527,-8.111705002542609,-0.3515948559873916,0.14701796283729252,-0.94557064570024,-0.015537348661620598,0.008666443371474486,-0.04746841380089961,0.0,70.0,255.0,255.0,255.0
324,16.2,-7.528458361457639,-6.2347816914357415,-8.159042878786664,-0.35236016008985516,0.14744930880660867,-0.9479514905052433,-0.015276726851798372,0.008501210436140383,-0.04775952418345497,0.0,70.0,255.0,255.0,255.0
325,16.25,-7.546095315762653,-6.227398546453866,-8.206500151593133,-0.35312252867257143,0.14786808388090655,-0.9503465981185855,-0.015499513107997132,0.008158898222543343,-0.048063173675139126,0.0,70.0,255.0,255.0,255.0
326,16.3,-7.563770614324896,-6.219994883047651,-8.254077538598523,-0.35391011140065487,0.148265198628863,-0.9527578078727572,-0.016263639653679718,0.0076519801827323874,-0.04839341844409262,0.0,70.0,255.0,255.0,255.0
327,16.35,-7.581486326902718,-6.21257202659098,-8.301775932380409,-0.3547488926379394,0.1486332818991798,-0.9551859399629947,-0.017399119923844353,0.007056903857094454,-0.04868346197159923,0.0,70.0,255.0,255.0,255.0
328,16.400000000000002,-7.59924550358869,-6.205131554857733,-8.349596132594822,-0.3556500233930393,0.14897088901457245,-0.9576261540699171,-0.01859434543645122,0.006502237490213503,-0.048826588223072065,0.0,70.0,255.0,255.0,255.0
329,16.45,-7.617051329242022,-6.197674937689523,-8.3975385477874,-0.35660832718158453,0.14928350564820114,-0.9600685987853019,-0.019524759421951643,0.0061248769373634104,-0.04873373223652777,0.0,70.0,255.0,255.0,255.0
330,16.5,-7.634906336306848,-6.190203204292913,-8.445602992473352,-0.35760249933523447,0.1495833767083088,-0.9624995272935699,-0.019873981304030508,0.006060352234893429,-0.048324073982541904,0.0,70.0,255.0,255.0,255.0
331,16.55,-7.6528115791755456,-6.182716600018692,-8.493788500516757,-0.3585957253119876,0.14988954087169049,-0.9649010061835561,-0.01948810250524957,0.00636868521537437,-0.04757266526418391,0.0,70.0,255.0,255.0,255.0
332,16.6,-7.670765908838047,-6.175214250205744,-8.542093093091708,-0.3595513095857594,0.15022024522984623,-0.9672567938199883,-0.018527190678607752,0.00694888950638628,-0.04659200368042349,0.0,70.0,255.0,255.0,255.0
333,16.650000000000002,-7.6887667101341215,-6.167694575495707,-8.590514179898756,-0.36044844437984835,0.1505844298223291,-0.9695602065515985,-0.017316225305297195,0.0076082430320312255,-0.04558514006838266,0.0,70.0,255.0,255.0,255.0
334,16.7,-7.706810753276032,-6.160155807223511,-8.639049113746868,-0.36128293211628915,0.15098106953304935,-0.9718153078268266,-0.01619029606647615,0.008146507922202062,-0.04476400840882633,0.0,70.0,255.0,255.0,255.0
335,16.75,-7.72489500334575,-6.152596468542402,-8.687695710681439,-0.36206747398649597,0.15139908061454932,-0.9740366073924811,-0.015476543026693435,0.008363702160707476,-0.044328549041594556,0.0,70.0,255.0,255.0,255.0
336,16.8,-7.743017500674681,-6.145015899162056,-8.736452774486116,-0.3628305864189585,0.1518174397491201,-0.976248162730986,-0.015350010931136637,0.008159992242262604,-0.04437643331947072,0.0,70.0,255.0,255.0,255.0
337,16.85,-7.761178061987646,-6.13741472456749,-8.785320526954537,-0.36360247507960963,0.15221507983877558,-0.9784742507244282,-0.01572307307293741,0.007632946043489852,-0.044821343820267145,0.0,70.0,255.0,255.0,255.0
338,16.900000000000002,-7.779377748182642,-6.129794391178178,-8.834300199558559,-0.36440289372625223,0.15258073435346908,-0.9807302971130127,-0.01639063679332864,0.006979382456862027,-0.04547919182904536,0.0,70.0,255.0,255.0,255.0
339,16.95,-7.7976183513602715,-6.122156651132143,-8.883393556665839,-0.3652415387589425,0.15291301808446178,-0.9830221699073327,-0.017146970065162748,0.006395664800251666,-0.04615074694811483,0.0,70.0,255.0,255.0,255.0
340,17.0,-7.8159019020585365,-6.114503089369732,-8.932602416549292,-0.3661175907327685,0.15322030083349425,-0.9853453718078242,-0.017791874559680565,0.006068801825342973,-0.046629701879830066,0.0,70.0,255.0,255.0,255.0
341,17.05,-7.834230110433548,-6.106834621048794,-8.981928093846621,-0.36702072621491055,0.15351989826699608,-0.9876851400953157,-0.01820630598459161,0.006097919242442629,-0.04680262709975125,0.0,70.0,255.0,255.0,255.0
342,17.1,-7.852603974680028,-6.0991510995430325,-9.031370930558824,-0.36793822133122767,0.1538300927577385,-0.9900256345177993,-0.018385085795014078,0.006433918395032379,-0.0467271898029864,0.0,70.0,255.0,255.0,255.0
343,17.150000000000002,-7.871023932566671,-6.09145161177302,-9.080930657298401,-0.36885923479441196,0.15416329010649932,-0.9923578590756144,-0.01835498043609718,0.006959635065406644,-0.04653184552871892,0.0,70.0,255.0,255.0,255.0
344,17.2,-7.889489898159469,-6.0837347705323825,-9.130606716466385,-0.3697737193748374,0.15452605626427918,-0.9946788190706712,-0.018136136027102623,0.007557546162484385,-0.046340602867545044,0.0,70.0,255.0,255.0,255.0
345,17.25,-7.908001304504155,-6.075999006146592,-9.180398539205468,-0.3706728483971222,0.15491904472274776,-0.9969919193623689,-0.01774794008513325,0.008125099861899798,-0.04629259681916409,0.0,70.0,255.0,255.0,255.0
346,17.3,-7.926557182999181,-6.068242866060108,-9.230305908402622,-0.3715485133833507,0.15533856625046916,-0.9993080787525876,-0.01721702620258725,0.008595556895762968,-0.046459118885877615,0.0,70.0,255.0,255.0,255.0
347,17.35,-7.94515615584249,-6.060465149521545,-9.280329347080727,-0.37239455101738095,0.15577860041232405,-1.0016378312509566,-0.016617422908815627,0.00891501674100681,-0.04674896456631217,0.0,70.0,255.0,255.0,255.0
348,17.400000000000002,-7.963796638100919,-6.052665006018875,-9.330469691527718,-0.37321025567423227,0.15623006792456984,-1.0039829752092189,-0.016070280623914357,0.00901760175651134,-0.04699519761874882,0.0,70.0,255.0,255.0,255.0
349,17.45,-7.982477181409913,-6.044842142729088,-9.380727644601649,-0.3740015790797724,0.1566803605879752,-1.0063373510128315,-0.01570746018497715,0.008841376655599475,-0.04704646862254691,0.0,70.0,255.0,255.0,255.0
350,17.5,-8.001196796008896,-6.036996969960078,-9.431103426629,-0.37478100169273,0.15711420559012979,-1.0086876220714736,-0.015660374422754586,0.008326836023275774,-0.04675599475962855,0.0,70.0,255.0,255.0,255.0
351,17.55,-8.019955281579186,-6.029130722170075,-9.481596406808796,-0.37556761652204784,0.15751304419030276,-1.0110129504887944,-0.015986102025156157,0.007465028000641638,-0.04606001157441142,0.0,70.0,255.0,255.0,255.0
352,17.6,-8.038753557661101,-6.021245665541048,-9.53220472167788,-0.3763796118952456,0.15786070839019395,-1.0132936232289147,-0.016580747045935595,0.006388625364728284,-0.04508049505513867,0.0,70.0,255.0,255.0,255.0
353,17.650000000000002,-8.05759324276871,-6.013344651331056,-9.582925769131688,-0.3772256912266414,0.1581519067267756,-1.0155209999943082,-0.017247533432573903,0.005329864668013329,-0.04404549919545531,0.0,70.0,255.0,255.0,255.0
354,17.7,-8.076476126783765,-6.00543047486837,-9.633756821677311,-0.378104365238503,0.15839369485699528,-1.0176981731484602,-0.01778124933942138,0.004528695466099464,-0.043185783713362014,0.0,70.0,255.0,255.0,255.0
355,17.75,-8.095403679292561,-5.997505281845356,-9.684695586446534,-0.37900381616058354,0.15860477627338554,-1.0198395783656444,-0.01797457154779636,0.004203546721104345,-0.042719414816971835,0.0,70.0,255.0,255.0,255.0
356,17.8,-8.114376508399824,-5.9895699972410315,-9.735740779513876,-0.37990182239328263,0.15881404952910572,-1.0219701146301574,-0.017725278983959925,0.0044586434563065325,-0.042754634350927745,0.0,70.0,255.0,255.0,255.0
357,17.85,-8.13339386153189,-5.981623876892446,-9.78689259790955,-0.38077634405897953,0.1590506406190162,-1.0241150418007372,-0.01714499683256321,0.0052015307515418385,-0.04320187572748324,0.0,70.0,255.0,255.0,255.0
358,17.900000000000002,-8.152454142805722,-5.97366493317913,-9.83815228369395,-0.38161632207653895,0.1593342026042599,-1.0262903022029057,-0.01645417772060398,0.0062302122978863395,-0.043869145927288855,0.0,70.0,255.0,255.0,255.0
359,17.95,-8.171555493739543,-5.96569045663202,-9.88952162812984,-0.38242176183103993,0.15967366184880483,-1.028501956393466,-0.01587411588435117,0.007324867121027978,-0.044550909343499256,0.0,70.0,255.0,255.0,255.0
360,18.0,-8.190696318988826,-5.957697566994249,-9.941002479333296,-0.38320373366497407,0.1600666893163627,-1.0307453931372557,-0.015625302089716797,0.008282939796444566,-0.04503431799900426,0.0,70.0,255.0,255.0,255.0
361,18.05,-8.20987586710604,-5.949683787700383,-9.992596167443565,-0.3839842920400116,0.16050195582844928,-1.0330053881933665,-0.015819355464508078,0.008981423814446998,-0.045202476663597224,0.0,70.0,255.0,255.0,255.0
362,18.1,-8.229094748192827,-5.941647371411404,-10.044303018152632,-0.3847856692114249,0.1609648316978074,-1.0352656408036154,-0.016353857698803154,0.009372524356798806,-0.045116570799130784,0.0,70.0,255.0,255.0,255.0
363,18.150000000000002,-8.248354434027183,-5.933587304530603,-10.096122731523927,-0.3856196778098919,0.16143920826412916,-1.0375170452732796,-0.017021163611730117,0.009420335091903098,-0.044911670009106786,0.0,70.0,255.0,255.0,255.0
364,18.2,-8.267656715973816,-5.9255034505849915,-10.14805472267996,-0.3864877855725979,0.1619068652069977,-1.039756807804526,-0.017615713696983448,0.009092861690795928,-0.04471817798066269,0.0,70.0,255.0,255.0,255.0
365,18.25,-8.287003212584443,-5.917396618009903,-10.20009841230438,-0.38738124917959027,0.16234849443320876,-1.0419888630713459,-0.017940257388637804,0.008352712741110935,-0.04468326656663635,0.0,70.0,255.0,255.0,255.0
366,18.3,-8.306394840891775,-5.909268601141671,-10.252253608987095,-0.38828181131146167,0.1627421364811088,-1.0442251344611897,-0.017890725729508006,0.0072136100034647654,-0.0448815196010699,0.0,70.0,255.0,255.0,255.0
367,18.35,-8.325831393715589,-5.901122404361792,-10.304520925750499,-0.38917032175254107,0.16306985543355523,-1.0464770150314529,-0.017524980298055937,0.005870050142853245,-0.04521090867495303,0.0,70.0,255.0,255.0,255.0
368,18.400000000000002,-8.345311873067029,-5.892961615598315,-10.35690131049024,-0.39003430934126726,0.16332914149539413,-1.048746225328685,-0.01697575990942113,0.004650125656180393,-0.04548594559903307,0.0,70.0,255.0,255.0,255.0
369,18.45,-8.364834824649716,-5.884789490212253,-10.409395548283367,-0.3908678977434832,0.16353486799917327,-1.0510256095913562,-0.0163763160404784,0.0038949215476868915,-0.0455360057726395,0.0,70.0,255.0,255.0,255.0
370,18.5,-8.384398662841377,-5.876608128798398,-10.462003871449376,-0.3916719409453151,0.16371863365016281,-1.053299825905949,-0.01584965902967639,0.003942199915751843,-0.04518869964815764,0.0,70.0,255.0,255.0,255.0
371,18.55,-8.404002018744247,-5.868417626847236,-10.514725530873962,-0.3924528636464508,0.16392908799074846,-1.055544479556172,-0.015470515509363736,0.004938961345413162,-0.044370559151829525,0.0,70.0,255.0,255.0,255.0
372,18.6,-8.423643949206022,-5.860215219999323,-10.567558319404993,-0.3932189924962515,0.16421252978470413,-1.057736881821132,-0.015262584747333108,0.006616552460414482,-0.0432433376257535,0.0,70.0,255.0,255.0,255.0
373,18.650000000000002,-8.443323917993872,-5.851996373868766,-10.620499219056075,-0.39397912212118413,0.1645907432367899,-1.0598688133187473,-0.015240272277594613,0.008467367412201554,-0.04210268279472018,0.0,70.0,255.0,255.0,255.0
374,18.7,-8.46304186141814,-5.843756145675644,-10.673545200736868,-0.39474301972401094,0.1650592665259243,-1.061947150100604,-0.015418509318543272,0.009969130440357077,-0.04124334671420371,0.0,70.0,255.0,255.0,255.0
375,18.75,-8.482798219966273,-5.8354904472161735,-10.726693934066136,-0.39552097305303846,0.1655876562808256,-1.0639931479901676,-0.0158170971658933,0.010614524891927601,-0.04094589754295441,0.0,70.0,255.0,255.0,255.0
376,18.8,-8.502593958723445,-5.827197380047561,-10.779944515535885,-0.39632472944060027,0.16612071901511705,-1.0660417398548994,-0.016428237874421825,0.01015017165482135,-0.04134384285823245,0.0,70.0,255.0,255.0,255.0
377,18.85,-8.522430692910334,-5.818878375314662,-10.833298108051626,-0.39716379684048064,0.16660267344630775,-1.0681275322759909,-0.01714384155437898,0.008799031390793743,-0.04228678977309386,0.0,70.0,255.0,255.0,255.0
378,18.900000000000002,-8.542310338407493,-5.810537112702931,-10.886757268763484,-0.39803911359603816,0.16700062215419642,-1.0702704188322087,-0.01778231182054668,0.0070259524798999,-0.043470595952577185,0.0,70.0,255.0,255.0,255.0
379,18.95,-8.562234604269937,-5.802178313099242,-10.940325149934846,-0.3989420280225353,0.16730526869429774,-1.0724745918712486,-0.01815738561088409,0.0053079040101877695,-0.044578346298784766,0.0,70.0,255.0,255.0,255.0
380,19.0,-8.582204541209746,-5.793806585833501,-10.994004727950609,-0.3998548521571266,0.1675314125552152,-1.0747282534620872,-0.018089970954626722,0.004107672544950702,-0.04530370085333857,0.0,70.0,255.0,255.0,255.0
381,19.05,-8.60222008948565,-5.785425171843721,-11.047797975281055,-0.400751025117998,0.1677160359487928,-1.0770049619565825,-0.01750222064007545,0.003679186533567247,-0.04548129552173208,0.0,70.0,255.0,255.0,255.0
382,19.1,-8.622279643721546,-5.7770349822386216,-11.101705224146267,-0.4016050742211341,0.16789933120857192,-1.0792763830142604,-0.01652829612179829,0.003934641323688481,-0.04517854757217776,0.0,70.0,255.0,255.0,255.0
383,19.150000000000002,-8.642380596907763,-5.768635238722863,-11.155725613582481,-0.4024038547301778,0.16810950008116166,-1.0815228167138002,-0.015425911675670534,0.004643181643082528,-0.044565049946854174,0.0,70.0,255.0,255.0,255.0
384,19.200000000000003,-8.662520029194564,-5.760224032230505,-11.209857505817647,-0.40314766538870117,0.16836364937288018,-1.0837328880089458,-0.014464209308506781,0.005571654451319574,-0.043817067623663775,0.0,70.0,255.0,255.0,255.0
385,19.25,-8.682695363446634,-5.751798873785575,-11.264098902383376,-0.4038502756610285,0.1686666655262936,-1.0859045234761666,-0.013903019015515383,0.006482803576002283,-0.043119299041904924,0.0,70.0,255.0,255.0,255.0
386,19.3,-8.702905056760667,-5.743357365677876,-11.318447958165264,-0.4045379672902527,0.1690119297304804,-1.0880448179131363,-0.0138761662798359,0.007228560065719591,-0.04258272330659452,0.0,70.0,255.0,255.0,255.0
387,19.35,-8.723149160175659,-5.734897680812527,-11.37290338417469,-0.4052378922890121,0.16938952153286557,-1.090162795806826,-0.014294862069341718,0.0077861329184081285,-0.0421962227356687,0.0,70.0,255.0,255.0,255.0
388,19.400000000000002,-8.743428845989568,-5.7264184135245895,-11.427464237745946,-0.4059674534971869,0.16979054302232122,-1.0922644401867032,-0.014962153364983521,0.008154234701596152,-0.04191451894595133,0.0,70.0,255.0,255.0,255.0
389,19.450000000000003,-8.763745905525377,-5.717918626510295,-11.48212982819336,-0.40673410762551043,0.1702049450030252,-1.0943542477014212,-0.01567249044267527,0.008314102893258735,-0.04170527131890367,0.0,70.0,255.0,255.0,255.0
390,19.5,-8.784102256752119,-5.709397919024287,-11.536899662516088,-0.4075347025414544,0.1706219533116471,-1.0964349673185936,-0.01621795298358819,0.008257057206950691,-0.04152315892262948,0.0,70.0,255.0,255.0,255.0
391,19.55,-8.804499375779523,-5.7008564311791305,-11.591773324925219,-0.40835590292386925,0.17103065072372026,-1.0985065635936841,-0.01648085316805492,0.00799212098900881,-0.04134175064560708,0.0,70.0,255.0,255.0,255.0
392,19.6,-8.824937847044506,-5.692294853951915,-11.646750318875457,-0.4091827878582599,0.17142116541054797,-1.1005691423831543,-0.016496824363798623,0.007564370125656694,-0.041194789922194275,0.0,70.0,255.0,255.0,255.0
393,19.650000000000002,-8.845417654565349,-5.683714314638076,-11.701830239163534,-0.4100055853602491,0.17178708773628593,-1.1026260425859036,-0.016359227777584806,0.007058014749183883,-0.04113780667100997,0.0,70.0,255.0,255.0,255.0
394,19.700000000000003,-8.86593840558053,-5.675116145178286,-11.757012923134047,-0.4108187106360184,0.17212696688546636,-1.1046829230502553,-0.016153427988996327,0.00657762162168396,-0.041208933350489474,0.0,70.0,255.0,255.0,255.0
395,19.75,-8.88649952562895,-5.666501617949529,-11.81229853146856,-0.41162092815914875,0.17244484989845432,-1.1067469359209525,-0.015965122431538248,0.006229014215985984,-0.041439999999148824,0.0,70.0,255.0,255.0,255.0
396,19.8,-8.907100498396446,-5.657871660188441,-11.867687616726142,-0.4124152228791722,0.17274986830706496,-1.1088269230501702,-0.015846481654691047,0.0060691564446102575,-0.04183787317675325,0.0,70.0,255.0,255.0,255.0
397,19.85,-8.927741047916868,-5.649226631118823,-11.923181223773577,-0.41320557632461785,0.17305176554291535,-1.1109307232386278,-0.015796908073006932,0.006072750215224687,-0.04234377841321191,0.0,70.0,255.0,255.0,255.0
398,19.900000000000002,-8.948421056028907,-5.640566483634149,-11.978780689050005,-0.4139949136864729,0.17335714332858743,-1.1130613008914914,-0.015802707085654788,0.006178181826133056,-0.0428534152101534,0.0,70.0,255.0,255.0,255.0
399,19.950000000000003,-8.969140539285515,-5.631890916785964,-12.034487353862726,-0.41478584703318333,0.17366958372552865,-1.1152160647596432,-0.015859998068101788,0.006321611085269296,-0.043260020921387365,0.0,70.0,255.0,255.0,255.0
400,20.0,-8.989899640732226,-5.6231995252615965,-12.09030229552597,-0.4155809134932831,0.17398930443711436,-1.11738730298363,-0.01597358526304049,0.006434904577101719,-0.04347283175558658,0.0,70.0,255.0,255.0,255.0
401,20.05,-9.010698630634844,-5.614491986342252,-12.14622608416109,-0.4163832055594874,0.17431307418323883,-1.1195633479352018,-0.016139933499914605,0.006478479340987775,-0.04344624382799367,0.0,70.0,255.0,255.0,255.0
402,20.1,-9.031537961288175,-5.605768217843273,-12.20225863031949,-0.41719490684327454,0.17463715237121313,-1.1217319273664295,-0.016315543343914385,0.006465561414259469,-0.04319457194856824,0.0,70.0,255.0,255.0,255.0
403,20.150000000000002,-9.052418121319171,-5.597028271105131,-12.258399276897732,-0.4180147598938788,0.17495963032466477,-1.1238828051300587,-0.016429943879359143,0.006427486384108505,-0.04276489612333734,0.0,70.0,255.0,255.0,255.0
404,20.200000000000003,-9.073339437277562,-5.588272254810806,-12.314646910832495,-0.41883790123121045,0.17527990100962398,-1.1260084169787632,-0.016413293025152598,0.006389733570788536,-0.04221718343249137,0.0,70.0,255.0,255.0,255.0
405,20.25,-9.094301911442292,-5.579500281004169,-12.371000118595608,-0.4196560891963941,0.17559860368174363,-1.1281045234733078,-0.016192564489081462,0.006379339504114512,-0.04160871959832946,0.0,70.0,255.0,255.0,255.0
406,20.3,-9.115305046197202,-5.570712394442632,-12.427457363179826,-0.4204571576801186,0.17591783496003544,-1.1301692889385961,-0.015739984811879992,0.0064102129050169765,-0.04098283915698886,0.0,70.0,255.0,255.0,255.0
407,20.35,-9.136347627210304,-5.561908497508165,-12.484017047489468,-0.4212300876775821,0.17623962497224532,-1.1322028073890067,-0.015142690113734147,0.006465004126177121,-0.040396068991022105,0.0,70.0,255.0,255.0,255.0
408,20.400000000000002,-9.15742805496496,-5.553088431945407,-12.540677643918727,-0.421971426691492,0.17656433537265315,-1.1342088958376983,-0.014556584995872868,0.006511872637116056,-0.039930543418265074,0.0,70.0,255.0,255.0,255.0
409,20.450000000000003,-9.178544769879453,-5.5442520639709,-12.597437937073238,-0.42268574617716936,0.17689081223595693,-1.1361958617308332,-0.014139603722540528,0.006519454633213684,-0.039670219709364574,0.0,70.0,255.0,255.0,255.0
410,20.5,-9.199696629582677,-5.5353993507218116,-12.65429723009181,-0.42338538706374607,0.17721628083597452,-1.1381759178086348,-0.014048138132771726,0.006447737406656273,-0.03969228985170048,0.0,70.0,255.0,255.0,255.0
411,20.55,-9.220883308585828,-5.526530435887302,-12.711255528854101,-0.42409055999044654,0.17753558597662256,-1.1401650907160032,-0.014353926787435967,0.006280669038627451,-0.040023425182766914,0.0,70.0,255.0,255.0,255.0
412,20.6,-9.242105685581722,-5.517645792124149,-12.76831373916341,-0.42482077974248966,0.17784434773983726,-1.1421782603269115,-0.014949220676463426,0.006074422080803998,-0.04057760896500895,0.0,70.0,255.0,255.0,255.0
413,20.650000000000002,-9.263365386560077,-5.508746001113319,-12.825473354886793,-0.4255854820580929,0.17814302818470296,-1.1442228516125041,-0.015627352499691938,0.005925023067110402,-0.0411947950048841,0.0,70.0,255.0,255.0,255.0
414,20.700000000000003,-9.284664233787531,-5.499831489305679,-12.882736024324661,-0.42638351499245886,0.1784368500465483,-1.1462977398274,-0.016175518191907656,0.00592573461046797,-0.041702963370582324,0.0,70.0,255.0,255.0,255.0
415,20.75,-9.306003738059323,-5.490902316108664,-12.940103128869533,-0.42720303387728364,0.17873560164574975,-1.1483931479495624,-0.016378892303769987,0.006177682896879588,-0.04193410234858419,0.0,70.0,255.0,255.0,255.0
416,20.8,-9.32738453717526,-5.481957929141104,-12.997575339119617,-0.42802140422283586,0.17905461833623626,-1.1504911500622583,-0.016131021325094252,0.0067209104731347225,-0.04180346011057878,0.0,70.0,255.0,255.0,255.0
417,20.85,-9.348805878481606,-5.47299685427504,-13.055152243875758,-0.42881613600979307,0.17940769269306323,-1.1525734939606203,-0.015545835106678396,0.0074355359894973105,-0.04137890307429615,0.0,70.0,255.0,255.0,255.0
418,20.900000000000002,-9.370266150776239,-5.464017159871798,-13.11283268851568,-0.4295759877335037,0.179798171935186,-1.154629040369688,-0.014848597079897274,0.00810896749596779,-0.04080486863760058,0.0,70.0,255.0,255.0,255.0
419,20.950000000000003,-9.391763477254957,-5.455017037081522,-13.170615147912727,-0.4303009957177828,0.18021858944266,-1.1566539808243803,-0.014264896936388993,0.008531546318479855,-0.040231213520769415,0.0,70.0,255.0,255.0,255.0
420,21.0,-9.413296250348017,-5.445995300927532,-13.228498086598117,-0.4310024774271426,0.18065132656703398,-1.1586521617217649,-0.014020255355795541,0.00850157762624093,-0.03980729142973871,0.0,70.0,255.0,255.0,255.0
421,21.05,-9.43486372499767,-5.436951904424818,-13.286480364084904,-0.43170302125336235,0.1810687472052841,-1.1606347099673542,-0.014228561338036627,0.007928090001652066,-0.03961550826829807,0.0,70.0,255.0,255.0,255.0
422,21.1,-9.456466552473353,-5.427888426207003,-13.344561557594853,-0.43242533356094626,0.18144413556719918,-1.1626137125485947,-0.01478203097189379,0.0069496810465530245,-0.03962314237515585,0.0,70.0,255.0,255.0,255.0
423,21.150000000000002,-9.478106258353765,-5.418807490868098,-13.402741735339763,-0.43318122435055173,0.1817637153099394,-1.1645970242048698,-0.015463667107162848,0.0058345381838798005,-0.03975020596893586,0.0,70.0,255.0,255.0,255.0
424,21.200000000000003,-9.499784674908408,-5.409712054676009,-13.46102126001534,-0.43397170027166254,0.18202758938558716,-1.1665887331454883,-0.016058320636958,0.004860341188894779,-0.039918383011361414,0.0,70.0,255.0,255.0,255.0
425,21.25,-9.521503428380932,-5.40060473192954,-13.519400608654312,-0.43478705641424753,0.18224974942882888,-1.168588862506006,-0.016356123568783687,0.004296006598636382,-0.04004475058057011,0.0,70.0,255.0,255.0,255.0
426,21.3,-9.543263380549833,-5.3914870797331265,-13.57788014626594,-0.4356073126285409,0.1824571900454508,-1.1705932082035453,-0.016248159894161063,0.004280016232716122,-0.04008173292291417,0.0,70.0,255.0,255.0,255.0
427,21.35,-9.565064159643786,-5.3823590129249945,-13.636459929474666,-0.43641187240366364,0.1826777510521005,-1.1725970357982973,-0.015811448929525795,0.004717627935146851,-0.04004945982511998,0.0,70.0,255.0,255.0,255.0
428,21.400000000000002,-9.5869045677902,-5.373219304627916,-13.69513984984577,-0.4371884575214935,0.1829289528389655,-1.1745981541860573,-0.015211326567232675,0.005400991657111831,-0.039992535927169115,0.0,70.0,255.0,255.0,255.0
429,21.450000000000003,-9.608783005395935,-5.364066117641098,-13.753919744893272,-0.4379330050603869,0.18321785021781167,-1.1765962893910142,-0.014615107231819024,0.006113802213825181,-0.03994905396922377,0.0,70.0,255.0,255.0,255.0
430,21.5,-9.630697868296238,-5.354897519606135,-13.812799478784871,-0.4386499682446754,0.183540333060348,-1.1785930595829797,-0.014191241044869685,0.00663439597916593,-0.03996167827491348,0.0,70.0,255.0,255.0,255.0
431,21.55,-9.652648002220403,-5.345712084335063,-13.87177905085157,-0.4393521291648739,0.18388128981572827,-1.1805924572185056,-0.014031572976413997,0.006839583995255083,-0.04005084675160475,0.0,70.0,255.0,255.0,255.0
432,21.6,-9.674633081212725,-5.336509390624562,-13.930858724506722,-0.4400531255423168,0.1842242914598735,-1.1825981442581401,-0.01408853694613299,0.006784375976565116,-0.040179018323271976,0.0,70.0,255.0,255.0,255.0
433,21.650000000000002,-9.696653314774634,-5.327289655189076,-13.990038865277384,-0.44076098285948717,0.18455972741338478,-1.1846103590508328,-0.01425550214868565,0.00659524810062706,-0.04027965032484815,0.0,70.0,255.0,255.0,255.0
434,21.700000000000003,-9.718709179498674,-5.318053417883224,-14.049319760411805,-0.44147867575718536,0.18488381626993622,-1.186626109290625,-0.014427450903298222,0.006392049024572799,-0.040292114400308776,0.0,70.0,255.0,255.0,255.0
435,21.75,-9.740801182350353,-5.308801273562082,-14.108701476206447,-0.442203727949817,0.18519893231584206,-1.1886395704908637,-0.014486930899870742,0.006306362865160509,-0.04016056429012593,0.0,70.0,255.0,255.0,255.0
436,21.8,-9.762929552293656,-5.29953352465164,-14.168183717460892,-0.44292736884717243,0.18551445255645227,-1.1906421657196375,-0.014372774306004032,0.006407708392153211,-0.03986108053481985,0.0,70.0,255.0,255.0,255.0
437,21.85,-9.78509391923507,-5.290249828306437,-14.22776569277841,-0.4436410053804174,0.18583970315505738,-1.1926256785443456,-0.01415533568760452,0.006623935757410493,-0.03943623844371302,0.0,70.0,255.0,255.0,255.0
438,21.900000000000002,-9.807293652831698,-5.280949554336134,-14.287446285315326,-0.4443429024159329,0.18617684613219332,-1.1945857895640088,-0.013964893277673696,0.006819787501477492,-0.03896793037512225,0.0,70.0,255.0,255.0,255.0
439,21.950000000000003,-9.829528209476663,-5.271632143693218,-14.347224271734811,-0.44503749470818477,0.18652168190520513,-1.1965224715818579,-0.013922175401681613,0.0068709154413149065,-0.03854197560837491,0.0,70.0,255.0,255.0,255.0
440,22.0,-9.851797402302516,-5.2622973861456135,-14.407098532473512,-0.44573511995610104,0.1868639376763248,-1.1984399871248463,-0.014156979410628878,0.00664420850506886,-0.03824007388679718,0.0,70.0,255.0,255.0,255.0
441,22.05,-9.874101721472273,-5.252945749925585,-14.467068270447296,-0.44645319264924765,0.187186102755712,-1.2003464789705376,-0.014724416045552857,0.006082496188497544,-0.03810483111017504,0.0,70.0,255.0,255.0,255.0
442,22.1,-9.89644272156744,-5.243578775870042,-14.527133180370566,-0.44720756156065633,0.18747218729517456,-1.2022504702358638,-0.015488348742032088,0.0053216525551569305,-0.03811332393812705,0.0,70.0,255.0,255.0,255.0
443,22.150000000000002,-9.91882247762834,-5.234198531196068,-14.587293317470882,-0.44800202752345086,0.1877182680112277,-1.2041578113643503,-0.016205857143525293,0.004604669492636049,-0.03821133213772754,0.0,70.0,255.0,255.0,255.0
444,22.200000000000003,-9.941242924319786,-5.2248069490689195,-14.647548961507,-0.44882814727500886,0.18793265424443817,-1.2060716034496366,-0.016637786883144656,0.004170349815968422,-0.038339983168356184,0.0,70.0,255.0,255.0,255.0
445,22.25,-9.96370529235584,-5.215405265771624,-14.707900477815846,-0.44966580621176533,0.18813530299282455,-1.207991809681186,-0.016545198076123313,0.004256756495024661,-0.03843513083801042,0.0,70.0,255.0,255.0,255.0
446,22.3,-9.986209504940962,-5.205993418769637,-14.76834814247512,-0.4504826670826212,0.18835832989394063,-1.2099151165334376,-0.015821962443496318,0.004969905921115014,-0.03846010784425147,0.0,70.0,255.0,255.0,255.0
447,22.35,-10.008753559064102,-5.19656943278223,-14.82889198946919,-0.45124800245611496,0.18863229358493605,-1.211837820465611,-0.014657516429750217,0.0061232069352712415,-0.038431398203897515,0.0,70.0,255.0,255.0,255.0
448,22.400000000000002,-10.031334305186574,-5.1871301894111435,-14.88953192452168,-0.4519484187255962,0.18897065058746776,-1.2137582563538274,-0.01340710938588785,0.00736610329319376,-0.03838496951260595,0.0,70.0,255.0,255.0,255.0
449,22.450000000000003,-10.053948400936662,-5.177672367723483,-14.950267815104572,-0.45258871339470375,0.18936890391425543,-1.2156763174168717,-0.012432224852965135,0.00834213750877666,-0.0383518912531855,0.0,70.0,255.0,255.0,255.0
450,22.5,-10.076593176526044,-5.168193299019718,-15.011099556263368,-0.4531916412108927,0.18980486433834542,-1.217593445479146,-0.012090200310765908,0.00870079348702646,-0.03836737478870589,0.0,70.0,255.0,255.0,255.0
451,22.55,-10.099267565057751,-5.1586918812896485,-15.072027159652487,-0.45379773342578034,0.19023898326295807,-1.2195130548957422,-0.012554820426302626,0.00827079387990537,-0.03844802422570126,0.0,70.0,255.0,255.0,255.0
452,22.6,-10.121972949868622,-5.149169400693422,-15.133050861752942,-0.454447123253523,0.19063194372633596,-1.221438247901716,-0.013631702088900965,0.007235403153860176,-0.03856108324562513,0.0,70.0,255.0,255.0,255.0
453,22.650000000000002,-10.144712277383103,-5.139628686917015,-15.194170984442659,-0.45516090363467043,0.1909625235783441,-1.2233691632203048,-0.014934749602524278,0.005961873046356203,-0.03864878981207909,0.0,70.0,255.0,255.0,255.0
454,22.700000000000003,-10.16748904023209,-5.130073148335588,-15.255387778074972,-0.4559405982137754,0.19122813103097158,-1.225303126882924,-0.016073966388141514,0.004827160754050652,-0.038659165105769944,0.0,70.0,255.0,255.0,255.0
455,22.75,-10.19030633720448,-5.120505873813918,-15.316701297130951,-0.4567683002734846,0.19144523965374916,-1.2272350797308818,-0.01667404730145705,0.004212050909124798,-0.03854739797759521,0.0,70.0,255.0,255.0,255.0
456,22.8,-10.213165870259438,-5.110928624370213,-15.37811128604806,-0.4576080029439211,0.19164933612188406,-1.2291578666806835,-0.01653889571020528,0.004312979165455033,-0.03829399571966263,0.0,70.0,255.0,255.0,255.0
457,22.85,-10.236067137498873,-5.101340940201729,-15.43961708379902,-0.4584221898445051,0.19187653757029466,-1.231064479302848,-0.015786491064240238,0.004966136159545442,-0.037926040377023185,0.0,70.0,255.0,255.0,255.0
458,22.900000000000002,-10.259008089243888,-5.091740970613183,-15.501217733978345,-0.45918665205034515,0.1921459497378386,-1.2329504707183858,-0.01468307635246191,0.0058362879719275895,-0.03749893883799871,0.0,70.0,255.0,255.0,255.0
459,22.950000000000003,-10.281985802703907,-5.0821263452279455,-15.562912130870858,-0.4598904974797513,0.19246016636748742,-1.2348143731866479,-0.013498483022367225,0.006588846515143132,-0.03707093550353591,0.0,70.0,255.0,255.0,255.0
460,23.0,-10.304997138991864,-5.072494953976435,-15.62469917129701,-0.46053650035258187,0.19280483438935292,-1.2366575642687394,-0.012485591836330912,0.006875058820465796,-0.036687042624095056,0.0,70.0,255.0,255.0,255.0
461,23.05,-10.328039452739166,-5.06284586178901,-15.686577887297732,-0.4611390566633844,0.193147672249534,-1.2384830774490574,-0.011795144517989797,0.006517942138106747,-0.03637599289554316,0.0,70.0,255.0,255.0,255.0
462,23.1,-10.351111044658202,-5.053180186751481,-15.748547479041916,-0.46171601480438085,0.1934566286031636,-1.2402951635582937,-0.01145506092612436,0.005706392534143845,-0.03617205128438883,0.0,70.0,255.0,255.0,255.0
463,23.150000000000002,-10.374211054219604,-5.043500198928694,-15.810607403653561,-0.46228456275599683,0.19371831150294838,-1.2421002825774963,-0.011461896036379926,0.004805795579088112,-0.03611815879747127,0.0,70.0,255.0,255.0,255.0
464,23.200000000000003,-10.397339500933802,-5.033808355601186,-15.872757507299665,-0.46286220440801884,0.1939372081610724,-1.2439069794380408,-0.011811075881063005,0.004171112859019388,-0.0362503795944491,0.0,70.0,255.0,255.0,255.0
465,23.25,-10.420497274660406,-5.024106478112587,-15.934998101597365,-0.46346567034410313,0.19413542278885032,-1.2457253205369412,-0.01249556670490648,0.004167620569006658,-0.036608394230519536,0.0,70.0,255.0,255.0,255.0
466,23.3,-10.443686067968212,-5.014394813322301,-15.99733003935336,-0.4641117610785095,0.19435397021797307,-1.2475678188610928,-0.013482577501022774,0.004968911955849364,-0.03719634505241487,0.0,70.0,255.0,255.0,255.0
467,23.35,-10.466908450768257,-5.004671081090789,-16.059754883483475,-0.4648139280942054,0.19463231398443526,-1.2494449550421827,-0.01463158690953037,0.006321114217211488,-0.03790491532349449,0.0,70.0,255.0,255.0,255.0
468,23.400000000000002,-10.490167460777633,-4.994931581923858,-16.122274534857578,-0.4655749197694625,0.19498608163969422,-1.2513583103934423,-0.01570766117975353,0.0077468700375504795,-0.038547586809833945,0.0,70.0,255.0,255.0,255.0
469,23.450000000000003,-10.513465942745203,-4.98517247292682,-16.18489071452282,-0.46638469421218076,0.1954070009881903,-1.253299713723166,-0.016459264735679824,0.008774068015870995,-0.03893528504868016,0.0,70.0,255.0,255.0,255.0
470,23.5,-10.53680593019885,-4.975390881825039,-16.247604506229894,-0.4672208462430305,0.19586348844128132,-1.2552518388983103,-0.016644122696618524,0.008930542820095866,-0.03888739910209438,0.0,70.0,255.0,255.0,255.0
471,23.55,-10.560188027369506,-4.965586124082692,-16.31041589841265,-0.4680491064818426,0.1963000552701999,-1.2571884536333755,-0.016153519837658337,0.007992237543952285,-0.038324314540005844,0.0,70.0,255.0,255.0,255.0
472,23.6,-10.583610840847035,-4.955760876298019,-16.373323351593232,-0.46883619822679634,0.19666271219567655,-1.2590842703523109,-0.015147542483973098,0.006260805608704345,-0.03737453450654016,0.0,70.0,255.0,255.0,255.0
473,23.650000000000002,-10.607071647192186,-4.945919852863124,-16.43632432544788,-0.4695638607302399,0.19692613583107033,-1.2609259070840295,-0.013940186516414599,0.004316747580812574,-0.03628692519654919,0.0,70.0,255.0,255.0,255.0
474,23.700000000000003,-10.630567226920059,-4.936068262714912,-16.499415942301635,-0.4702302168784378,0.1970943869537578,-1.2627129628719658,-0.012864126248679497,0.0027447362890953286,-0.03532074128536067,0.0,70.0,255.0,255.0,255.0
475,23.75,-10.65409466888003,-4.926210414167748,-16.562595621735078,-0.4708502733551079,0.19720060945997986,-1.2644579812125656,-0.012251951832098484,0.002122142882843292,-0.034722009364074324,0.0,70.0,255.0,255.0,255.0
476,23.8,-10.67765225425557,-4.916348201768914,-16.62586174042289,-0.47145541206164765,0.19730660124204213,-1.2661851638083732,-0.012276117040777024,0.0027357975424635583,-0.034619683500380916,0.0,70.0,255.0,255.0,255.0
477,23.85,-10.701240210086194,-4.906479754043544,-16.689214138115915,-0.4720778850591856,0.19747418921422621,-1.2679199495626037,-0.012809198867458349,0.0043003719720324796,-0.03494883475951838,0.0,70.0,255.0,255.0,255.0
478,23.900000000000002,-10.724860042761488,-4.896600782847491,-16.752653735379152,-0.4727363319483935,0.19773663843924538,-1.269680047284325,-0.013581476205537513,0.006240591853323707,-0.03555282429132944,0.0,70.0,255.0,255.0,255.0
479,23.950000000000003,-10.748513843281033,-4.8867060901996195,-16.816182142844347,-0.4734360326797393,0.19809824839955859,-1.2714752319917366,-0.014323857307729781,0.007974352795869777,-0.03626846309821019,0.0,70.0,255.0,255.0,255.0
480,24.0,-10.772203646029462,-4.876790958007535,-16.879801258578325,-0.47416871767916646,0.19853407371883236,-1.273306893594146,-0.014772125917161816,0.008924941592880486,-0.03694456344156549,0.0,70.0,255.0,255.0,255.0
481,24.05,-10.79593071504895,-4.866852682827736,-16.943512832203762,-0.4749132452714555,0.19899074255884663,-1.2751696883358932,-0.014782664680090818,0.008791938253072118,-0.03748469038384883,0.0,70.0,255.0,255.0,255.0
482,24.1,-10.819694970556608,-4.856891883751651,-17.007318227411915,-0.47564698414717554,0.19941326754413957,-1.277055362632531,-0.014422002374026022,0.007792158717290221,-0.03783469522034011,0.0,70.0,255.0,255.0,255.0
483,24.150000000000002,-10.843495413463668,-4.846911356073322,-17.071218368467015,-0.4763554455088581,0.19976995843057566,-1.2789531578579272,-0.013846729174815664,0.006385593630486852,-0.03793553055473353,0.0,70.0,255.0,255.0,255.0
484,24.200000000000003,-10.867330515107493,-4.836914887908593,-17.135213543197708,-0.4770316570646571,0.20005182690718826,-1.2808489156880043,-0.01320753076736736,0.005031512201192356,-0.037726431964202334,0.0,70.0,255.0,255.0,255.0
485,24.25,-10.891198579170133,-4.8269061733826035,-17.199303260035816,-0.47767619858559485,0.2002731096506949,-1.2827258010543474,-0.012643507201737236,0.004190025478045811,-0.03714374619292471,0.0,70.0,255.0,255.0,255.0
486,24.3,-10.915098134966053,-4.8168875769435235,-17.263486123303142,-0.47829600778483083,0.20047082945499284,-1.2845632903072968,-0.01223928484552772,0.004108570657557209,-0.03618001650060876,0.0,70.0,255.0,255.0,255.0
487,24.35,-10.939028179948616,-4.806859090437104,-17.327759589066545,-0.4789001270701476,0.2006839667164506,-1.2863438027044083,-0.012019155274245463,0.004641016468820425,-0.03499499508201609,0.0,70.0,255.0,255.0,255.0
488,24.400000000000002,-10.962988147673068,-4.7968191802718785,-17.392120503573583,-0.4794979233122554,0.20093493110187488,-1.2880627898154984,-0.011996082618104253,0.005468688636245389,-0.03386496025115093,0.0,70.0,255.0,255.0,255.0
489,24.450000000000003,-10.986977972279842,-4.786765597326917,-17.456565868048095,-0.48009973533195804,0.20123083558007515,-1.2897302987295234,-0.012185506801998258,0.006285425905172559,-0.03307755729657913,0.0,70.0,255.0,255.0,255.0
490,24.5,-11.010998121206264,-4.776696096713871,-17.521093533446535,-0.4807164739924552,0.20156347369239214,-1.2913705455451563,-0.01260983595301468,0.006791040410902838,-0.032916442463104545,0.0,70.0,255.0,255.0,255.0
491,24.55,-11.035049619679087,-4.7666092499576775,-17.58570292260261,-0.4813607189272595,0.20190993962116544,-1.2930219429758338,-0.013261221579341509,0.0068211450835242715,-0.033509555967370375,0.0,70.0,255.0,255.0,255.0
492,24.6,-11.05913419309899,-4.756505102751754,-17.65039572774412,-0.48204259615038936,0.20224558820074456,-1.2947215011418933,-0.014020537368253372,0.006450115734502049,-0.03465637340092087,0.0,70.0,255.0,255.0,255.0
493,24.650000000000002,-11.083253879294126,-4.746384691137603,-17.7151750727168,-0.48276277266408485,0.20255495119461564,-1.296487580315926,-0.01468810119114039,0.005852472337775083,-0.03597190116835236,0.0,70.0,255.0,255.0,255.0
494,24.700000000000003,-11.107410470365398,-4.736249607632293,-17.78004448577571,-0.4835114062695034,0.20283083543452207,-1.2983186912587286,-0.015058180951577071,0.005193870424946567,-0.03705779106510931,0.0,70.0,255.0,255.0,255.0
495,24.75,-11.131605019921077,-4.726101607594151,-17.845006941842673,-0.48426859075924256,0.2030743382371103,-1.3001933594224369,-0.014925167635126968,0.00462977558273181,-0.03751850260336198,0.0,70.0,255.0,255.0,255.0
496,24.8,-11.155837329441322,-4.715942173808582,-17.910063821717955,-0.4850039230330161,0.20329381299279525,-1.3020705415190648,-0.014201516482792442,0.0042529096138110845,-0.03715518620275304,0.0,70.0,255.0,255.0,255.0
497,24.85,-11.180105412224378,-4.705772226294871,-17.97521399599458,-0.4856887424075218,0.2034996291984914,-1.3039088780427122,-0.013064942338125718,0.004074884228622011,-0.03615032716304256,0.0,70.0,255.0,255.0,255.0
498,24.900000000000002,-11.204406203682074,-4.695592210888733,-18.040454709522226,-0.48631041726682867,0.20370130141565745,-1.305685574235369,-0.011846943853299763,0.004085897537375871,-0.03487661922356722,0.0,70.0,255.0,255.0,255.0
499,24.950000000000003,-11.228736453951061,-4.685402096153306,-18.105782553418116,-0.4868734367928518,0.203908218952229,-1.3073965399650689,-0.010887317177044054,0.0042785795750788225,-0.03371113858428032,0.0,70.0,255.0,255.0,255.0
500,25.0,-11.25309354736136,-4.67520138899351,-18.171194363518733,-0.48739914898453307,0.20412915937316534,-1.309056688093797,-0.010517465535109238,0.004645847934625635,-0.033029500504611065,0.0,70.0,255.0,255.0,255.0
501,25.05,-11.277476368849515,-4.664989180215989,-18.236688222227496,-0.4879251833463627,0.20437280374569156,-1.31069949001553,-0.010899798737007416,0.005168242101927234,-0.03302904654169936,0.0,70.0,255.0,255.0,255.0
502,25.1,-11.301886065695996,-4.654764108618941,-18.302264312520286,-0.4884891288582338,0.20464598358335806,-1.312359592747967,-0.011869809828013445,0.005769508189334971,-0.03357327365733909,0.0,70.0,255.0,255.0,255.0
503,25.150000000000002,-11.326325281735338,-4.644524581857653,-18.367924181502293,-0.48911216432916405,0.20494975456462505,-1.314056817381264,-0.013093167684807838,0.006323098352201129,-0.03437150538694311,0.0,70.0,255.0,255.0,255.0
504,25.200000000000003,-11.350797282128912,-4.634269133162478,-18.433669994258413,-0.4897984456267146,0.20527829341857817,-1.3157967432866613,-0.014226489734348036,0.0066928369164109824,-0.03513728163930807,0.0,70.0,255.0,255.0,255.0
505,25.25,-11.37530512629801,-4.6239967525157954,-18.49950385583096,-0.49053481330259885,0.20561903825626615,-1.3175705455451947,-0.01493298887158545,0.00674282335486609,-0.0355875513207593,0.0,70.0,255.0,255.0,255.0
506,25.3,-11.399850763459172,-4.6137072293368515,-18.565427048812932,-0.49129174451387314,0.20595257575406478,-1.3193554984187372,-0.015033227962213402,0.0064136091578070875,-0.035569280310099316,0.0,70.0,255.0,255.0,255.0
507,25.35,-11.424434300749397,-4.603401494940389,-18.631439405672833,-0.4920381360988202,0.20626039917204686,-1.3211274735762046,-0.014624862638434877,0.005811558538226791,-0.03516291853635778,0.0,70.0,255.0,255.0,255.0
508,25.400000000000002,-11.449054577069054,-4.593081189419647,-18.697539796170553,-0.49275423077771663,0.20653373160788746,-1.322871790272373,-0.013930501960324193,0.005138072690069606,-0.03455017974118846,0.0,70.0,255.0,255.0,255.0
509,25.450000000000003,-11.473709723827168,-4.5827481217796,-18.76372658470007,-0.4934311862948526,0.20677420644105382,-1.3245824915503235,-0.01317381013503649,0.004602846652534964,-0.03390682110442356,0.0,70.0,255.0,255.0,255.0
510,25.5,-11.49839769569854,-4.572403768775541,-18.829998045325585,-0.4940716117912203,0.20699401627314096,-1.3262624723828154,-0.012578551003628036,0.0044188493218300096,-0.03340425691433779,0.0,70.0,255.0,255.0,255.0
511,25.55,-11.52311688500629,-4.562048720152286,-18.89635283193835,-0.4946890413952154,0.20721609137323682,-1.3279229172417573,-0.012272837197357944,0.004690607979718209,-0.03313989282354157,0.0,70.0,255.0,255.0,255.0
512,25.6,-11.547866599838061,-4.551682159638218,-18.96279033704976,-0.49529889551095607,0.20746307707111278,-1.3295764616651695,-0.01222617085527844,0.0052988497321493355,-0.03309141583756059,0.0,70.0,255.0,255.0,255.0
513,25.650000000000002,-11.572646774557386,-4.541302412445175,-19.02931047810487,-0.49591165848074326,0.20774597634645176,-1.3312320588255133,-0.012351071562299865,0.006010018812574458,-0.033192251172309284,0.0,70.0,255.0,255.0,255.0
514,25.700000000000003,-11.597457765686135,-4.530907562003573,-19.095913542932312,-0.49653400266718606,0.20806407895237022,-1.3328956867824004,-0.012570670657829908,0.006589203047546732,-0.03338163440709252,0.0,70.0,255.0,255.0,255.0
515,25.75,-11.622300174824105,-4.520496004549938,-19.16260004678311,-0.49716872554652625,0.20840489665120643,-1.3345702222662226,-0.01281285373213592,0.006797816654025013,-0.03360343966853918,0.0,70.0,255.0,255.0,255.0
516,25.8,-11.647174638240788,-4.510067072338452,-19.229370565158934,-0.49781528804039965,0.20874386061777273,-1.3362560307492544,-0.013029362642313913,0.006517385496351835,-0.03381837450326941,0.0,70.0,255.0,255.0,255.0
517,25.85,-11.672081703628145,-4.499621618488161,-19.296225649858034,-0.49847166181075764,0.2090566352008416,-1.3379520597165495,-0.013191386342370492,0.005878450458585149,-0.03399235051979588,0.0,70.0,255.0,255.0,255.0
518,25.900000000000002,-11.697021804421864,-4.489161408818368,-19.36316577113059,-0.4991344266746367,0.20933170566363124,-1.339655265801234,-0.01326344022842818,0.005136444134290485,-0.03407904400667405,0.0,70.0,255.0,255.0,255.0
519,25.950000000000003,-11.721995146295608,-4.478688447921797,-19.430191176438157,-0.49979800583360046,0.20957027961427066,-1.341359964117217,-0.013204020053514398,0.004546914584668826,-0.03402715408356016,0.0,70.0,255.0,255.0,255.0
520,26.0,-11.747001605005224,-4.468204380856941,-19.49730176754231,-0.5004548286799881,0.20978639712209812,-1.34305798120959,-0.01297003406790509,0.0043738467655707325,-0.03378198441161828,0.0,70.0,255.0,255.0,255.0
521,26.05,-11.772040629163607,-4.457709808209588,-19.564496974559116,-0.501095009240391,0.21000766429082773,-1.3447381625583787,-0.012549199413847134,0.004746423460488813,-0.033326096343699874,0.0,70.0,255.0,255.0,255.0
522,26.1,-11.797111105929263,-4.447203614427858,-19.63177558379815,-0.5017097486213729,0.210261039468147,-1.34639059084396,-0.012010055338684822,0.00550194050861208,-0.03274095364851348,0.0,70.0,255.0,255.0,255.0
523,26.150000000000002,-11.822211604025744,-4.436683704262773,-19.699136033643512,-0.5022960147742594,0.21055785834168894,-1.34801225792323,-0.011474235122754806,0.006329612575850518,-0.03217064039944262,0.0,70.0,255.0,255.0,255.0
524,26.200000000000003,-11.847340707406689,-4.426147828593689,-19.76657680959047,-0.5028571721336483,0.21089400072573206,-1.3496076548839042,-0.011066023018990734,0.006923278474424421,-0.03176252314602834,0.0,70.0,255.0,255.0,255.0
525,26.25,-11.87249732123911,-4.4155943041902,-19.834096799131903,-0.5034026170761585,0.21125018618913138,-1.351188510237833,-0.010898991347652043,0.006974861551789502,-0.03166060403536619,0.0,70.0,255.0,255.0,255.0
526,26.3,-11.897680969114305,-4.405022809974776,-19.901695660614255,-0.5039470712684135,0.211591486880911,-1.3527737152874408,-0.011027639235194897,0.00633654770041403,-0.03193103965841715,0.0,70.0,255.0,255.0,255.0
527,26.35,-11.92289202836595,-4.394435155502109,-19.969374170660647,-0.504505380999678,0.2118838409591728,-1.3543816142036746,-0.01140391677854069,0.005200966994411971,-0.03247935936627755,0.0,70.0,255.0,255.0,255.0
528,26.400000000000002,-11.948131507214272,-4.383834425878859,-20.037133822034622,-0.5050874629462676,0.2121115835803522,-1.3560216512240686,-0.011923255646628661,0.003938765236100039,-0.03312203075935827,0.0,70.0,255.0,255.0,255.0
529,26.450000000000003,-11.973400774660577,-4.373223997144073,-20.104976335783054,-0.5056977065643409,0.2122777174827828,-1.3576938172796105,-0.012472400691621033,0.0029193188373355383,-0.03366997943565764,0.0,70.0,255.0,255.0,255.0
530,26.5,-11.998701277870707,-4.36260665413058,-20.172903203762584,-0.5063347030154297,0.21240351546408576,-1.3593886491676344,-0.012945981891832048,0.002502651083524654,-0.033939608768562834,0.0,70.0,255.0,255.0,255.0
531,26.55,-12.02403424496212,-4.351983645597665,-20.240915200699817,-0.5069923047535241,0.21252798259113526,-1.3610877781564668,-0.013280756465228194,0.002867758697533418,-0.03383645831114279,0.0,70.0,255.0,255.0,255.0
532,26.6,-12.049400508346059,-4.341353855871467,-20.30901198157823,-0.5076627786619525,0.2126902913338391,-1.3627722949987486,-0.013457913910741581,0.0038443080639716243,-0.033427016815323896,0.0,70.0,255.0,255.0,255.0
533,26.650000000000002,-12.074800522828316,-4.330714616464281,-20.377192430199692,-0.5083380961445982,0.21291241339753242,-1.3644304798379991,-0.0134682667672692,0.005084370768670965,-0.03285582863838954,0.0,70.0,255.0,255.0,255.0
534,26.700000000000003,-12.100234317960519,-4.320062614531714,-20.44545502956203,-0.5090096053386794,0.2131987284107062,-1.3660578778625876,-0.013304887036014179,0.006233385569842653,-0.03227084582277939,0.0,70.0,255.0,255.0,255.0
535,26.75,-12.125701483362183,-4.30939474362321,-20.51379821798595,-0.5096685848481997,0.21353575195451668,-1.367657564420277,-0.012961090408047937,0.006942552762811971,-0.031816951563001794,0.0,70.0,255.0,255.0,255.0
536,26.8,-12.151201176445339,-4.298709039336262,-20.582220786004058,-0.5103057143794842,0.2138929836869874,-1.3692395730188878,-0.012448309262502733,0.007026356903683251,-0.03157590099220897,0.0,70.0,255.0,255.0,255.0
