idx,t,px,py,pz,vx,vy,vz,ax,ay,az,yaw,mode,ledr,ledg,ledb
0,0.0,13.500000000000012,-7.5000000000000036,1.0460776154247579e-18,-0.0011566306082499977,-0.0007561178007797764,0.0010320574368609626,0.02424420405482408,0.008240785338564649,-0.035413716245739774,0.0,70.0,255.0,255.0,255.0
1,0.05,13.4999421684696,-7.5000378058900425,5.160287184304918e-05,5.557959449120631e-05,-0.00034407853385154397,-0.0007386283754260261,0.03613578057546363,0.012131079840482784,-0.052993859837892184,0.0,70.0,255.0,255.0,255.0
2,0.1,13.500005557959462,-7.500034407853389,-7.386283754260156e-05,0.002456947449296365,0.00045699018326850194,-0.004267328546928256,0.047566306082202914,0.015561178007850174,-0.07032057436860965,0.0,70.0,255.0,255.0,255.0
3,0.15000000000000002,13.50018786321453,-7.499992106871716,-0.0003751299828497764,0.004812210202711498,0.0012120392669334734,-0.007770685812286992,0.0466442040574222,0.014640785337061146,-0.06981371624574342,0.0,70.0,255.0,255.0,255.0
4,0.2,13.500486778979733,-7.499913203926695,-0.0008509314187713008,0.007121367855038585,0.0019210687169746166,-0.011248700171502599,0.04571618380584397,0.01371451030403037,-0.06930293802239469,0.0,70.0,255.0,255.0,255.0
5,0.25,13.500900000000033,-7.499800000000018,-0.0015000000000000365,0.009383828583295895,0.0025834902973365104,-0.014700979614526462,0.04475413375821802,0.012754411682980304,-0.0687696192212799,0.0,70.0,255.0,255.0,255.0
6,0.30000000000000004,13.501425161838062,-7.499654854896962,-0.002321029380223947,0.011596781230860387,0.003196509885272647,-0.01812566209363059,0.04374901219534877,0.011751502522994173,-0.06820777080001215,0.0,70.0,255.0,255.0,255.0
7,0.35000000000000003,13.50205967812312,-7.499480349011491,-0.0033125662093630957,0.013758729802830771,0.0037586405496359276,-0.021521756694527678,0.04277792042568507,0.010782416952448415,-0.06766846295650678,0.0,70.0,255.0,255.0,255.0
8,0.4,13.502801034818345,-7.499278990841998,-0.004473205049676715,0.015874573273428894,0.0042747515805174885,-0.024892508389281268,0.04196399038711718,0.00996954081946555,-0.06723325555907297,0.0,70.0,255.0,255.0,255.0
9,0.45,13.503647135450462,-7.499052873853439,-0.0058018170482912225,0.01795512884154249,0.004755594631582483,-0.028245082250434976,0.04140939219450246,0.009414303112009748,-0.06696973744420263,0.0,70.0,255.0,255.0,255.0
10,0.5,13.5045965477025,-7.49880343137884,-0.007297713274720213,0.02001551249287914,0.005216181891718463,-0.03158948213370153,0.041190090017728664,0.009191628040916555,-0.06692781530203328,0.0,70.0,255.0,255.0,255.0
11,0.55,13.50564868669975,-7.498531255664267,-0.008960765261661376,0.022074137843315356,0.005674757435674138,-0.034937863780638304,0.041331208965900146,0.00932630203323015,-0.0671239994832503,0.0,70.0,255.0,255.0,255.0
12,0.6000000000000001,13.506803961486831,-7.4982359556352725,-0.010791499652784043,0.024148633389469154,0.006148812095041478,-0.03830188208202656,0.04176699400151307,0.00975455832463723,-0.0675158606095036,0.0,70.0,255.0,255.0,255.0
13,0.65,13.508063550038697,-7.497916374454763,-0.012790953469864032,0.026250837243466663,0.006650213268137861,-0.04168944984158866,0.04236475607797274,0.010347050877612674,-0.06801730552208028,0.0,70.0,255.0,255.0,255.0
14,0.7000000000000001,13.509429045211178,-7.497570934308459,-0.01496044463694291,0.02838510899726643,0.0071835171828027455,-0.04510361263423459,0.04296547353153102,0.0109482843255293,-0.06852705347799734,0.0,70.0,255.0,255.0,255.0
15,0.75,13.510902060938424,-7.497198022736483,-0.01730131473328749,0.030547384596619764,0.007745041700690791,-0.0485421551893884,0.04340355601417656,0.011397403919488625,-0.06894869217182104,0.0,70.0,255.0,255.0,255.0
16,0.8,13.51248378367084,-7.49679643013839,-0.01981466015588175,0.032725464598684084,0.008323257574751608,-0.05199848185141669,0.04358783278135547,0.011605006048842625,-0.06922611070030504,0.0,70.0,255.0,255.0,255.0
17,0.8500000000000001,13.514174607398292,-7.496365696979008,-0.02250116291842916,0.03490616787475531,0.008905542305575054,-0.0554647662594189,0.0435586723330772,0.011603918514868639,-0.06935173096911627,0.0,70.0,255.0,255.0,255.0
18,0.9,13.515974400458315,-7.495905875907832,-0.02536113678182364,0.037081331831991804,0.009483649426238472,-0.05893365494832832,0.04341073821301222,0.011476008584754283,-0.06933304682813085,0.0,70.0,255.0,255.0,255.0
19,0.9500000000000001,13.517882740581491,-7.495417332036384,-0.028394528413261993,0.039247241696056534,0.010053143164050482,-0.06239807094223199,0.0432363127464086,0.011300158652804981,-0.0691825614643228,0.0,70.0,255.0,255.0,255.0
20,1.0,13.519899124627921,-7.494900561591427,-0.03160094387604684,0.041404963106632664,0.01061366529151897,-0.0658519110947606,0.043135639307401163,0.011158709660197275,-0.06892142533469411,0.0,70.0,255.0,255.0,255.0
21,1.05,13.522023236892155,-7.494355965507232,-0.034979719522738054,0.04356080562679665,0.01116901413007021,-0.0692902134757014,0.04316352051567662,0.011099734377317816,-0.06857053207450545,0.0,70.0,255.0,255.0,255.0
22,1.1,13.5242552051906,-7.49378366017842,-0.03852996522361698,0.045721315158200326,0.011723638729250752,-0.07270896430221115,0.04327738426557204,0.011108835215978274,-0.0681580546748689,0.0,70.0,255.0,255.0,255.0
23,1.1500000000000001,13.526595368407975,-7.493183601634307,-0.04225061595295917,0.047888544053353854,0.012279897651668037,-0.07610601894318829,0.043394062630142116,0.01115068634582883,-0.0677313463262344,0.0,70.0,255.0,255.0,255.0
24,1.2000000000000002,13.529044059595936,-7.492555670413253,-0.04614056711793581,0.05006072142121454,0.012838707363833635,-0.07948209893483459,0.04344218923488796,0.011197281528296799,-0.06734838831040299,0.0,70.0,255.0,255.0,255.0
25,1.25,13.531601440550096,-7.491899730897924,-0.05019882584644263,0.05223276297684265,0.013399625804497717,-0.08284085777422859,0.043357942700339436,0.011219785410876426,-0.0670616437854446,0.0,70.0,255.0,255.0,255.0
26,1.3,13.53426733589362,-7.491215707832803,-0.054424652895358666,0.05439651569124848,0.013960685904921277,-0.08618826331337905,0.04311099890816905,0.011202769729301565,-0.06689847428838908,0.0,70.0,255.0,255.0,255.0
27,1.35,13.537041092119221,-7.4905036623074315,-0.05881765217778053,0.056543862867659556,0.014519902777427873,-0.0895307052030675,0.042733562168706385,0.011160740621996013,-0.06685334636869766,0.0,70.0,255.0,255.0,255.0
28,1.4000000000000001,13.539921722180386,-7.489763717555061,-0.06337772341566542,0.05866987190811912,0.015076759967120879,-0.09287359795024881,0.04229207886634612,0.011121246032708143,-0.06690427182963476,0.0,70.0,255.0,255.0,255.0
29,1.4500000000000002,13.542908079310033,-7.488995986310719,-0.06810501197280541,0.06077307075429417,0.015632027380698688,-0.09622113238603097,0.04185441749200436,0.011110715233098034,-0.06702388529407285,0.0,70.0,255.0,255.0,255.0
30,1.5,13.545999029255816,-7.488200514816991,-0.07299983665426851,0.06285531365731956,0.016187831490430682,-0.0995759864796561,0.041476599215073406,0.01116214869503196,-0.06718799019951732,0.0,70.0,255.0,255.0,255.0
31,1.55,13.549193610675765,-7.487377203161676,-0.07806261062077102,0.06492073067580151,0.016748242250201884,-0.1029399314059827,0.04119248385148211,0.011289186706697762,-0.06737608359245334,0.0,70.0,255.0,255.0,255.0
32,1.6,13.552491102323396,-7.486525690591971,-0.08329382979486678,0.06697456204246777,0.017316750161100458,-0.10631359483890143,0.041025663097471465,0.011448202296016063,-0.06754949225127316,0.0,70.0,255.0,255.0,255.0
33,1.6500000000000001,13.555891066880012,-7.485645528145566,-0.08869397010466117,0.06902329698554865,0.01789306247980349,-0.10969488063111002,0.04100032586737967,0.011564329522872896,-0.067649794793459,0.0,70.0,255.0,255.0,255.0
34,1.7000000000000002,13.55939343202195,-7.48473638434399,-0.09426331785797779,0.07107459462920573,0.018473183113387748,-0.11307857431824733,0.04113342750979854,0.011566570826815337,-0.0676165833338252,0.0,70.0,255.0,255.0,255.0
35,1.75,13.562998526342932,-7.4837982098342275,-0.1000018275364859,0.07313663973652851,0.019049719562485024,-0.11645653896449254,0.04143962314397953,0.011383647780949246,-0.06738639541647301,0.0,70.0,255.0,255.0,255.0
36,1.8,13.566707095995604,-7.482831412387742,-0.10590897175442704,0.07521855694360369,0.019611547891482672,-0.11981721385989463,0.041913378040803195,0.01098668391019686,-0.06693667852127744,0.0,70.0,255.0,255.0,255.0
37,1.85,13.570520382037293,-7.481837055045079,-0.11198354892247536,0.07732797754060883,0.02014838795350471,-0.12315020681662028,0.042482946279776,0.010448221754888465,-0.06635045618799129,0.0,70.0,255.0,255.0,255.0
38,1.9000000000000001,13.574439893749664,-7.480816573592391,-0.11822399243608907,0.07946685157158129,0.02065637006697152,-0.12645225947869376,0.04302577850268108,0.00990050347393634,-0.0657756165956147,0.0,70.0,255.0,255.0,255.0
39,1.9500000000000002,13.57846706719445,-7.479771418038382,-0.12462877487034474,0.08163055539087694,0.021138438300898343,-0.12972776847618175,0.043412898110162246,0.009475775353706695,-0.06536255526340129,0.0,70.0,255.0,255.0,255.0
40,2.0,13.582602949288752,-7.478702729762301,-0.13119676928370724,0.08380814138259751,0.02160394760234219,-0.1329885150050339,0.04352089888577382,0.009295241533990861,-0.06525840948655576,0.0,70.0,255.0,255.0,255.0
41,2.0500000000000003,13.58684788133271,-7.477611023278148,-0.13792762637084813,0.08598264527945432,0.02206796245429743,-0.13625360942483733,0.04329349116503067,0.009417877185846635,-0.06553100185624217,0.0,70.0,255.0,255.0,255.0
42,2.1,13.591201213816698,-7.476495933516872,-0.14482213022619098,0.08813749049910058,0.022545735320926852,-0.1395416151906581,0.04280702730632413,0.009794435159271586,-0.06608420747228061,0.0,70.0,255.0,255.0,255.0
43,2.15,13.59566163038262,-7.475356449746055,-0.15188178788991394,0.09026334801008673,0.023047405970224588,-0.1428620301720654,0.042212923758100374,0.010317292944606038,-0.06673137518772299,0.0,70.0,255.0,255.0,255.0
44,2.2,13.600227548617706,-7.474191192919849,-0.15910833324339752,0.09235878287491062,0.023577464615387456,-0.1462147527094304,0.04167446723020163,0.01087084057989074,-0.06728042171981752,0.0,70.0,255.0,255.0,255.0
45,2.25,13.604897508670112,-7.472998703284516,-0.16650326316085698,0.0944307947331069,0.024134490028213662,-0.14959007234404714,0.04136479996024178,0.011347367435643463,-0.06754397596129558,0.0,70.0,255.0,255.0,255.0
46,2.3000000000000003,13.609670628091017,-7.471777743917028,-0.17406734047780223,0.0964952628709348,0.024712201358951802,-0.15296915030555996,0.041372144477946904,0.011682320166439553,-0.06742602734046144,0.0,70.0,255.0,255.0,255.0
47,2.35,13.614547034957205,-7.470527483148621,-0.18180017819141298,0.09856800918090158,0.025302722044857617,-0.15633267507809329,0.041605308131131835,0.01185767397178239,-0.06699812184829124,0.0,70.0,255.0,255.0,255.0
48,2.4000000000000004,13.619527429009107,-7.469247471712542,-0.18970060798561156,0.10065579368404798,0.02589796875613004,-0.1596689624903891,0.04188700199136974,0.011865849222569835,-0.06641347472808312,0.0,70.0,255.0,255.0,255.0
49,2.45,13.62461261432561,-7.467937686273008,-0.19776707444045188,0.10275670938003856,0.0264893069671146,-0.1629740225509016,0.042042146722032214,0.011701375146344617,-0.06582904457064498,0.0,70.0,255.0,255.0,255.0
50,2.5,13.629803099947111,-7.466598541015831,-0.20599801024070172,0.1048600083562512,0.027068106270764503,-0.16625186694745359,0.041879947889889024,0.011359298047697308,-0.06540167734426505,0.0,70.0,255.0,255.0,255.0
51,2.5500000000000003,13.635098615161235,-7.465230875645932,-0.21439226113519724,0.10694470416902746,0.02762523677188433,-0.1695141902853281,0.041311357496987,0.010851816508150591,-0.06521766267467144,0.0,70.0,255.0,255.0,255.0
52,2.6,13.640497570364014,-7.463836017338642,-0.22294942926923453,0.1089911441059499,0.02815328792157956,-0.17277363321492073,0.040494444133543084,0.010255708114659257,-0.06523966877090559,0.0,70.0,255.0,255.0,255.0
53,2.6500000000000004,13.64599772957183,-7.462415546853774,-0.23166962445668932,0.11099414858238177,0.028650807583350257,-0.17603815716241866,0.03971636431518988,0.009700149325375662,-0.06537920142442033,0.0,70.0,255.0,255.0,255.0
54,2.7,13.651596985222252,-7.460970936580307,-0.2405532449854764,0.11296278053746889,0.029123302854117128,-0.17931155335736276,0.03925680602154813,0.009322633193864505,-0.06554960046379066,0.0,70.0,255.0,255.0,255.0
55,2.75,13.657294007625577,-7.459503216568362,-0.2496007797924256,0.11491982918453658,0.029583070902736708,-0.18259311720879773,0.039403333885701386,0.009259449697918143,-0.06565733330968215,0.0,70.0,255.0,255.0,255.0
56,2.8000000000000003,13.663088968140706,-7.4580126294900335,-0.25881255670635617,0.11690311392603903,0.030049247823908942,-0.18587728668833098,0.040283311315114645,0.009570926620572351,-0.06565054806809967,0.0,70.0,255.0,255.0,255.0
57,2.85,13.66898431901818,-7.456498291785971,-0.2681885084612587,0.11894816031604805,0.030540163564793943,-0.1891581720156077,0.041650668249815226,0.010155018045399089,-0.0655641354690123,0.0,70.0,255.0,255.0,255.0
58,2.9000000000000004,13.67498378417231,-7.454958613133554,-0.27772837390791694,0.12106818075102055,0.03106474962844885,-0.1924337002352322,0.04305210951294214,0.010817189840217623,-0.06546794801247091,0.0,70.0,255.0,255.0,255.0
59,2.95,13.681091137093283,-7.453391816823126,-0.2874318784847819,0.12325337126734226,0.031621882548815705,-0.1957049668168548,0.0440317946928559,0.011355318185035657,-0.06542635310797795,0.0,70.0,255.0,255.0,255.0
60,3.0,13.687309121299045,-7.4517964248786726,-0.2972988705896024,0.12547136022030614,0.03220028144695242,-0.19897633554603,0.04413077251133046,0.011566912484806124,-0.06551696144497243,0.0,70.0,255.0,255.0,255.0
61,3.0500000000000003,13.693638273115313,-7.450171788678431,-0.3073295120393849,0.1276664485184753,0.03277857379729632,-0.20225666296135203,0.04313451146202851,0.011351190296249314,-0.06577343176622508,0.0,70.0,255.0,255.0,255.0
62,3.1,13.700075766150892,-7.448518567498943,-0.3175245368857376,0.129784811366509,0.03333540047657735,-0.2055536787226525,0.041354537878568465,0.010809627629004837,-0.06610378935307248,0.0,70.0,255.0,255.0,255.0
63,3.1500000000000004,13.706616754251964,-7.446838248630773,-0.32788487991165016,0.13180190230633215,0.0338595365601968,-0.20886704189665928,0.039385220942378396,0.01014568338861821,-0.06634900652568443,0.0,70.0,255.0,255.0,255.0
64,3.2,13.713255956381525,-7.445132613842923,-0.33841124107540355,0.13372333346074683,0.03434996881543917,-0.21218857937522095,0.037828136419015834,0.009562667492879484,-0.06635841367768625,0.0,70.0,255.0,255.0,255.0
65,3.25,13.719989087598039,-7.4434032517492295,-0.34910373784917226,0.13558471594823374,0.03481580330948475,-0.2155028832644279,0.037285510802220756,0.009256863066564591,-0.06597887685451664,0.0,70.0,255.0,255.0,255.0
66,3.3000000000000003,13.726814427976349,-7.441651033511975,-0.35996152940184634,0.1374518845409689,0.03527565512209563,-0.21878646706067262,0.038052302510749314,0.009330885620340013,-0.06514812579940799,0.0,70.0,255.0,255.0,255.0
67,3.35,13.733734276052136,-7.43987568623702,-0.3709823845552395,0.13938994619930867,0.03574889187151875,-0.2220176958443687,0.039795888858407125,0.009721063513268291,-0.0640242502422117,0.0,70.0,255.0,255.0,255.0
68,3.4000000000000004,13.74075342259628,-7.438076144324823,-0.3821632989862832,0.14143147342680962,0.03624776147342246,-0.2251888920848938,0.04186145893108062,0.010285484531191713,-0.06289416108293255,0.0,70.0,255.0,255.0,255.0
69,3.45,13.747877423394817,-7.436250910089678,-0.3935012737637289,0.14357609209241673,0.03677744032463792,-0.22830711195266196,0.04358973888720641,0.010880725130224533,-0.06204553996684292,0.0,70.0,255.0,255.0,255.0
70,3.5,13.755111031805521,-7.434398400292359,-0.4049940101815494,0.14579044731553026,0.03733583398644491,-0.23139344608157808,0.04432326819703292,0.011369644573200333,-0.06175149384092249,0.0,70.0,255.0,255.0,255.0
71,3.5500000000000003,13.76245646812637,-7.432517326691033,-0.4166406183718867,0.14800841891212002,0.037914404781957955,-0.2344822613367542,0.04372984492633236,0.011672493328873657,-0.06214166410370425,0.0,70.0,255.0,255.0,255.0
72,3.6,13.769911873696733,-7.430606959814163,-0.4284422363152248,0.1501634318081635,0.038503083319332276,-0.2376076124919485,0.042118130463464354,0.011789754680968656,-0.06307025862911653,0.0,70.0,255.0,255.0,255.0
73,3.6500000000000004,13.777472811307186,-7.4286670183591,-0.44040137962108156,0.15222023195846646,0.03909338025005482,-0.24078928719966586,0.04011271955892681,0.011747902963232804,-0.06424162186990379,0.0,70.0,255.0,255.0,255.0
74,3.7,13.78513389689258,-7.426697621789158,-0.4525211650351914,0.15417470376405618,0.03967787361565556,-0.24403177467893888,0.03833934159747088,0.011574944807080101,-0.06534716538271201,0.0,70.0,255.0,255.0,255.0
75,3.75,13.792890281683592,-7.424699230997534,-0.46480455708897545,0.15605416611821354,0.04025087473076283,-0.24732400373793706,0.037425332492979635,0.011308567964185556,-0.06609113845776338,0.0,70.0,255.0,255.0,255.0
76,3.8000000000000003,13.800739313504401,-7.4226725343160815,-0.4772535654089851,0.15791723701335414,0.04080873041207411,-0.2506408885247152,0.03769423853032805,0.010978115422499712,-0.06631244389296298,0.0,70.0,255.0,255.0,255.0
77,3.85,13.808682005384927,-7.420618357956327,-0.48986864594144697,0.15982358997124635,0.0413486862730128,-0.25395524812723336,0.03887713707264595,0.010600756923651034,-0.06606375953037147,0.0,70.0,255.0,255.0,255.0
78,3.9000000000000004,13.816721672501526,-7.41853766568878,-0.5026490902217084,0.16180495072061873,0.041868806104439216,-0.25724726447775237,0.040422954209162754,0.010203742777648017,-0.06548946798760058,0.0,70.0,255.0,255.0,255.0
79,3.95,13.82486250045699,-7.416431477345883,-0.5155933723892222,0.16386588539216262,0.042369060550777604,-0.2605041949259934,0.04178594833632587,0.009825183287581751,-0.06473959803613427,0.0,70.0,255.0,255.0,255.0
80,4.0,13.833108261040742,-7.4143007596337025,-0.5286995097143078,0.16598354555425132,0.04285132443319739,-0.2637212242813658,0.04241549507177922,0.009492120865584042,-0.06396395232800556,0.0,70.0,255.0,255.0,255.0
81,4.05,13.841460855012414,-7.412146344902563,-0.5419654948173588,0.16810743489934055,0.04331827263733601,-0.26690059015879397,0.04202728020690216,0.009221758267319302,-0.06326030857610743,0.0,70.0,255.0,255.0,255.0
82,4.1000000000000005,13.849919004530676,-7.409968932369969,-0.5553895687301872,0.17018627357494154,0.04377350025992932,-0.27004725513897654,0.04086506949612101,0.009044513661748965,-0.06267190604661854,0.0,70.0,255.0,255.0,255.0
83,4.15,13.858479482369908,-7.40776899487657,-0.5689702203312564,0.17219394184895265,0.044222724003510905,-0.2731677807634558,0.03942287619107532,0.008999829889422273,-0.062245820865125534,0.0,70.0,255.0,255.0,255.0
84,4.2,13.867138398715571,-7.405546659969618,-0.5827063468065328,0.17412856119404907,0.04467348324887155,-0.2762718372254891,0.0381838114458688,0.009117608756081808,-0.06203961729794871,0.0,70.0,255.0,255.0,255.0
85,4.25,13.875892338489313,-7.403301646551683,-0.5965974040538053,0.17601232299353953,0.045134484879119086,-0.2793717424932507,0.03762858465670149,0.009426911276833039,-0.062105080202201624,0.0,70.0,255.0,255.0,255.0
86,4.3,13.884739631014925,-7.401033211481706,-0.6106435210558578,0.17789141965971922,0.04561617437655485,-0.28248234524570925,0.03800307420718241,0.009929163862221202,-0.062454060730254835,0.0,70.0,255.0,255.0,255.0
87,4.3500000000000005,13.893681480455285,-7.398740029114028,-0.6248456385783763,0.17981263041425777,0.046127401265341206,-0.2856171485662762,0.039091769091470496,0.010540349268417515,-0.06300507315960546,0.0,70.0,255.0,255.0,255.0
88,4.4,13.902720894056351,-7.396420471355172,-0.6392052359124855,0.18180059656886627,0.046670209303396604,-0.2887828525616698,0.040456356877527355,0.011116098504526661,-0.06360911335391295,0.0,70.0,255.0,255.0,255.0
89,4.45,13.911861540112172,-7.394073008183688,-0.6537239238345433,0.1838582661020105,0.04723901111579387,-0.2919780599016675,0.04166565902821162,0.011505407329703843,-0.06410295841315916,0.0,70.0,255.0,255.0,255.0
90,4.5,13.921106720666552,-7.391696570243592,-0.6684030419026522,0.18596716247168743,0.04782075003636699,-0.2951931484029857,0.042302240893477006,0.011556224702324869,-0.06432770821505063,0.0,70.0,255.0,255.0,255.0
91,4.55,13.93045825635934,-7.389290933180051,-0.6832432386748418,0.1880884901913582,0.04839463358602636,-0.29841083072317254,0.042147276110249265,0.011201073463062983,-0.06420344850268656,0.0,70.0,255.0,255.0,255.0
92,4.6000000000000005,13.939915569685688,-7.38685710688499,-0.6982441249749695,0.19018189008271236,0.048940857382673286,-0.30161349325325437,0.04133866998952129,0.010558564789420188,-0.06379320924039256,0.0,70.0,255.0,255.0,255.0
93,4.65,13.949476445367612,-7.384396847441784,-0.7134045880001673,0.19222235719031033,0.04945049006496838,-0.3047901516472118,0.040180880447060474,0.009852139728661058,-0.06323231779403748,0.0,70.0,255.0,255.0,255.0
94,4.7,13.959137805404719,-7.381912057878493,-0.7287231401396906,0.1941999781274184,0.04992607135553939,-0.3079367250326581,0.03898012586738275,0.009313535817501162,-0.0626618357628117,0.0,70.0,255.0,255.0,255.0
95,4.75,13.968896443180354,-7.37940424030623,-0.7441982605034331,0.1961203697770486,0.050381843646718494,-0.31105633522349296,0.038034433122469125,0.009184180589905111,-0.062220077613484026,0.0,70.0,255.0,255.0,255.0
96,4.800000000000001,13.978749842382424,-7.376873873513821,-0.7598287736620399,0.19800342143966532,0.0508444894145299,-0.3141587327940065,0.0375133691376206,0.009579828999406459,-0.06198491915159199,0.0,70.0,255.0,255.0,255.0
97,4.8500000000000005,13.98869678532432,-7.374319791364777,-0.7756141337828337,0.19987170669081067,0.05133982654665914,-0.31725482713865216,0.03738627822329477,0.010339983648943729,-0.06193845351518679,0.0,70.0,255.0,255.0,255.0
98,4.9,13.998737013051505,-7.371739890859155,-0.7915542563759052,0.2017420492619948,0.051878487779424276,-0.3203525781455252,0.03754907238366911,0.011160750505467831,-0.06202609099457135,0.0,70.0,255.0,255.0,255.0
99,4.95,14.00887099025052,-7.369131942586835,-0.8076493915973862,0.20362661392917758,0.05245590159720592,-0.3234574362381093,0.03789952514736683,0.011740589259101597,-0.06219589900181566,0.0,70.0,255.0,255.0,255.0
100,5.0,14.019099674444423,-7.366494300699435,-0.8238999999997161,0.20553200177673148,0.053052546705334436,-0.32657216804570677,0.03832403593921896,0.011775118206536206,-0.062399999978945964,0.0,70.0,255.0,255.0,255.0
101,5.050000000000001,14.029424190428193,-7.363826687916301,-0.8403066084019569,0.20745901752309948,0.05363341341785954,-0.3296974362360039,0.038747499089097914,0.011119237580725638,-0.06260410099814262,0.0,70.0,255.0,255.0,255.0
102,5.1000000000000005,14.039845576196733,-7.361130959357649,-0.8568697436233165,0.20940675168564127,0.054164470463407,-0.33283257814552103,0.03915631035908973,0.009968680101835048,-0.0627739090997892,0.0,70.0,255.0,255.0,255.0
103,5.15,14.050364865596757,-7.3584102408699605,-0.873589866216509,0.21137464855900845,0.05463028142804305,-0.3359748271459828,0.039540219293598966,0.008698517922400839,-0.06286154666589328,0.0,70.0,255.0,255.0,255.0
104,5.2,14.060983041052634,-7.355667931214844,-0.8904672263379148,0.21336077361500116,0.05503432225564708,-0.33911873281211036,0.03986988542958869,0.007683454465556849,-0.06281508105041578,0.0,70.0,255.0,255.0,255.0
105,5.25,14.071700942958257,-7.352906808644396,-0.9075017394977201,0.21536163710196732,0.05539862687459873,-0.3422563352510244,0.040121357853450945,0.007291290639521719,-0.0625799224708623,0.0,70.0,255.0,255.0,255.0
106,5.300000000000001,14.08251920476283,-7.350128068527384,-0.9246928598630172,0.21737290940034626,0.055763451319599255,-0.3453767250591966,0.0402832079341664,0.007703593638108686,-0.06213816403540795,0.0,70.0,255.0,255.0,255.0
107,5.3500000000000005,14.093438233898292,-7.347330463512436,-0.9420394120036397,0.21938995789538396,0.0561689862384096,-0.3484701516545652,0.040351184303766274,0.008735412494154104,-0.061567681647289874,0.0,70.0,255.0,255.0,255.0
108,5.4,14.104458200552369,-7.3445111699035435,-0.9595398750284737,0.2214080278307229,0.056636992569014666,-0.3515334932239256,0.04032734647712033,0.010014222094234526,-0.06100678994083175,0.0,70.0,255.0,255.0,255.0
109,5.45,14.115579036681364,-7.341666764255534,-0.9771927613260323,0.223422692543096,0.057170408447833054,-0.35457083064864836,0.040227646419843666,0.01115953227257549,-0.06059655068926251,0.0,70.0,255.0,255.0,255.0
110,5.5,14.126800469806678,-7.33879412905876,-0.9949969580933385,0.22543079247270725,0.057752945796272215,-0.3575931482928518,0.0400865699457853,0.011787737883128813,-0.06047229148974376,0.0,70.0,255.0,255.0,255.0
111,5.550000000000001,14.138122115928635,-7.335891469675907,-1.0129520761553175,0.22743134953767452,0.058349182236145936,-0.36061805979762274,0.039925356820091906,0.011700327260744103,-0.060697042394131095,0.0,70.0,255.0,255.0,255.0
112,5.6000000000000005,14.149543604760446,-7.332959210835146,-1.0310587640731008,0.22942332815471644,0.058922978522346625,-0.36366285253226494,0.03971979158503558,0.011058714210676612,-0.0611908887864554,0.0,70.0,255.0,255.0,255.0
113,5.65,14.161064448744106,-7.3299991718236726,-1.049318361408544,0.23140332869617808,0.0594550536572136,-0.3667371486762683,0.039431233959064116,0.01019471025074381,-0.061794929934388954,0.0,70.0,255.0,255.0,255.0
114,5.7,14.172683937630064,-7.327013705469424,-1.0677324789407276,0.23336645155062286,0.059942449547421006,-0.36984234552570383,0.03903192982299686,0.009438789404025982,-0.06234594229965751,0.0,70.0,255.0,255.0,255.0
115,5.75,14.184401093899169,-7.3240049268689305,-1.0863025959611143,0.23530652167847776,0.060398932597616195,-0.372971742906234,0.03848042763170412,0.00913370188451168,-0.06269492089421291,0.0,70.0,255.0,255.0,255.0
116,5.800000000000001,14.196214589797911,-7.320973812209663,-1.105029653231351,0.23721449431379327,0.060855819735872174,-0.3761118376151251,0.03776827853876341,0.009454444639089843,-0.06276037967496428,0.0,70.0,255.0,255.0,255.0
117,5.8500000000000005,14.208122543330548,-7.317919344895343,-1.1239137797226268,0.2390833495323541,0.06134437706152518,-0.37924778087373046,0.03700871695482277,0.010223390335895033,-0.06255417113230077,0.0,70.0,255.0,255.0,255.0
118,5.9,14.220122924751147,-7.31483937450351,-1.142954431318724,0.24091536600927554,0.06187815876946168,-0.3823672547283552,0.03638948924891139,0.011094116389553932,-0.06212808239627332,0.0,70.0,255.0,255.0,255.0
119,5.95,14.232214079931476,-7.311731529018397,-1.1621505051954624,0.24272229845724524,0.06245378870048057,-0.3854605891133578,0.03609069489414196,0.011731650437774022,-0.06153968011193278,0.0,70.0,255.0,255.0,255.0
120,6.0,14.244395154596871,-7.308593995633462,-1.1815004902300599,0.24452443549868974,0.06305132381323908,-0.3885212227395485,0.03628766358403368,0.011797547819103471,-0.06083604358124717,0.0,70.0,255.0,255.0,255.0
121,6.050000000000001,14.256666523481345,-7.305426396637073,-1.2010026274694172,0.2463510648156486,0.06363354348239092,-0.3915441934714825,0.03704964091344465,0.011128234510060508,-0.06006041326525047,0.0,70.0,255.0,255.0,255.0
122,6.1000000000000005,14.269030261078436,-7.302230641285223,-1.2206549095772081,0.2482293995900342,0.06416414726424513,-0.3945272640660735,0.03820002590870786,0.00993490393188523,-0.059310561882508495,0.0,70.0,255.0,255.0,255.0
123,6.15,14.281489463440348,-7.299009981910649,-1.2404553538760246,0.2501710674065194,0.06462703387557944,-0.39747524965973335,0.03941360624803991,0.008622483863884867,-0.0587362836039107,0.0,70.0,255.0,255.0,255.0
124,6.2,14.294047367819088,-7.295767937897665,-1.2604024345431815,0.2521707602148382,0.06502639565063362,-0.4004008924264646,0.040353542348903204,0.007593956165319327,-0.05848759832476347,0.0,70.0,255.0,255.0,255.0
125,6.25,14.306706539461832,-7.292507342345585,-1.280495443118671,0.2542064216414097,0.06538642949211138,-0.4033240094922097,0.04068891803132857,0.007252050895356632,-0.05870887680872183,0.0,70.0,255.0,255.0,255.0
126,6.300000000000001,14.319468009983229,-7.289229294948454,-1.3007348354924024,0.25623965201797105,0.06575160074016928,-0.4062717801073368,0.04025935827467464,0.007792990281174639,-0.059452792439063096,0.0,70.0,255.0,255.0,255.0
127,6.3500000000000005,14.332330504663629,-7.285932182271568,-1.3211226211294047,0.2582323574688772,0.06616572852022884,-0.409269288736116,0.03924106286010698,0.00898711048620271,-0.060558266652499526,0.0,70.0,255.0,255.0,255.0
128,6.4,14.345291245730117,-7.282612722096431,-1.341661764366014,0.26016375830398175,0.06665031178878955,-0.41232760677258673,0.0379870414690231,0.010384992443235319,-0.06172958039083465,0.0,70.0,255.0,255.0,255.0
129,6.45,14.358346880494027,-7.279267151092689,-1.3623553818066634,0.2620310616157795,0.06720422776455237,-0.4154422467751995,0.03686119631716167,0.011533177581668497,-0.06265817833706055,0.0,70.0,255.0,255.0,255.0
130,6.5,14.371494351891695,-7.275892299319976,-1.383205989043534,0.2638498779356979,0.0678036295469564,-0.4185934246062928,0.036228645641855906,0.011974295220440467,-0.06304844918378905,0.0,70.0,255.0,255.0,255.0
131,6.550000000000001,14.384731868287597,-7.272486788137994,-1.4042147242672927,0.2656539261799651,0.06840165728659642,-0.4217470916935784,0.036278986593529794,0.011479944226344685,-0.0627546174448268,0.0,70.0,255.0,255.0,255.0
132,6.6000000000000005,14.398059744509691,-7.269052133591316,-1.4253806982128918,0.2674777765950509,0.06895162396959087,-0.42486888635077547,0.03686667836344526,0.010287469972958263,-0.06190625495745561,0.0,70.0,255.0,255.0,255.0
133,6.65,14.411479645947102,-7.265591625741035,-1.4467016129023702,0.2693405940163096,0.06943040428389224,-0.42793771718932394,0.037688111326339424,0.008866730512036014,-0.0607763505437342,0.0,70.0,255.0,255.0,255.0
134,6.7,14.424993803911322,-7.262109093162927,-1.4681744699318242,0.27124658772768484,0.06983829702079447,-0.4309465214051489,0.03844129942152108,0.007686480361446257,-0.05965246221966147,0.0,70.0,255.0,255.0,255.0
135,6.75,14.43860430471987,-7.258607796038955,-1.489796265042885,0.2731847239584617,0.07019905232003687,-0.4339029634112901,0.038820555344898366,0.007218693630051121,-0.0588213357800349,0.0,70.0,255.0,255.0,255.0
136,6.800000000000001,14.452312276307168,-7.255089187930923,-1.5115647662729532,0.2751286432621747,0.07056016638379958,-0.4368286549831524,0.038665348031052815,0.007700379667241464,-0.058440998854103476,0.0,70.0,255.0,255.0,255.0
137,6.8500000000000005,14.466117169046088,-7.251551779400575,-1.5334791305412003,0.277051258761567,0.07096909028676102,-0.43974706329670044,0.038098564012578606,0.008892193770826395,-0.05844944079054226,0.0,70.0,255.0,255.0,255.0
138,6.9,14.480017402183325,-7.247992278902247,-1.5555394726026233,0.27893849966343254,0.07144938576088222,-0.4426735990622066,0.0373733337404758,0.010318901359163135,-0.05869396848308117,0.0,70.0,255.0,255.0,255.0
139,6.95,14.494011019012431,-7.244406840824487,-1.577746490447421,0.2807885921356146,0.07200098042267733,-0.44561646014500855,0.036733978956604574,0.011507754120820834,-0.059024373716720646,0.0,70.0,255.0,255.0,255.0
140,7.0,14.508096261396886,-7.240792180859979,-1.6001011186171241,0.282611897559093,0.0726001611729643,-0.44857603643387867,0.03642106770982423,0.011983004851057188,-0.059282244991964994,0.0,70.0,255.0,255.0,255.0
141,7.050000000000001,14.52227220876834,-7.237146824707191,-1.6226040940908089,0.284430698906597,0.07319928090778305,-0.45154468464420505,0.03655948142320398,0.011505390250832193,-0.0593758393531596,0.0,70.0,255.0,255.0,255.0
142,7.1000000000000005,14.536539331287546,-7.233472252769201,-1.6452555870815446,0.2862678457014134,0.07375070019804753,-0.4545136203691946,0.0370536576593139,0.010314570794989208,-0.05933784668243902,0.0,70.0,255.0,255.0,255.0
143,7.15,14.550898993338482,-7.229771754687386,-1.6680554561277283,0.2881360646725284,0.07423073798728197,-0.45747846931244895,0.03770396163620404,0.008886848200528874,-0.05924423240033505,0.0,70.0,255.0,255.0,255.0
144,7.2,14.565352937754799,-7.226049178970473,-1.6910034340127895,0.2900382418650338,0.07463938501810041,-0.46043804360922813,0.03831621132643903,0.0076956500081770685,-0.059157641981011366,0.0,70.0,255.0,255.0,255.0
145,7.25,14.579902817524985,-7.222307816185576,-1.7140992604886511,0.2919676858051723,0.07500030298809968,-0.4633942335105501,0.038711211111497335,0.007217212373777926,-0.05914562830799941,0.0,70.0,255.0,255.0,255.0
146,7.300000000000001,14.594549706335316,-7.218549148671663,-1.7373428573638445,0.29390936297618353,0.0753611062554782,-0.4663526064400281,0.038790152850864956,0.007691206182869337,-0.05924221715969402,0.0,70.0,255.0,255.0,255.0
147,7.3500000000000005,14.609293753822604,-7.214771705560028,-1.760734521132654,0.2958467010902588,0.07576942360638661,-0.4693184552265195,0.03857221327638882,0.008878707198700653,-0.05939917247985704,0.0,70.0,255.0,255.0,255.0
148,7.4,14.624134376444342,-7.210972206311024,-1.7842747028864965,0.2977665843038224,0.07624897697534827,-0.4722925236880138,0.03812541178689344,0.010304521689352697,-0.05952910191573402,0.0,70.0,255.0,255.0,255.0
149,7.45,14.639070412252986,-7.207146807862493,-1.8079637735014553,0.29965924226894813,0.07679987577532188,-0.4752713654180929,0.037521175736898726,0.011496498992524806,-0.05955177164573833,0.0,70.0,255.0,255.0,255.0
150,7.5,14.654100300671237,-7.203292218733492,-1.8318018394283058,0.3015187018775123,0.07739862687460075,-0.4782477008525876,0.036822106491918305,0.011980220245977335,-0.05938726974796804,0.0,70.0,255.0,255.0,255.0
151,7.550000000000001,14.669222282440737,-7.199406945175033,-1.855788543586714,0.30334145291813996,0.07799789779991961,-0.4812100923928897,0.03607888153371874,0.011516638164899007,-0.05900149247450859,0.0,70.0,255.0,255.0,255.0
152,7.6000000000000005,14.684434445963051,-7.1954924289535,-1.8799228486675947,0.30512659003088416,0.07855029069109065,-0.48414785010003847,0.03537562443582942,0.01034141626119478,-0.058467234959924674,0.0,70.0,255.0,255.0,255.0
153,7.65,14.699734941443825,-7.191551916105924,-1.904203328596718,0.3068790153617229,0.07903203942603909,-0.48705681588888217,0.034837934338582954,0.008924249191366584,-0.05791842753568588,0.0,70.0,255.0,255.0,255.0
154,7.7,14.715122347499223,-7.187589225010896,-1.928628530256483,0.30861038346474245,0.07944271561022731,-0.48993969285360706,0.03459134679726361,0.00773150087463037,-0.05748804532881291,0.0,70.0,255.0,255.0,255.0
155,7.75,14.7305959797903,-7.183607644544901,-1.9531972978820786,0.31033815004144927,0.07980518951350213,-0.49280562042176346,0.03474833494880869,0.007229832050104079,-0.057297274052170444,0.0,70.0,255.0,255.0,255.0
156,7.800000000000001,14.746156162503368,-7.179608706059546,-1.9779090922986593,0.3120852169596233,0.08016569881523772,-0.4956694202588241,0.035349146189922465,0.007655388009908393,-0.05740561247629117,0.0,70.0,255.0,255.0,255.0
157,7.8500000000000005,14.761804501486262,-7.1755910746633775,-2.002764239907961,0.3138730646604415,0.08057072831449297,-0.4985461816693926,0.036279974296249407,0.008784811905826473,-0.057767412155684816,0.0,70.0,255.0,255.0,255.0
158,7.9,14.777543468969412,-7.171551633228097,-2.0277637104655986,0.31571321438924826,0.08104418000582037,-0.5014461614743926,0.03732564805982719,0.01016929739678929,-0.05828082430476833,0.0,70.0,255.0,255.0,255.0
159,7.95,14.793375822925187,-7.1674866566627955,-2.0529088560554003,0.31760562946642423,0.0815876580541719,-0.5043742640998694,0.038254975534002256,0.01136435065571817,-0.058836559859676285,0.0,70.0,255.0,255.0,255.0
160,8.0,14.809304031916055,-7.1633928674226794,-2.0782011368755855,0.3195387119426485,0.08218061507139218,-0.5073298174603602,0.038852525741006616,0.01193252614557494,-0.059335615395550434,0.0,70.0,255.0,255.0,255.0
161,8.05,14.825329694119452,-7.159268595155656,-2.1036418378014363,0.3214908820405249,0.08278091066872939,-0.5103078256394245,0.039004533708286715,0.011648662941965426,-0.05971657044101519,0.0,70.0,255.0,255.0,255.0
162,8.1,14.841453120120107,-7.1551147763558065,-2.129231919439528,0.32343916531347716,0.08334548136558872,-0.5133014745044617,0.03875259026866473,0.010690151966663564,-0.05994675278069295,0.0,70.0,255.0,255.0,255.0
163,8.15,14.8576736106508,-7.150934047019097,-2.1549719852518825,0.32536614106739137,0.08384992586539575,-0.5163025009174937,0.038211361532525245,0.009427745371404228,-0.059993799720681196,0.0,70.0,255.0,255.0,255.0
164,8.200000000000001,14.873989734226846,-7.146729783769267,-2.1808621695312773,0.3272603014667297,0.08428825590272915,-0.5193008544765298,0.03750875106636187,0.008230956642130138,-0.05983294134006556,0.0,70.0,255.0,255.0,255.0
165,8.25,14.890399640797472,-7.1425052214288245,-2.2069020706995355,0.32911701617402755,0.08467302152960876,-0.5222857950515003,0.036773590058558625,0.007460016746918541,-0.059456301661642286,0.0,70.0,255.0,255.0,255.0
166,8.3,14.906901435844249,-7.138262481616306,-2.2330907490364273,0.33093766047258555,0.085034257577421,-0.5252464846426941,0.036091180513864174,0.007309307541181198,-0.05887328058480357,0.0,70.0,255.0,255.0,255.0
167,8.35,14.923493406844731,-7.134001795671082,-2.259426719163805,0.33272613422541397,0.08540395228372688,-0.5281731231099807,0.03550686742777032,0.007685535938950494,-0.0581281874440176,0.0,70.0,255.0,255.0,255.0
168,8.4,14.94017404926679,-7.129722086387933,-2.2859080613474254,0.3344883472153626,0.08580281117131605,-0.5310593033870958,0.035074220496866815,0.008369604568070343,-0.05730388357259031,0.0,70.0,255.0,255.0,255.0
169,8.450000000000001,14.956942241566267,-7.125421514553951,-2.3125326495025145,0.33623355627510065,0.08624091274053391,-0.5339035114672397,0.03485519502568479,0.009144736528465813,-0.056496849605425226,0.0,70.0,255.0,255.0,255.0
170,8.5,14.9737974048943,-7.12109799511388,-2.3392984124941494,0.33797386671793106,0.08671728482416263,-0.5367089883476384,0.034905141996155464,0.009799434838342336,-0.05577922457762341,0.0,70.0,255.0,255.0,255.0
171,8.55,14.99073962823806,-7.1167497860715345,-2.3662035483372783,0.3397240704747162,0.08722085622436815,-0.539481433925002,0.03523848316255851,0.010208559107560689,-0.055197020506758676,0.0,70.0,255.0,255.0,255.0
172,8.6,15.007769811941772,-7.112375909491443,-2.3932465558866496,0.3414977150341869,0.0877381407349187,-0.5422286903983142,0.03577639689673617,0.010372273042413838,-0.0548150895176569,0.0,70.0,255.0,255.0,255.0
173,8.65,15.024889399741479,-7.107975971998043,-2.4204264173771097,0.3433017101643898,0.08825808352860953,-0.5449629428767677,0.0363736212831256,0.010327589270442417,-0.05471607391394073,0.0,70.0,255.0,255.0,255.0
174,8.700000000000001,15.042099982958211,-7.103550101138582,-2.4477428501743264,0.34513507716249947,0.08877089966196294,-0.5477002977897083,0.03687149447202387,0.010104409597833097,-0.054966233664988096,0.0,70.0,255.0,255.0,255.0
175,8.75,15.059402907457729,-7.099098882031846,-2.4751964471560806,0.3469888596115922,0.08926852448839284,-0.5504595662432665,0.03711782330970692,0.009734225251101236,-0.05563472543586023,0.0,70.0,255.0,255.0,255.0
176,8.8,15.07679886891937,-7.094623248689743,-2.502788806798653,0.34884685949347016,0.08974432218707307,-0.5532637703332943,0.037034886835307645,0.009248717101506543,-0.05672726209700052,0.0,70.0,255.0,255.0,255.0
177,8.85,15.094287593407076,-7.090124449813139,-2.53052282418941,0.35069234829512297,0.0901933961985435,-0.5561322924529666,0.03667295290910033,0.008706211052800228,-0.0580497761635268,0.0,70.0,255.0,255.0,255.0
178,8.9,15.111868103748883,-7.085603909069889,-2.5584020360439497,0.3525141547843802,0.09061494329235309,-0.559068747949647,0.03614588644555994,0.008200877510322613,-0.05927014244955231,0.0,70.0,255.0,255.0,255.0
179,8.950000000000001,15.129539008885514,-7.081062955483904,-2.5864296989843747,0.35430693693967896,0.09101348394957576,-0.5620593066979218,0.035572113799453575,0.007836599438526548,-0.06004698030364075,0.0,70.0,255.0,255.0,255.0
180,9.0,15.14729879744285,-7.076502560674931,-2.614607966713742,0.35607136616432555,0.09139860323620574,-0.5650734459800111,0.03505955544209627,0.0077076734815051395,-0.06004588300325686,0.0,70.0,255.0,255.0,255.0
181,9.05,15.165146145501947,-7.071923095160283,-2.642937043582376,0.3578128924838886,0.09178425129772627,-0.5680638949982475,0.034674743389118134,0.007857085307882983,-0.05911910593021652,0.0,70.0,255.0,255.0,255.0
182,9.1,15.18308008669124,-7.067324135545158,-2.6714143562135666,0.35953884050323737,0.09218431176699404,-0.5709853565730327,0.03444815510214028,0.00823840722281588,-0.05751652843883903,0.0,70.0,255.0,255.0,255.0
183,9.15,15.20110002955227,-7.062704663983584,-2.700035579239679,0.3612577079941026,0.09260809202000786,-0.5738155478421314,0.03440730845944984,0.008752537051126552,-0.05571515115976311,0.0,70.0,255.0,255.0,255.0
184,9.200000000000001,15.21920585749065,-7.058063326343158,-2.7287959109977797,0.36297957134918235,0.0930595654721067,-0.576556871689009,0.034579537510026626,0.009289705467185883,-0.05421088008561448,0.0,70.0,255.0,255.0,255.0
185,9.25,15.237397986687188,-7.053398707436373,-2.75769126640858,0.3647156617451053,0.09353706256672645,-0.5792366358506928,0.03499994559827968,0.009747062175247123,-0.05349773322729234,0.0,70.0,255.0,255.0,255.0
186,9.3,15.25567742366516,-7.048709620086485,-2.786719574582849,0.3664795659090103,0.09403427168963141,-0.5819066450117383,0.03566716524883162,0.010063454488307144,-0.053822887608578895,0.0,70.0,255.0,255.0,255.0
187,9.35,15.27404594327809,-7.04399528026741,-2.815881930909754,0.36828237826998844,0.09454340801555716,-0.5846189246115507,0.036453587521201314,0.010223796419506215,-0.05495059026716653,0.0,70.0,255.0,255.0,255.0
188,9.4,15.292505661492159,-7.039255279284929,-2.845181467044004,0.37012492466113045,0.09505665133158203,-0.5874017040384549,0.037144040555503466,0.010224498760447176,-0.05640277272491723,0.0,70.0,255.0,255.0,255.0
189,9.450000000000001,15.311058435744203,-7.034489615134252,-2.8746221013135993,0.3719967823255388,0.09556585789160188,-0.5902592018840425,0.03751747508786707,0.01006509151357804,-0.057696352501457326,0.0,70.0,255.0,255.0,255.0
190,9.5,15.329705339724713,-7.029698693495769,-2.9042073872324083,0.37387667216991716,0.09606316048293984,-0.5931713392886007,0.03734868081544107,0.009748087141581152,-0.0583512493558036,0.0,70.0,255.0,255.0,255.0
191,9.55,15.348446102961194,-7.024883299085958,-2.9339392352424594,0.3757316504070829,0.09654066660576,-0.5960943268196228,0.036542283261731257,0.009288071097302009,-0.05811670960205184,0.0,70.0,255.0,255.0,255.0
192,9.600000000000001,15.367278504765421,-7.020044626835193,-2.9638168199143706,0.3775309004960903,0.09699196759267004,-0.5989830102488058,0.03530374189573138,0.008747246260121244,-0.05717285874422551,0.0,70.0,255.0,255.0,255.0
193,9.65,15.386199193010803,-7.015184102326691,-2.99383753626734,0.37926202459665603,0.09741539123177212,-0.6018116126940454,0.03401196055428102,0.008230307068224363,-0.05590117052860499,0.0,70.0,255.0,255.0,255.0
194,9.700000000000001,15.405204707225087,-7.010303087712016,-3.023997981183775,0.3809320965515184,0.09781499829949247,-0.6045731273016663,0.03305610992629937,0.00784890283682671,-0.05467736958228997,0.0,70.0,255.0,255.0,255.0
195,9.75,15.424292402665955,-7.0054026024967415,-3.0542948489975066,0.38256763558928597,0.09820028151545479,-0.6072793496522744,0.032833303167656425,0.007704598582503053,-0.05386519475703011,0.0,70.0,255.0,255.0,255.0
196,9.8,15.443461470784015,-7.00048305956047,-3.0847259161490026,0.384215426868284,0.09858545815774278,-0.6099596467773694,0.03353078795047537,0.007844773943865846,-0.05366290801558371,0.0,70.0,255.0,255.0,255.0
197,9.850000000000001,15.462713945352784,-6.995544056680967,-3.1152908136752435,0.3859207143843335,0.09898475890984137,-0.6126456404538327,0.03488156144655363,0.008222743015728895,-0.053988930467108176,0.0,70.0,255.0,255.0,255.0
198,9.9,15.482053542222449,-6.990584583669486,-3.145990480194386,0.3877035830129394,0.09940773245931567,-0.6153585398240802,0.03637716151683179,0.008737909329781246,-0.05464242861070723,0.0,70.0,255.0,255.0,255.0
199,9.950000000000001,15.501484303654077,-6.985603283435036,-3.1768266676576515,0.3895584305360167,0.0998585498428195,-0.6181098833149035,0.037505451172670234,0.00927980995832911,-0.055427082922365756,0.0,70.0,255.0,255.0,255.0
200,10.0,15.52100938527605,-6.980598728685204,-3.207801468525876,0.3914541281302064,0.10033571345514858,-0.6209012481163168,0.03775018110534489,0.009745499880775554,-0.05615999958790141,0.0,70.0,255.0,255.0,255.0
201,10.05,15.540629716467098,-6.975569712089521,-3.238916792469283,0.3933334486465512,0.10083309983089705,-0.6237258832736936,0.0368609052634028,0.01007334594964604,-0.05672611054974297,0.0,70.0,255.0,255.0,255.0
202,10.100000000000001,15.560342730140706,-6.9705154187021146,-3.2701740568532456,0.3951402186565467,0.10134304805011318,-0.626573859171291,0.03514259973247391,0.010245418040710774,-0.05707598815214432,0.0,70.0,255.0,255.0,255.0
203,10.15,15.580143738332753,-6.9654354072845095,-3.3015741783864123,0.39684770861979857,0.10185764163496813,-0.629433482088908,0.033187645126986354,0.010253580086239111,-0.05716286794266168,0.0,70.0,255.0,255.0,255.0
204,10.200000000000001,15.600027501002685,-6.960329654538618,-3.3331174050621364,0.39845898316924533,0.1023684060587371,-0.6322901459655572,0.03158800612617085,0.010092370149550334,-0.05693532436912285,0.0,70.0,255.0,255.0,255.0
205,10.25,15.619989636649677,-6.955198566678636,-3.364803192982968,0.40000650923241565,0.10286687864992317,-0.6351270145258203,0.03092587916970757,0.009757411220157053,-0.05633881621478487,0.0,70.0,255.0,255.0,255.0
206,10.3,15.640028151925927,-6.950042966673625,-3.3966301065147184,0.4015515710862161,0.1033441471807528,-0.6379240275870357,0.031492537384458785,0.009260816617029377,-0.05537111132394301,0.0,70.0,255.0,255.0,255.0
207,10.350000000000001,15.660144793758299,-6.9448641519605605,-3.4285955957416716,0.40315576297086153,0.1037929603116261,-0.6406641256582146,0.033012748250627055,0.008676423980968906,-0.05418972764759111,0.0,70.0,255.0,255.0,255.0
208,10.4,15.680343728223013,-6.939663670642463,-3.46069651908054,0.4048528459112788,0.10421178957884969,-0.6433430003517948,0.03492671018960891,0.008128609485957838,-0.053066006378710284,0.0,70.0,255.0,255.0,255.0
209,10.450000000000001,15.700630078349427,-6.9344429730026755,-3.492929895776851,0.4066484339898224,0.10460582126022189,-0.6459707262960857,0.03666989028747736,0.007749683803748297,-0.052283367852234974,0.0,70.0,255.0,255.0,255.0
210,10.5,15.721008571621995,-6.929203088516441,-3.5252935917101484,0.4085198349400265,0.10498675795922452,-0.6485713371370183,0.03769035815999189,0.007668864562759836,-0.052120726228555014,0.0,70.0,255.0,255.0,255.0
211,10.55,15.74148206184343,-6.923944297206753,-3.557787029490553,0.4104174698058216,0.10537270771649787,-0.6511827989189412,0.037696311167323415,0.007943900401485848,-0.05270375650940906,0.0,70.0,255.0,255.0,255.0
212,10.600000000000001,15.762050318602578,-6.918665817744791,-3.5904118716020426,0.41228946605675887,0.1057811479993731,-0.6538417127879592,0.03686085947922635,0.008484410510334328,-0.053836150209063405,0.0,70.0,255.0,255.0,255.0
213,10.65,15.782711008449105,-6.913366182406816,-3.623171200769349,0.41410355575374425,0.1062211487675313,-0.6565664139398475,0.0355702227389898,0.009115618334032405,-0.055140379269680295,0.0,70.0,255.0,255.0,255.0
214,10.700000000000001,15.803460674177952,-6.908043702868038,-3.6560685129960273,0.41584648833065785,0.10669270983277634,-0.6593557507149272,0.03421280568307594,0.009656120743795071,-0.05622565643599309,0.0,70.0,255.0,255.0,255.0
215,10.75,15.824295657282171,-6.902696911423538,-3.6891067758408416,0.41752483632205184,0.10718676084191081,-0.6621889795834468,0.033176650894439774,0.00993113985279237,-0.05670629751866052,0.0,70.0,255.0,255.0,255.0
216,10.8,15.845213157810157,-6.897325026783847,-3.722287410954372,0.4191641534201018,0.10768582381805558,-0.6650263804667933,0.032680539626639415,0.009850295062463488,-0.05638728921200098,0.0,70.0,255.0,255.0,255.0
217,10.850000000000001,15.866212072624181,-6.891928329041733,-3.755609413887521,0.4207928902847158,0.10817179034815716,-0.6678277085046469,0.03265560870495676,0.009471341902678176,-0.05543648736709983,0.0,70.0,255.0,255.0,255.0
218,10.9,15.887292446838629,-6.886507847749031,-3.7890701818048367,0.4224297142905975,0.1086329580083234,-0.6705700292035033,0.03292312146410126,0.008923509253389028,-0.054201660691743925,0.0,70.0,255.0,255.0,255.0
219,10.950000000000001,15.908455044053241,-6.8810650332409,-3.8226664168078712,0.4240852024311259,0.10906414127349606,-0.6732478745738213,0.03331748837780424,0.008339119934586137,-0.05303386654387232,0.0,70.0,255.0,255.0,255.0
220,11.0,15.929700967081741,-6.875601433621681,-3.856394969262219,0.4257614631283779,0.10946687000178201,-0.6758734158578905,0.03367110353043046,0.007842566702098708,-0.05227403707666056,0.0,70.0,255.0,255.0,255.0
221,11.05,15.951031190366079,-6.870118346240722,-3.8902537583936603,0.42745231278416895,0.10984839794370593,-0.6784752782814873,0.03388269582824677,0.007507693241848301,-0.052106433961629506,0.0,70.0,255.0,255.0,255.0
222,11.100000000000001,15.972446198360158,-6.864616593827311,-3.9242424970903675,0.4291497327112026,0.11021763932596684,-0.6810840592540535,0.03395857050296769,0.007346585514689252,-0.052448856033748825,0.0,70.0,255.0,255.0,255.0
223,11.15,15.9939461636372,-6.859096582308125,-3.9583621643190656,0.4308481698344657,0.11058305649517486,-0.6837201638848622,0.033933748280823295,0.007354820176797006,-0.05310286141355647,0.0,70.0,255.0,255.0,255.0
224,11.200000000000001,16.015531015343605,-6.853558288177793,-3.9926145134788538,0.43254310753928493,0.11095312134364654,-0.6863943453954091,0.033824839873553,0.007526886697384327,-0.05387179114109131,0.0,70.0,255.0,255.0,255.0
225,11.25,16.037200474391128,-6.848001270173761,-4.0270015988586065,0.434230653821821,0.11133574516491329,-0.6891073429989714,0.03363487903964568,0.007854584015287713,-0.054569582146557494,0.0,70.0,255.0,255.0,255.0
226,11.3,16.058954080725787,-6.842424713661302,-4.061525247778751,0.4359065954432495,0.11173857974517531,-0.6918513036100649,0.03337525048650036,0.008319957611835349,-0.05508142715626718,0.0,70.0,255.0,255.0,255.0
227,11.350000000000001,16.080791133935453,-6.836827412199243,-4.096186729219613,0.43756817887047106,0.11216774092609683,-0.6946154857145981,0.03311010928221947,0.00886147687690908,-0.0553726572626978,0.0,70.0,255.0,255.0,255.0
228,11.4,16.102710898612834,-6.831207939568692,-4.130986796350211,0.43921760637147145,0.11262472743286622,-0.6973885693363346,0.032941885412896,0.009376370878921847,-0.05542064656776091,0.0,70.0,255.0,255.0,255.0
229,11.450000000000001,16.1247128945726,-6.8255649394559565,-4.1659255861532465,0.44086236741176066,0.11310537801398901,-0.7001575503713742,0.032976438841814115,0.009754358917302142,-0.05519999453245106,0.0,70.0,255.0,255.0,255.0
230,11.5,16.14679713535401,-6.819897401767293,-4.201002551387348,0.44251525025565286,0.11360016332459644,-0.7029085687895797,0.03333735233894686,0.009895087911981904,-0.05469164366065371,0.0,70.0,255.0,255.0,255.0
231,11.55,16.168964419598165,-6.814204923123497,-4.2362164430322045,0.44419610264565534,0.1140948868051872,-0.7056267147374395,0.03407010175884295,0.009751963489978976,-0.05390631895201281,0.0,70.0,255.0,255.0,255.0
232,11.600000000000001,16.191216745618576,-6.808487913086775,-4.271565222861092,0.44592226043153715,0.11457535967359433,-0.708299200684781,0.03499922080507645,0.009371982502326404,-0.05294312563837167,0.0,70.0,255.0,255.0,255.0
233,11.65,16.21355664564132,-6.8027473871561375,-4.307046363100683,0.447696024726163,0.11503208505541984,-0.7109210273012767,0.0358196424699031,0.008856059944140071,-0.051974459074966006,0.0,70.0,255.0,255.0,255.0
234,11.700000000000001,16.235986348091192,-6.796984704581233,-4.34265732559122,0.44950422467852746,0.11546096566800834,-0.7134966465922776,0.03623005744124441,0.008315164812700004,-0.051186692267712885,0.0,70.0,255.0,255.0,255.0
235,11.75,16.25850706810917,-6.791201290589337,-4.37839602775991,0.45131903047028743,0.11586360153668984,-0.716039696528048,0.03592778619747605,0.007853082984787818,-0.05075186185914404,0.0,70.0,255.0,255.0,255.0
236,11.8,16.28111825113822,-6.785398344427564,-4.4142612952440246,0.45309700329827507,0.11624627396648712,-0.718571832778192,0.034782943876621175,0.007531675607896915,-0.05075380985637423,0.0,70.0,255.0,255.0,255.0
237,11.850000000000001,16.303816768439,-6.779576663192688,-4.4502532110377295,0.45479732485794955,0.11661676909747953,-0.7211150775136854,0.03306102614359929,0.007366956749876863,-0.051127660696614896,0.0,70.0,255.0,255.0,255.0
238,11.9,16.326597983624016,-6.773736667517816,-4.486372802995393,0.456403105912635,0.11698296964147481,-0.7236845988478535,0.031254043541650844,0.007363864868903391,-0.05172785745823916,0.0,70.0,255.0,255.0,255.0
239,11.950000000000001,16.349457079030262,-6.76787836622854,-4.522621670922515,0.45792272921211463,0.11735315558436987,-0.7262878632595093,0.029861653072771333,0.0075244690116882396,-0.05239374921721662,0.0,70.0,255.0,255.0,255.0
240,12.0,16.372390256545227,-6.762001351959379,-4.559001589321344,0.45938927121991213,0.11773541654264363,-0.7289239737695752,0.02937145625239168,0.00784857082525292,-0.05296888093067054,0.0,70.0,255.0,255.0,255.0
241,12.05,16.395396006152254,-6.756104824574276,-4.595514068299472,0.4608598748373538,0.11813801266689516,-0.7315847513525764,0.030019008514159395,0.008322359719237227,-0.05335946726345853,0.0,70.0,255.0,255.0,255.0
242,12.100000000000001,16.418476244028962,-6.750187550692689,-4.632160064456602,0.46239117207132807,0.11856765251456736,-0.734259920495921,0.03154231564401755,0.00887935133651041,-0.05355080034030735,0.0,70.0,255.0,255.0,255.0
243,12.15,16.441635123359386,-6.744248059322819,-4.6689400603490645,0.46401410640175555,0.1190259478005462,-0.7369398313866071,0.03341686401583388,0.009407641419567625,-0.05354786400584288,0.0,70.0,255.0,255.0,255.0
244,12.200000000000001,16.464877654669138,-6.7382849559126345,-4.705854047595262,0.46573285847291146,0.11950841665652412,-0.7396147068965053,0.03510449576857866,0.009787984782416714,-0.053352623217417516,0.0,70.0,255.0,255.0,255.0
245,12.25,16.488208409206678,-6.732297217657167,-4.742901531038715,0.4675245559786134,0.12000474627878788,-0.7422750937083489,0.036078416767182375,0.009908624390053689,-0.052964595769733336,0.0,70.0,255.0,255.0,255.0
246,12.3,16.511630110267,-6.726284481284756,-4.780081556966097,0.4693407001496297,0.12049927909552949,-0.7449111664734787,0.03606167474927702,0.009718372693701127,-0.052400582161915565,0.0,70.0,255.0,255.0,255.0
247,12.350000000000001,16.53514247922164,-6.720247289747614,-4.817392647686063,0.4711307234535411,0.12097658354815799,-0.7475151519245404,0.03522416349461821,0.009280113428200565,-0.05174997710390983,0.0,70.0,255.0,255.0,255.0
248,12.4,16.558743182612353,-6.71418682292994,-4.854833072158551,0.4728631164990915,0.12142729043834954,-0.7500861641838696,0.033943209019327014,0.008721933089450573,-0.051161525679432884,0.0,70.0,255.0,255.0,255.0
249,12.450000000000001,16.58242879087155,-6.708104560703779,-4.89240126410445,0.4745250443554738,0.12184877685710305,-0.7526313044924837,0.03260073681090603,0.008183079038559526,-0.05079473227107556,0.0,70.0,255.0,255.0,255.0
250,12.5,16.6061956870479,-6.70200194524423,-4.9300962026078,0.4761231901801821,0.1222455983422055,-0.7551656374109772,0.0315788393834282,0.007804950263334831,-0.05081674531419722,0.0,70.0,255.0,255.0,255.0
251,12.55,16.630041109889568,-6.6958800008695585,-4.967917827845548,0.47768292829381664,0.12262927188343653,-0.7577129790239034,0.031092614167960164,0.0076636366859617056,-0.051298716910341824,0.0,70.0,255.0,255.0,255.0
252,12.600000000000001,16.653963979877282,-6.689739018055886,-5.00586750051019,0.47923245159697814,0.12301196201080167,-0.7602955091020114,0.031072825249367497,0.007716558585979527,-0.05208481572012147,0.0,70.0,255.0,255.0,255.0
253,12.65,16.677964355049266,-6.683578804668478,-5.043947378755749,0.4807902108187534,0.12340092774203448,-0.7629214605959156,0.03134102251927118,0.007869101745949791,-0.05288966963918895,0.0,70.0,255.0,255.0,255.0
254,12.700000000000001,16.702043000959158,-6.6773989252816826,-5.082159646569782,0.48236655384890526,0.12379887218539665,-0.7655844760659303,0.031731158385284175,0.008025899531016734,-0.0534223870912065,0.0,70.0,255.0,255.0,255.0
255,12.75,16.726201010434156,-6.671198917449939,-5.120505826362342,0.4839633266572818,0.12420351769513616,-0.7682636993050362,0.03207429096541148,0.008079593205856384,-0.053384460270144984,0.0,70.0,255.0,255.0,255.0
256,12.8,16.750439333624886,-6.664978573512169,-5.158986016500285,0.4855739829454464,0.12460683150598229,-0.7709229220929448,0.03226903407878012,0.007974306668767639,-0.0526374639506777,0.0,70.0,255.0,255.0,255.0
257,12.850000000000001,16.7747584087287,-6.65873823429934,-5.197598118571636,0.4871902300651598,0.12500094836201292,-0.773527445700104,0.032326400310012104,0.007774584628172931,-0.05139793950297289,0.0,70.0,255.0,255.0,255.0
258,12.9,16.799158356631402,-6.652478478675968,-5.236338761070296,0.4888066229764476,0.12538428996879958,-0.7760627160432421,0.03228915778166197,0.0075998883647621085,-0.050073455436461245,0.0,70.0,255.0,255.0,255.0
259,12.950000000000001,16.823639071026346,-6.6461998053024605,-5.27520439017596,0.490419145843326,0.12576093719848913,-0.7785347912437501,0.032182228714816574,0.007560409085272113,-0.04907506668274664,0.0,70.0,255.0,255.0,255.0
260,13.0,16.848200271215735,-6.639902384956119,-5.314192240194671,0.49202484584792927,0.1261403308773268,-0.7809702227115167,0.032019940810812386,0.007772620970047939,-0.04882135766184348,0.0,70.0,255.0,255.0,255.0
261,13.05,16.87284155561114,-6.633585772214728,-5.353301412447112,0.49362113992440726,0.12653819929549392,-0.7834169270099345,0.031817822945257035,0.008286222884734684,-0.04951180024725943,0.0,70.0,255.0,255.0,255.0
262,13.100000000000001,16.897562385208175,-6.627248565026569,-5.392533932895664,0.495206628142455,0.12696895316580026,-0.7859214027362427,0.0316215735107761,0.008983331338807687,-0.050873542818496986,0.0,70.0,255.0,255.0,255.0
263,13.15,16.922362218425384,-6.620888876898148,-5.431893552720736,0.49678329727548487,0.1274365324293747,-0.7885042812917842,0.03150234635391769,0.009652277196003922,-0.05238555290425495,0.0,70.0,255.0,255.0,255.0
264,13.200000000000001,16.947240714935724,-6.614504911783632,-5.4713843610248425,0.49835686277784674,0.12793418088540065,-0.7911599580266682,0.03153321346864857,0.01008640352120338,-0.05352471214452592,0.0,70.0,255.0,255.0,255.0
265,13.25,16.97219790470317,-6.608095458809608,-5.511009548523403,0.4999366186223497,0.12844517278149503,-0.7938567525062368,0.03179391781955587,0.010089969534909926,-0.05376218367487695,0.0,70.0,255.0,255.0,255.0
266,13.3,16.99723437679796,-6.601660394505482,-5.550770036275466,0.5015362545598023,0.12894317783889164,-0.7965361763941559,0.03231347367389503,0.009573202726098629,-0.05284167538635032,0.0,70.0,255.0,255.0,255.0
267,13.350000000000001,17.02235153015915,-6.5952011410257185,-5.590663166162819,0.5031679659897392,0.1294024930541049,-0.7991409200448718,0.032985534084772894,0.00865833710257391,-0.051080476635512184,0.0,70.0,255.0,255.0,255.0
268,13.4,17.047551173396933,-6.588720145200072,-5.630684128279953,0.5048348079682796,0.12980901154914903,-0.8016442240577071,0.03362238920345817,0.007586434085560256,-0.04909258469538713,0.0,70.0,255.0,255.0,255.0
269,13.450000000000001,17.072835010955977,-6.582220239870804,-5.6708275885685895,0.506530204910085,0.13016113646266092,-0.8040501785144105,0.03403885680448582,0.006606237901518597,-0.04749200548532784,0.0,70.0,255.0,255.0,255.0
270,13.5,17.09820419388794,-6.575704031553806,-5.711089146131394,0.5082386936487282,0.1304696353393009,-0.8063934246062399,0.034064434531444476,0.005947500890979285,-0.04688981439855411,0.0,70.0,255.0,255.0,255.0
271,13.55,17.12365888032085,-6.5691732763368735,-5.7514669310292135,0.5099366483632295,0.13075588655175885,-0.8087391599542659,0.033620683290180864,0.005734252924938232,-0.047588444593760215,0.0,70.0,255.0,255.0,255.0
272,13.600000000000001,17.149197858724264,-6.56262844289863,-5.791963062126821,0.5116007619777463,0.13104306063179472,-0.8111522690656159,0.03280253723652038,0.0059352083620289875,-0.04926925926369563,0.0,70.0,255.0,255.0,255.0
273,13.65,17.174818956518624,-6.556068970273694,-5.832582157935775,0.5132169020868815,0.13134940738796175,-0.8136660858806355,0.031803528067442244,0.006450098349652933,-0.051298560528856285,0.0,70.0,255.0,255.0,255.0
274,13.700000000000001,17.200519548932952,-6.549493502159834,-5.8733296707148845,0.5147811147844905,0.13168807046676,-0.8162821251185015,0.0308303336712612,0.007168644873623009,-0.05304134516865844,0.0,70.0,255.0,255.0,255.0
275,13.75,17.226297067997073,-6.542900163227018,-5.914210370447625,0.5162999354540077,0.13206627187532405,-0.8189702203975013,0.030080372028606917,0.007987998928893347,-0.0538746426466119,0.0,70.0,255.0,255.0,255.0
276,13.8,17.252149542478353,-6.536286874972301,-5.955226692754635,0.5177891519873512,0.13248687035964934,-0.8216695893831627,0.029663280345815224,0.008831324035618593,-0.053478112672156186,0.0,70.0,255.0,255.0,255.0
277,13.850000000000001,17.27807598319581,-6.529651476191053,-5.9963773293859415,0.5192662634885892,0.1329494042788859,-0.824318031664717,0.02955797664299098,0.009603626652232577,-0.052098710086667666,0.0,70.0,255.0,255.0,255.0
278,13.9,17.304076168827212,-6.522991934544413,-6.037658495921106,0.5207449496516503,0.1334472330248726,-0.8268794603918295,0.029690678012528338,0.01016785783019003,-0.050256949413007845,0.0,70.0,255.0,255.0,255.0
279,13.950000000000001,17.330150478160974,-6.516306752888566,-6.079065275425124,0.522235331289842,0.1339661900619049,-0.8293437266060177,0.029979295689130936,0.010380721065494924,-0.04847576069266779,0.0,70.0,255.0,255.0,255.0
280,14.0,17.356299701956196,-6.509595315538222,-6.120592868581708,0.5237428792205634,0.1344853051314221,-0.8317270364610962,0.03032605870778582,0.010100503392873605,-0.04726755907036306,0.0,70.0,255.0,255.0,255.0
281,14.05,17.38252476608303,-6.502858222375424,-6.162237979071234,0.5252679371606206,0.13497624040119227,-0.834070482513054,0.030667733787481666,0.009278912471621936,-0.04691122593012409,0.0,70.0,255.0,255.0,255.0
282,14.100000000000001,17.40882649567226,-6.496097691498103,-6.2039999168330136,0.5268096525993116,0.1354131963785843,-0.8364181590541087,0.031005649432103155,0.008095599715662871,-0.04728321973797023,0.0,70.0,255.0,255.0,255.0
283,14.15,17.43520573134296,-6.489316902737565,-6.245879794976645,0.5283685021038309,0.13578580037275856,-0.8387988044868511,0.03135114916155146,0.006875673126049975,-0.04808800079318942,0.0,70.0,255.0,255.0,255.0
284,14.200000000000001,17.46166334588264,-6.482519111460827,-6.287879797281699,0.5299447675154667,0.13610076369118929,-0.8412269591334276,0.031700595459582814,0.005960219115230814,-0.04903472627901806,0.0,70.0,255.0,255.0,255.0
285,14.25,17.488200208094508,-6.475706826368446,-6.330002490889988,0.5315385616497892,0.13638182228428164,-0.8437022771147529,0.03206732786935618,0.00568998749983507,-0.049835167691725246,0.0,70.0,255.0,255.0,255.0
286,14.3,17.51481720204762,-6.468880929232399,-6.372250024993174,0.5331515003024023,0.1366697624411728,-0.8462104759026001,0.03245235792981305,0.0062268256125541654,-0.050318661929082964,0.0,70.0,255.0,255.0,255.0
287,14.350000000000001,17.541515358124748,-6.462039850124329,-6.414623538480248,0.5347837974427705,0.13700450484553706,-0.8487341433076612,0.03278212959507698,0.007364091035544362,-0.05049391212734733,0.0,70.0,255.0,255.0,255.0
288,14.4,17.568295581791897,-6.455180478747845,-6.45712343932394,0.53642971326191,0.13740617154472723,-0.8512598671153349,0.03294202137951174,0.008698493953485098,-0.05042302876629989,0.0,70.0,255.0,255.0,255.0
289,14.450000000000001,17.59515832945094,-6.448299232969856,-6.499749525191781,0.5380779995807217,0.13787435424088557,-0.8537764461842912,0.03283174904389341,0.009819055154114409,-0.05015344608008121,0.0,70.0,255.0,255.0,255.0
290,14.5,17.62210338174997,-6.441393043323757,-6.542501083942369,0.5397128881662994,0.13838807706013867,-0.856275211723343,0.03235269508152783,0.010319593228746982,-0.04973172354283406,0.0,70.0,255.0,255.0,255.0
291,14.55,17.64912961826757,-6.434460425263842,-6.5853770463641155,0.5413132690888744,0.13890631356376026,-0.8587496185385746,0.03147472260494055,0.009993924938633825,-0.049199674138034055,0.0,70.0,255.0,255.0,255.0
292,14.600000000000001,17.676234708658857,-6.427502411967381,-6.628376045796227,0.5428603604267934,0.13938746955400205,-0.8611951791371464,0.030348442911787288,0.009018851992514954,-0.04862197091375364,0.0,70.0,255.0,255.0,255.0
293,14.65,17.70341565431025,-6.420521678308442,-6.67149656427783,0.5443481133800532,0.13980819876301176,-0.8636118156299499,0.02924067207921155,0.007759535207796375,-0.048100723302546555,0.0,70.0,255.0,255.0,255.0
294,14.700000000000001,17.730669519996862,-6.4135215920910795,-6.714737227359222,0.5457844276347146,0.1401634230747817,-0.866005251467401,0.02842415661632458,0.00658342040820159,-0.0477504637588666,0.0,70.0,255.0,255.0,255.0
295,14.75,17.75799409707372,-6.406505336000964,-6.75809708942457,0.5471905290416856,0.14046654080383192,-0.8683868620058366,0.028157882481494312,0.005851592966799046,-0.04768194746098686,0.0,70.0,255.0,255.0,255.0
296,14.8,17.78538857290103,-6.399474938010696,-6.801575913559805,0.548600215882864,0.1407485823714616,-0.8707734462134997,0.028563064005382444,0.005756821952029867,-0.04794315434004659,0.0,70.0,255.0,255.0,255.0
297,14.850000000000001,17.812854118662006,-6.392430477763818,-6.84517443404592,0.5500468354422239,0.1410422229990349,-0.8731811774398412,0.029495147709468483,0.006191456704307541,-0.04845372869324294,0.0,70.0,255.0,255.0,255.0
298,14.9,17.840393256445253,-6.385370715710793,-6.888894031303789,0.5515497306538109,0.14136772804189235,-0.875618819082824,0.030662563028371892,0.006913248665263438,-0.04905771438661333,0.0,70.0,255.0,255.0,255.0
299,14.950000000000001,17.868009091727387,-6.378293704959629,-6.932736315954203,0.5531130917450611,0.14173354786556125,-0.8780869488785026,0.03175936341826002,0.007680176965774166,-0.04959192499143228,0.0,70.0,255.0,255.0,255.0
300,15.0,17.89570456561976,-6.371197360924237,-6.97670272619164,0.5547256669956369,0.14213574573846977,-0.8805780115819672,0.03249176567052814,0.008246062877059757,-0.0499044959375361,0.0,70.0,255.0,255.0,255.0
301,15.05,17.92348165842695,-6.364080130385782,-7.020794117112399,0.5563622683121139,0.14255815415326722,-0.8830773984722562,0.03270024748225353,0.008473239468376192,-0.04991442178923222,0.0,70.0,255.0,255.0,255.0
302,15.100000000000001,17.95134079245097,-6.35694154550891,-7.065010466038865,0.5579956917438622,0.14298306968530738,-0.8855694537608905,0.03244001053950285,0.00841988995388121,-0.04964852223796612,0.0,70.0,255.0,255.0,255.0
303,15.15,17.979281227601337,-6.349781823417251,-7.109351062488488,0.5596062693660642,0.14340014314865535,-0.8880422506960528,0.03185919235448864,0.0082212230448242,-0.04918301122494029,0.0,70.0,255.0,255.0,255.0
304,15.200000000000001,18.007301419387577,-6.3426015311940445,-7.153814691108471,0.5611816109793111,0.1438051919897898,-0.8904877548833845,0.031112189243742705,0.008003470796147383,-0.04860183627624082,0.0,70.0,255.0,255.0,255.0
305,15.25,18.03539938869927,-6.335401304218272,-7.198399837976827,0.5627174882904384,0.14420049022827008,-0.8929024343236769,0.03035505483772738,0.007904108905254503,-0.047988087437467186,0.0,70.0,255.0,255.0,255.0
306,15.3,18.06357316821662,-6.3281814821712175,-7.243104934540838,0.5642171164630838,0.14459560288031525,-0.8952865636271312,0.029687694318170088,0.007996280781430443,-0.04739813286231964,0.0,70.0,255.0,255.0,255.0
307,15.350000000000001,18.091821100345577,-6.32094174393024,-7.28792849433954,0.5656862577222554,0.14500011830641313,-0.8976422476099088,0.029142012930805095,0.00820805107846212,-0.04687031755237214,0.0,70.0,255.0,255.0,255.0
308,15.4,18.120141793988847,-6.313681470340576,-7.332869159301829,0.5671313177561643,0.14541640798816147,-0.8999735953823684,0.028745982237765588,0.008403630716635746,-0.04645378383631993,0.0,70.0,255.0,255.0,255.0
309,15.450000000000001,18.148534232121193,-6.306400103131424,-7.377925853877777,0.568560855946032,0.1458404813780767,-0.9022876259935408,0.0285370544290231,0.008458853603166006,-0.04619970426285036,0.0,70.0,255.0,255.0,255.0
310,15.5,18.17699787958345,-6.2990974222027685,-7.423097921901183,0.5699850231990666,0.14626229334847807,-0.9045935658086535,0.028540042949742883,0.00824155744583166,-0.04614315431261673,0.0,70.0,255.0,255.0,255.0
311,15.55,18.2055327344411,-6.2917738737965765,-7.468385210458642,0.5714148602410063,0.14666463712265987,-0.9069019414248025,0.02875671417683634,0.007694551158632379,-0.04629407240299699,0.0,70.0,255.0,255.0,255.0
312,15.600000000000001,18.23413936560755,-6.2844309584905025,-7.5137881160436635,0.5728606946167503,0.1470317484643413,-0.9092229730489532,0.029148394616385076,0.0069496772939103835,-0.046626664429627596,0.0,70.0,255.0,255.0,255.0
313,15.65,18.262818803902775,-6.277070698950142,-7.559307507763537,0.5743296997026448,0.1473596048520509,-0.9115646078677653,0.029638743493620723,0.006243321687726677,-0.047083718231188953,0.0,70.0,255.0,255.0,255.0
314,15.700000000000001,18.291572335577815,-6.269694998005297,-7.60494457683044,0.5758245689661123,0.14765608063311397,-0.9139313448720721,0.030133905392304428,0.005807175397887221,-0.047593659025491064,0.0,70.0,255.0,255.0,255.0
315,15.75,18.320401260799386,-6.262305090886831,-7.650700642250745,0.5773430902418752,0.14794032239183963,-0.9163239737703144,0.030544726742576245,0.0058696146910897085,-0.04809924869144666,0.0,70.0,255.0,255.0,255.0
316,15.8,18.349306644602002,-6.254900965766113,-7.6965769742074714,0.57887904164037,0.14824304210222294,-0.9187412697412167,0.030819248512159447,0.006533113650775135,-0.04855937706098601,0.0,70.0,255.0,255.0,255.0
317,15.850000000000001,18.378289164963423,-6.247480786676609,-7.742574769224866,0.5804250150930912,0.14859363375691714,-0.921179911476413,0.030948044971168542,0.007626992659393039,-0.048906661093450765,0.0,70.0,255.0,255.0,255.0
318,15.9,18.40734914611131,-6.240041602390422,-7.788694965355113,0.5819738461374868,0.14900574136816225,-0.9236319358505618,0.030934568259155526,0.008827651298037864,-0.04904686771425304,0.0,70.0,255.0,255.0,255.0
319,15.950000000000001,18.43648654957717,-6.232580212539792,-7.8349379628099225,0.5835184719190067,0.14947639888672093,-0.9260845982478383,0.030787836818291225,0.00980689702023696,-0.04889288574236872,0.0,70.0,255.0,255.0,255.0
320,16.0,18.465700993303212,-6.22509396250175,-7.881303425179897,0.5850526298193159,0.14998643107018594,-0.9285212244247987,0.03052505940424055,0.010252011760858437,-0.048355888216544685,0.0,70.0,255.0,255.0,255.0
321,16.05,18.494991812559103,-6.217581569432774,-7.927790085252402,0.5865709778594308,0.15050160006280677,-0.9309201870694928,0.030165266134929425,0.010005907990962015,-0.047413594178635776,0.0,70.0,255.0,255.0,255.0
322,16.1,18.524358091089155,-6.210043802495469,-7.974395443886846,0.5880691564328089,0.15098702186928215,-0.9332625838426623,0.02974026466198154,0.009192235519250858,-0.046229301919797905,0.0,70.0,255.0,255.0,255.0
323,16.150000000000002,18.553798728202384,-6.202482867245846,-8.021116343636669,0.589545004325629,0.15142082361473186,-0.9355431172614725,0.029303822630666332,0.008077028831277033,-0.04508871767114897,0.0,70.0,255.0,255.0,255.0
324,16.2,18.583312591521718,-6.194901720133996,-8.067949755612993,0.5909995386958755,0.15179472475240985,-0.9377714556097771,0.0289204349794403,0.006938010413470863,-0.04428654625714401,0.0,70.0,255.0,255.0,255.0
325,16.25,18.61289868207197,-6.187303394770605,-8.114893489197646,0.592437047823573,0.15211462465607895,-0.939971771887187,0.028651072935659272,0.006046347589805379,-0.04411318911810014,0.0,70.0,255.0,255.0,255.0
326,16.3,18.642556296304075,-6.179690257668388,-8.161946932801712,0.5938646459894414,0.1523993595113904,-0.9421827745215872,0.02852640023327524,0.00555551545771138,-0.044700558578369964,0.0,70.0,255.0,255.0,255.0
327,16.35,18.672285146670916,-6.172063458819466,-8.209111766649805,0.5952896878469005,0.15267017620185008,-0.9444418277450239,0.028528192419230436,0.005436792536261947,-0.045847180178526514,0.0,70.0,255.0,255.0,255.0
328,16.400000000000002,18.702085265088765,-6.164423240048203,-8.256391115576214,0.5967174652313645,0.15294303876501658,-0.9467674925394398,0.028612845182252045,0.005593184425833897,-0.047165534328286185,0.0,70.0,255.0,255.0,255.0
329,16.45,18.731956893194052,-6.156769154942964,-8.303788515903749,0.5981509723651257,0.15322949464443347,-0.9491583811778526,0.028730423266054572,0.005926748970974671,-0.048255381443773615,0.0,70.0,255.0,255.0,255.0
330,16.5,18.761900362325278,-6.1491002905837595,-8.351306953694,0.5995905075579699,0.15353571366211405,-0.9515930306838172,0.028826639530166176,0.00632660720452094,-0.04871937395893866,0.0,70.0,255.0,255.0,255.0
331,16.55,18.79191594394985,-6.1414155835767525,-8.39894781897213,0.6010336363181423,0.15386215536488557,-0.9540303185737464,0.028869645749196593,0.0067202819267642155,-0.048357598081061326,0.0,70.0,255.0,255.0,255.0
332,16.6,18.822003725957092,-6.133714075047271,-8.446709985551374,0.6024774721328896,0.15420774185479047,-0.9564287904919233,0.028867898059203867,0.007100687575345432,-0.047352793217037004,0.0,70.0,255.0,255.0,255.0
333,16.650000000000002,18.85216369116314,-6.1259948093912735,-8.494590698021323,0.6039204261240627,0.1545722241224201,-0.9587655978954501,0.028843025080149687,0.007467622742574065,-0.04607832916558863,0.0,70.0,255.0,255.0,255.0
334,16.7,18.8823957685695,-6.118256852635029,-8.542586545340919,0.6053617746409046,0.15495450412904788,-0.9610366234084822,0.02881167149269004,0.007803105590209469,-0.044911788107704353,0.0,70.0,255.0,255.0,255.0
335,16.75,18.91269986862723,-6.110499358978369,-8.590694360362171,0.6068015932733317,0.15535253468144106,-0.9632567767062206,0.028790340970630268,0.008099158325247657,-0.04422926842444497,0.0,70.0,255.0,255.0,255.0
336,16.8,18.94307592789683,-6.102721599166885,-8.638912223011541,0.6082408087379676,0.15576441996157264,-0.9654595502509267,0.028788303483651134,0.008349930262152583,-0.04422839641691212,0.0,70.0,255.0,255.0,255.0
337,16.85,18.973523949501025,-6.0949229169822114,-8.687240315387264,0.6096804236216968,0.15618752770765632,-0.9676796163479118,0.028800215343594004,0.00852316112336382,-0.04477260266586569,0.0,70.0,255.0,255.0,255.0
338,16.900000000000002,19.004043970259,-6.087102846396119,-8.735680184646332,0.611120830272327,0.15661673607390902,-0.9699368105175132,0.028815054494302217,0.008573620641616486,-0.04557103245979022,0.0,70.0,255.0,255.0,255.0
339,16.95,19.034636032528258,-6.0792612433748205,-8.784233996439015,0.612561929071127,0.15704488977181796,-0.9722367195938908,0.028822890764246267,0.008467541955869962,-0.04633709316390622,0.0,70.0,255.0,255.0,255.0
340,17.0,19.065300163166114,-6.071398357418937,-8.832903856605721,0.6140031193487516,0.15746349026949602,-0.9745705198339039,0.02881199658943956,0.008172796790439918,-0.046787608286358306,0.0,70.0,255.0,255.0,255.0
341,17.05,19.096036344463133,-6.063514894347871,-8.881691048422406,0.615443128730071,0.15786216945086196,-0.9769154804225266,0.02877714031619405,0.007685684669755943,-0.04676946893322764,0.0,70.0,255.0,255.0,255.0
342,17.1,19.12684447603912,-6.055612140473851,-8.930595404647974,0.616880833380371,0.15823205873647161,-0.9792474667272266,0.028731240563928395,0.007087507090908218,-0.04636313644645895,0.0,70.0,255.0,255.0,255.0
343,17.150000000000002,19.15772442780117,-6.047691688474224,-8.979615795095128,0.6183162527864638,0.15857092015995278,-0.9815517940671725,0.028696756942991897,0.006518733852178826,-0.04575036150811229,0.0,70.0,255.0,255.0,255.0
344,17.2,19.188676101317768,-6.039755048457856,-9.028750584054691,0.6197505090746702,0.1588839321216895,-0.9838225028780379,0.028696765451385886,0.006125700946579826,-0.04510692548276296,0.0,70.0,255.0,255.0,255.0
345,17.25,19.219699478708637,-6.031803295262055,-9.077998045382932,0.6211859293316024,0.15918349025461076,-0.9860624866154488,0.028761672668764504,0.006053663837324308,-0.04460426113297444,0.0,70.0,255.0,255.0,255.0
346,17.3,19.250794694250928,-6.023836699432395,-9.127356832716236,0.6226266763415467,0.15948929850542193,-0.9882829289913353,0.02890313525476529,0.006367843878773982,-0.044339788456149165,0.0,70.0,255.0,255.0,255.0
347,17.35,19.281962146342792,-6.015854365411513,-9.176826338282066,0.624076242857079,0.15982027464248816,-0.9904964654610637,0.029074822403529765,0.006962334987203889,-0.04429121518541024,0.0,70.0,255.0,255.0,255.0
348,17.400000000000002,19.313202318536636,-6.007854671968146,-9.226406479262343,0.6255341585818996,0.16018553200414232,-0.9927120505098763,0.02919791773194902,0.007635080313495024,-0.04439199703440977,0.0,70.0,255.0,255.0,255.0
349,17.45,19.344515562200982,-5.999835812211098,-9.276097543333053,0.6269960346302739,0.16058378267383766,-0.9949356651645047,0.02919676071577726,0.008176880366494998,-0.04458140537053623,0.0,70.0,255.0,255.0,255.0
350,17.5,19.375901921999663,-5.991796293700762,-9.325900045778793,0.6284538346534774,0.16100322004079182,-0.9971701910469299,0.028993340705341097,0.0083765571841532,-0.0448033658285496,0.0,70.0,255.0,255.0,255.0
351,17.55,19.40736094566633,-5.983735490207019,-9.375814562437746,0.629895368700808,0.16142143839225298,-0.9994160017473597,0.02855651913193924,0.008129653101107692,-0.045018603349156194,0.0,70.0,255.0,255.0,255.0
352,17.6,19.438891458869744,-5.975654149861537,-9.425841645953529,0.6313094865666713,0.16181618535090259,-1.0016720513818456,0.027971241386381962,0.007548560885073385,-0.045192935213123064,0.0,70.0,255.0,255.0,255.0
353,17.650000000000002,19.470491894322997,-5.967553871671929,-9.47598176757593,0.6326924928394462,0.16217629448076032,-1.003935295268672,0.027390639727897792,0.006855536968863873,-0.04527987879523465,0.0,70.0,255.0,255.0,255.0
354,17.7,19.50216070815369,-5.959436520413461,-9.526235175480396,0.6340485505394611,0.16250173904778897,-1.006200039261369,0.02696896557523587,0.0062733510158174965,-0.04522796585444411,0.0,70.0,255.0,255.0,255.0
355,17.75,19.533896749376943,-5.95130369776715,-9.576601771502068,0.6353893893969698,0.16280362958234207,-1.0084580918541164,0.0268569458611978,0.006024070129395653,-0.0449822755502538,0.0,70.0,255.0,255.0,255.0
356,17.8,19.565699647093385,-5.943156157455227,-9.627080984665808,0.6367342451255809,0.16310414606072854,-1.0106982668163944,0.027124587753135643,0.00622011714170867,-0.044525285327523534,0.0,70.0,255.0,255.0,255.0
357,17.85,19.5975701738895,-5.934993283161077,-9.677671598183707,0.6381018481722833,0.16342564129651294,-1.0129106203868687,0.027675736526688866,0.006758013547880637,-0.04393881552431367,0.0,70.0,255.0,255.0,255.0
358,17.900000000000002,19.629509831910614,-5.9268135933255754,-9.728372046704495,0.6395018187782497,0.1637799474155166,-1.0150921483688258,0.028323159719789714,0.007428179736734819,-0.04336755538449921,0.0,70.0,255.0,255.0,255.0
359,17.95,19.661520355767326,-5.9186152884195256,-9.77918081302059,0.6409341641442623,0.16416845927018642,-1.0172473759253187,0.02887460309111134,0.008023142143098738,-0.0429595051038234,0.0,70.0,255.0,255.0,255.0
360,18.0,19.69360324832504,-5.910396747398557,-9.830096784297027,0.6423892790873609,0.16458226162982648,-1.0193880988792081,0.029142885172817046,0.00834319959404084,-0.042859513320792075,0.0,70.0,255.0,255.0,255.0
361,18.05,19.725759283676062,-5.902157062256543,-9.88111962290851,0.643848452661544,0.1650027792295905,-1.0215333272573979,0.029031843142846014,0.008283304905720712,-0.043134054875437755,0.0,70.0,255.0,255.0,255.0
362,18.1,19.757988093591194,-5.893896469475598,-9.932250117022766,0.6452924634016455,0.16541059212039855,-1.023701504366752,0.028611220434626716,0.007904792849888764,-0.04368732716582002,0.0,70.0,255.0,255.0,255.0
363,18.150000000000002,19.790288530016227,-5.885616003044503,-9.983489773345186,0.6467095747050067,0.16579325851457938,-1.0259020599739799,0.028031313464538243,0.007346336158509104,-0.04433353603054968,0.0,70.0,255.0,255.0,255.0
364,18.2,19.822659051061695,-5.87731714362414,-10.034840323020164,0.6480955947480993,0.16614522573624946,-1.0281348579698069,0.02744590877483688,0.006747367124493309,-0.044881239837124554,0.0,70.0,255.0,255.0,255.0
365,18.25,19.855098089491037,-5.869001480470878,-10.086303259142166,0.6494541655824904,0.1664679952270287,-1.0303901839576923,0.027007504126075332,0.0062391221702817745,-0.04514368048962325,0.0,70.0,255.0,255.0,255.0
366,18.3,19.887604467619944,-5.860670344101437,-10.137879341415934,0.6507963451607068,0.16676913795327764,-1.0326492260187692,0.026800813565230897,0.005899437127965257,-0.045025208457971644,0.0,70.0,255.0,255.0,255.0
367,18.35,19.920177724007107,-5.85232456667555,-10.189568181744043,0.6521342469390135,0.16705793893982523,-1.0348927048034895,0.026795745372254487,0.005739178689445623,-0.0445972837383124,0.0,70.0,255.0,255.0,255.0
368,18.400000000000002,19.952817892313846,-5.843964550207454,-10.241368611896283,0.6534759196979323,0.1673430558222222,-1.0371089543926004,0.026916061948156766,0.0057509511536935065,-0.044012892568368045,0.0,70.0,255.0,255.0,255.0
369,18.45,19.9855253159769,-5.835590261093328,-10.293279077183303,0.6548258531338291,0.16763303405519459,-1.0392939940603263,0.027087962273242283,0.005926876538620007,-0.04342882226051614,0.0,70.0,255.0,255.0,255.0
370,18.5,20.01830047762723,-5.827201246801935,-10.345298011302315,0.6561847159252565,0.1679357434760842,-1.041451836618652,0.02723511696949288,0.00625630240111974,-0.04300175539597717,0.0,70.0,255.0,255.0,255.0
371,18.55,20.051143787569426,-5.81879668674572,-10.397424260845169,0.6575493648307784,0.16825866429530656,-1.043594169599924,0.02731212870337174,0.006719972222590798,-0.04281788518696317,0.0,70.0,255.0,255.0,255.0
372,18.6,20.084055414110306,-5.810375380372404,-10.449657428262308,0.6589159287955937,0.16860774069834328,-1.0457336251373484,0.02732673047880496,0.007257653230752226,-0.042839901517410794,0.0,70.0,255.0,255.0,255.0
373,18.650000000000002,20.117035380448986,-5.801935912675885,-10.501997623358903,0.6602820378786589,0.16898442961838178,-1.047878159751665,0.027302667183093376,0.007769020066294985,-0.0429793692196867,0.0,70.0,255.0,255.0,255.0
374,18.7,20.150083617898172,-5.793476937410566,-10.554445244237474,0.661646195513903,0.16938464270497278,-1.050031562059317,0.02725604166258222,0.00814615236279792,-0.043149671586384386,0.0,70.0,255.0,255.0,255.0
375,18.75,20.183200000000376,-5.784997448405388,-10.607000779564835,0.6630076420449171,0.16979904485466157,-1.0521931269103035,0.0272000000219208,0.008291658901082855,-0.04325731657388587,0.0,70.0,255.0,255.0,255.0
376,18.8,20.216384382102664,-5.7764970329251,-10.659664556928504,0.6643661955160951,0.17021380859508106,-1.0543572937167056,0.027143958337561003,0.008160161161008261,-0.04325047690212358,0.0,70.0,255.0,255.0,255.0
377,18.85,20.249636619551985,-5.76797606754588,-10.712436508936506,0.6657220378786732,0.1706150609707624,-1.056518174600516,0.02709733271402115,0.007794683912010214,-0.04316404259370188,0.0,70.0,255.0,255.0,255.0
378,18.900000000000002,20.28295658589053,-5.759435526828024,-10.765316374388556,0.6670759287874972,0.17099327698628208,-1.0586736979760758,0.027073269321675753,0.007289332218007871,-0.04306785899181875,0.0,70.0,255.0,255.0,255.0
379,18.95,20.316344212430735,-5.750876739847252,-10.818303878734113,0.6684293648108408,0.1713439941925632,-1.0608249604996978,0.02708787107508215,0.006748001190182151,-0.04302629092656218,0.0,70.0,255.0,255.0,255.0
380,19.0,20.349799522371615,-5.742301127408767,-10.871398870438526,0.6697847158950054,0.1716680771053003,-1.062976327068732,0.02716488293827979,0.006265080641920662,-0.04311695033489826,0.0,70.0,255.0,255.0,255.0
381,19.05,20.383322684020236,-5.733709932136722,-10.924601511440986,0.6711458531046688,0.17197050225675525,-1.0651366555331876,0.027312037948235002,0.005898870312304183,-0.04337349391860812,0.0,70.0,255.0,255.0,255.0
382,19.1,20.416914107682082,-5.725104077183092,-10.977912535991845,0.6725159196898289,0.17225796413653072,-1.0673136764605928,0.02748393866589538,0.005679974757732964,-0.04370392810937318,0.0,70.0,255.0,255.0,255.0
383,19.150000000000002,20.45057427598922,-5.716484135723069,-11.031332879087046,0.6738942469712583,0.17253849973252855,-1.069507048344125,0.027604255529212196,0.0056381265864935415,-0.04394919481445214,0.0,70.0,255.0,255.0,255.0
384,19.200000000000003,20.484303532379208,-5.707850227209839,-11.084863240826257,0.6752763452427502,0.17282177679518007,-1.071708595942038,0.027599187324867103,0.005801330056076637,-0.0439585912808127,0.0,70.0,255.0,255.0,255.0
385,19.25,20.518101910513494,-5.699201958043551,-11.13850373868125,0.676654165703745,0.1731186327381362,-1.0739029074722062,0.027392496197720106,0.006204009207966266,-0.043578938029753544,0.0,70.0,255.0,255.0,255.0
386,19.3,20.551968948949582,-5.690538363936025,-11.192253531573478,0.6780155948625222,0.1734421777159767,-1.0760664897450134,0.026954090335706837,0.006845383230213997,-0.042747948354815435,0.0,70.0,255.0,255.0,255.0
387,19.35,20.585903469999746,-5.681857740271953,-11.24611038765575,0.6793495747373157,0.1738031710611576,-1.0781777023076877,0.026368684181221624,0.007604577895659048,-0.0416237880914494,0.0,70.0,255.0,255.0,255.0
388,19.400000000000002,20.619903906423314,-5.67315804682991,-11.300071301804246,0.6806524632806443,0.1742026355055426,-1.0802288685541583,0.025788776160595717,0.008277322276040167,-0.04049349694916771,0.0,70.0,255.0,255.0,255.0
389,19.450000000000003,20.65396871632781,-5.664437476721399,-11.354133274511167,0.6819284523533753,0.17463090328876163,-1.0822270520026045,0.025368153521654335,0.008654417512765633,-0.03964489173746699,0.0,70.0,255.0,255.0,255.0
390,19.5,20.68809675165865,-5.6556949565010335,-11.408294007004507,0.6831892786328098,0.17506807725681917,-1.084193357727905,0.025257113621890426,0.008526901174388257,-0.03935126025034208,0.0,70.0,255.0,255.0,255.0
391,19.55,20.72228764419109,-5.646930668995717,-11.462552610283957,0.6844541637155643,0.17548359340620046,-1.0861621780276387,0.025525400241122043,0.007805284412487623,-0.039742311727941626,0.0,70.0,255.0,255.0,255.0
392,19.6,20.756542168030208,-5.638146597160413,-11.51691022480727,0.685741818656922,0.17584860569806793,-1.0881675889006992,0.02607684908575436,0.006667960744977108,-0.0406719684743706,0.0,70.0,255.0,255.0,255.0
393,19.650000000000002,20.790861826056783,-5.62934580842591,-11.571369369174027,0.6870618486241398,0.17615038948069817,-1.0902293748750758,0.026724276191814056,0.005448015545272966,-0.04184409011660506,0.0,70.0,255.0,255.0,255.0
394,19.700000000000003,20.825248352892622,-5.620531558212344,-11.625933162294778,0.6884142462761034,0.17639340725259522,-1.0923519979123597,0.02727542469536104,0.004486547679150021,-0.042949580698170564,0.0,70.0,255.0,255.0,255.0
395,19.75,20.859703250684394,-5.6117064677006505,-11.680604568965263,0.6897893910936759,0.17659904424861317,-1.0945243329448928,0.027543058640588924,0.004116358122008279,-0.043692011644935747,0.0,70.0,255.0,255.0,255.0
396,19.8,20.89422729200199,-5.602871653787482,-11.735385595589268,0.6911685521401623,0.17680504306479605,-1.0967211990768533,0.02743102198898839,0.004500565366161169,-0.04391003083945577,0.0,70.0,255.0,255.0,255.0
397,19.85,20.92882010589841,-5.594025963394171,-11.790276688872948,0.6925324932925747,0.17704910078522929,-1.0989153360288384,0.027009327399696303,0.005473695674762524,-0.04365738229967775,0.0,70.0,255.0,255.0,255.0
398,19.900000000000002,20.963480541331247,-5.585166743708959,-11.845277129192151,0.6938694848801319,0.1773524126322723,-1.101086937306821,0.02642871114382217,0.006699659832687388,-0.043080259136374366,0.0,70.0,255.0,255.0,255.0
399,19.950000000000003,20.998207054386423,-5.576290722130944,-11.90038538260363,0.6951753644069569,0.17771906676849802,-1.1032233619424758,0.025843434409367205,0.007833331164963653,-0.042330585005068144,0.0,70.0,255.0,255.0,255.0
400,20.0,21.032998077771943,-5.56739483703211,-11.955599465386399,0.6964538283210686,0.17813574574876867,-1.1053199958073279,0.02540664249437441,0.008535684984956049,-0.04156069316874067,0.0,70.0,255.0,255.0,255.0
401,20.05,21.06785243721853,-5.558477147556067,-12.010917382184363,0.6977160286563944,0.17857263526699363,-1.10737943125935,0.025203285699504363,0.008626393516220077,-0.04086931316358289,0.0,70.0,255.0,255.0,255.0
402,20.1,21.102769680637582,-5.54953757350541,-12.066337408512334,0.698974156891019,0.17899838510039068,-1.1094069271236862,0.025202204947305518,0.008206300845081671,-0.04029570512358305,0.0,70.0,255.0,255.0,255.0
403,20.150000000000002,21.137749852907632,-5.540577309046028,-12.121858074896732,0.7002362491511249,0.1793932653515018,-1.1114090017717082,0.025325354753036322,0.00750346167421867,-0.03988018802498772,0.0,70.0,255.0,255.0,255.0
404,20.200000000000003,21.172793305552695,-5.53159824697026,-12.177478308689505,0.7015066923663227,0.17974873126781254,-1.113394945926185,0.02549703813627957,0.006747213908742111,-0.03967325410876299,0.0,70.0,255.0,255.0,255.0
405,20.25,21.207900522144264,-5.5226024359192465,-12.23319756948935,0.7027859529647529,0.180067986742376,-1.1153763271825845,0.025638390031090807,0.006168873966494459,-0.0397172436512605,0.0,70.0,255.0,255.0,255.0
406,20.3,21.24307190084917,-5.513591448296022,-12.289015941407763,0.7040705313694318,0.180365618664462,-1.117366670291311,0.025703061320214715,0.0058994083538266295,-0.0400204554310335,0.0,70.0,255.0,255.0,255.0
407,20.35,21.278307575281207,-5.5045658740528,-12.344934236518482,0.7053562590967744,0.18065792757775867,-1.1193783727256879,0.02570278521112357,0.005896532179683334,-0.04051625408312276,0.0,70.0,255.0,255.0,255.0
408,20.400000000000002,21.313607526758847,-5.495525655538247,-12.400953778680332,0.7066408098905441,0.18095527188243032,-1.1214182956996233,0.025668098281883545,0.006052740556317104,-0.0410808535674434,0.0,70.0,255.0,255.0,255.0
409,20.450000000000003,21.348971656270262,-5.486470346864557,-12.457076066088444,0.7079230689249627,0.18126320163339038,-1.1234864580824322,0.02562221258024522,0.006270214132886309,-0.04157742420023425,0.0,70.0,255.0,255.0,255.0
410,20.5,21.384399833651344,-5.4773993353749075,-12.513302424488575,0.7092030311485686,0.18158229329571896,-1.1255760381196467,0.025587769410151395,0.00644886576992576,-0.04188231357762362,0.0,70.0,255.0,255.0,255.0
411,20.55,21.41989195938512,-5.468312117534985,-12.569633669900409,0.7104818458659778,0.18190808821038296,-1.1276746894401946,0.02557775573457377,0.006529912462394094,-0.041928865112517144,0.0,70.0,255.0,255.0,255.0
412,20.6,21.45544801823794,-5.459208526553869,-12.626069893432595,0.711760806722026,0.18223528454195836,-1.1297689246308984,0.025586654206577464,0.006528502836911088,-0.041724686470701045,0.0,70.0,255.0,255.0,255.0
413,20.650000000000002,21.49106804005732,-5.4500885890807895,-12.682610562363498,0.7130405112866356,0.18256093849407407,-1.1318471580872647,0.025602252117096214,0.006483804538337523,-0.04131098978064074,0.0,70.0,255.0,255.0,255.0
414,20.700000000000003,21.526752069366605,-5.440952432704462,-12.739254609241321,0.7143210319337356,0.18288366499579212,-1.1339000236089625,0.02561411154324844,0.006425729093528787,-0.04073704908851283,0.0,70.0,255.0,255.0,255.0
415,20.75,21.562500143250695,-5.43180022258121,-12.796000564724395,0.7156019224409604,0.18320351140342694,-1.135920862996116,0.02561053233236521,0.006383634982665143,-0.040041520685818455,0.0,70.0,255.0,255.0,255.0
416,20.8,21.5983122616107,-5.422632081564119,-12.852846695540933,0.7168820851669722,0.18352202849405863,-1.1379041756775443,0.025585915741999088,0.00637422851008651,-0.039263058478411494,0.0,70.0,255.0,255.0,255.0
417,20.85,21.634188351767392,-5.4134480197318045,-12.909790982292149,0.7181605140151603,0.1838409342544356,-1.139847168843957,0.025550597959167476,0.006389456472355448,-0.03850313523123816,0.0,70.0,255.0,255.0,255.0
418,20.900000000000002,21.670128313012217,-5.404247988138676,-12.966831412425329,0.7194371449628889,0.18416097414129418,-1.1417544892006681,0.025522893249529943,0.006412041289660664,-0.03791873043468286,0.0,70.0,255.0,255.0,255.0
419,20.950000000000003,21.70613206626368,-5.395031922317675,-13.023966431212216,0.7207128033401133,0.18448213838340166,-1.1436390418874254,0.02552134124655936,0.006426869492681675,-0.03766664052058388,0.0,70.0,255.0,255.0,255.0
420,21.0,21.74219959334623,-5.385799774300335,-13.081195316614071,0.7219892790875448,0.18480366109056234,-1.1455211532527265,0.025570101260541378,0.006416594300162615,-0.03789957570603519,0.0,70.0,255.0,255.0,255.0
421,21.05,21.778330994172435,-5.376551556208619,-13.138518546537489,0.7232698134661675,0.18512379781341792,-1.147428999458029,0.025678581296162406,0.006373173497653539,-0.03867372614720921,0.0,70.0,255.0,255.0,255.0
422,21.1,21.814526574692845,-5.367287394518994,-13.195938216559874,0.7245571372171611,0.1854409784403277,-1.1493885258674474,0.025810953955840432,0.006313671273350252,-0.03981745791872271,0.0,70.0,255.0,255.0,255.0
423,21.150000000000002,21.85078670789415,-5.358007458364586,-13.253457399124233,0.7258509088617515,0.18575516494075295,-1.1514107452499012,0.02590617488813507,0.0062680303024365,-0.04101688568294293,0.0,70.0,255.0,255.0,255.0
424,21.200000000000003,21.88711166557902,-5.348711878024918,-13.311079291084864,0.7271477547059746,0.18606778147057135,-1.1534902144357417,0.02590723675695017,0.006266792936138188,-0.04194464057860614,0.0,70.0,255.0,255.0,255.0
425,21.25,21.92350148336475,-5.339400680217529,-13.368806420567807,0.7284416325374465,0.18638184423436677,-1.1556052093077618,0.025761090594755842,0.006349987817166891,-0.04228017648966187,0.0,70.0,255.0,255.0,255.0
426,21.3,21.959955828832765,-5.330073693601482,-13.42663981201564,0.7297238637654502,0.18670278025228804,-1.157718232084708,0.025445959541059437,0.006533077498627193,-0.04186823739846801,0.0,70.0,255.0,255.0,255.0
427,21.35,21.996473869741294,-5.3207304021923,-13.484578243776278,0.7309862284915525,0.1870351519842295,-1.1597920330476086,0.025007357781348105,0.006755858433837858,-0.040876916544796416,0.0,70.0,255.0,255.0,255.0
428,21.400000000000002,22.03305445168192,-5.311370178403059,-13.542619015320401,0.732224599543585,0.18737836609567182,-1.1618059237391876,0.02453147479748452,0.0069158375006317385,-0.03964468254427089,0.0,70.0,255.0,255.0,255.0
429,21.450000000000003,22.069696329695653,-5.301992565582733,-13.600758836150197,0.7334393759713009,0.18772673573429266,-1.1637565013020357,0.024109198904653795,0.006912672050152224,-0.038520857770230066,0.0,70.0,255.0,255.0,255.0
430,21.5,22.10639838927905,-5.292597504829629,-13.658994665450605,0.7346355194340504,0.18806963330068704,-1.1656580095162106,0.023829545683540232,0.006635482403893889,-0.03785169968661961,0.0,70.0,255.0,255.0,255.0
431,21.55,22.143159881639058,-5.283185602252664,-13.717324637101818,0.735822330539655,0.18839028397468205,-1.1675416712706976,0.023737580538707448,0.0060407169732989985,-0.03781938486646652,0.0,70.0,255.0,255.0,255.0
432,21.6,22.179980622333016,-5.273758476432161,-13.775748832577674,0.7370092774879211,0.18867370499801694,-1.1694399480028572,0.023796910955553585,0.005264666552307062,-0.03830583161441581,0.0,70.0,255.0,255.0,255.0
433,21.650000000000002,22.21686080938785,-5.2643182317528625,-13.834268631902104,0.7382020216352103,0.18891675062991276,-1.1713722544321392,0.023930629885171584,0.004547687294653713,-0.03905426758876729,0.0,70.0,255.0,255.0,255.0
434,21.700000000000003,22.253800824496537,-5.25486680136917,-13.892886058020888,0.7394023404764383,0.18912847372748232,-1.173345374761734,0.02405596762500295,0.004128579469764304,-0.039811555377866625,0.0,70.0,255.0,255.0,255.0
435,21.75,22.290801043435494,-5.245405384380114,-13.951603169378277,0.7406076183977106,0.18932960857688919,-1.1753534099699259,0.024076717348364696,0.004248035947007622,-0.04033708070583231,0.0,70.0,255.0,255.0,255.0
436,21.8,22.327861586336308,-5.235933840511481,-14.010421399017881,0.7418100122112747,0.18955327732218308,-1.1773790828323172,0.02394423112477284,0.005011653675346395,-0.040494875818808396,0.0,70.0,255.0,255.0,255.0
437,21.85,22.36498204465662,-5.226450056647896,-14.069341077661509,0.7430020415101879,0.18983077394442383,-1.1794028975518067,0.023725930794782357,0.0062192282704209845,-0.04030609732623702,0.0,70.0,255.0,255.0,255.0
438,21.900000000000002,22.402161790487327,-5.216950763117039,-14.128361688773062,0.744182605290753,0.19017520014922518,-1.1814096925649409,0.023544234099759365,0.007497982085613586,-0.03985106761259516,0.0,70.0,255.0,255.0,255.0
439,21.950000000000003,22.439400305185696,-5.2074325366329735,-14.187482046918003,0.7453564649201638,0.19058057215298518,-1.1833880043130662,0.02351401684457244,0.00846746228564399,-0.039206720252416005,0.0,70.0,255.0,255.0,255.0
440,22.0,22.476697436979343,-5.19789270590174,-14.246700489204368,0.7465340069752102,0.19102194637778958,-1.1853303645901825,0.023759528980349387,0.008744401780091948,-0.03843596816501815,0.0,70.0,255.0,255.0,255.0
441,22.05,22.514053705883217,-5.1883303419951945,-14.306015083377021,0.7477324178181988,0.19145501233099438,-1.187231601129568,0.024332581207886506,0.008145582078089575,-0.03759337292947862,0.0,70.0,255.0,255.0,255.0
442,22.1,22.551470678761163,-5.178747204668641,-14.365423649317325,0.7489672650959989,0.19183650458559853,-1.1890897018831303,0.025097594302181392,0.006908303815844619,-0.03678791427894623,0.0,70.0,255.0,255.0,255.0
443,22.150000000000002,22.588950432392817,-5.169146691536635,-14.424924053565334,0.7502421772484169,0.19214584271257884,-1.1909103925574627,0.025813366117688474,0.005491340073771056,-0.03618500508650868,0.0,70.0,255.0,255.0,255.0
444,22.200000000000003,22.626494896486005,-5.159532620397383,-14.484514688573071,0.7515486017077677,0.19238563859297564,-1.1927082023917812,0.026241904390644777,0.004360918707124739,-0.03595382468670749,0.0,70.0,255.0,255.0,255.0
445,22.25,22.664105292563594,-5.149908127677337,-14.544194873804512,0.7528663676874814,0.19258193458329131,-1.1945057750261334,0.026145213348627294,0.003994310312283034,-0.03626701865950821,0.0,70.0,255.0,255.0,255.0
446,22.3,22.701781533254753,-5.140274426939054,-14.603965266075685,0.7541631230426304,0.19278506962420394,-1.196334904257732,0.025417844974029435,0.0046258781519981085,-0.037186457636728676,0.0,70.0,255.0,255.0,255.0
447,22.35,22.739521604867857,-5.130629620714917,-14.663828364230286,0.7554081521848843,0.19304452239849113,-1.1982244207898063,0.02424993908611839,0.005976740615754039,-0.038496930872433666,0.0,70.0,255.0,255.0,255.0
448,22.400000000000002,22.77732234847324,-5.120969974699205,-14.723787708154665,0.7565881169512423,0.19338274368577935,-1.2001845973449754,0.022997732667917603,0.007507473470358406,-0.03981170924536315,0.0,70.0,255.0,255.0,255.0
449,22.450000000000003,22.81518041656298,-5.111291346346339,-14.783846823964783,0.7577079254516761,0.19379526974552697,-1.2022055917143426,0.022023913377111626,0.008682429319595286,-0.040732946036925455,0.0,70.0,255.0,255.0,255.0
450,22.5,22.85309314101841,-5.101590447724652,-14.8440082673261,0.7587905082889534,0.19425098661773887,-1.204257891948668,0.021687589651619987,0.008962459534345157,-0.040867985166492815,0.0,70.0,255.0,255.0,255.0
451,22.55,22.891059467391877,-5.091866247684565,-14.90427261315965,0.7598766844168381,0.19469151569896148,-1.2062923902309919,0.022163125138874307,0.008083958926086154,-0.040033197456423864,0.0,70.0,255.0,255.0,255.0
452,22.6,22.929080809460093,-5.082121296154756,-14.964637506349199,0.7610068208028409,0.1950593825103475,-1.2082612116943103,0.02325276590333658,0.006357321133965144,-0.038476017243915805,0.0,70.0,255.0,255.0,255.0
453,22.650000000000002,22.96716014947216,-5.07236030943353,-15.025098734329081,0.7622019610071717,0.195327247812358,-1.2101399919553835,0.024564747503319495,0.004387017793927583,-0.03667818124171163,0.0,70.0,255.0,255.0,255.0
454,22.700000000000003,23.00530100556081,-5.06258857137352,-15.085651505544737,0.7634632955531728,0.19549808428974025,-1.2119290298184815,0.02570309478429067,0.0027752847604922692,-0.035133225664907286,0.0,70.0,255.0,255.0,255.0
455,22.75,23.043506479027478,-5.052810501004556,-15.146291637310929,0.7647722704856008,0.19560477628840722,-1.2136533145218742,0.026284474666482538,0.0021157583102393573,-0.034325003377944086,0.0,70.0,255.0,255.0,255.0
456,22.8,23.08177823260937,-5.043028093744679,-15.207016836996925,0.7660917430198211,0.19570966012076418,-1.215361530156276,0.026109794328021962,0.0027052325306087255,-0.034500612677490494,0.0,70.0,255.0,255.0,255.0
457,22.85,23.12011565332946,-5.03323953499248,-15.267827790326557,0.767383249918403,0.1958752995414681,-1.2171033757896232,0.025309813146989768,0.0042586834731572765,-0.03546548033845909,0.0,70.0,255.0,255.0,255.0
458,22.900000000000002,23.15851655760121,-5.023440563790532,-15.328727174575887,0.7686227243345201,0.1961355284680799,-1.2189080781901218,0.024172461466065442,0.006198907568411016,-0.03680908560195206,0.0,70.0,255.0,255.0,255.0
459,22.950000000000003,23.196977925762912,-5.013625982145672,-15.389718598145569,0.7698004960650096,0.1964951902983092,-1.2207842843498184,0.022990280917056793,0.007943797605314273,-0.038114291164070835,0.0,70.0,255.0,255.0,255.0
460,23.0,23.23549660720771,-5.0037910447607015,-15.450805603010869,0.7709217524262257,0.19692990822861134,-1.222719507306529,0.02204649303827466,0.008918563169313387,-0.03896803861618281,0.0,70.0,255.0,255.0,255.0
461,23.05,23.274070101005535,-4.9939329913228105,-15.511990548876222,0.772005145368837,0.19738704661524054,-1.2246810882114367,0.021503245331899734,0.008822476919068123,-0.039145517334659985,0.0,70.0,255.0,255.0,255.0
462,23.1,23.312697121744595,-4.984052340099177,-15.573273711832012,0.7730720769594157,0.19781215592051815,-1.226634059039995,0.02134070877701788,0.007862397187530235,-0.03875203809275973,0.0,70.0,255.0,255.0,255.0
463,23.150000000000002,23.351377308701476,-4.974151775730759,-15.634653954780221,0.7741392162465388,0.19817328633399356,-1.2285562920207127,0.021474357678741285,0.006482060557644331,-0.03803382133966693,0.0,70.0,255.0,255.0,255.0
464,23.200000000000003,23.39011104336925,-4.964235011465778,-15.696129341034084,0.7752195127272898,0.19846036197628258,-1.2304374411739616,0.021821469197647048,0.0051231844915733404,-0.037230495460960356,0.0,70.0,255.0,255.0,255.0
465,23.25,23.428899259974205,-4.9543057395331305,-15.757697698897617,0.7763213631663035,0.1986856047831509,-1.2322793415668087,0.022293562507158526,0.004221923744118783,-0.036578786211016734,0.0,70.0,255.0,255.0,255.0
466,23.3,23.46774317968588,-4.944366450987463,-15.819357275190765,0.7774488689780057,0.19888255435069446,-1.2340953197950633,0.022825476092336316,0.004016981005428022,-0.03621615248103893,0.0,70.0,255.0,255.0,255.0
467,23.35,23.506644146872006,-4.934417484098061,-15.881107230877124,0.7786039107755371,0.1990873028836937,-1.2359009568149126,0.023367444985566976,0.004401751086380301,-0.03612179852705566,0.0,70.0,255.0,255.0,255.0
468,23.400000000000002,23.545603570763433,-4.924457720699094,-15.942947370872256,0.7797856134765624,0.1993227294593325,-1.2377074996477688,0.023847497094564574,0.005124505212794617,-0.03622187612748462,0.0,70.0,255.0,255.0,255.0
469,23.450000000000003,23.584622708219662,-4.914485211152128,-16.0048779808419,0.7809886604849936,0.19959975340497316,-1.239523144427661,0.02417866746817765,0.005942578647566421,-0.036456127925177384,0.0,70.0,255.0,255.0,255.0
470,23.5,23.623702436811932,-4.904497745358596,-16.066899685315022,0.7822034802233802,0.19991698732408913,-1.2413531124402866,0.024283219636345166,0.006617797798114111,-0.03677686315786133,0.0,70.0,255.0,255.0,255.0
471,23.55,23.662843056242,-4.894493512419719,-16.12901329208593,0.7834169824486281,0.20026153318478457,-1.2432008307434472,0.024127624192971098,0.007010764560799743,-0.0371438121348433,0.0,70.0,255.0,255.0,255.0
472,23.6,23.702044135056795,-4.884471592040118,-16.191219768389367,0.7846162426426773,0.2006180637801691,-1.245067493653771,0.02375398680705132,0.00713516723127583,-0.037481700200814316,0.0,70.0,255.0,255.0,255.0
473,23.650000000000002,23.741304680506268,-4.874431706041702,-16.253520041451306,0.7857923811293333,0.20097504990791215,-1.2469490007635287,0.023252017574293404,0.0070536715043090226,-0.03767690258946743,0.0,70.0,255.0,255.0,255.0
474,23.700000000000003,23.78062337316973,-4.864374087049327,-16.31591466846572,0.7869414444001066,0.2013234309306,-1.2488351839127176,0.022723348108755204,0.006820813272856441,-0.03761221894507116,0.0,70.0,255.0,255.0,255.0
475,23.75,23.81999882494628,-4.854299362948642,-16.378403559842578,0.7880647159402088,0.2016571312351978,-1.2507102226580358,0.02226157759857017,0.006498866415771687,-0.037165789128934534,0.0,70.0,255.0,255.0,255.0
476,23.8,23.85942984476375,-4.844208373925807,-16.440985690731523,0.7891676021599636,0.20197331757217718,-1.252551762825611,0.02192351431844486,0.006132221823218487,-0.0362942866260596,0.0,70.0,255.0,255.0,255.0
477,23.85,23.898915585162275,-4.834102031191424,-16.50365873612514,0.7902570673720533,0.20227035341751964,-1.2543396513206417,0.021732971421073444,0.0057384191491038905,-0.035154943791226856,0.0,70.0,255.0,255.0,255.0
478,23.900000000000002,23.938455551500954,-4.823981338584055,-16.566419655863587,0.791340899302071,0.20254715948708757,-1.2560672572047338,0.021708908125006587,0.005341647930823257,-0.03402864871233646,0.0,70.0,255.0,255.0,255.0
479,23.950000000000003,23.978049675092482,-4.8138473152427155,-16.629265461845613,0.7924279581845539,0.20280451821060197,-1.2577425161918754,0.021867427279076423,0.004979855907105701,-0.03320054408249007,0.0,70.0,255.0,255.0,255.0
480,24.0,24.01769834731941,-4.803700886762995,-16.692193907482775,0.7935276420299786,0.20304514507779814,-1.2593873116129828,0.022226460650998092,0.0046827738352739345,-0.032943943031682466,0.0,70.0,255.0,255.0,255.0
481,24.05,24.05740243929548,-4.793542800734936,-16.75520419300691,0.7946506042496537,0.20327279559412936,-1.2610369104950436,0.022779344171652838,0.004467061432844588,-0.033386640426158465,0.0,70.0,255.0,255.0,255.0
482,24.1,24.097163407744375,-4.783373607203582,-16.81829759853228,0.7958055764471439,0.2034918512210826,-1.2627259756555986,0.023433288345131587,0.0043484522093351075,-0.03436957358431414,0.0,70.0,255.0,255.0,255.0
483,24.150000000000002,24.136982996940194,-4.773193615612827,-16.88147679057247,0.7969939330841669,0.20370764081506287,-1.264473867853475,0.024031510763933284,0.004342440735438657,-0.035575775291718514,0.0,70.0,255.0,255.0,255.0
484,24.200000000000003,24.176862801052792,-4.7630028431220754,-16.944744985317627,0.7982087275235372,0.20392609529462646,-1.2662835531847705,0.024414681706730335,0.004453049812092047,-0.03667334365040631,0.0,70.0,255.0,255.0,255.0
485,24.25,24.216803869692548,-4.752801006083365,-17.008105145890948,0.7994354012548399,0.20415294579627208,-1.2681412022185157,0.024440598447483808,0.004674000947080259,-0.03733442941893372,0.0,70.0,255.0,255.0,255.0
486,24.3,24.256806341178276,-4.742587548542448,-17.071559105539478,0.8006527873682856,0.2043934953893345,-1.2700169961266639,0.0240447966362467,0.004993844800171843,-0.03738637777814802,0.0,70.0,255.0,255.0,255.0
487,24.35,24.296869148429376,-4.732361656544431,-17.135106845503614,0.8018398809184646,0.20465233027628926,-1.2718798399963305,0.023300122284553026,0.005386932852324833,-0.03693580615902192,0.0,70.0,255.0,255.0,255.0
488,24.400000000000002,24.336990329270122,-4.722122315514819,-17.19874708953911,0.8029827995967409,0.20493218867456697,-1.273710576742566,0.022360480058836174,0.005807749966013631,-0.036218366672002844,0.0,70.0,255.0,255.0,255.0
489,24.450000000000003,24.37716742838905,-4.711868437676975,-17.26247790317787,0.8040759289243482,0.20523310527289063,-1.2755016766635308,0.02139282025268585,0.006202257198495431,-0.035473167564958885,0.0,70.0,255.0,255.0,255.0
490,24.5,24.417397922162557,-4.70159900498753,-17.326297257205464,0.8051220816220095,0.20555241439441652,-1.277257893499062,0.020543173526732517,0.006525185080352713,-0.03494631132099357,0.0,70.0,255.0,255.0,255.0
491,24.55,24.45767963655125,-4.691313196237533,-17.390203692527777,0.8061302462770215,0.2058856237809259,-1.2789963077956301,0.019900956462493014,0.006750846080638695,-0.03477339624495812,0.0,70.0,255.0,255.0,255.0
492,24.6,24.49801094679026,-4.681010442609438,-17.454196887985027,0.8071121772682588,0.20622749900248039,-1.2807352331235577,0.019519882191687543,0.006866520344406268,-0.03488263301285599,0.0,70.0,255.0,255.0,255.0
493,24.650000000000002,24.538390854278077,-4.670690446337285,-17.518277215840133,0.8080822344961902,0.20657227581536652,-1.2824845710969157,0.019453748489439704,0.0068638554368227744,-0.03511700510827609,0.0,70.0,255.0,255.0,255.0
494,24.700000000000003,24.57881917023988,-4.660353215027901,-17.58244534509472,0.8090575521172028,0.20691388454616266,-1.2842469336343854,0.019746811177157042,0.006744634679911599,-0.035333100311163435,0.0,70.0,255.0,255.0,255.0
495,24.75,24.619296609489798,-4.649999057882669,-17.64670190920357,0.8100569156139059,0.20724673928335768,-1.286017881128032,0.020446660824191554,0.006521296028161316,-0.03539239988867848,0.0,70.0,255.0,255.0,255.0
496,24.8,24.65982486180127,-4.639628541099565,-17.711047133207522,0.8111022181996219,0.2075660141489788,-1.2877861736232532,0.02154671550620435,0.006208458523815352,-0.035220177100114824,0.0,70.0,255.0,255.0,255.0
497,24.85,24.70040683130976,-4.629242456467771,-17.775480526565897,0.8122115871645263,0.20786758513573922,-1.2895398988380435,0.02285867062568059,0.005827824930726422,-0.034856365750712826,0.0,70.0,255.0,255.0,255.0
498,24.900000000000002,24.74104602051772,-4.618841782585991,-17.840001123091326,0.81338808526219,0.20814879664205144,-1.2912718101983245,0.024062847664652054,0.00541766744692751,-0.034390908933445985,0.0,70.0,255.0,255.0,255.0
499,24.950000000000003,24.78174563983598,-4.608427576803566,-17.90460770758573,0.8146178719309916,0.20840935188043197,-1.2929789897313881,0.024828699609713567,0.005024891727778424,-0.033907717904924084,0.0,70.0,255.0,255.0,255.0
500,25.0,24.82250780771082,-4.598000847397948,-17.969299022064465,0.8158709552231613,0.20865128581482928,-1.294662581988817,0.02483419249941221,0.004685668103210361,-0.03347607047707868,0.0,70.0,255.0,255.0,255.0
501,25.05,24.863332735358295,-4.587562448222083,-18.03407396578461,0.8171012911809328,0.208877918690753,-1.296326596779096,0.02393735633745564,0.004422033110174084,-0.03313918206906408,0.0,70.0,255.0,255.0,255.0
502,25.1,24.904217936828914,-4.577113055528873,-18.098931681742375,0.8182646908569069,0.2090934891258467,-1.2979765001957233,0.022376157917136652,0.004259475969892179,-0.03292920001953803,0.0,70.0,255.0,255.0,255.0
503,25.150000000000002,24.945159204443986,-4.566653099309498,-18.163871615804183,0.8193389069726464,0.20930386628774222,-1.2996195167810498,0.02060665572223286,0.004228178739307253,-0.03288206312213049,0.0,70.0,255.0,255.0,255.0
504,25.200000000000003,24.98615182752618,-4.556182668900099,-18.22889363342048,0.8203253564291302,0.2095163069997774,-1.3012647065079364,0.01910342534685583,0.004349085122967722,-0.03302931478295079,0.0,70.0,255.0,255.0,255.0
505,25.25,25.0271917400869,-4.54570146860952,-18.293998086454977,0.821249249507332,0.209738774800039,-1.302922448259345,0.018332559857370256,0.004639994262145564,-0.03340728090357459,0.0,70.0,255.0,255.0,255.0
506,25.3,25.068276752476912,-4.535208791420095,-18.359185878246414,0.8221586124148672,0.20998030642599197,-1.3046054345982938,0.018530432571850497,0.005097721388924725,-0.03401740697910327,0.0,70.0,255.0,255.0,255.0
507,25.35,25.109407601328385,-4.524703437966921,-18.424458629914806,0.8231022927645171,0.21024854693893147,-1.3063241889572552,0.019503177889035328,0.005653432028829286,-0.0347459950109652,0.0,70.0,255.0,255.0,255.0
508,25.400000000000002,25.150586981753364,-4.5141839367262016,-18.48981829714214,0.8241089302037707,0.2105456496288749,-1.3080800340993903,0.0208440492588835,0.006188778435589626,-0.035399999417862205,0.0,70.0,255.0,255.0,255.0
509,25.450000000000003,25.191818494348762,-4.503648873004034,-18.555266633324745,0.8251866976904054,0.21086742478249043,-1.3098641888990414,0.022137738863747813,0.00657979342193471,-0.03578276189060148,0.0,70.0,255.0,255.0,255.0
510,25.5,25.233105651522404,-4.4930971942479525,-18.620804716032044,0.8263227040901455,0.21120362897106837,-1.3116583102884505,0.022971605368127257,0.006710345523863737,-0.03570282455385154,0.0,70.0,255.0,255.0,255.0
511,25.55,25.274450764757777,-4.482528510106927,-18.68643246435359,0.8274838582272181,0.2115384593348768,-1.3134344713544266,0.02312207887520401,0.006526568512832398,-0.03507687766024503,0.0,70.0,255.0,255.0,255.0
512,25.6,25.315854037345126,-4.471943348314465,-18.752148163167487,0.8286349119776659,0.2118562858223516,-1.315165998054475,0.022701107217315553,0.006091271439245816,-0.03405306702362054,0.0,70.0,255.0,255.0,255.0
513,25.650000000000002,25.357314255955544,-4.461342881524692,-18.817949064159038,0.8297539689489497,0.2121475864788014,-1.3168397780567886,0.021965492232567385,0.005533071155383595,-0.03291337044295517,0.0,70.0,255.0,255.0,255.0
514,25.700000000000003,25.39882943424002,-4.450728589666585,-18.883832140973166,0.8308314612009227,0.21240959293788997,-1.3184573350987705,0.02116650497860917,0.004991228369011225,-0.031951898726134687,0.0,70.0,255.0,255.0,255.0
515,25.75,25.440397402075636,-4.440101922230903,-18.949794797668915,0.8318706194468106,0.2126467093157025,-1.3200349679294021,0.020556962726203665,0.004606642289761709,-0.03146142087970816,0.0,70.0,255.0,255.0,255.0
516,25.8,25.482016496184702,-4.429463918735014,-19.015835637766106,0.832887157473543,0.21287025716686614,-1.3216034771867413,0.02028008642511736,0.004455491738841744,-0.03158836909484819,0.0,70.0,255.0,255.0,255.0
517,25.85,25.52368611782299,-4.418814896514216,-19.08195514538759,0.8338986280893224,0.21309225848958668,-1.323193804838887,0.02028782447709432,0.004497845851147986,-0.032193625007082005,0.0,70.0,255.0,255.0,255.0
518,25.900000000000002,25.565406358993634,-4.408154692886056,-19.148155018249994,0.8349159399212525,0.21332004175198094,-1.3248228396874495,0.02046022889956589,0.004643412468130492,-0.03299463069872388,0.0,70.0,255.0,255.0,255.0
519,25.950000000000003,25.607177711815115,-4.397482892339018,-19.214437429356334,0.835944650979279,0.21355659973639973,-1.3264932679087593,0.020688642155164416,0.004801493567807569,-0.03370306977856785,0.0,70.0,255.0,255.0,255.0
520,26.0,25.649000824091562,-4.386799032912416,-19.28080434504087,0.8369848041367689,0.2138001911087617,-1.3281931466653063,0.020860590344540242,0.004871103964099177,-0.034023519897630194,0.0,70.0,255.0,255.0,255.0
521,26.05,25.690876192228792,-4.376102873228142,-19.347256744022864,0.838030710013733,0.21404371013280965,-1.3298956198985223,0.020911514814514476,0.004798690639429282,-0.033803585354164056,0.0,70.0,255.0,255.0,255.0
522,26.1,25.732803895092935,-4.365394661899135,-19.413793907030723,0.8390759556182203,0.21428006017270462,-1.3315735052007227,0.02086852727529731,0.004638277557766912,-0.03317877327582153,0.0,70.0,255.0,255.0,255.0
523,26.150000000000002,25.774783787790614,-4.354674867210871,-19.480414094542937,0.8401175627412627,0.21450753788858634,-1.3332134972261045,0.02079182061116569,0.004491507410353535,-0.03242092727511192,0.0,70.0,255.0,255.0,255.0
524,26.200000000000003,25.81681565136706,-4.343943908110276,-19.547115256753333,0.8411551376793369,0.21472921091373998,-1.334815597928234,0.020732725939254237,0.004449883606660876,-0.03179619512110321,0.0,70.0,255.0,255.0,255.0
525,26.25,25.858899301558548,-4.333201946119497,-19.61389565433576,0.8421908353351881,0.21495252624925243,-1.3363931167382148,0.020748647919788255,0.004604885909387235,-0.03157643426163759,0.0,70.0,255.0,255.0,255.0
526,26.3,25.90103473490058,-4.322448655485351,-19.680754568427155,0.8432300024713157,0.2151896995046787,-1.3379732413543977,0.02086714102418341,0.00499683195096523,-0.03189714962701373,0.0,70.0,255.0,255.0,255.0
527,26.35,25.94322230180568,-4.311682976169029,-19.7476929784712,0.8442775494376065,0.21545220944434895,-1.3395828317009162,0.021038066424949875,0.005547272356309918,-0.032605873964897114,0.0,70.0,255.0,255.0,255.0
528,26.400000000000002,25.98546248984434,-4.300903434540916,-19.814712851597246,0.8453338091138107,0.2157444267403097,-1.3412338287508874,0.02117248865545207,0.006111490290994226,-0.033407068126578565,0.0,70.0,255.0,255.0,255.0
529,26.450000000000003,26.02775568271706,-4.290108533494998,-19.88181636134629,0.8463947983031517,0.21606335847344837,-1.342923538513574,0.02118716737342652,0.006546198112733492,-0.034012289598095435,0.0,70.0,255.0,255.0,255.0
530,26.5,26.070101969674656,-4.279297098693571,-19.949005205448604,0.8474525258511534,0.21639904655158304,-1.344635057710697,0.020996845950804754,0.006717371045983356,-0.03413880832354721,0.0,70.0,255.0,255.0,255.0
531,26.55,26.112500935302176,-4.26846862883984,-20.01627986711736,0.8484944828982321,0.2167350955780467,-1.3463374193459288,0.020566121555276595,0.006560182022852246,-0.0336474431744449,0.0,70.0,255.0,255.0,255.0
532,26.6,26.15495141796448,-4.2576235891357666,-20.083638947383196,0.849509138006681,0.21705506475386827,-1.3479998020281414,0.019980978585820708,0.006137108541892644,-0.03268491035193222,0.0,70.0,255.0,255.0,255.0
533,26.650000000000002,26.197451849102844,-4.246763122364453,-20.151079847320172,0.8504925807568142,0.21734880643223597,-1.349605910381122,0.019397292365042063,0.005578895062186007,-0.031544459893950716,0.0,70.0,255.0,255.0,255.0
534,26.700000000000003,26.24000067604016,-4.235888708492543,-20.21859953842131,0.8514488672431852,0.21761295426008687,-1.3511542480175365,0.018971378461785093,0.005024811121856487,-0.030520707091952204,0.0,70.0,255.0,255.0,255.0
535,26.75,26.282596735827163,-4.225001826938445,-20.286195272121926,0.8523897186029927,0.21785128754442162,-1.3526579810903172,0.018855949628360236,0.004613648554219196,-0.029896304471321855,0.0,70.0,255.0,255.0,255.0
536,26.8,26.32523964790046,-4.214103579738101,-20.35386533653034,0.8533344622060213,0.21807431911550879,-1.3541438784646687,0.01912217228472457,0.004421927136988302,-0.02981965110109286,0.0,70.0,255.0,255.0,255.0
537,26.85,26.367930182047765,-4.203194395026894,-20.421609659968393,0.8543019358314652,0.21829348025812045,-1.3556399462004265,0.019673543709686214,0.004420657112813586,-0.03020637273962734,0.0,70.0,255.0,255.0,255.0
538,26.900000000000002,26.410669841483607,-4.192274231712289,-20.489429331150383,0.8553018165769899,0.21851638482679014,-1.3571645157386314,0.020321978253790007,0.004537404985338611,-0.030863204188946725,0.0,70.0,255.0,255.0,255.0
539,26.950000000000003,26.453460363705464,-4.181342756544215,-20.557326111542256,0.8563341336568442,0.21874722075665431,-1.3587262666193212,0.02087454488695073,0.0047007578658941895,-0.03159159532017952,0.0,70.0,255.0,255.0,255.0
540,27.0,26.49630325484929,-4.170399509636623,-20.625301957812315,0.857389271065685,0.21898646061337956,-1.3603236752706493,0.021143364856612834,0.004836053384149608,-0.0321959737874522,0.0,70.0,255.0,255.0,255.0
541,27.05,26.539199290812032,-4.159444110482877,-20.69335847906932,0.8584484701425055,0.21923082609506928,-1.3619458639980664,0.02103190258999632,0.004899335536645566,-0.03256169135035236,0.0,70.0,255.0,255.0,255.0
542,27.1,26.58214810186354,-4.148476427027116,-20.76149654421212,0.8594924613246846,0.21947639416704412,-1.3635798444056846,0.02061025450110776,0.004901195408635317,-0.03269416745297349,0.0,70.0,255.0,255.0,255.0
543,27.150000000000002,26.6251485369445,-4.137496471066172,-20.82971646350989,0.8605094955926162,0.2197209456359328,-1.3652152807433637,0.020029386698539042,0.004869713434896283,-0.03263647626390309,0.0,70.0,255.0,255.0,255.0
