idx,t,px,py,pz,vx,vy,vz,ax,ay,az,yaw,mode,ledr,ledg,ledb
0,0.0,-7.5000000000000036,-1.5000000000000002,1.0460776154247579e-18,0.00066963216069027,-4.164091311320561e-05,0.0005973704707594584,-0.017530881071436966,0.004277606087388364,-0.029049136471729717,0.0,70.0,255.0,255.0,255.0
1,0.05,-7.499966518391969,-1.5000020820456559,2.986852353797397e-05,-0.0002069118928815783,0.00017223939125621257,-0.0008550863528270275,-0.02620496147311968,0.006381708370173378,-0.04354256264862836,0.0,70.0,255.0,255.0,255.0
2,0.1,-7.500020691189292,-1.4999827760608746,-8.550863528270171e-05,-0.0019508639866216981,0.0005965299239041322,-0.0037568857941033783,-0.0346963216069085,0.008416409131140057,-0.05797370470759457,0.0,70.0,255.0,255.0,255.0
3,0.15000000000000002,-7.500161604790631,-1.4999424290532655,-0.00034582005587236386,-0.003676544053572428,0.0010138803043702183,-0.006652456823586485,-0.034330881072630604,0.008277606087103706,-0.05784913647173291,0.0,70.0,255.0,255.0,255.0
4,0.2,-7.500388345594649,-1.4998813880304376,-0.0007507543176413502,-0.0053839520938847585,0.0014242905326145028,-0.00954179944127667,-0.03396448723904655,0.00813589109138757,-0.05772195491623536,0.0,70.0,255.0,255.0,255.0
5,0.25,-7.50070000000002,-1.499800000000004,-0.001300000000000031,-0.007072992777477083,0.0018274694135089753,-0.01242465231521002,-0.033592611939425865,0.007977432372596738,-0.0575797467728386,0.0,70.0,255.0,255.0,255.0
6,0.30000000000000004,-7.501095644872397,-1.4996986410890867,-0.0019932195491623524,-0.008743213287827345,0.0022220337698741766,-0.01529977411856053,-0.03321379875202979,0.007797781113838553,-0.057418519469891544,0.0,70.0,255.0,255.0,255.0
7,0.35000000000000003,-7.501574321328802,-1.4995777966230166,-0.002829977411856084,-0.010394372652680062,0.0026072475248928306,-0.018166504262199176,-0.032840467029160436,0.007634873578554746,-0.057272318754840505,0.0,70.0,255.0,255.0,255.0
8,0.4,-7.502135082137665,-1.4994379163365974,-0.00380986997538227,-0.012027259990743389,0.002985521127729651,-0.02102700599404458,-0.032492450661525396,0.007549294545738938,-0.05719551619449953,0.0,70.0,255.0,255.0,255.0
9,0.45,-7.502777047327877,-1.4992792445102436,-0.004932678011260542,-0.013643617718832601,0.0033621769794667244,-0.02388605588164913,-0.03218273785510206,0.007594511069042298,-0.05723540710791744,0.0,70.0,255.0,255.0,255.0
10,0.5,-7.503499443909548,-1.4991016986386507,-0.006198475563547183,-0.015245533776253595,0.003744972234633881,-0.026750546704836325,-0.03190708613809434,0.007823081643687502,-0.05743588965257864,0.0,70.0,255.0,255.0,255.0
11,0.55,-7.504301600705502,-1.4989047472867802,-0.007607732681744175,-0.016834326332642036,0.004144485143835475,-0.029629644846906993,-0.03166424246989763,0.00825225162779386,-0.05781138877032108,0.0,70.0,255.0,255.0,255.0
12,0.6000000000000001,-7.505182876542812,-1.4986872501242672,-0.009161440048237882,-0.018411958023243358,0.004570197397413267,-0.03253168558186843,-0.031488810983315574,0.008808028669893275,-0.05830446961336694,0.0,70.0,255.0,255.0,255.0
13,0.65,-7.5061427965078265,-1.498447727547039,-0.010860901239931019,-0.019983207430973593,0.005025288010824802,-0.035460091808243686,-0.03143159678380414,0.009358627796429708,-0.05881118637777523,0.0,70.0,255.0,255.0,255.0
14,0.7000000000000001,-7.5071811972859095,-1.4981847213231847,-0.012707449229062251,-0.02155511770162377,0.005506060177056238,-0.038412804219645956,-0.031530886878261555,0.009769874896270458,-0.05922673046508398,0.0,70.0,255.0,255.0,255.0
15,0.75,-7.508298308277989,-1.4978971215293333,-0.014702181661895615,-0.02313629611879975,0.006002275500451848,-0.041382764854752084,-0.031823590179680394,0.009915692073358962,-0.05946446003770485,0.0,70.0,255.0,255.0,255.0
16,0.8,-7.5094948268977895,-1.4975844937731395,-0.01684572571453746,-0.02473747671959181,0.006497629384392134,-0.04435925022341644,-0.032315877136035454,0.009736500889689914,-0.05947951259539057,0.0,70.0,255.0,255.0,255.0
17,0.8500000000000001,-7.510772055949948,-1.497247358590894,-0.01913810668423726,-0.026367883832403294,0.006975925589420839,-0.04733071611429114,-0.03292344987713136,0.009297487266390903,-0.05927427831616941,0.0,70.0,255.0,255.0,255.0
18,0.9,-7.51213161528103,-1.4968869012141974,-0.021578797325966573,-0.028029821707304947,0.007427378111031224,-0.05028667805503338,-0.03350032304281214,0.008732557904855831,-0.05887610193076355,0.0,70.0,255.0,255.0,255.0
19,0.9500000000000001,-7.5135750381206785,-1.496504620779791,-0.024166774489740597,-0.029717916136684508,0.007849181379906423,-0.053218326307367496,-0.033894740272444324,0.008185476525257585,-0.05832387149794643,0.0,70.0,255.0,255.0,255.0
20,1.0,-7.515103406894698,-1.4961019830762068,-0.026900629956703323,-0.03141929573454938,0.008245925763556983,-0.056119065204828025,-0.033954543819447736,0.007802168710924207,-0.05764631681664904,0.0,70.0,255.0,255.0,255.0
21,1.05,-7.5167169676941334,-1.4956800282034353,-0.0297786810102234,-0.03311337051862928,0.008629398250998843,-0.0589829579890324,-0.03361173616571733,0.007661231993050244,-0.056876248493806236,0.0,70.0,255.0,255.0,255.0
22,1.1,-7.518414743946561,-1.495239043251107,-0.03279892575560656,-0.03478046935112111,0.009012048962862007,-0.06180669005420865,-0.03298186503224443,0.0077183859007901034,-0.05611655232009363,0.0,70.0,255.0,255.0,255.0
23,1.1500000000000001,-7.5201950146292456,-1.494778823307149,-0.035959350015644265,-0.036411557021853724,0.009401236841077854,-0.06459461322104176,-0.03228347468118287,0.00787561610853249,-0.05552794902271632,0.0,70.0,255.0,255.0,255.0
24,1.2000000000000002,-7.5220558996487465,-1.4942989195669991,-0.03925838707771074,-0.0380088168192394,0.009799610573715256,-0.06735948495648028,-0.03174292592476036,0.008034419469105103,-0.055270044615390174,0.0,70.0,255.0,255.0,255.0
25,1.25,-7.5239958963111695,-1.4937988622497775,-0.04269529851129229,-0.03958584961432976,0.010204678787988364,-0.07012161768258078,-0.0315942252187007,0.008083651730927954,-0.05549824472367154,0.0,70.0,255.0,255.0,255.0
26,1.3,-7.5260144846101795,-1.4932784516882003,-0.04627054884596882,-0.04116823934110947,0.010607975746808052,-0.07290930942884744,-0.031950464914221044,0.00796579724522406,-0.056270318604210307,0.0,70.0,255.0,255.0,255.0
27,1.35,-7.52811272024528,-1.4927380646750967,-0.049986229454177036,-0.042780896105751864,0.01100125851251077,-0.07574864954300181,-0.03266368206809034,0.007749901531250991,-0.05741419771813985,0.0,70.0,255.0,255.0,255.0
28,1.4000000000000001,-7.530292574220755,-1.4921783258369492,-0.053845413800269,-0.0444346075479185,0.01138296589993315,-0.07865072920066142,-0.033451186157851254,0.007563206099248099,-0.058614899181172464,0.0,70.0,255.0,255.0,255.0
29,1.4500000000000002,-7.532556181000072,-1.4915997680851034,-0.05785130237424318,-0.04612601472153699,0.01175757912243558,-0.08161013946111906,-0.03403369588950156,0.007523931845621057,-0.05954420178874431,0.0,70.0,255.0,255.0,255.0
30,1.5,-7.534905175692908,-1.4910025679247056,-0.062006427746380904,-0.04783797713686866,0.012135359084495256,-0.08460514937953585,-0.03413662057418776,0.007759168421328511,-0.059880704288664544,0.0,70.0,255.0,255.0,255.0
31,1.55,-7.537339978713759,-1.490386232176654,-0.06631181731219676,-0.049539676778955766,0.01253349596456843,-0.08759820988998551,-0.03362603121539465,0.008322665272975094,-0.059468677555554045,0.0,70.0,255.0,255.0,255.0
32,1.6,-7.539859143370804,-1.4897492183282488,-0.07076624873537946,-0.051200580258408124,0.012967625611792766,-0.09055201713509126,-0.03265058618255878,0.009080236412239984,-0.05847654025722682,0.0,70.0,255.0,255.0,255.0
33,1.6500000000000001,-7.5424600367396,-1.4890894696154746,-0.07536701902570589,-0.052804735397211644,0.013441519605792429,-0.0934458639157082,-0.03150544036216729,0.009792491895588284,-0.05724340996355326,0.0,70.0,255.0,255.0,255.0
34,1.7000000000000002,-7.545139616910525,-1.4884050663676696,-0.08011083512695027,-0.05435112429462485,0.013946874801351594,-0.09627635813144658,-0.03048835112373638,0.010223792542607413,-0.056119208835703205,0.0,70.0,255.0,255.0,255.0
35,1.75,-7.5478951491690625,-1.4876947821353395,-0.08499465483885055,-0.05585357050958528,0.01446389886005317,-0.09905778479927851,-0.029887264512762357,0.01013972120382789,-0.05545091947365688,0.0,70.0,255.0,255.0,255.0
36,1.8,-7.550724973961484,-1.4869586764816642,-0.09001661360687813,-0.05733985074590109,0.014960846921734383,-0.10182145007881227,-0.029851983649820113,0.009435942595170665,-0.05542103177962193,0.0,70.0,255.0,255.0,255.0
37,1.85,-7.553629134243653,-1.486198697443166,-0.09517679984673177,-0.05883876887456729,0.015407493119570237,-0.10459988797724071,-0.030285861313128493,0.008295399905833278,-0.055910596963901216,0.0,70.0,255.0,255.0,255.0
38,1.9000000000000001,-7.55660885084894,-1.4854179271697072,-0.1004766024046022,-0.06036843687721394,0.01579038691231771,-0.10741250977520239,-0.03097516428125502,0.0070622575538248356,-0.05666134441450893,0.0,70.0,255.0,255.0,255.0
39,1.9500000000000002,-7.559665977931374,-1.4846196587519342,-0.10591805082425201,-0.061936285302692795,0.01611371887495272,-0.1102660224186916,-0.031699612902524876,0.0060864457696707674,-0.057418589908080075,0.0,70.0,255.0,255.0,255.0
40,2.0,-7.56280247937921,-1.483806555282212,-0.11150320464647136,-0.06353839816746643,0.016399031489284788,-0.1131543687660104,-0.03223432137566817,0.005709918791452218,-0.05793967376076653,0.0,70.0,255.0,255.0,255.0
41,2.0500000000000003,-7.566019817748121,-1.4829797556030058,-0.11723348770085305,-0.06515971744025961,0.016684710754097942,-0.11605998979476825,-0.03245377311289488,0.006100650593476864,-0.058087848006599385,0.0,70.0,255.0,255.0,255.0
42,2.1,-7.569318451123236,-1.4821380842068022,-0.12310920362594818,-0.06678377547875591,0.017009096548632474,-0.11896315356667034,-0.03241053732931931,0.007088280514433443,-0.05788741221350174,0.0,70.0,255.0,255.0,255.0
43,2.15,-7.572698195295996,-1.4812788459481425,-0.1291298030575201,-0.06840077117319154,0.017393538805541287,-0.12184873101611843,-0.032227655425742796,0.008327522177942193,-0.05742403289123871,0.0,70.0,255.0,255.0,255.0
44,2.2,-7.576158528240555,-1.480398730326248,-0.13529407672756003,-0.0700065410213302,0.017841848766426693,-0.12470555685579421,-0.0320207963339314,0.009464363772671014,-0.05678023106578112,0.0,70.0,255.0,255.0,255.0
45,2.25,-7.579698849398129,-1.4794946610714999,-0.1416003587430995,-0.07160285080658468,0.018339975182808388,-0.12752675412269654,-0.031915403365978534,0.010148622278438602,-0.056026376159265534,0.0,70.0,255.0,255.0,255.0
46,2.3000000000000003,-7.583318813321213,-1.4785647328079672,-0.14804675213982968,-0.07319808135792805,0.018856710994270554,-0.13030819447172076,-0.031978984503933106,0.010195394424883375,-0.05521983726623492,0.0,70.0,255.0,255.0,255.0
47,2.35,-7.587018657533922,-1.4776089899720728,-0.15463117819027158,-0.074800749256978,0.019359514625296725,-0.13304873784932003,-0.03215105696749987,0.009720522325595837,-0.054457889380229996,0.0,70.0,255.0,255.0,255.0
48,2.4000000000000004,-7.590798888246911,-1.4766287813454375,-0.16135162592476168,-0.07641318705467803,0.019828763226830137,-0.13575398340974376,-0.032315985577824335,0.008977770284457343,-0.053886067144093275,0.0,70.0,255.0,255.0,255.0
49,2.45,-7.59465997623939,-1.4756261136493898,-0.16820657653124596,-0.07803234781476043,0.02025729165374246,-0.13843734456372936,-0.03237011551542324,0.008223185386557752,-0.053652746901070025,0.0,70.0,255.0,255.0,255.0
50,2.5,-7.598602123028387,-1.4746030521800633,-0.17519536038113462,-0.07965019860622036,0.020651081765485912,-0.14111925809985076,-0.03220812110544813,0.007723564122641413,-0.053902793630136725,0.0,70.0,255.0,255.0,255.0
51,2.5500000000000003,-7.602624996100012,-1.4735610054728412,-0.18231850234123104,-0.08125315992530524,0.0210296480660066,-0.14382762392674303,-0.03178320262406942,0.007623319492822134,-0.054687628103261554,0.0,70.0,255.0,255.0,255.0
52,2.6,-7.606727439020918,-1.4725000873734626,-0.18957812277380892,-0.0828285188686273,0.021413413714768126,-0.14658802091017692,-0.03118700636113303,0.00782506141905337,-0.05583571558026024,0.0,70.0,255.0,255.0,255.0
53,2.6500000000000004,-7.610907847986875,-1.4714196641013644,-0.19697730443224873,-0.08437186056141854,0.021812154207911938,-0.14941119548476905,-0.030587469861753647,0.008127643770161619,-0.05703449573520869,0.0,70.0,255.0,255.0,255.0
54,2.7,-7.6151646250770595,-1.4703188719526714,-0.20451924232228583,-0.08588726585480266,0.022226178091784288,-0.1522914704836978,-0.030151515498388903,0.008342008899786535,-0.05795703307820421,0.0,70.0,255.0,255.0,255.0
55,2.75,-7.619496574572355,-1.469197046292186,-0.2122064514806185,-0.08738701211125743,0.02264635509789059,-0.15520689879258948,-0.03004409356472948,0.008269195822996345,-0.058282449320185004,0.0,70.0,255.0,255.0,255.0
56,2.8000000000000003,-7.623903326288185,-1.4680542364428824,-0.22003993220154477,-0.08889167521127561,0.023053097674083922,-0.1581197154157163,-0.030342004533157052,0.007811467464136079,-0.05785585078690314,0.0,70.0,255.0,255.0,255.0
57,2.85,-7.628385742093482,-1.4668917365247776,-0.22801842302219014,-0.09042121256457314,0.0234275018443042,-0.1609924838712798,-0.030936442063378422,0.007101935961295602,-0.05684913174860695,0.0,70.0,255.0,255.0,255.0
58,2.9000000000000004,-7.6329454475446425,-1.465711486258452,-0.23613918058867275,-0.09198531941761345,0.023763291270213482,-0.16380462859057698,-0.03161777133806609,0.00638895067217593,-0.055606905626054415,0.0,70.0,255.0,255.0,255.0
59,2.95,-7.637584274035244,-1.4645154073977562,-0.24439888588124783,-0.09358298969837975,0.024066396911521792,-0.16655317443388523,-0.032171048598694796,0.005908639153906492,-0.05448518139216929,0.0,70.0,255.0,255.0,255.0
60,3.0,-7.6423037465144805,-1.4633048465672998,-0.2527944980320613,-0.09520242427748293,0.02435415518560413,-0.1692531467297939,-0.03237951396002359,0.005887577993246573,-0.05383939044109887,0.0,70.0,255.0,255.0,255.0
61,3.0500000000000003,-7.647104516462992,-1.4620799918791958,-0.2613242005542272,-0.09682094109438211,0.02465515471084645,-0.17193711347799512,-0.032135492528784226,0.0064316964316857295,-0.05385502935519593,0.0,70.0,255.0,255.0,255.0
62,3.1,-7.651985840623919,-1.460839331096215,-0.2699882093798608,-0.09841597353036136,0.024997324828772705,-0.1746386496653135,-0.03155263331091618,0.007400947649549572,-0.05439871313625555,0.0,70.0,255.0,255.0,255.0
63,3.1500000000000004,-7.656946113816028,-1.4595802593963185,-0.2787880655207586,-0.09997620442547372,0.025395249475801407,-0.17737698479162067,-0.03085603686052707,0.008521122305493734,-0.0551877652104682,0.0,70.0,255.0,255.0,255.0
64,3.2,-7.661983461066466,-1.458299806148635,-0.28772590785902286,-0.10150157721641406,0.025849437059322078,-0.18015742618636033,-0.030270863533932157,0.009511173412413143,-0.05594186839274484,0.0,70.0,255.0,255.0,255.0
65,3.25,-7.66709627153767,-1.4569953156903863,-0.2968038081393946,-0.10300329077886694,0.02634636681704272,-0.18297117163089516,-0.030021813300340483,0.010100492204156986,-0.056384044859458804,0.0,70.0,255.0,255.0,255.0
66,3.3000000000000003,-7.672283790144353,-1.4556651694669307,-0.30602302502211237,-0.10450375854644811,0.026859486279737776,-0.1857958306723062,-0.03022259877702993,0.010148460095771306,-0.05636468447296483,0.0,70.0,255.0,255.0,255.0
67,3.35,-7.677546647392314,-1.4543093670624125,-0.31538339120662523,-0.10602555065656993,0.027361212826619852,-0.18860764007819164,-0.03076761676661377,0.009742385328603831,-0.055962356032729366,0.0,70.0,255.0,255.0,255.0
68,3.4000000000000004,-7.68288634521001,-1.4529290481842687,-0.32488378902993154,-0.10758052022310949,0.02783372481259816,-0.19139206627557914,-0.03144348914592143,0.009078448217669788,-0.055354854044892265,0.0,70.0,255.0,255.0,255.0
69,3.45,-7.688304699414625,-1.4515259945811527,-0.33452259783418314,-0.10916989957116208,0.02826905764838683,-0.19414312548268087,-0.03203892384018303,0.008359953909709006,-0.05471443128390874,0.0,70.0,255.0,255.0,255.0
70,3.5,-7.693803335167126,-1.45010214241943,-0.3442981015781996,-0.11078441260712779,0.02866972020356906,-0.19686350940397002,-0.03234927013506805,0.0077904531901706875,-0.0542083928250392,0.0,70.0,255.0,255.0,255.0
71,3.5500000000000003,-7.699383140675338,-1.4486590225607958,-0.35420894877458015,-0.11240482658466888,0.0290481029674039,-0.1995639647651848,-0.03226753893557088,0.0074867242574327975,-0.05393229335902694,0.0,70.0,255.0,255.0,255.0
72,3.6,-7.705043817825593,-1.4471973321226896,-0.3642544980547181,-0.11401116650068488,0.02941839262931234,-0.2022567387398727,-0.03186230754756991,0.00742494227172763,-0.05386822636919697,0.0,70.0,255.0,255.0,255.0
73,3.6500000000000004,-7.710784257325407,-1.4457171832978646,-0.3744346226485674,-0.11559105733942587,0.029790597194576662,-0.20495078740210448,-0.03128459863050992,0.007531331910048955,-0.05395729413440464,0.0,70.0,255.0,255.0,255.0
74,3.7,-7.7166029235595355,-1.444218272403232,-0.38474957679492855,-0.11713962636373587,0.030171525820317235,-0.20765246815331317,-0.03068672781889603,0.007741411880779481,-0.05414660693780493,0.0,70.0,255.0,255.0,255.0
75,3.75,-7.72249821996178,-1.4427000307158329,-0.39519986946389873,-0.11865973012131548,0.03056473838265461,-0.21036544809588498,-0.030217096835283286,0.007997741655318968,-0.05439040248844118,0.0,70.0,255.0,255.0,255.0
76,3.8000000000000003,-7.728468896571667,-1.4411617985649665,-0.40578612160451705,-0.1201613360472642,0.030971299985849132,-0.2130915084021573,-0.02996001937320969,0.008258582268538817,-0.054653368198170904,0.0,70.0,255.0,255.0,255.0
77,3.85,-7.734514353566507,-1.439602900717248,-0.41650902030411446,-0.12165573205863645,0.03139059660950849,-0.21583078491570207,-0.02989951668013191,0.008478777985532204,-0.05488567089141916,0.0,70.0,255.0,255.0,255.0
78,3.9000000000000004,-7.740634469777531,-1.4380227389040157,-0.42736920009608725,-0.12315128771527739,0.03181917778440235,-0.2185800754912992,-0.029982591856558827,0.008594452580257261,-0.05501419785570727,0.0,70.0,255.0,255.0,255.0
79,3.95,-7.746829482338034,-1.4364209829388077,-0.4383670278532444,-0.12465399124429233,0.03225004186753422,-0.2213322047012728,-0.030160365349640728,0.008534911387414468,-0.05495965378539136,0.0,70.0,255.0,255.0,255.0
80,4.0,-7.75309986890196,-1.4347977347172622,-0.44950242056621453,-0.12616732425024146,0.0326726689231438,-0.22407604086983834,-0.030390361171495073,0.008218580188867897,-0.05462999722119499,0.0,70.0,255.0,255.0,255.0
81,4.05,-7.7594462147630585,-1.4331537160464933,-0.4607746319402282,-0.12769302736144184,0.03307189988642101,-0.2267952044233923,-0.030639609679461444,0.007618433847933481,-0.05399372102775635,0.0,70.0,255.0,255.0,255.0
82,4.1000000000000005,-7.765869171638104,-1.4314905447286201,-0.47218194100855376,-0.1292312852181876,0.03343451230793715,-0.22947541297261398,-0.030860558133039007,0.006861717347694807,-0.05319086162687836,0.0,70.0,255.0,255.0,255.0
83,4.15,-7.772369343284877,-1.4298102648156996,-0.4837221732374896,-0.13077908317474574,0.03375807162119049,-0.23211429058608013,-0.03098326238033522,0.0061699253680602695,-0.052464982041849906,0.0,70.0,255.0,255.0,255.0
84,4.2,-7.778947079955579,-1.428114737566501,-0.4953933700671618,-0.13232961145622113,0.034051504844743175,-0.23472191117679897,-0.03093232360322773,0.005765003175706163,-0.05206083852675181,0.0,70.0,255.0,255.0,255.0
85,4.25,-7.785602304430499,-1.4264051143312253,-0.5071943643551695,-0.1338723155350685,0.034334571938761105,-0.2373203744387553,-0.030621458479895836,0.00586789096934659,-0.05222956200670592,0.0,70.0,255.0,255.0,255.0
86,4.3,-7.7923343115090855,-1.424681280372625,-0.5191254075110373,-0.1353917573042107,0.034638293941677833,-0.23994486737746956,-0.030021029088800333,0.006575281407217304,-0.05307934675835568,0.0,70.0,255.0,255.0,255.0
87,4.3500000000000005,-7.7991414801609205,-1.4229412849370575,-0.5311888510929165,-0.13687441844394854,0.034992100079482835,-0.24262830911459088,-0.02926002234895364,0.007708105537274079,-0.05438463551482586,0.0,70.0,255.0,255.0,255.0
88,4.4,-7.80602175335348,-1.4211820703646767,-0.5433882384224964,-0.13831775953910608,0.03540910449540524,-0.24538333092895215,-0.02856342622044039,0.008930414712149393,-0.0557304427415084,0.0,70.0,255.0,255.0,255.0
89,4.45,-7.812973256114831,-1.419400374487517,-0.5557271841858117,-0.13973076106599258,0.035885141550697774,-0.24820135338874172,-0.028156400844103757,0.009899528124290846,-0.05669815760876995,0.0,70.0,255.0,255.0,255.0
90,4.5,-7.81999482946008,-1.417593556209607,-0.5682083737613706,-0.14113339962351645,0.036399057307834326,-0.25105314668982914,-0.02826375828988148,0.010281883905838285,-0.05687581069596659,0.0,70.0,255.0,255.0,255.0
91,4.55,-7.827086596077183,-1.4157604687567336,-0.5808324988547946,-0.14255713689498073,0.0369133299412816,-0.2538889344583384,-0.028983873032384366,0.009913354276003261,-0.05606800615797214,0.0,70.0,255.0,255.0,255.0
92,4.6000000000000005,-7.834250543149578,-1.4139022232154788,-0.5935972672072044,-0.1440317869267549,0.03739039273543465,-0.25665994730562636,-0.03013310538415581,0.008955743952987483,-0.05452225132555055,0.0,70.0,255.0,255.0,255.0
93,4.65,-7.841489774769858,-1.41202142948319,-0.6064984935853572,-0.1455704474333963,0.03780890433658035,-0.25934115959089343,-0.031367601502907405,0.007739371494297487,-0.0527232703021574,0.0,70.0,255.0,255.0,255.0
94,4.7,-7.848807587892917,-1.4101213327818207,-0.6195313831662937,-0.14716854707704563,0.0381643298848644,-0.2619322743358421,-0.03233652523508823,0.0066029449334426005,-0.051165365536975926,0.0,70.0,255.0,255.0,255.0
95,4.75,-7.856206629477563,-1.4082049964947037,-0.6326917210189414,-0.14880409995690513,0.03846919882992461,-0.264457696144591,-0.03269553633193922,0.005876554759276509,-0.05033115791330811,0.0,70.0,255.0,255.0,255.0
96,4.800000000000001,-7.863687997888608,-1.4062744128988283,-0.6459771527807529,-0.15043810071023955,0.03875198536079205,-0.2669653901271729,-0.03227639253404746,0.005737362094526688,-0.050468488749666474,0.0,70.0,255.0,255.0,255.0
97,4.8500000000000005,-7.871250439548587,-1.4043297979586244,-0.6593882600316587,-0.15203173921030988,0.03904293503937728,-0.2695045450195577,-0.03125743956502447,0.006099874361753521,-0.0513928393695573,0.0,70.0,255.0,255.0,255.0
98,4.9,-7.878891171809639,-1.4023701193948905,-0.6729276072827086,-0.153563844666742,0.039361972796967404,-0.27210467406412864,-0.02999712347948602,0.00676198276050588,-0.05270999586327596,0.0,70.0,255.0,255.0,255.0
99,4.95,-7.886606824015261,-1.4003936006789277,-0.6865987274380716,-0.15503145155825848,0.03971913331542787,-0.27477554460588527,-0.028863558821079494,0.007521605894966754,-0.054020520103392755,0.0,70.0,255.0,255.0,255.0
100,5.0,-7.894394316965465,-1.3983982060633477,-0.7004051617432971,-0.15645020054884995,0.04011413338646408,-0.2775067260744679,-0.028226077733606303,0.008183925029103811,-0.05493559494689215,0.0,70.0,255.0,255.0,255.0
101,5.050000000000001,-7.902251844070146,-1.3963821873402813,-0.7143494000455184,-0.1578540593316191,0.04053752581833825,-0.2802691041005745,-0.028276617437672513,0.008631649560153498,-0.05523920434455931,0.0,70.0,255.0,255.0,255.0
102,5.1000000000000005,-7.910179722898627,-1.394344453481514,-0.7284320721533546,-0.1592778622926172,0.04097729834247943,-0.28303064650892384,-0.02886809206650298,0.008849327364690573,-0.05499636788620643,0.0,70.0,255.0,255.0,255.0
103,5.15,-7.918179630299408,-1.3922844575060334,-0.7426524646964108,-0.1607408685382694,0.04142245855480731,-0.2857687408891951,-0.02969378802886169,0.00884645037739773,-0.05438509123303348,0.0,70.0,255.0,255.0,255.0
104,5.2,-7.9262538097524535,-1.3902022076260332,-0.7570089462422741,-0.16224724109550337,0.0418619433802192,-0.2884691556322272,-0.03044886652157075,0.008624943841040178,-0.05358015311700548,0.0,70.0,255.0,255.0,255.0
105,5.25,-7.934404354408958,-1.3880982631680114,-0.7714993802596335,-0.16378575519042649,0.042284952938911324,-0.2911267562008957,-0.030824208677415754,0.00817972647655374,-0.05275443432712912,0.0,70.0,255.0,255.0,255.0
106,5.300000000000001,-7.942632385271496,-1.385973712332142,-0.7861216218623637,-0.16532966196324494,0.042679916027874576,-0.2937445990649401,-0.03065779039523875,0.007528300736980853,-0.05201972883722705,0.0,70.0,255.0,255.0,255.0
107,5.3500000000000005,-7.9509373206052825,-1.383830271565224,-0.8008738401661275,-0.16685153422995036,0.04303778301260941,-0.2963287290846184,-0.030076532495826314,0.006783655340192318,-0.051418891882792916,0.0,70.0,255.0,255.0,255.0
108,5.4,-7.959317538694491,-1.3816699340308811,-0.8157544947708255,-0.16833731521282758,0.04335828156189381,-0.2988864882532194,-0.029340544917744182,0.0061330548908999916,-0.05099495388983799,0.0,70.0,255.0,255.0,255.0
109,5.45,-7.967771052126565,-1.3794944434090346,-0.8307624889914494,-0.16978558872172478,0.04365108850169941,-0.3014282244736022,-0.028701348053772335,0.005770879813171703,-0.05080404225374924,0.0,70.0,255.0,255.0,255.0
110,5.5,-7.976296097566664,-1.3773048251807112,-0.8458973172181857,-0.1712074500182048,0.04393536954321098,-0.3039668924785943,-0.028409022289110908,0.005889150416682476,-0.050898695716594666,0.0,70.0,255.0,255.0,255.0
111,5.550000000000001,-7.984891797128386,-1.3751009064547135,-0.8611591782393089,-0.17262649095063587,0.044240003543367656,-0.30651809404526165,-0.028592081119604984,0.00656945984605084,-0.051289619234373696,0.0,70.0,255.0,255.0,255.0
112,5.6000000000000005,-7.993558746661727,-1.3728808248263744,-0.8765491266227119,-0.1740666581301653,0.04459231552781606,-0.3090958544020317,-0.02914037002383907,0.007649804188081255,-0.05188452145907796,0.0,70.0,255.0,255.0,255.0
113,5.65,-8.002298462941402,-1.370641674901932,-0.892068763679512,-0.17554052795301978,0.04500498396217578,-0.31170654619116944,-0.0298294402263366,0.008825898823694445,-0.0525169580094631,0.0,70.0,255.0,255.0,255.0
114,5.7,-8.01111279945703,-1.3683803264301568,-0.9077197812418288,-0.17704960215279897,0.04547490541018551,-0.314347550202978,-0.030439167837936765,0.00978598912078077,-0.053004703509051954,0.0,70.0,255.0,255.0,255.0
115,5.75,-8.020003423156682,-1.3660941843609133,-0.9235035186998098,-0.17858444473681345,0.04598358287425386,-0.31700701654207464,-0.03075573946240695,0.010235699828808897,-0.05316276415837651,0.0,70.0,255.0,255.0,255.0
116,5.800000000000001,-8.02897124393071,-1.3637819681427314,-0.9394204828960363,-0.18012517609903966,0.046498475393066396,-0.31966382661881565,-0.03066731169774073,0.010026773631710562,-0.05290179422531294,0.0,70.0,255.0,255.0,255.0
117,5.8500000000000005,-8.038015940766586,-1.3614443368216067,-0.9554699013616914,-0.18165117590658753,0.046986260237424915,-0.32229719596460593,-0.03024739533348253,0.009267011357194654,-0.05232843020634981,0.0,70.0,255.0,255.0,255.0
118,5.9,-8.04713636152137,-1.359083342118989,-0.9716502024924969,-0.18314991563238792,0.04742517652878586,-0.32489666963945063,-0.02965628625339889,0.008194305525388579,-0.05165180614691289,0.0,70.0,255.0,255.0,255.0
119,5.95,-8.056330932329825,-1.3567018191687281,-0.9879595683256365,-0.18461680453192741,0.04780569078996377,-0.3274623765792972,-0.02905526730874186,0.007057937596588459,-0.05108371713660187,0.0,70.0,255.0,255.0,255.0
120,6.0,-8.065598041974562,-1.3543027730399926,-1.0043964401504266,-0.1860554423632621,0.04813097028844471,-0.3300050413531108,-0.02860401053723649,0.006092059591966681,-0.05083421035376734,0.0,70.0,255.0,255.0,255.0
121,6.050000000000001,-8.074936476566151,-1.3518887221398836,-1.0209600724609476,-0.18747720558565106,0.04841489674916044,-0.33254579761467395,-0.028391445980879837,0.005435706699485898,-0.05100977729098899,0.0,70.0,255.0,255.0,255.0
122,6.1000000000000005,-8.084345762533127,-1.3494612833650765,-1.037651019911894,-0.18889458696135009,0.0486745409583933,-0.3351060190822097,-0.028386412278536,0.005114877656087202,-0.051516349790192706,0.0,70.0,255.0,255.0,255.0
123,6.15,-8.093825935262286,-1.3470212680440443,-1.0544706743691685,-0.19031584681350466,0.04892638451476916,-0.3376974325936932,-0.028509890285377537,0.005125830123597908,-0.05216122532820666,0.0,70.0,255.0,255.0,255.0
124,6.2,-8.103377347214478,-1.3445686449135996,-1.0714207631712633,-0.19174557598988784,0.04918712397075309,-0.3403221416150304,-0.028685963392938163,0.005461234851633634,-0.05275385451792847,0.0,70.0,255.0,255.0,255.0
125,6.25,-8.113000492861275,-1.342102555646969,-1.0885028885306716,-0.19318444315279848,0.049472507999932525,-0.34297281804548607,-0.02883623703695548,0.006108043155284015,-0.05311643172265512,0.0,70.0,255.0,255.0,255.0
126,6.300000000000001,-8.122695791529758,-1.3396213941136064,-1.105718044975812,-0.1946291996935834,0.04979792828628149,-0.3456337847872959,-0.02891413048526914,0.007032450852628713,-0.05315252318418562,0.0,70.0,255.0,255.0,255.0
127,6.3500000000000005,-8.132463412830633,-1.3371227628183409,-1.1230662670094012,-0.1960758562013254,0.050175753085195396,-0.34828807036390463,-0.028927887953322795,0.008111799696841615,-0.052891578558411645,0.0,70.0,255.0,255.0,255.0
128,6.4,-8.14230337714989,-1.3346038188050868,-1.1405468520122024,-0.19752198848891567,0.05060910825596565,-0.35092294264313706,-0.028902381044204617,0.009140695658316211,-0.05241788461485264,0.0,70.0,255.0,255.0,255.0
129,6.45,-8.152215611679525,-1.3320618519927443,-1.1581585612737149,-0.19896609430574586,0.05108982265102702,-0.3535298588253899,-0.028854678653544852,0.009899174278871214,-0.05182086479149639,0.0,70.0,255.0,255.0,255.0
130,6.5,-8.162199986580465,-1.3294948365399841,-1.1758998378947414,-0.20040745635427015,0.05159902568385277,-0.3561050291222867,-0.02879901334313928,0.010187749139056734,-0.05118808140351927,0.0,70.0,255.0,255.0,255.0
131,6.550000000000001,-8.172256357314952,-1.326901949424359,-1.1937690641859435,-0.20184599564005978,0.05210859756493269,-0.3586486669657418,-0.028745318790512897,0.009913464248989534,-0.0505791043312831,0.0,70.0,255.0,255.0,255.0
132,6.6000000000000005,-8.18238458614447,-1.3242839767834909,-1.2117647045913156,-0.20328198823332144,0.052590372108751726,-0.361162939555415,-0.028702035907102186,0.009166874605281983,-0.05003547117448104,0.0,70.0,255.0,255.0,255.0
133,6.65,-8.192584556138284,-1.3216429122134838,-1.229885358141485,-0.20471619923077,0.05302528502546089,-0.36365221408318993,-0.02868058553797681,0.008144114515862277,-0.049610779336028976,0.0,70.0,255.0,255.0,255.0
134,6.7,-8.202856206067548,-1.3189814482809448,-1.2481299259996346,-0.20615004678711912,0.053404783560337954,-0.3661240174890179,-0.028695321994653966,0.007061042392053629,-0.04936166067504022,0.0,70.0,255.0,255.0,255.0
135,6.75,-8.213199560816996,-1.31630243385745,-1.2664977598903868,-0.2075857314302354,0.05373138926466625,-0.36858838015069395,-0.028767709590660218,0.006116997584615369,-0.04933124266308653,0.0,70.0,255.0,255.0,255.0
136,6.800000000000001,-8.223614779210571,-1.3136083093544781,-1.284988764014704,-0.20902681774618515,0.05401648331879949,-0.37105714175532656,-0.028904594351431,0.005432666510274409,-0.049532085131587245,0.0,70.0,255.0,255.0,255.0
137,6.8500000000000005,-8.234102242591614,-1.31090078552557,-1.3036034740659195,-0.2104761908653785,0.05427465591569369,-0.3735415886638527,-0.029063968418441277,0.00505342915453344,-0.049922993620299394,0.0,70.0,255.0,255.0,255.0
138,6.9,-8.244662398297109,-1.3081808437629088,-1.3223429228810892,-0.21193321458802927,0.054521826234252835,-0.3760494411173565,-0.029175276803705685,0.005011797327192369,-0.05042086284310354,0.0,70.0,255.0,255.0,255.0
139,6.95,-8.255295564050417,-1.3054486029021448,-1.3412084181776551,-0.21339371854574907,0.05477583564841293,-0.37858367494816303,-0.029170746654116897,0.005335630512015577,-0.050926804862583275,0.0,70.0,255.0,255.0,255.0
140,7.0,-8.266001770151684,-1.3027032601980675,-1.3602012903759055,-0.21485028925344096,0.05505538928545439,-0.3811421216036148,-0.02898217626583488,0.006056241874508039,-0.05134690132393427,0.0,70.0,255.0,255.0,255.0
141,7.050000000000001,-8.276780592975761,-1.2999430639735994,-1.3793226303380166,-0.21629193617233256,0.05538145983586373,-0.38371836508055646,-0.02858250427060227,0.0071579209920846765,-0.051626354676259645,0.0,70.0,255.0,255.0,255.0
142,7.1000000000000005,-8.287630963768917,-1.297165114214481,-1.3985731268839612,-0.2177085396805012,0.05577118138466286,-0.3863047570712408,-0.028043861982318674,0.008457730454880519,-0.051756190707918925,0.0,70.0,255.0,255.0,255.0
143,7.15,-8.298551446943812,-1.294365945835133,-1.4179531060451407,-0.21909632237056442,0.056227232881351785,-0.38889398415134835,-0.027497374845353306,0.009647017853464668,-0.051741293767082475,0.0,70.0,255.0,255.0,255.0
144,7.2,-8.309540596005974,-1.291542390926346,-1.437462525299096,-0.22045827716503652,0.05673588317000933,-0.39147888644794904,-0.02707446528056323,0.010405200128538183,-0.05159163269516931,0.0,70.0,255.0,255.0,255.0
145,7.25,-8.320597274660315,-1.2886923575181322,-1.4571009946899356,-0.22180376889862075,0.057267752894205604,-0.3940531474208653,-0.026895566698570406,0.01042204424153148,-0.051325161365056715,0.0,70.0,255.0,255.0,255.0
146,7.300000000000001,-8.331720972895836,-1.2858156156369254,-1.4768678400411825,-0.22314783383489356,0.057778087594162475,-0.3966114025844547,-0.02701918810110726,0.009560824346843688,-0.050961470522481456,0.0,70.0,255.0,255.0,255.0
147,7.3500000000000005,-8.342912058043805,-1.282914548758716,-1.496762134948381,-0.22450568770873147,0.05822383532888997,-0.3991492944731134,-0.027396108128563412,0.00804637163662747,-0.05053308270888124,0.0,70.0,255.0,255.0,255.0
148,7.4,-8.354171541666709,-1.2799932321040364,-1.5167827694884939,-0.2258874446477499,0.05858272475782522,-0.40166471085534283,-0.027918860177145177,0.006311926130431189,-0.05009480124922305,0.0,70.0,255.0,255.0,255.0
149,7.45,-8.36550080250858,-1.2770562762829334,-1.5369286060339153,-0.227297573726446,0.05885502794193309,-0.40415877459803573,-0.028471905042337653,0.004808603938832867,-0.04971235200237345,0.0,70.0,255.0,255.0,255.0
150,7.5,-8.376901299039353,-1.274107729309843,-1.5571986469482975,-0.22873463515198367,0.05906358515170851,-0.4066359460555802,-0.02894753829263408,0.003971571835448273,-0.04944849051196076,0.0,70.0,255.0,255.0,255.0
151,7.550000000000001,-8.388374266023778,-1.2711499177677625,-1.5775922006394734,-0.2301923275557094,0.05925218512547792,-0.4091036236492318,-0.029281256146695966,0.004025355047110324,-0.04933447652057943,0.0,70.0,255.0,255.0,255.0
152,7.6000000000000005,-8.399920531794924,-1.2681825107972953,-1.5981090093132206,-0.23166276076665326,0.05946612065641954,-0.4115693937076381,-0.02945534186711285,0.004823263185160798,-0.04934877449391806,0.0,70.0,255.0,255.0,255.0
153,7.65,-8.411540542100443,-1.2652033057021206,-1.6187491400102372,-0.23313786174242068,0.059734511443994,-0.4140385010986236,-0.029462708920924285,0.00603879743830138,-0.04944220519873532,0.0,70.0,255.0,255.0,255.0
154,7.7,-8.423234317969166,-1.2622090596528959,-1.639512859423083,-0.2346090316587457,0.06007000040024968,-0.41651361422751165,-0.02929842737007249,0.00733381068953598,-0.049558959295081806,0.0,70.0,255.0,255.0,255.0
155,7.75,-8.435001445266318,-1.2591963056620956,-1.6604005014329883,-0.23606770447942793,0.060467892512947596,-0.4189943970281318,-0.028958289455616182,0.008375677740679599,-0.049636867263114226,0.0,70.0,255.0,255.0,255.0
156,7.800000000000001,-8.44684108841711,-1.256162270401601,-1.6814122991258962,-0.2375048606043073,0.06090756817431764,-0.4214773009538231,-0.028454761671703466,0.008972720499689224,-0.049641136215927695,0.0,70.0,255.0,255.0,255.0
157,7.8500000000000005,-8.458751931326749,-1.2531055488446639,-1.7025482315283706,-0.23891318064659828,0.06136516456291652,-0.42395851064972456,-0.027863363563440657,0.009148780751133678,-0.04959275171658728,0.0,70.0,255.0,255.0,255.0
158,7.9,-8.470732406481769,-1.2500257539453095,-1.7238081501908686,-0.24029119696065138,0.06182244624943101,-0.4264365761254818,-0.027311143299790785,0.009002161505633488,-0.049534606394052716,0.0,70.0,255.0,255.0,255.0
159,7.95,-8.482781051022814,-1.2469233042197208,-1.7451918891409188,-0.24164429497657736,0.06226538071347987,-0.42891197128912983,-0.02693335983678935,0.008624265190926295,-0.049505610350730755,0.0,70.0,255.0,255.0,255.0
160,8.0,-8.494896835979427,-1.2437992158739615,-1.7666993473197816,-0.2429845329443303,0.06268487276852364,-0.4313871371605549,-0.02686331320855828,0.00810967990576561,-0.04955201246352736,0.0,70.0,255.0,255.0,255.0
161,8.05,-8.507079504317247,-1.2406548169428684,-1.7883306028569743,-0.24433062629743318,0.06307634870405643,-0.43386717253548257,-0.027160209986654138,0.007528797919298391,-0.049694265329280896,0.0,70.0,255.0,255.0,255.0
162,8.1,-8.51932989860917,-1.2374915810035558,-1.8100860645733299,-0.24570055394299573,0.06343775256045348,-0.43635656369348297,-0.02772672835522627,0.006941520570413751,-0.04988021863969738,0.0,70.0,255.0,255.0,255.0
163,8.15,-8.531649559711546,-1.234311041686823,-1.8319662592263226,-0.2471032991329558,0.0637705007610978,-0.4388551943994523,-0.02837635424306484,0.006435167261664709,-0.05001936922490735,0.0,70.0,255.0,255.0,255.0
164,8.200000000000001,-8.544040228522466,-1.231114530927446,-1.853971584013275,-0.2485381893673022,0.06408126928661995,-0.4413585006159737,-0.02891535938989165,0.006114303371673735,-0.05002531258875287,0.0,70.0,255.0,255.0,255.0
165,8.25,-8.556503378648276,-1.227902914758161,-1.87610210928792,-0.24999483507194498,0.06438193109826518,-0.4438577256583276,-0.02915246703469876,0.006081639932320471,-0.04980711085482703,0.0,70.0,255.0,255.0,255.0
166,8.3,-8.56903971202966,-1.2246763378176195,-1.8983573565791079,-0.2514534360707721,0.064689433279852,-0.4463392117014564,-0.028991111667941993,0.0063793139304602064,-0.04932800293326878,0.0,70.0,255.0,255.0,255.0
167,8.35,-8.581648722255354,-1.2214339714301758,-1.9207360304580656,-0.2528939462387392,0.0650198624913112,-0.4487905259516545,-0.028515130941109135,0.006920661442832987,-0.048688145286357454,0.0,70.0,255.0,255.0,255.0
168,8.4,-8.594329106653534,-1.2181743515684884,-1.9432364091742733,-0.254304949164883,0.06538149942413529,-0.45120802623009215,-0.02789803180291983,0.007540805811290241,-0.048066984305261684,0.0,70.0,255.0,255.0,255.0
169,8.450000000000001,-8.607079217171842,-1.2148958214877623,-1.9658568330810748,-0.25568374941903116,0.06577394307244022,-0.45359722438218064,-0.027318489317273986,0.008065747429486514,-0.04764591318711098,0.0,70.0,255.0,255.0,255.0
170,8.5,-8.619897481595437,-1.2115969572612444,-1.9885961316124914,-0.2570367980966104,0.06618807416708394,-0.45597261754880325,-0.026962809328523463,0.008327769688953879,-0.04761152546914893,0.0,70.0,255.0,255.0,255.0
171,8.55,-8.632782896981503,-1.208277014071054,-2.011454094835955,-0.2583800303518835,0.06660672004133561,-0.45835837692909553,-0.026928117233460114,0.008240659645597503,-0.04804752247133948,0.0,70.0,255.0,255.0,255.0
172,8.6,-8.645735484630626,-1.2049362852571108,-2.034431969305401,-0.2597296098199564,0.0670121401316437,-0.4607773697959372,-0.027129111517076865,0.007861241583739798,-0.04880272469032221,0.0,70.0,255.0,255.0,255.0
173,8.65,-8.658755857963499,-1.2015758000578896,-2.057531831815549,-0.2610929415035912,0.06739284419970959,-0.46323864939812776,-0.027395994070822383,0.007316201567841851,-0.04959632991767826,0.0,70.0,255.0,255.0,255.0
174,8.700000000000001,-8.671844778780985,-1.1981970008371399,-2.0807558342452137,-0.26246920922703865,0.06774376028842788,-0.465737002787705,-0.027563597093838155,0.006735993623530057,-0.0501449740568205,0.0,70.0,255.0,255.0,255.0
175,8.75,-8.685002778886203,-1.1948014240290468,-2.1041055320943194,-0.263849301212975,0.0680664435620626,-0.4682531468038098,-0.0274563422699714,0.006243271987771415,-0.05016282456469234,0.0,70.0,255.0,255.0,255.0
176,8.8,-8.698229708902282,-1.1913903564809336,-2.1275811489255947,-0.2652148434540358,0.06836808748720502,-0.47075328524417426,-0.026989845970604165,0.005910821379950804,-0.04951482093420445,0.0,70.0,255.0,255.0,255.0
177,8.85,-8.711524263231606,-1.1879646152803263,-2.151180860618737,-0.2665482858100354,0.06865752570005768,-0.47320462889723025,-0.0262911269546251,0.005750735858578437,-0.048388135439392244,0.0,70.0,255.0,255.0,255.0
178,8.9,-8.724884537483286,-1.1845246039109278,-2.1749016118153177,-0.2678439561494983,0.06894316107306286,-0.4755920987881135,-0.025595287952384638,0.005758863441962525,-0.04714135569767741,0.0,70.0,255.0,255.0,255.0
179,8.950000000000001,-8.738308658846556,-1.18107029917302,-2.198740070497548,-0.2691078146052739,0.06923341204425393,-0.477918764466998,-0.025126982446188606,0.0059297652558854,-0.046133537905390654,0.0,70.0,255.0,255.0,255.0
180,9.0,-8.751795318943813,-1.1776012627065024,-2.2226934882620175,-0.27035665439411716,0.0695361375986514,-0.48020545257865255,-0.025099746998868966,0.006255133035892868,-0.045713120328194634,0.0,70.0,255.0,255.0,255.0
181,9.05,-8.765344324285968,-1.1741166854131548,-2.2467606157554134,-0.2716177893051608,0.06985892534784321,-0.48249007649981746,-0.025613384665490457,0.006717080475615589,-0.04605356675186911,0.0,70.0,255.0,255.0,255.0
182,9.1,-8.77895709787433,-1.1706153701717181,-2.2709424959119993,-0.2729179928606662,0.07020784564621296,-0.48481080925383946,-0.026540133577590552,0.007254975821080478,-0.04699485010219995,0.0,70.0,255.0,255.0,255.0
183,9.15,-8.792636123572034,-1.1670959008485335,-2.2952416966807974,-0.27427180266291984,0.07058442292995126,-0.48718956151003745,-0.027627422883824693,0.007767505503442074,-0.04820729158070414,0.0,70.0,255.0,255.0,255.0
184,9.200000000000001,-8.806384278140621,-1.163556927878723,-2.319661452063003,-0.2756807351490487,0.07098459619655717,-0.4896315384119099,-0.028616212049747958,0.008145970994077878,-0.049354813715440926,0.0,70.0,255.0,255.0,255.0
185,9.25,-8.82020419708694,-1.1599974412288778,-2.3442048505219883,-0.27713342386789463,0.07139902002935905,-0.49212504288158154,-0.029264669734274662,0.008292186544922586,-0.0501127127703338,0.0,70.0,255.0,255.0,255.0
186,9.3,-8.83409762052741,-1.156417025875787,-2.368873956351161,-0.27860720212247614,0.07181381485104943,-0.49464280968894325,-0.029443328653933065,0.008160343896768119,-0.050304851452320776,0.0,70.0,255.0,255.0,255.0
187,9.35,-8.848064917299187,-1.1528160597437729,-2.3936691314908827,-0.28007775673328794,0.07221505441903586,-0.4971555280268136,-0.029196450623736325,0.007793836381164709,-0.05000150844107765,0.0,70.0,255.0,255.0,255.0
188,9.4,-8.86210539620074,-1.1491955204338835,-2.4185895091538425,-0.28152684718484977,0.0725931984891659,-0.499642960533051,-0.028646908625695744,0.0072874781808174305,-0.04937959452964158,0.0,70.0,255.0,255.0,255.0
189,9.450000000000001,-8.876217602017672,-1.1455567398948563,-2.4436334275441878,-0.2829424475958575,0.0729438022371176,-0.5020934874797778,-0.027928169354574095,0.006745837947574884,-0.048621006766635944,0.0,70.0,255.0,255.0,255.0
190,9.5,-8.890399640960325,-1.1419011402101718,-2.4687988579018203,-0.2843196641203072,0.07326778228392339,-0.5045050612097146,-0.027173602033947475,0.00626413943269899,-0.047916028590488935,0.0,70.0,255.0,255.0,255.0
191,9.55,-8.904649568429702,-1.138229961666464,-2.4940839336651592,-0.28565980779925226,0.0735702161803875,-0.5068850903388267,-0.02647176225707426,0.005901031116661848,-0.04737877569089832,0.0,70.0,255.0,255.0,255.0
192,9.600000000000001,-8.91896562174025,-1.134544118592133,-2.519487366935703,-0.2869668403460146,0.07385788539558957,-0.5092429387788044,-0.02587126672590756,0.005686042290165005,-0.04699631893072542,0.0,70.0,255.0,255.0,255.0
193,9.65,-8.933346252464304,-1.130844173126905,-2.5450082275430397,-0.288246934471843,0.074138820409404,-0.5115847222318992,-0.025430257299596803,0.005647057297819558,-0.046719644985548925,0.0,70.0,255.0,255.0,255.0
194,9.700000000000001,-8.947790315187435,-1.1271302365511926,-2.570645839158893,-0.2895098660759743,0.07442259112537153,-0.5139149032773593,-0.025216285356499668,0.00581016439533677,-0.046513047329943547,0.0,70.0,255.0,255.0,255.0
195,9.75,-8.962297239071901,-1.1234019140143678,-2.5963997178707756,-0.290768563007493,0.07471983684893768,-0.5162360269648936,-0.025292950101984957,0.006207246400347088,-0.046327228812081955,0.0,70.0,255.0,255.0,255.0
196,9.8,-8.976867171488184,-1.1196582528662988,-2.6222694418553822,-0.2920391610861728,0.07504331576540624,-0.5185476261585675,-0.025677361246678743,0.006836557277578592,-0.04613398517814282,0.0,70.0,255.0,255.0,255.0
197,9.850000000000001,-8.991501155180519,-1.1158975824378272,-2.6482544804866324,-0.29333629913216086,0.07540349257669554,-0.5208494254827079,-0.026274939348525095,0.007581155297198272,-0.04597144427425093,0.0,70.0,255.0,255.0,255.0
198,9.9,-9.0062008014014,-1.1121179036086293,-2.674354384403653,-0.2946666550210253,0.07580143129512606,-0.5231447705859926,-0.026913926977201186,0.008243453467082773,-0.04590275792866194,0.0,70.0,255.0,255.0,255.0
199,9.950000000000001,-9.020967820682621,-1.1083174393083146,-2.7005689575452316,-0.296027691829881,0.07622783792340382,-0.525439701275574,-0.027407714859783994,0.008621243398820866,-0.04597389016076647,0.0,70.0,255.0,255.0,255.0
200,10.0,-9.035803570584388,-1.104495119816289,-2.7268983545312104,-0.2974074265070037,0.07666355563500815,-0.5277421596020693,-0.027566578908988504,0.00851489361384239,-0.04622699089344984,0.0,70.0,255.0,255.0,255.0
201,10.05,-9.050708563333322,-1.1006510837448138,-2.7533431735054386,-0.29878434972077983,0.07707932728478806,-0.530062400364919,-0.027298792757513013,0.007838427418715987,-0.046672882663667536,0.0,70.0,255.0,255.0,255.0
202,10.100000000000001,-9.065682005556466,-1.09678718708781,-2.7799045945677023,-0.300137305782755,0.07744739837687975,-0.532409447868436,-0.026714383806414332,0.0067555836074095765,-0.04723706481124523,0.0,70.0,255.0,255.0,255.0
203,10.15,-9.080722293911597,-1.0929063439071258,-2.806584118292282,-0.30145578810142126,0.07775488564552901,-0.5347861068460436,-0.026028626865226556,0.005574560069421253,-0.047788484139177356,0.0,70.0,255.0,255.0,255.0
204,10.200000000000001,-9.095827584366608,-1.0890116985232572,-2.8333832052523067,-0.30274016846927765,0.07800485438382188,-0.5371882962823538,-0.02545942863054762,0.004610409794891801,-0.04819241766820248,0.0,70.0,255.0,255.0,255.0
205,10.25,-9.110996310758525,-1.0851058584687436,-2.8603029479205175,-0.304001730964476,0.0782159266250182,-0.5396053486128638,-0.025224696966397175,0.0041611511720551775,-0.04832079829011349,0.0,70.0,255.0,255.0,255.0
206,10.3,-9.126227757463056,-1.0811901058607554,-2.887343740113593,-0.30526263816591737,0.0784209695010274,-0.5420203761113651,-0.02543404115105119,0.0043768192946158635,-0.048113971346275264,0.0,70.0,255.0,255.0,255.0
207,10.350000000000001,-9.141522574575117,-1.077263761518641,-2.914504985531654,-0.30654513507958114,0.07865360855447978,-0.5444167457474913,-0.025982117499268043,0.005146626823449019,-0.047644772005384084,0.0,70.0,255.0,255.0,255.0
208,10.4,-9.156882270971014,-1.0733247450053074,-2.941785414688342,-0.30786084991584417,0.0789356321833723,-0.5467848533119035,-0.02665697348582796,0.006227350544341093,-0.047059669151261474,0.0,70.0,255.0,255.0,255.0
209,10.450000000000001,-9.172308659566701,-1.0693701983003037,-2.9691834708628444,-0.30921083242816394,0.07927634360891389,-0.5491227126626175,-0.027247997193491358,0.007364343528792894,-0.046515926345813696,0.0,70.0,255.0,255.0,255.0
210,10.5,-9.18780335421383,-1.065397110644416,-2.996697685954604,-0.3105856496351933,0.07967206653625158,-0.5514364459464849,-0.027550670521492293,0.0083164923738277,-0.046177834594152145,0.0,70.0,255.0,255.0,255.0
211,10.55,-9.20336722453022,-1.0614029916466785,-3.024327115457493,-0.31196589948031317,0.08010799284629666,-0.5537404961220327,-0.027458469210550618,0.008942034330439164,-0.04613071913071032,0.0,70.0,255.0,255.0,255.0
212,10.600000000000001,-9.218999944161862,-1.0573863113597863,-3.052071735566807,-0.31333149655624837,0.0805662699692955,-0.5560495178595559,-0.027042554121159412,0.009225181826200135,-0.04630021080362923,0.0,70.0,255.0,255.0,255.0
213,10.65,-9.234700374185845,-1.053346364649749,-3.0799320672434485,-0.3146701548924291,0.08103051102891667,-0.5583705172023956,-0.02645807126544497,0.009187086704454117,-0.04653731478048151,0.0,70.0,255.0,255.0,255.0
214,10.700000000000001,-9.250466959651105,-1.0492832602568947,-3.107908787287047,-0.31597730368279286,0.08148497863974091,-0.5607032493376041,-0.02586186931061718,0.00885324173085511,-0.04669679070157251,0.0,70.0,255.0,255.0,255.0
215,10.75,-9.266298104554124,-1.0451978667857749,-3.136002392177209,-0.31725634182349083,0.08191583520200219,-0.5630401962725529,-0.02540861162518837,0.008260897980516546,-0.04662790995277888,0.0,70.0,255.0,255.0,255.0
216,10.8,-9.282192593833454,-1.0410916767366944,-3.164212806914302,-0.3185181648453117,0.08231106843779257,-0.565366040332882,-0.02518485589959596,0.007452992101475431,-0.04625657870414024,0.0,70.0,255.0,255.0,255.0
217,10.850000000000001,-9.298149921038656,-1.0369667599419956,-3.192538996210497,-0.3197748274134504,0.08266113441214973,-0.5676658541429669,-0.025164029650603936,0.006514324193496179,-0.04567708874314569,0.0,70.0,255.0,255.0,255.0
218,10.9,-9.314170076574799,-1.0328255632954795,-3.2209793923285988,-0.3210345678103721,0.08296250085714219,-0.5699337492071965,-0.02527521697501811,0.005585980959832426,-0.045068367764011796,0.0,70.0,255.0,255.0,255.0
219,10.950000000000001,-9.330253377819693,-1.0286705098562814,-3.2495323711312167,-0.32230234911095224,0.08321973250813297,-0.5721726909193681,-0.025450726030840087,0.0048273515524055455,-0.04460348427457461,0.0,70.0,255.0,255.0,255.0
220,11.0,-9.346400311485894,-1.0245035900446662,-3.2781966614205356,-0.3235796404134561,0.08344523601238274,-0.574394097634654,-0.025622901627819772,0.004379962323852737,-0.044450478974544794,0.0,70.0,255.0,255.0,255.0
221,11.05,-9.362611341861038,-1.0203259862550431,-3.306971780894682,-0.3248646392737342,0.08365772874051824,-0.5766177388168225,-0.02574933330006246,0.004313223370799868,-0.04469005229972289,0.0,70.0,255.0,255.0,255.0
222,11.100000000000001,-9.378886775413267,-1.0161378171706144,-3.335858435302218,-0.32615457374346235,0.08387655834946273,-0.5788631028646263,-0.025822259675578607,0.004590341912802387,-0.04522695869955129,0.0,70.0,255.0,255.0,255.0
223,11.15,-9.395226799235385,-1.0119383304200968,-3.3648580911811448,-0.3274468652412921,0.08411676293179848,-0.5811404346867777,-0.025839289271623045,0.005115329782756639,-0.04587285052704004,0.0,70.0,255.0,255.0,255.0
224,11.200000000000001,-9.411631461937397,-1.0077261408774345,-3.3939724787708956,-0.32873850267062465,0.08438809132773839,-0.5834503879173303,-0.025789026100753176,0.005771151593259027,-0.04643649830722296,0.0,70.0,255.0,255.0,255.0
225,11.25,-9.428100649502447,-1.003499521287323,-3.423203129972878,-0.3300257678513674,0.08469387809112439,-0.5857840845175,-0.025647753892066305,0.006435196779897012,-0.04673418347289626,0.0,70.0,255.0,255.0,255.0
226,11.3,-9.444634038722533,-0.9992567530683221,-3.4525508872226456,-0.3313032780598313,0.08503161100572809,-0.5881238062646199,-0.02541109761402538,0.007028939590081329,-0.04666992538395753,0.0,70.0,255.0,255.0,255.0
227,11.350000000000001,-9.46123097730843,-0.9949963601867502,-3.48201551059934,-0.33256687761276993,0.08539677205013252,-0.5904510770558957,-0.025146931645814163,0.007527105358118291,-0.04630048438425405,0.0,70.0,255.0,255.0,255.0
228,11.4,-9.47789072648381,-0.9907170758633088,-3.511595994928235,-0.3338179712244127,0.08578432154153992,-0.5927538547030453,-0.024967625938465687,0.00790738522391532,-0.04575482220245952,0.0,70.0,255.0,255.0,255.0
229,11.450000000000001,-9.494612774430871,-0.9864179280325962,-3.5412908960696443,-0.3350636402066165,0.08618751057252405,-0.5950265592761417,-0.024986456279663116,0.008142867249405494,-0.0451638092098694,0.0,70.0,255.0,255.0,255.0
230,11.5,-9.511397090504472,-0.9820983248060564,-3.5710986508558493,-0.336316616852379,0.08659860826648047,-0.5972702356240323,-0.025334054831027686,0.008227222584622496,-0.0446487778096305,0.0,70.0,255.0,255.0,255.0
231,11.55,-9.52824443611611,-0.9777580672059482,-3.6010179196320475,-0.33759704568971927,0.0870102328309863,-0.5994914370571047,-0.026060075777856184,0.008163279341011354,-0.044283020057367395,0.0,70.0,255.0,255.0,255.0
232,11.600000000000001,-9.545156795073444,-0.9733973015229578,-3.63104779456156,-0.33892262443016463,0.0874149362005816,-0.601698537629769,-0.026988242179193378,0.00794477977805741,-0.044087467399744895,0.0,70.0,255.0,255.0,255.0
233,11.65,-9.562136698559126,-0.96901657358589,-3.6611877733950244,-0.3402958699076386,0.08780471080879204,-0.6039001837970792,-0.0278111393757996,0.007573264519900036,-0.04407233618737294,0.0,70.0,255.0,255.0,255.0
234,11.700000000000001,-9.579186382064208,-0.9646168304420786,-3.6914378129412677,-0.3417037383677446,0.08817226265257161,-0.6061057712485063,-0.028225801461623234,0.007069780341650844,-0.0442477520329998,0.0,70.0,255.0,255.0,255.0
235,11.75,-9.5963070723959,-0.9601993473206328,-3.721798350519875,-0.3431184500538009,0.08851168884295713,-0.6083249590003792,-0.027928101375174208,0.006447987473645611,-0.04462669596452251,0.0,70.0,255.0,255.0,255.0
236,11.8,-9.613498227069588,-0.9557656615577829,-3.7522703088413056,-0.344496548505262,0.08881706139993617,-0.6105684408449585,-0.02678720067290641,0.0057303439782496746,-0.045199020027419934,0.0,70.0,255.0,255.0,255.0
237,11.850000000000001,-9.630756727246427,-0.9513176411806392,-3.782855194604371,-0.34579717012109157,0.0890847232407821,-0.6128448610031212,-0.02506811828641986,0.0050119107276147545,-0.04586880685590877,0.0,70.0,255.0,255.0,255.0
238,11.9,-9.648077944081697,-0.9468571892337047,-3.8135547949416178,-0.347003360333904,0.08931825247269765,-0.6151553215305494,-0.023262315394134703,0.004443099820083951,-0.04647499388741316,0.0,70.0,255.0,255.0,255.0
239,11.950000000000001,-9.665457063279817,-0.9423858159333695,-3.844370726757426,-0.34812340166050504,0.08952903322279049,-0.6174923603918625,-0.02186865955078332,0.004170272456471835,-0.04685292158628229,0.0,70.0,255.0,255.0,255.0
240,12.0,-9.682890284247748,-0.9379042859114256,-3.875304030980804,-0.34919022628898233,0.08973527971834483,-0.6198406136891776,-0.021373493047072145,0.00432879954874732,-0.04685245698006213,0.0,70.0,255.0,255.0,255.0
241,12.05,-9.700376085908715,-0.933412287961535,-3.9063547881263436,-0.35026075096521225,0.08996191317766522,-0.6221776060898687,-0.02201200731235531,0.004970169920714973,-0.04640658747829818,0.0,70.0,255.0,255.0,255.0
242,12.100000000000001,-9.717916359344269,-0.9289080945936591,-3.937521791589791,-0.35139142702021786,0.09023229671041633,-0.6244812724370075,-0.02352492570079079,0.0059622626260469325,-0.045603552262862834,0.0,70.0,255.0,255.0,255.0
243,12.15,-9.735515228610737,-0.9243890582904933,-3.9688029153700444,-0.35261324353529133,0.09055813944026991,-0.626737961316155,-0.02539227970181912,0.007057133402621485,-0.04462311949846587,0.0,70.0,255.0,255.0,255.0
244,12.200000000000001,-9.753177683697798,-0.9198522806496321,-4.000195587721406,-0.3539306549903998,0.09093801005067847,-0.628943584386854,-0.0270807258361927,0.007990668294177716,-0.043659535981221964,0.0,70.0,255.0,255.0,255.0
245,12.25,-9.770908294109777,-0.9152952572854255,-4.03169727380873,-0.3553213161189106,0.09135720626968769,-0.6311039149142772,-0.028069954405651742,0.008504786359209149,-0.04289550408729248,0.0,70.0,255.0,255.0,255.0
246,12.3,-9.788709815309689,-0.9107165600226633,-4.063305979212834,-0.35673765043096495,0.09178848868659939,-0.6332331347955833,-0.028085422759005496,0.008468976338760204,-0.042434117238521196,0.0,70.0,255.0,255.0,255.0
247,12.350000000000001,-9.806582059152873,-0.9061164084167656,-4.095020587288288,-0.35812985839481115,0.0922041039035637,-0.6353473266381293,-0.027286631126166583,0.007987150656396658,-0.04227064376607359,0.0,70.0,255.0,255.0,255.0
248,12.4,-9.82452280114917,-0.901496149632307,-4.126840711876647,-0.3594663135435816,0.09258720375223906,-0.6374601991721907,-0.02603327442294301,0.007280254681418796,-0.042359707606021146,0.0,70.0,255.0,255.0,255.0
249,12.450000000000001,-9.842528690507232,-0.8968576880415416,-4.158766607205507,-0.36073318583710545,0.09293212937170559,-0.6395832973987314,-0.024688810064610323,0.006580341080142382,-0.04264842166854521,0.0,70.0,255.0,255.0,255.0
250,12.5,-9.86059611973288,-0.8922029366951364,-4.19079904161652,-0.36193519455004264,0.0932452378602533,-0.6417250413390452,-0.023610652033667634,0.006132055014251847,-0.04307750802272636,0.0,70.0,255.0,255.0,255.0
251,12.55,-9.878722209962236,-0.8875331642555163,-4.222939111339412,-0.3630942510404722,0.09354533487313077,-0.6438910482010041,-0.023004623331068785,0.006066185796416157,-0.04359848202932781,0.0,70.0,255.0,255.0,255.0
252,12.600000000000001,-9.896905544836928,-0.8828484032078233,-4.255188146436621,-0.3642356568831495,0.09385185643989491,-0.646084889541978,-0.02284034466768503,0.006284565983949442,-0.04415396591301857,0.0,70.0,255.0,255.0,255.0
253,12.65,-9.91514577565055,-0.8781479786115268,-4.2875476002936095,-0.3653782855072407,0.09417379147152571,-0.6483064447923059,-0.02300534521566533,0.006588094958048796,-0.044655439354279736,0.0,70.0,255.0,255.0,255.0
254,12.700000000000001,-9.933443373387652,-0.8734310240606707,-4.320018790915851,-0.36653619140471605,0.09451066593569979,-0.6505504334774059,-0.02339592201607843,0.006787081604398004,-0.04500160251916796,0.0,70.0,255.0,255.0,255.0
255,12.75,-9.951799394791022,-0.8686969120179568,-4.35260264364135,-0.36771787770884856,0.09485249963196551,-0.6528066050442227,-0.023903474756004073,0.006679068175707847,-0.0450984265261134,0.0,70.0,255.0,255.0,255.0
256,12.8,-9.970215161158537,-0.8639457740974742,-4.385299451420273,-0.36892653888031646,0.09517857275327057,-0.6550602761300173,-0.024451048952833787,0.0061664203355626945,-0.04490472853735383,0.0,70.0,255.0,255.0,255.0
257,12.850000000000001,-9.988692048679054,-0.8591790547426298,-4.418108671254352,-0.37016298260413194,0.09546914166552178,-0.6572970778979581,-0.024992083443997615,0.005397289370634439,-0.0444779681065377,0.0,70.0,255.0,255.0,255.0
258,12.9,-10.00723145941895,-0.854398859930922,-4.451029159210069,-0.3714257472247162,0.09571830169033402,-0.659508072940671,-0.025462733991332698,0.004644661523800497,-0.043934898612807416,0.0,70.0,255.0,255.0,255.0
259,12.950000000000001,-10.025834623401526,-0.8496072245735964,-4.484059478548419,-0.3727092560032652,0.09593360781790183,-0.6616905677592388,-0.02578232704539829,0.004171192642155042,-0.04340465543366534,0.0,70.0,255.0,255.0,255.0
260,13.0,-10.044502385019277,-0.8448054991491318,-4.517198215985993,-0.37400397992925605,0.09613542095454952,-0.6638485384840376,-0.025879411644957884,0.004239597690736119,-0.043016804520856766,0.0,70.0,255.0,255.0,255.0
261,13.05,-10.063235021394451,-0.8399936824781414,-4.550444332396823,-0.375297197167761,0.09635756758697545,-0.6659922482113245,-0.02572395474995659,0.004969018642120293,-0.04284209100129388,0.0,70.0,255.0,255.0,255.0
262,13.100000000000001,-10.082032104736053,-0.8351697423904343,-4.583797440807126,-0.3765763754042517,0.09663232281876155,-0.668132747584167,-0.025355797082404763,0.006160029447388471,-0.042850525297399855,0.0,70.0,255.0,255.0,255.0
263,13.15,-10.100892658934876,-0.8303304501962653,-4.617257607155239,-0.3778327768760015,0.09697357053171429,-0.6702773007410645,-0.02486008245625726,0.007437827711376244,-0.04296944171882089,0.0,70.0,255.0,255.0,255.0
264,13.200000000000001,-10.119815382423653,-0.8254723853372629,-4.650825170881232,-0.37906238364987743,0.09737610558989918,-0.672429691756049,-0.024334256981006774,0.008422600041368966,-0.043125976211921824,0.0,70.0,255.0,255.0,255.0
265,13.25,-10.138798897299864,-0.8205928396372754,-4.684500576330844,-0.38026620257410215,0.09781583053585119,-0.6745898983622567,-0.02386689731093128,0.008734569033330697,-0.04324237403841025,0.0,70.0,255.0,255.0,255.0
266,13.3,-10.157842002681063,-0.8156908022836777,-4.718284160717458,-0.38144907338097056,0.09824956249323225,-0.6767539291598901,-0.02351261922797221,0.008190418848907921,-0.04327413356541854,0.0,70.0,255.0,255.0,255.0
267,13.350000000000001,-10.176943804637961,-0.8107678833879521,-4.752175969246833,-0.3826174644968994,0.09863487242074198,-0.6789173117187985,-0.023301091864524892,0.007012476289736114,-0.04324086310472097,0.0,70.0,255.0,255.0,255.0
268,13.4,-10.196103749130753,-0.8058273150416035,-4.786175891889338,-0.38377918256742305,0.09895081012220586,-0.6810780154703622,-0.023261411707409252,0.005634983341595845,-0.04318556294951037,0.0,70.0,255.0,255.0,255.0
269,13.450000000000001,-10.215321722894704,-0.8008728023757316,-4.8202837707938695,-0.3849436056676403,0.09919837075490157,-0.6832358680137496,-0.02342013220921757,0.004497754511645358,-0.043145239252417866,0.0,70.0,255.0,255.0,255.0
270,13.5,-10.234598109697517,-0.7959074779661134,-4.8544994786907125,-0.3861211957883448,0.09940058557337039,-0.685392539395604,-0.023808989786289203,0.004042079555899303,-0.0431616713540528,0.0,70.0,255.0,255.0,255.0
271,13.55,-10.253933842473538,-0.7909327438183945,-4.88882302473343,-0.3873245046462692,0.0996025787104915,-0.6875520351491549,-0.024426593980209077,0.004489166102217279,-0.04325466145047585,0.0,70.0,255.0,255.0,255.0
272,13.600000000000001,-10.273330560162144,-0.7859472200950642,-4.923254682205628,-0.3885638551863657,0.09984950218359212,-0.6897180055406515,-0.025158996299978753,0.005619249542843097,-0.04338602228379784,0.0,70.0,255.0,255.0,255.0
273,13.65,-10.292790227992175,-0.7809477936000353,-4.957794825287495,-0.3898404042762671,0.1001645036647758,-0.6918906373775346,-0.025813431551036103,0.006993054772963525,-0.04348830648330804,0.0,70.0,255.0,255.0,255.0
274,13.700000000000001,-10.31231460058977,-0.7759307697285867,-4.9924437459433815,-0.3911451983414693,0.10054880766088847,-0.6940668361889824,-0.02619295310974934,0.00817323505895029,-0.043499780063882554,0.0,70.0,255.0,255.0,255.0
275,13.75,-10.331904747826322,-0.7708929128339465,-5.027201508906393,-0.39245969958724203,0.10098182717067083,-0.6962406153839229,-0.026105162192280318,0.008729187335232425,-0.043362968516902356,0.0,70.0,255.0,255.0,255.0
276,13.8,-10.351560570548495,-0.7658325870115196,-5.062067807481774,-0.39375571456069736,0.10142172639441172,-0.6984031330406726,-0.025466692497033705,0.008439769889112547,-0.043053421099781275,0.0,70.0,255.0,255.0,255.0
277,13.850000000000001,-10.371280319282391,-0.7607507401945053,-5.0970418222104605,-0.3950063688369454,0.10182580415958209,-0.700545957493901,-0.02442917002269951,0.007481341389636853,-0.042616819322471855,0.0,70.0,255.0,255.0,255.0
278,13.9,-10.39106120743219,-0.7556500065955614,-5.132122403231164,-0.3961986315629673,0.1021698605333754,-0.7026648149729198,-0.023280293322436307,0.006221981715637259,-0.042140278716829016,0.0,70.0,255.0,255.0,255.0
279,13.950000000000001,-10.410900182438688,-0.7505337541411677,-5.1673083037077525,-0.39733439816918903,0.10244800233114582,-0.7047599853655839,-0.022320316423218856,0.005029165392456125,-0.04171512767081609,0.0,70.0,255.0,255.0,255.0
280,14.0,-10.430794647249108,-0.7454052063624468,-5.202598401767722,-0.3984306632052892,0.10267277707262101,-0.7068363277400014,-0.021850361445530098,0.004261124483162515,-0.04143046390128191,0.0,70.0,255.0,255.0,255.0
281,14.05,-10.450743248759217,-0.7402664764339056,-5.237991936481753,-0.39951943431374204,0.10287411477946207,-0.7089030317557121,-0.022019922746174814,0.004111101660708716,-0.04133165415094453,0.0,70.0,255.0,255.0,255.0
282,14.100000000000001,-10.470746590680482,-0.7351177948845006,-5.2734887049432935,-0.4006326554799067,0.10308388723869188,-0.7109694931550958,-0.022676211722050255,0.004486340609610728,-0.04138399646471669,0.0,70.0,255.0,255.0,255.0
283,14.15,-10.490806514307208,-0.7299580877100365,-5.309088885797262,-0.40178705548594706,0.10332274884042314,-0.7130414314021838,-0.023513507045969106,0.005168901814323057,-0.041513282612282154,0.0,70.0,255.0,255.0,255.0
284,14.200000000000001,-10.510925296229077,-0.7247855200004583,-5.344792848083512,-0.4029840061845036,0.10360077742012419,-0.715120821416324,-0.02421920776853881,0.005943017124065975,-0.04163970925228355,0.0,70.0,255.0,255.0,255.0
285,14.25,-10.531104914925658,-0.719598009968024,-5.380600967938895,-0.40420897626280095,0.10391705055282974,-0.7172054023274121,-0.024465419999941673,0.0065983427040783305,-0.04167116655358072,0.0,70.0,255.0,255.0,255.0
286,14.3,-10.551346193855357,-0.7143938149451753,-5.416513388316253,-0.40543054818449775,0.10426061169053202,-0.7192879380716821,-0.024087555914320546,0.007010275682550748,-0.04156047511694183,0.0,70.0,255.0,255.0,255.0
287,14.350000000000001,-10.571647969744108,-0.7091719487989708,-5.452529761746063,-0.406617731854233,0.10461807812108481,-0.7213614498391063,-0.023272323413081608,0.007177864936569467,-0.041368127220042794,0.0,70.0,255.0,255.0,255.0
288,14.4,-10.59200796704078,-0.7039320071330668,-5.488649533300164,-0.4077577805258059,0.10497839818418897,-0.7234247507936864,-0.022378499005526464,0.007136163940801854,-0.04120481927234465,0.0,70.0,255.0,255.0,255.0
289,14.450000000000001,-10.612423747796688,-0.6986741089805519,-5.5248722368254315,-0.40885558175478565,0.105331694515165,-0.7254819317663408,-0.021756512176018816,0.0069130784656201705,-0.04117312156681763,0.0,70.0,255.0,255.0,255.0
290,14.5,-10.632893525216259,-0.6933988376815503,-5.561197726476798,-0.4099334317434078,0.10566970603075099,-0.7275420629503682,-0.02176786531560282,0.006537486052438091,-0.041380813939806416,0.0,70.0,255.0,255.0,255.0
291,14.55,-10.653417090971029,-0.6881071383774768,-5.597626443120468,-0.41103236828634593,0.1059854431204088,-0.7296200131603214,-0.02258351327313335,0.006040056681300143,-0.04187353162814489,0.0,70.0,255.0,255.0,255.0
292,14.600000000000001,-10.673996762044894,-0.6828002933695094,-5.63415972779283,-0.41219178307072113,0.106273711698881,-0.7317294161131827,-0.023947315137817782,0.005483038805054186,-0.042541723094036143,0.0,70.0,255.0,255.0,255.0
293,14.65,-10.694636269278101,-0.6774797672075887,-5.670799384731787,-0.4134270998001277,0.10653374700091423,-0.733874185469725,-0.0253788372555519,0.0049672815833123884,-0.04318837269954301,0.0,70.0,255.0,255.0,255.0
294,14.700000000000001,-10.715339472024906,-0.672146918669418,-5.707547146339802,-0.4147296667962763,0.10677043985721224,-0.736048253383137,-0.0264021094935174,0.004603643372436128,-0.04362174387440021,0.0,70.0,255.0,255.0,255.0
295,14.75,-10.736109235957729,-0.6668027232218675,-5.7444042100701,-0.41606731074947945,0.10699411133815784,-0.7382363598571651,-0.026539202655051497,0.004495722410158276,-0.04366562430675458,0.0,70.0,255.0,255.0,255.0
296,14.8,-10.756946203099854,-0.6614475075356022,-5.781370782325519,-0.41738358706178147,0.10722001209822807,-0.7404148158138124,-0.02556421850101742,0.004690010412788936,-0.043237799302442426,0.0,70.0,255.0,255.0,255.0
297,14.850000000000001,-10.777847594663907,-0.6560807220120447,-5.8184456916514815,-0.4186237325995812,0.10746311237943673,-0.7425601397874093,-0.02379007104682529,0.005125504318792551,-0.042431227490258294,0.0,70.0,255.0,255.0,255.0
298,14.9,-10.798808576359813,-0.6507011962976585,-5.85562679630426,-0.419762594166464,0.10773256253010732,-0.7446579385628382,-0.02181617528069779,0.005678346089510455,-0.04143712116544407,0.0,70.0,255.0,255.0,255.0
299,14.950000000000001,-10.819823854080553,-0.645307465759034,-5.892911485507765,-0.42080535012765097,0.10803094698838778,-0.7467038519039537,-0.020247171062592884,0.006212860865117964,-0.040458877295268536,0.0,70.0,255.0,255.0,255.0
300,15.0,-10.840889111372578,-0.6398981015988198,-5.930297181494655,-0.4217873112727233,0.10835384861661912,-0.7487038262923651,-0.019687258796885487,0.006591605658856636,-0.03968871680450903,0.0,70.0,255.0,255.0,255.0
301,15.05,-10.862002585207826,-0.6344720808973721,-5.967781868137002,-0.4227740760073395,0.10869010755427344,-0.7506727235844046,-0.02043327239569237,0.0067404144880489625,-0.03923475834080037,0.0,70.0,255.0,255.0,255.0
302,15.100000000000001,-10.883166518973312,-0.6290290908433924,-6.005364453853096,-0.4238306385122925,0.10902789006542402,-0.7526273021264451,-0.022157109299136835,0.006698580283437394,-0.039087026618922494,0.0,70.0,255.0,255.0,255.0
303,15.15,-10.904385649059055,-0.6235692918908297,-6.043044598349646,-0.4249897869372532,0.10935996558261718,-0.7545814262462969,-0.02421091383570939,0.0065548585342356525,-0.03919032212618134,0.0,70.0,255.0,255.0,255.0
304,15.200000000000001,-10.925665497667037,-0.6180930942851307,-6.080822596477725,-0.42625172989586346,0.10968337591884758,-0.7565463343390633,-0.025943285511509373,0.006398712700927955,-0.0394822341236889,0.0,70.0,255.0,255.0,255.0
305,15.25,-10.947010822048641,-0.6126009542989449,-6.118699231783553,-0.42758411548840414,0.10999983685270998,-0.7585296496586658,-0.026707846073037445,0.0063298363062402885,-0.0398914898270597,0.0,70.0,255.0,255.0,255.0
306,15.3,-10.968423909215877,-0.6070931105998597,-6.156675561443592,-0.4289225145031672,0.11031635954947161,-0.7605354833217692,-0.02617625834826498,0.0064011055278423434,-0.04036470579649176,0.0,70.0,255.0,255.0,255.0
307,15.350000000000001,-10.989903073498958,-0.6015693183439977,-6.19475278011573,-0.43020174132323064,0.11063994740549421,-0.7625661202383149,-0.02463771553458116,0.006559242146619848,-0.04086075927389743,0.0,70.0,255.0,255.0,255.0
308,15.4,-11.0114440833482,-0.5960291158593103,-6.2329321734674235,-0.4313862860566253,0.1109722837641336,-0.764621559249159,-0.022683945600654454,0.006703991335266224,-0.04131897960686359,0.0,70.0,255.0,255.0,255.0
309,15.450000000000001,-11.03304170210462,-0.5904720899675844,-6.2712149360406455,-0.4324701358832961,0.11131034653902083,-0.7666980181990013,-0.020906120457908628,0.0067452020841352045,-0.041667011385193575,0.0,70.0,255.0,255.0,255.0
310,15.5,-11.05469109693653,-0.5848980812054082,-6.309601975287324,-0.4334768981024162,0.11164680397254712,-0.7687882603876783,-0.019885272994635272,0.006593105060170856,-0.04184928659149989,0.0,70.0,255.0,255.0,255.0
311,15.55,-11.076389391914862,-0.5793074095703297,-6.348093762079413,-0.4344586631827596,0.11196965704503792,-0.7708829468581513,-0.019927614956039008,0.006208077153468938,-0.04183919236595557,0.0,70.0,255.0,255.0,255.0
312,15.600000000000001,-11.098136963254806,-0.5737011155009044,-6.386690269973139,-0.4354696595980201,0.11226761168789401,-0.7729721796242739,-0.02083757634903094,0.005666222691957934,-0.04163441180962124,0.0,70.0,255.0,255.0,255.0
313,15.65,-11.119936357874664,-0.5680806484015403,-6.425390980041841,-0.4365424208176627,0.11253627931423371,-0.7750463880391134,-0.022188595137606626,0.005108243723794814,-0.04125012308264786,0.0,70.0,255.0,255.0,255.0
314,15.700000000000001,-11.141791205336572,-0.562447487569481,-6.46419490877705,-0.43768851911178075,0.11277843606027349,-0.7770971919325387,-0.023558572983084503,0.004673252855280641,-0.04071592080219233,0.0,70.0,255.0,255.0,255.0
315,15.75,-11.163705209785842,-0.5568028047955129,-6.503100699235095,-0.43889827811597115,0.11300360459976178,-0.7791179801193326,-0.02453912721591678,0.004489724804956907,-0.040051410426666934,0.0,70.0,255.0,255.0,255.0
316,15.8,-11.18568103314817,-0.5511471271095049,-6.542106706788983,-0.4401424318333724,0.11322740854076918,-0.7811023329752054,-0.0249011606156202,0.004620385392117843,-0.03928421238530433,0.0,70.0,255.0,255.0,255.0
317,15.850000000000001,-11.20771945296918,-0.545480063941436,-6.581210932532615,-0.44138839417753317,0.11346564313897356,-0.7830464013578631,-0.024701955760519922,0.005011391561149381,-0.03851972868655906,0.0,70.0,255.0,255.0,255.0
318,15.9,-11.229819872565923,-0.5398005627956075,-6.62041134692477,-0.4426126274094244,0.11372854769688412,-0.7849543058438613,-0.024110018835798996,0.005546670133182996,-0.037924071185369,0.0,70.0,255.0,255.0,255.0
319,15.950000000000001,-11.251980715710122,-0.5341072091717476,-6.659706363117001,-0.44379939606111307,0.11402031015229186,-0.7868388084764,-0.02328718667641283,0.006102299315235982,-0.03766156647815322,0.0,70.0,255.0,255.0,255.0
320,16.0,-11.274199812172034,-0.5283985317803783,-6.69909522777241,-0.4449413460770657,0.11433877762840772,-0.7887204624916766,-0.02238619017003174,0.0065599770719071415,-0.03789304373018609,0.0,70.0,255.0,255.0,255.0
321,16.05,-11.296474850317828,-0.5226733314089068,-6.738578409366169,-0.44603801507811625,0.11467630785948257,-0.7906281128494186,-0.021512777546384143,0.006850894098575644,-0.03867878326726526,0.0,70.0,255.0,255.0,255.0
322,16.1,-11.318803613679846,-0.5169309009944301,-6.7781580390573515,-0.4470926238317041,0.11502386703826528,-0.7925883408184031,-0.020751803408103342,0.006971847427073019,-0.03984135875967354,0.0,70.0,255.0,255.0,255.0
323,16.150000000000002,-11.341184112700999,-0.5111709447050803,-6.817837243448009,-0.4481131954189266,0.11537349260218988,-0.7946122487253859,-0.020216644203863154,0.006940600219007553,-0.0410563893785465,0.0,70.0,255.0,255.0,255.0
324,16.2,-11.363614933221738,-0.5053935517342111,-6.85761926392989,-0.44911428825209043,0.11571792706016604,-0.7966939797562578,-0.020031141847987044,0.006778062704348997,-0.04198606503225122,0.0,70.0,255.0,255.0,255.0
325,16.25,-11.386095541526208,-0.4995991519990637,-6.897506641423635,-0.4501163096037253,0.11605129887262478,-0.7988108552286111,-0.020316112104268313,0.006514376231409047,-0.04229641465300915,0.0,70.0,255.0,255.0,255.0
326,16.3,-11.40862656418211,-0.4937884218469486,-6.937500349452751,-0.45114589946251726,0.11636936468330694,-0.8009236212215587,-0.02110926765972465,0.0061750125725346106,-0.04182685501259442,0.0,70.0,255.0,255.0,255.0
327,16.35,-11.43121013147246,-0.487962215530733,-6.977599003545791,-0.45222723636969775,0.11666880012987824,-0.8029935407298705,-0.022245515922669767,0.005782057891434711,-0.040764719724339926,0.0,70.0,255.0,255.0,255.0
328,16.400000000000002,-11.45384928781908,-0.4821215418339608,-7.017799703525738,-0.45337045105478424,0.11694757047245041,-0.8050000931939927,-0.02342620155175723,0.005371768151657408,-0.03948132701099283,0.0,70.0,255.0,255.0,255.0
329,16.45,-11.476547176577938,-0.47626745848348795,-7.05809901286519,-0.4545698565248735,0.11720597694504398,-0.8069416734309698,-0.024336497679655622,0.004991137512955213,-0.03836023399879096,0.0,70.0,255.0,255.0,255.0
330,16.5,-11.499306273471568,-0.4704009441394564,-7.098493870868835,-0.4558041008227498,0.11744668422374593,-0.8088361165938718,-0.02466936141427567,0.004678555298459619,-0.037793279009878944,0.0,70.0,255.0,255.0,255.0
331,16.55,-11.522127586660213,-0.46452279006111336,-7.138982624524577,-0.45703679266630104,0.11767383247488994,-0.8107210013319577,-0.024276352279173352,0.0044557688980262355,-0.037979857288839014,0.0,70.0,255.0,255.0,255.0
332,16.6,-11.545009952738198,-0.4586335608919674,-7.179565971002031,-0.45823173605066714,0.11789226111354856,-0.8126341023227557,-0.023316016349994584,0.004337217044536601,-0.03873071805422512,0.0,70.0,255.0,255.0,255.0
333,16.650000000000002,-11.56795076026528,-0.4527335639497585,-7.220246034756853,-0.4593683943013005,0.1181075541793436,-0.8145940731373802,-0.022109505302125854,0.0043350311371759265,-0.039668186027164154,0.0,70.0,255.0,255.0,255.0
334,16.7,-11.590946792168328,-0.446822805474033,-7.261025378315769,-0.4604426865808797,0.11832576422726615,-0.8166009209254721,-0.020988928040388544,0.004450673957007156,-0.040419339298303214,0.0,70.0,255.0,255.0,255.0
335,16.75,-11.613995028923368,-0.4409009875270319,-7.3019061268494,-0.46146728710533935,0.11855262157504431,-0.8186360070672105,-0.020278423590447403,0.004675365278611343,-0.040606553223021535,0.0,70.0,255.0,255.0,255.0
336,16.8,-11.637093520878862,-0.4349675433165286,-7.34288897902249,-0.46247052893992446,0.11879330075512728,-0.8206615762477742,-0.020151383828981295,0.00499622418969059,-0.040040568979193836,0.0,70.0,255.0,255.0,255.0
337,16.85,-11.66024208181736,-0.42902165745151916,-7.3839722844741775,-0.4634824254882375,0.11905224399401337,-0.8226400639651299,-0.020521374388415836,0.0053882347696265764,-0.038920519947893695,0.0,70.0,255.0,255.0,255.0
338,16.900000000000002,-11.683441763427686,-0.42306231891712726,-7.425152985419003,-0.46452266637876605,0.11933212423208994,-0.8245536282425636,-0.021185660689226893,0.005807268138918742,-0.03763781699195334,0.0,70.0,255.0,255.0,255.0
339,16.95,-11.706694348455237,-0.41708844502831016,-7.466427647298434,-0.46560099155716017,0.11963297080790525,-0.8264038456643252,-0.021940703911127457,0.006200479013307447,-0.03657555566070059,0.0,70.0,255.0,255.0,255.0
340,17.0,-11.730001862583402,-0.41109902183633673,-7.507793369985436,-0.4667167367698788,0.11995217213342069,-0.8282111838086337,-0.022588972196757595,0.006523946290926119,-0.036104424182159534,0.0,70.0,255.0,255.0,255.0
341,17.05,-11.753366022132225,-0.4050932278149681,-7.549248765679297,-0.46785988877683593,0.12028536543699786,-0.8300142880825412,-0.023012564619406817,0.006752621056471675,-0.03641152646753909,0.0,70.0,255.0,255.0,255.0
342,17.1,-11.776787851461085,-0.39907048529263695,-7.59079479879369,-0.4690179932318195,0.12062743423906785,-0.8318523364553876,-0.023203054860942984,0.006872547839764653,-0.03733731870516621,0.0,70.0,255.0,255.0,255.0
343,17.150000000000002,-11.800267821455407,-0.3930304843910613,-7.632433999324836,-0.47018019426293023,0.12097262022097433,-0.8337480199530578,-0.02318160485472731,0.006873192344525325,-0.03854959029494509,0.0,70.0,255.0,255.0,255.0
344,17.2,-11.823805870887378,-0.3869732232705395,-7.6741696007889955,-0.4713361537172922,0.12131475347352039,-0.8357072954848821,-0.022962568669804284,0.006754123276447865,-0.03971237745199474,0.0,70.0,255.0,255.0,255.0
345,17.25,-11.847401436827136,-0.38089900904370927,-7.716004728873324,-0.47247645112991066,0.12164803254861911,-0.8377192576982573,-0.022557668974698686,0.006524886853626066,-0.040503768695732134,0.0,70.0,255.0,255.0,255.0
346,17.3,-11.87105351600037,-0.3748084200156776,-7.757941526558821,-0.4735919206147621,0.121967242158883,-0.8397576723544553,-0.02199061876435593,0.006198979230032098,-0.04074726454446065,0.0,70.0,255.0,255.0,255.0
347,17.35,-11.894760628888612,-0.36870228482782097,-7.79998049610877,-0.47467551300634625,0.12226793047162232,-0.8417939841527033,-0.0213472453287622,0.005802413032240938,-0.04049924952127526,0.0,70.0,255.0,255.0,255.0
348,17.400000000000002,-11.918521067301004,-0.36258162696851537,-7.8421209249740915,-0.4757266451476383,0.12254748346210709,-0.8438075973065828,-0.0207687590526362,0.005380801643933841,-0.03991393837914359,0.0,70.0,255.0,255.0,255.0
349,17.45,-11.942333293403376,-0.35644753648161026,-7.884361255839428,-0.47675238891160987,0.1228060106360157,-0.8457853779906177,-0.020407995768501053,0.004988715526582643,-0.03914873406412056,0.0,70.0,255.0,255.0,255.0
350,17.5,-11.966196306192165,-0.3503010259049138,-7.926699462773153,-0.4777674447244884,0.12304635501476535,-0.8477224707129949,-0.020424361229665067,0.004672543590522604,-0.03836050103398492,0.0,70.0,255.0,255.0,255.0
351,17.55,-11.990110037875825,-0.3441429009801337,-7.9691335029107275,-0.4787948250345764,0.12327326499506797,-0.8496214280940162,-0.02088547314293976,0.004458175310034784,-0.037651163606788884,0.0,70.0,255.0,255.0,255.0
352,17.6,-12.014075788695623,-0.337973699405407,-8.011661605582555,-0.4798559920387824,0.12349217254576883,-0.8514875870736738,-0.021643488299716296,0.004355096068642261,-0.03706288600762164,0.0,70.0,255.0,255.0,255.0
353,17.650000000000002,-12.038095637079703,-0.33179368372555684,-8.054282261618095,-0.480959173864548,0.12370877460193219,-0.8533277166947784,-0.022426995299085206,0.004366305042519114,-0.03663997087368642,0.0,70.0,255.0,255.0,255.0
354,17.7,-12.062171706082077,-0.3256028219452138,-8.096994377252033,-0.4820986915686909,0.12392880305002074,-0.8551515841610424,-0.022959387648313623,0.004484301330459628,-0.03643786111613423,0.0,70.0,255.0,255.0,255.0
355,17.75,-12.086305506236572,-0.31940080342055477,-8.1397974200342,-0.48325511262937937,0.12415720473497815,-0.8569715028063918,-0.022960923402592925,0.004688901488159036,-0.03650625514008965,0.0,70.0,255.0,255.0,255.0
356,17.8,-12.110497217345015,-0.31318710147171597,-8.182691527532672,-0.4843947839089502,0.12439769319883665,-0.8588022096750514,-0.02230040241713027,0.004962631884125601,-0.036855819955938784,0.0,70.0,255.0,255.0,255.0
357,17.85,-12.134744984627467,-0.3069610341006711,-8.225677641001704,-0.4854851528710924,0.12465346792339072,-0.8606570848019857,-0.021165980959558794,0.005296363532464321,-0.037405663325529304,0.0,70.0,255.0,255.0,255.0
358,17.900000000000002,-12.159045732632125,-0.3007217546793769,-8.26875723601287,-0.48651138200490607,0.12492732955208308,-0.8625427760076043,-0.019916919425710944,0.0056731390251973934,-0.03800804292879434,0.0,70.0,255.0,255.0,255.0
359,17.95,-12.183396122827958,-0.2944683011454628,-8.311931918602465,-0.4874768448136635,0.12522078182591045,-0.8644578890948651,-0.018913800956887883,0.006068391505831272,-0.03850084711167767,0.0,70.0,255.0,255.0,255.0
360,18.0,-12.207793417113491,-0.28819967649678585,-8.355203024922357,-0.48840276210059486,0.1255341687026662,-0.8663928607187721,-0.018507889215513273,0.006475813160744526,-0.038726459757043585,0.0,70.0,255.0,255.0,255.0
361,18.05,-12.232236399038017,-0.2819148842751962,-8.398571204674342,-0.4893276337352148,0.1258683631419849,-0.8683305350705695,-0.018873290148668787,0.006884583866739735,-0.03860555656984843,0.0,70.0,255.0,255.0,255.0
362,18.1,-12.256726180487012,-0.27561284018258736,-8.442036078429414,-0.49029009111546173,0.12622262708934018,-0.8702534163757569,-0.019842704412376122,0.007222153764269157,-0.03819986861639535,0.0,70.0,255.0,255.0,255.0
363,18.150000000000002,-12.281265408149563,-0.26929262156626216,-8.485596546311918,-0.49131190417645243,0.12659057851841182,-0.872150521932209,-0.02107437128895384,0.007378434894028674,-0.03764244948598616,0.0,70.0,255.0,255.0,255.0
364,18.2,-12.305857370904658,-0.2629537823307462,-8.529251130622635,-0.4923975282443571,0.12696047057874305,-0.8740176613243555,-0.02221934791748481,0.007255559219587759,-0.03707203714959917,0.0,70.0,255.0,255.0,255.0
365,18.25,-12.330505160973999,-0.25659657450838785,-8.572998312444353,-0.4935338389682009,0.1273161344403706,-0.8758577256471689,-0.02293553838281781,0.006755911136868686,-0.036623896506426945,0.0,70.0,255.0,255.0,255.0
366,18.3,-12.355210754801478,-0.2502221688867091,-8.616836903187352,-0.4946910820826389,0.12763606169242991,-0.8776800509749982,-0.023040376383676175,0.005850920760833156,-0.03637472765820604,0.0,70.0,255.0,255.0,255.0
367,18.35,-12.379974269182263,-0.24383296833914486,-8.660766317541853,-0.49583787660656853,0.12790122651645391,-0.8794951984129895,-0.022632245679510277,0.004697632133129903,-0.036311225847107664,0.0,70.0,255.0,255.0,255.0
368,18.400000000000002,-12.404794542462135,-0.23743204623506373,-8.70478642302865,-0.4969543066505899,0.1281058249057429,-0.881311173559709,-0.0219357119673802,0.0035730281586349166,-0.03638663465093117,0.0,70.0,255.0,255.0,255.0
369,18.45,-12.429669699847322,-0.23102238584857057,-8.748897434897824,-0.49803144780330655,0.1282585293323174,-0.8831338618780826,-0.02117589361994021,0.0027611198675170368,-0.036557204754394945,0.0,70.0,255.0,255.0,255.0
370,18.5,-12.454597687242465,-0.22460619330183199,-8.793099809216459,-0.49907189601258395,0.1283819368924946,-0.8849668940351485,-0.02057792928109592,0.0025365329676729775,-0.03678597286516094,0.0,70.0,255.0,255.0,255.0
371,18.55,-12.47957688944858,-0.2181841921593211,-8.837394124301339,-0.5000892407314161,0.1285121826290847,-0.8868124591645987,-0.02027075210211393,0.0030260454442737617,-0.037042758905592166,0.0,70.0,255.0,255.0,255.0
372,18.6,-12.504606611315607,-0.21175497503892352,-8.881781055132919,-0.5010989712227953,0.12868454143692198,-0.8886711699257077,-0.020223744104796992,0.00405836665436643,-0.037276160397681224,0.0,70.0,255.0,255.0,255.0
373,18.650000000000002,-12.52968678657086,-0.2053157380156289,-8.92626124129391,-0.5021116151418958,0.12891801929452135,-0.8905400752043668,-0.02034902792864557,0.0052967251987195985,-0.03740924034865145,0.0,70.0,255.0,255.0,255.0
374,18.7,-12.554817772829796,-0.19886317310947138,-8.970835062653356,-0.5031338740156599,0.12921421395679394,-0.8924120939605729,-0.02056947853557034,0.006387700238005833,-0.03735965665256913,0.0,70.0,255.0,255.0,255.0
375,18.75,-12.580000173972426,-0.19239431661994952,-9.015502450689967,-0.5041685629954529,0.12955678931832193,-0.8942760408696238,-0.020812791112945206,0.006973947668353908,-0.037032212031817835,0.0,70.0,255.0,255.0,255.0
376,18.8,-12.605234629129342,-0.1859074941776392,-9.060262666740318,-0.5052151531269544,0.12991160872362933,-0.8961153151637546,-0.021030554601964013,0.0068721235692986715,-0.036393723898164865,0.0,70.0,255.0,255.0,255.0
377,18.85,-12.630521689285121,-0.17940315574758658,-9.105113982206342,-0.5062716184556493,0.1302440016752518,-0.8979154132594402,-0.02119371030104844,0.006237945538556389,-0.03558590412513496,0.0,70.0,255.0,255.0,255.0
378,18.900000000000002,-12.655861790974907,-0.172883094010114,-9.150054208066262,-0.5073345241570593,0.13053540327748497,-0.8996739055762681,-0.02126640475648145,0.005390187596676643,-0.03485547155506197,0.0,70.0,255.0,255.0,255.0
379,18.95,-12.681255141700827,-0.1663496154198381,-9.195081372763969,-0.5083982589312974,0.13078302043491946,-0.9014009604149464,-0.021206705059206854,0.004648452140756931,-0.034450229240867714,0.0,70.0,255.0,255.0,255.0
380,19.0,-12.706701616868036,-0.15980479196662206,-9.240194304107757,-0.50945519466298,0.13100024849156067,-0.9031189285003549,-0.020970906266448708,0.00434362041477343,-0.034625132385279755,0.0,70.0,255.0,255.0,255.0
381,19.05,-12.732200661167125,-0.15324959057068202,-9.285393265614005,-0.5104953495579423,0.1312173824763968,-0.9048634736534744,-0.02054651666885121,0.004644807597867229,-0.035489944568567466,0.0,70.0,255.0,255.0,255.0
382,19.1,-12.75775115182383,-0.14668305371898238,-9.330680651473104,-0.5115098463298651,0.1314647292513474,-0.9066679229572117,-0.020003186252814942,0.005383510865114571,-0.03681397601607017,0.0,70.0,255.0,255.0,255.0
383,19.150000000000002,-12.783351645800112,-0.14010311764554728,-9.376060057909726,-0.5124956681832238,0.13175573356290826,-0.9085448712550814,-0.019464420645576297,0.0062297039018277545,-0.038173442198008445,0.0,70.0,255.0,255.0,255.0
384,19.200000000000003,-12.809000718642153,-0.13350748036269156,-9.421535138598612,-0.5134562883944227,0.13208769964153017,-0.9104852671770125,-0.019056475120926564,0.0068648315253105885,-0.03914059188652175,0.0,70.0,255.0,255.0,255.0
385,19.25,-12.834697274639554,-0.12689434768139427,-9.467108584627427,-0.5144013156953164,0.13244221671543932,-0.9124589304437336,-0.01889556517138402,0.006971663912594406,-0.0392913143691942,0.0,70.0,255.0,255.0,255.0
386,19.3,-12.860440850211685,-0.12026325869114762,-9.512781031642985,-0.5153458449115611,0.1327848660327896,-0.9144143986139319,-0.01903717825655349,0.006394986365537703,-0.038425612045145385,0.0,70.0,255.0,255.0,255.0
387,19.35,-12.88623185913071,-0.1136158610781153,-9.55855002448882,-0.5163050335209718,0.1330817153519931,-0.9163014916482481,-0.01942906916578835,0.005315190488182353,-0.036809846822372094,0.0,70.0,255.0,255.0,255.0
388,19.400000000000002,-12.912071353563782,-0.10695508715594831,-9.60441118080781,-0.5172887518281399,0.13331638508160784,-0.9180953832961691,-0.019959549024406442,0.004084656469735548,-0.0349607829653209,0.0,70.0,255.0,255.0,255.0
389,19.450000000000003,-12.937960734313524,-0.10028422256995452,-9.650359562818437,-0.5183009884234124,0.13349018099896665,-0.9197975699447802,-0.020507907276368087,0.003051569077357208,-0.03340623771208584,0.0,70.0,255.0,255.0,255.0
390,19.5,-12.963901452406123,-0.09360606905605165,-9.696390937802288,-0.5193395425557767,0.13362154198934356,-0.9214360070673777,-0.020958814400628967,0.0025456679907318036,-0.03267357283949224,0.0,70.0,255.0,255.0,255.0
391,19.55,-12.989894688569102,-0.08692206837102016,-9.742503163525175,-0.5203968698634753,0.13374474779803983,-0.9230649272287295,-0.021245283124926573,0.0027356199003111814,-0.033027467390311926,0.0,70.0,255.0,255.0,255.0
392,19.6,-13.01594113939247,-0.08023159427624767,-9.788697430525161,-0.5214640708682694,0.13389510397937468,-0.9247387538064089,-0.021364173447935286,0.0035058437322696423,-0.034213116881431915,0.0,70.0,255.0,255.0,255.0
393,19.650000000000002,-13.042041095655929,-0.0735325579730827,-9.834977038905816,-0.5225332872082689,0.1340953321712668,-0.9264862389168727,-0.021332907732940498,0.0046007145083326595,-0.03571694575494888,0.0,70.0,255.0,255.0,255.0
394,19.700000000000003,-13.068194468113298,-0.06682206105912099,-9.881346054416849,-0.5235973616415635,0.13435517543020795,-0.9283104483819038,-0.021172408593272962,0.005756118272539357,-0.037021310413010156,0.0,70.0,255.0,255.0,255.0
395,19.75,-13.094400831820085,-0.0600970404300619,-9.927808083744006,-0.5246505280675962,0.13467094399852073,-0.9301883699581737,-0.020913186550508556,0.006721654800420085,-0.03760245954058661,0.0,70.0,255.0,255.0,255.0
396,19.8,-13.120659520920057,-0.053354966659268914,-9.974364891412666,-0.5256886802966143,0.13502734091024995,-0.9320706943359625,-0.02058066360159927,0.007350272960893189,-0.037191884359444316,0.0,70.0,255.0,255.0,255.0
397,19.85,-13.146969699849747,-0.046594306339036905,-10.021015153177602,-0.5267085944277561,0.13540597129461004,-0.9339075583941181,-0.02019507620243388,0.007628707310000649,-0.03602943390319524,0.0,70.0,255.0,255.0,255.0
398,19.900000000000002,-13.173330380362833,-0.03981436952980791,-10.067755647252078,-0.5277081879168577,0.13579021164125002,-0.935673637726282,-0.01978965920663711,0.007583534448050433,-0.034598846603195454,0.0,70.0,255.0,255.0,255.0
399,19.950000000000003,-13.199740518641432,-0.0330152851749119,-10.11458251695023,-0.5286875603484198,0.1361643247394151,-0.9373674430544376,-0.019408145996102633,0.007244983473578548,-0.03337546702386618,0.0,70.0,255.0,255.0,255.0
400,20.0,-13.226199136397675,-0.0261979370558664,-10.161492391557521,-0.529649002516468,0.13651470998860787,-0.9390111844286686,-0.01908447669194402,0.0066557314555468206,-0.032832486433953534,0.0,70.0,255.0,255.0,255.0
401,20.05,-13.252705418893079,-0.019363814176051115,-10.208483635393097,-0.5305960080176142,0.13682989788496977,-0.940650691697833,-0.01883877575501458,0.005861236973987161,-0.03321142873708993,0.0,70.0,255.0,255.0,255.0
402,20.1,-13.279258737199436,-0.012514947267369422,-10.255557460727305,-0.5315328800919694,0.1371008336860066,-0.9423323273023776,-0.018692817781484905,0.004941005349400895,-0.0342983316553358,0.0,70.0,255.0,255.0,255.0
403,20.150000000000002,-13.305858706902276,-0.005653730807450455,-10.302716868123335,-0.5324652897957627,0.13732399841990986,-0.9440805248633666,-0.01867115940488162,0.004026826021224228,-0.03565848368491942,0.0,70.0,255.0,255.0,255.0
404,20.200000000000003,-13.332505266179012,0.0012174525746215643,-10.349965513213641,-0.5333999960324576,0.137503516288129,-0.9458981756708695,-0.018788294132932037,0.003268609837879799,-0.036863674637466204,0.0,70.0,255.0,255.0,255.0
405,20.25,-13.359198706505522,0.008096620821362447,-10.397306685690422,-0.5343441192090559,0.13765085940369784,-0.9477668923271132,-0.01905286938370665,0.0027954659973702944,-0.03749966931501092,0.0,70.0,255.0,255.0,255.0
406,20.3,-13.385939678099918,0.014982538514991348,-10.444742202446353,-0.5353052829708282,0.13778306288786604,-0.9496481426023706,-0.01945854573381922,0.002672005250302645,-0.03734925383973575,0.0,70.0,255.0,255.0,255.0
407,20.35,-13.412729234802605,0.021874927110149052,-10.49227149995066,-0.5362899737824378,0.1379180599287281,-0.9515018177110868,-0.019952813513235412,0.0028800918052163116,-0.03654805532455896,0.0,70.0,255.0,255.0,255.0
408,20.400000000000002,-13.439568675478162,0.02877434450786416,-10.539892384217461,-0.5373005643221518,0.13807107206838767,-0.9533029481348265,-0.02044486401331369,0.003355501793472493,-0.03539640280649792,0.0,70.0,255.0,255.0,255.0
409,20.450000000000003,-13.46645929123482,0.03568203431698782,-10.587601794764142,-0.5383344601837692,0.13825361010807535,-0.9550414579917366,-0.02083970311090866,0.0040143767087710835,-0.03419640785438105,0.0,70.0,255.0,255.0,255.0
410,20.5,-13.493402121496539,0.0425997055186717,-10.635396530016635,-0.5393845346332427,0.13847250973926478,-0.9567225889202646,-0.02106003644897214,0.004778348610850469,-0.03324081765789799,0.0,70.0,255.0,255.0,255.0
411,20.55,-13.520397744698144,0.0495292852909143,-10.683274053656168,-0.5404404638286664,0.1387314449691604,-0.9583655397575264,-0.021066528489654957,0.005585567199544728,-0.03269710369053769,0.0,70.0,255.0,255.0,255.0
412,20.6,-13.547446167879405,0.05647285001558774,-10.731233083992388,-0.5414911874822081,0.13903106645921925,-0.9599922992893184,-0.020860403689937357,0.006341424632528292,-0.032542174318450634,0.0,70.0,255.0,255.0,255.0
413,20.650000000000002,-13.574546863446365,0.06343239193683622,-10.7792732835851,-0.5425265041976601,0.13936558743241323,-0.9616197571893714,-0.020465748178644105,0.0069058521196513345,-0.03268485613610039,0.0,70.0,255.0,255.0,255.0
414,20.700000000000003,-13.601698818299171,0.07040940875882906,-10.827395059711325,-0.5435377623000726,0.1397216516711844,-0.9632607849029284,-0.01991909389058577,0.007135421788642127,-0.03303638159160016,0.0,70.0,255.0,255.0,255.0
415,20.75,-13.628900639676372,0.07740455710395466,-10.875599362075393,-0.5445184135867187,0.14007912961127744,-0.9649233953485314,-0.019247031440627893,0.006891139559161985,-0.03350106937816122,0.0,70.0,255.0,255.0,255.0
416,20.8,-13.656150659657843,0.0844173217199568,-10.923887399246178,-0.5454624654441353,0.1404107656271006,-0.9666108918407446,-0.018481027952255147,0.006124187489900401,-0.03401058314640437,0.0,70.0,255.0,255.0,255.0
417,20.85,-13.683446886220786,0.09144563366666472,-10.972260451259467,-0.5463665163819442,0.14069154836026748,-0.9683244536631719,-0.017723706925565352,0.004999524349987017,-0.034523340640824074,0.0,70.0,255.0,255.0,255.0
418,20.900000000000002,-13.710787311296038,0.09848647655598355,-11.020719844612495,-0.5472348361366919,0.1409107180620993,-0.970063225904827,-0.017135686396763106,0.0038182925252053246,-0.034981561925917504,0.0,70.0,255.0,255.0,255.0
419,20.950000000000003,-13.738170369834455,0.10553670547287465,-11.06926677384995,-0.5480800850216205,0.14107337761278801,-0.9718226098557636,-0.01687618239785138,0.0028956843884694883,-0.035312890955552234,0.0,70.0,255.0,255.0,255.0
420,21.0,-13.7655953197982,0.11259381431726236,-11.117902105598072,-0.548922454376477,0.14120028650094624,-0.9735945150003822,-0.01709980981523529,0.0025370931524354434,-0.03545886753357763,0.0,70.0,255.0,255.0,255.0
421,21.05,-13.793062615272103,0.11965673412296927,-11.166626225349988,-0.5497900660031441,0.14132708692803156,-0.9753684966091214,-0.01786418487643715,0.0028914823745881946,-0.03539333761644059,0.0,70.0,255.0,255.0,255.0
422,21.1,-13.820574326398514,0.1267265230100655,-11.215438955258984,-0.5507088728641207,0.14148943473840506,-0.9771338487620262,-0.018999453923207454,0.0038105945176516998,-0.0351289386422593,0.0,70.0,255.0,255.0,255.0
423,21.150000000000002,-13.848133502558515,0.13380567759680978,-11.264339610226191,-0.5516900113954648,0.14170814637979673,-0.9788813904733473,-0.02019430343835893,0.004990022068639133,-0.03470525979505368,0.0,70.0,255.0,255.0,255.0
424,21.200000000000003,-13.87574332753806,0.14089733764804518,-11.313327094306318,-0.5527283032079566,0.14198843694526897,-0.9806043747415316,-0.021124428265650863,0.006115780051457742,-0.0341782550531633,0.0,70.0,255.0,255.0,255.0
425,21.25,-13.90340633287931,0.14800452129133668,-11.362400047700344,-0.5538024542220299,0.1423197243849425,-0.9822992159786637,-0.021473729297838418,0.006888506479044154,-0.03360350710917004,0.0,70.0,255.0,255.0,255.0
426,21.3,-13.931123572960264,0.15512931008653943,-11.411557015904185,-0.5548756761377405,0.14267728759317339,-0.9839647254524486,-0.02108843300892005,0.007143822405633604,-0.03302175403270269,0.0,70.0,255.0,255.0,255.0
427,21.35,-13.958893900493084,0.16227225005065402,-11.460796520245589,-0.5559112975229219,0.14303410662550586,-0.9856013913819339,-0.02012836083054026,0.006927141868465214,-0.03247903998708779,0.0,70.0,255.0,255.0,255.0
428,21.400000000000002,-13.986714702712556,0.16943272074909002,-11.510117155042378,-0.5568885122207945,0.1433700017800199,-0.9872126294511574,-0.018918055559957736,0.006371735750415608,-0.03204094201709751,0.0,70.0,255.0,255.0,255.0
429,21.450000000000003,-14.014582751715164,0.176609250228656,-11.559517783190705,-0.5578031030789177,0.14367128020054742,-0.9888054855836437,-0.01779216514652404,0.005614994939537321,-0.03177306319201989,0.0,70.0,255.0,255.0,255.0
430,21.5,-14.042495013020448,0.18379984876914476,-11.608997703600743,-0.5586677287354469,0.14393150127397364,-0.9903899357703594,-0.01707725434627605,0.004788880931327899,-0.03172710403198664,0.0,70.0,255.0,255.0,255.0
431,21.55,-14.070449524588708,0.19100240035605337,-11.65855677676774,-0.5595108285135453,0.14415016829368021,-0.9919781959868423,-0.016948143693262807,0.0039849762545840495,-0.03192067189292658,0.0,70.0,255.0,255.0,255.0
432,21.6,-14.098446095871802,0.19821486559851278,-11.708195523199427,-0.5603625431047732,0.14432999889943204,-0.993582002959652,-0.017318058466209152,0.0032780408056959365,-0.032311358283187985,0.0,70.0,255.0,255.0,255.0
433,21.650000000000002,-14.126485778899186,0.20543540024599657,-11.757914977063706,-0.5612426343601662,0.1444779723742498,-0.9952093318151611,-0.017983357771989006,0.002768349615053789,-0.03281283693823411,0.0,70.0,255.0,255.0,255.0
434,21.700000000000003,-14.154570359307819,0.21266266283593777,-11.807716456380943,-0.5621608788819721,0.14460683386093742,-0.9968632866534755,-0.018739824900038116,0.0025627017289225895,-0.03332380453464623,0.0,70.0,255.0,255.0,255.0
435,21.75,-14.182701866787383,0.21989608363209032,-11.857601305729053,-0.56311661685017,0.14473424254714207,-0.9985417122686258,-0.019389281288795246,0.00275596979561199,-0.033748030143776475,0.0,70.0,255.0,255.0,255.0
436,21.8,-14.210882020992836,0.22713608709065197,-11.907570627607805,-0.5640998070108516,0.14488243084049862,-1.000238089667853,-0.01981344443127142,0.0033778110374915737,-0.034029357928488935,0.0,70.0,255.0,255.0,255.0
437,21.85,-14.239111847488468,0.23438432671614018,-11.957625114695839,-0.5650979612932971,0.14507202365089122,-1.0019446480614747,-0.020003974070448294,0.004315380223418597,-0.03415916324343016,0.0,70.0,255.0,255.0,255.0
438,21.900000000000002,-14.267391817122165,0.2416432894557411,-12.007765092413953,-0.5661002044178964,0.14531396886284048,-1.0036540059921961,-0.019982266267781768,0.005357662992222512,-0.034143234706363046,0.0,70.0,255.0,255.0,255.0
439,21.950000000000003,-14.295721867930258,0.24891572360242423,-12.057990515295058,-0.5670961879200753,0.14560778995011348,-1.005358971532111,-0.019762847605875322,0.006275736606392579,-0.033992231488788605,0.0,70.0,255.0,255.0,255.0
440,22.0,-14.324101435914173,0.25620406845075244,-12.108300989567164,-0.568076489178484,0.14594154252347974,-1.007053229141075,-0.01935760184927915,0.006855211914147397,-0.033724784716682166,0.0,70.0,255.0,255.0,255.0
441,22.05,-14.352529516848106,0.2635098778547722,-12.158695838209166,-0.5690319481050032,0.14629331114152822,-1.0087314500037792,-0.01879033965419552,0.006983779595345907,-0.033360870752829896,0.0,70.0,255.0,255.0,255.0
442,22.1,-14.381004630724673,0.27083339956490526,-12.209174134567542,-0.5699555231439035,0.14663992048301433,-1.010389316216358,-0.018146884412928443,0.006708550188738727,-0.032932827904019746,0.0,70.0,255.0,255.0,255.0
443,22.150000000000002,-14.409525069162497,0.27817386990307363,-12.259734769830802,-0.5708466365462961,0.1469641661604021,-1.0120247327941811,-0.01756841631888051,0.006152886528060231,-0.03249506339848551,0.0,70.0,255.0,255.0,255.0
444,22.200000000000003,-14.438089294379303,0.2855298161809455,-12.31037660784696,-0.5717123647757916,0.14725520913582035,-1.0136388225562065,-0.01720775903688576,0.005454351845574079,-0.03211295715566109,0.0,70.0,255.0,255.0,255.0
445,22.25,-14.466696305640076,0.29289939081665567,-12.361098652086422,-0.5725674124499847,0.1475096013449595,-1.0152360285097473,-0.017224320637510004,0.004755210519719055,-0.03184886828417888,0.0,70.0,255.0,255.0,255.0
446,22.3,-14.495346035624301,0.3002807763154414,-12.411900210697935,-0.5734347968395426,0.14773073018779226,-1.0168237093846244,-0.017685709769921232,0.004145532119487205,-0.031733872345895975,0.0,70.0,255.0,255.0,255.0
447,22.35,-14.52403978532403,0.3076724638354349,-12.462781023024885,-0.5743359834269768,0.14792415455690822,-1.0184094157443369,-0.018444012751572814,0.0036476218188530307,-0.03174682117776939,0.0,70.0,255.0,255.0,255.0
448,22.400000000000002,-14.552779633966999,0.31507319177113224,-12.513741152272368,-0.5752791981146999,0.14809549236967756,-1.0199983915024013,-0.019227704823343572,0.0032761055809793493,-0.03183921566467518,0.0,70.0,255.0,255.0,255.0
449,22.450000000000003,-14.5815677051355,0.32248201307240265,-12.564780862175125,-0.5762587539093111,0.14825176511500615,-1.0215933373108044,-0.01976005564401362,0.003052030836570019,-0.03195593988909451,0.0,70.0,255.0,255.0,255.0
450,22.5,-14.61040550935793,0.32989836828263286,-12.615900486003449,-0.5772552036791012,0.14840069545333456,-1.0231939854913108,-0.019761152895902967,0.002975973978924795,-0.032035732821888985,0.0,70.0,255.0,255.0,255.0
451,22.55,-14.63929322550341,0.3373220826177361,-12.667100260724256,-0.5782348691989014,0.14854936251289863,-1.0247969105929933,-0.019099735016681052,0.0030418308543000983,-0.03204415268314165,0.0,70.0,255.0,255.0,255.0
452,22.6,-14.66822899627782,0.3447533045339227,-12.718380177062748,-0.5791651771807693,0.14870487853876457,-1.026398400759625,-0.017964244065460377,0.0032574194122392264,-0.03200081978445013,0.0,70.0,255.0,255.0,255.0
453,22.650000000000002,-14.697209743221487,0.35219257047161256,-12.769740100800218,-0.5800312936054475,0.14887510445412255,-1.0279969925714383,-0.01671442406276924,0.0036245559500269753,-0.031946302382657166,0.0,70.0,255.0,255.0,255.0
454,22.700000000000003,-14.726232125638365,0.359640814979335,-12.821179876319892,-0.5808366195870462,0.14906733413376727,-1.0295930309978907,-0.015711365709947245,0.004125123875908798,-0.031917082822197074,0.0,70.0,255.0,255.0,255.0
455,22.75,-14.755293405180192,0.3670993038849893,-12.872699403900008,-0.5816024301764422,0.14928761684171343,-1.031188700853658,-0.015307011834053696,0.004748818972416524,-0.03195617245488336,0.0,70.0,255.0,255.0,255.0
456,22.8,-14.78439236865601,0.3745695766635063,-12.924298746405258,-0.5823673207704516,0.14954221603100892,-1.032788648243379,-0.015675723122043905,0.005474743530758941,-0.03208280363509175,0.0,70.0,255.0,255.0,255.0
457,22.85,-14.813530137257237,0.3820535254880902,-12.975978268724345,-0.5831700024886466,0.14983509119478933,-1.0343969812171672,-0.016649127536361163,0.006204565334028134,-0.032249899684266836,0.0,70.0,255.0,255.0,255.0
458,22.900000000000002,-14.842709368904874,0.38955308578298525,-13.027738444526975,-0.5840322335240877,0.15016267256441174,-1.0360136382118057,-0.017883643213778555,0.006782127495491563,-0.03237557480542108,0.0,70.0,255.0,255.0,255.0
459,22.950000000000003,-14.871933360609646,0.39706979274453136,-13.079579632545526,-0.5849583668100244,0.15051330394433848,-1.0376345386977093,-0.019028420911304522,0.007055212587669946,-0.032382442110368004,0.0,70.0,255.0,255.0,255.0
460,23.0,-14.901205205585876,0.4046044161774191,-13.131501898396746,-0.5859350756152182,0.15086819382317873,-1.0392518824228425,-0.019738818417458504,0.006880778103340868,-0.03219160532985654,0.0,70.0,255.0,255.0,255.0
461,23.05,-14.930526868171167,0.41215661212684923,-13.18350482078781,-0.5869322486517703,0.15120138175467257,-1.040853699230695,-0.019831311887585912,0.006204369847717661,-0.03177083324157337,0.0,70.0,255.0,255.0,255.0
462,23.1,-14.959898430451053,0.41972455435288636,-13.235587268319815,-0.5879182068039768,0.1514886308079505,-1.0424289657469998,-0.019408290076583512,0.005169633936996654,-0.031201353040444246,0.0,70.0,255.0,255.0,255.0
463,23.150000000000002,-14.989318688851565,0.4273054752076443,-13.28774771736251,-0.5888730776594286,0.15171834514837224,-1.0439738345347394,-0.018701119633135477,0.004044136865299919,-0.030630465994541112,0.0,70.0,255.0,255.0,255.0
464,23.200000000000003,-15.018785738216996,0.4348963888677236,-13.339984651773289,-0.5897883187672903,0.1518930444944805,-1.045492012346454,-0.01794203689371443,0.0031124873119348084,-0.030205922630344162,0.0,70.0,255.0,255.0,255.0
465,23.25,-15.048297520728294,0.44249477965709233,-13.392296918597156,-0.5906672813488001,0.15202959387956572,-1.0469944267977738,-0.017365686524151158,0.002660096586187821,-0.03006938757774691,0.0,70.0,255.0,255.0,255.0
466,23.3,-15.077852466351876,0.45009934825568015,-13.444684094453066,-0.5915248874197054,0.15215905415309927,-1.0484989511042286,-0.017104577111481944,0.0028277770782847433,-0.03028766292967333,0.0,70.0,255.0,255.0,255.0
467,23.35,-15.107450009470265,0.45771068507240226,-13.497146813707579,-0.5923777390599483,0.1523123715873942,-1.050023193090741,-0.0171131433919669,0.0034687870298644174,-0.03078021263007713,0.0,70.0,255.0,255.0,255.0
468,23.400000000000002,-15.137090240257871,0.4653305854144196,-13.54968641376214,-0.5932362017589021,0.1525059328560857,-1.0515769723672364,-0.017278125340958184,0.004289436931476098,-0.031386197581007025,0.0,70.0,255.0,255.0,255.0
469,23.450000000000003,-15.166773629646155,0.47296127835801083,-13.602304510944302,-0.5941055515940441,0.1527413152805418,-1.0531618128488418,-0.017495832446812187,0.004988264738092774,-0.03194109347539609,0.0,70.0,255.0,255.0,255.0
470,23.5,-15.196500795417275,0.48060471694247375,-13.655002595047025,-0.5949857850035833,0.153004759329895,-1.054771081714776,-0.01765848210588672,0.0052508635238923684,-0.032294853684256,0.0,70.0,255.0,255.0,255.0
471,23.55,-15.226272208146513,0.4882617542910003,-13.70778161911578,-0.5958713998046328,0.15326640163293104,-1.0563912982172674,-0.017704319061273566,0.0049184612329611355,-0.032365228325303974,0.0,70.0,255.0,255.0,255.0
472,23.6,-15.256087935397739,0.49593135710576686,-13.760641724868751,-0.5967562169097107,0.1534966054531911,-1.0580076045473064,-0.017660068756697456,0.004161558269888399,-0.032163204363655495,0.0,70.0,255.0,255.0,255.0
473,23.650000000000002,-15.285947829837484,0.5036114148363194,-13.81358237957051,-0.5976374066803025,0.15368255745991988,-1.059607618653633,-0.017584607439324884,0.0033109359217242673,-0.031739335757130505,0.0,70.0,255.0,255.0,255.0
474,23.700000000000003,-15.315851676065769,0.5112996128517588,-13.866602486734115,-0.5985146776536432,0.15382769904536353,-1.0611815381230194,-0.017528432852387255,0.0026881134093992287,-0.031149703468713597,0.0,70.0,255.0,255.0,255.0
475,23.75,-15.345799297602849,0.5189941847408558,-13.919700533382812,-0.5993902499655412,0.1539513688008598,-1.0627225890005043,-0.017548357082297628,0.0026163560781000683,-0.03043921633327784,0.0,70.0,255.0,255.0,255.0
476,23.8,-15.375790701062323,0.5266947497318448,-13.972874745634165,-0.600269513361873,0.15408933465317354,-1.0642254597563472,-0.017671433357513422,0.0032520376634481707,-0.029650398127678557,0.0,70.0,255.0,255.0,255.0
477,23.85,-15.405826248939036,0.5344031182061731,-14.026123079358447,-0.6011573933012926,0.15427657256720462,-1.0656876288132722,-0.017846581580194254,0.004397800403399543,-0.028885105113118925,0.0,70.0,255.0,255.0,255.0
478,23.900000000000002,-15.435906440392452,0.5421224069885653,-14.079443508515492,-0.6020541715198924,0.1545291146935135,-1.067113970267659,-0.01798344490051562,0.0056731597080861285,-0.02830000251439202,0.0,70.0,255.0,255.0,255.0
479,23.950000000000003,-15.466031666091025,0.5498560296755245,-14.132834476385213,-0.6029557377913441,0.15484388853801323,-1.0685176290647114,-0.017997149431003834,0.006699934304976729,-0.028052353722962664,0.0,70.0,255.0,255.0,255.0
480,24.0,-15.496202014171587,0.5576067958423666,-14.186295271421963,-0.6038538864629928,0.15519910812401116,-1.0699192056399554,-0.01780011753744759,0.00710776810766145,-0.028296253010395844,0.0,70.0,255.0,255.0,255.0
481,24.05,-15.526417054737324,0.5653759404879256,-14.239826396949208,-0.6047357495450889,0.15555466534877938,-1.071347254365751,-0.017356147973757174,0.006713015152826074,-0.029088004336585982,0.0,70.0,255.0,255.0,255.0
482,24.1,-15.556675589126096,0.5731622623772445,-14.293429996858539,-0.6055895012603685,0.15587040963929377,-1.072828006073614,-0.016755376483779116,0.0056971235664615705,-0.0302510604981876,0.0,70.0,255.0,255.0,255.0
483,24.150000000000002,-15.586976004863361,0.580962981451855,-14.34710919755657,-0.6064112871934668,0.15612437770542553,-1.0743723604155697,-0.016160680557675278,0.004427380957017224,-0.031463451389157626,0.0,70.0,255.0,255.0,255.0
484,24.200000000000003,-15.617316717845442,0.5887747001477871,-14.400867232900096,-0.607205569316136,0.1563131477349955,-1.0759743512125297,-0.015735743317080164,0.003278209976698143,-0.03238913338954319,0.0,70.0,255.0,255.0,255.0
485,24.25,-15.647696561794975,0.5965942962253545,-14.454706632677823,-0.6079848615251748,0.15645219870309535,-1.077611273754524,-0.015643154121036673,0.002624552843166761,-0.032695771625945724,0.0,70.0,255.0,255.0,255.0
486,24.3,-15.67811520399796,0.6044199200180966,-14.508628360275548,-0.6087698847282397,0.15657560301931217,-1.0792439283751243,-0.015957774280472847,0.002661962331318435,-0.03222378498968226,0.0,70.0,255.0,255.0,255.0
487,24.35,-15.708573550267799,0.6122518565272858,-14.562631025515335,-0.6095806389532221,0.1567183949362272,-1.0808336522534923,-0.016567436959036286,0.003244661041656993,-0.031160536342333955,0.0,70.0,255.0,255.0,255.0
488,24.400000000000002,-15.739073267893282,0.6200917595117194,-14.616711725500897,-0.6104266284241433,0.15690006912347787,-1.0823599820093577,-0.017257469234088774,0.004067199913770914,-0.02987714764088878,0.0,70.0,255.0,255.0,255.0
489,24.450000000000003,-15.769616213110213,0.6279418634396335,-14.670867023716271,-0.611306385876631,0.15712511492760428,-1.0838213670175811,-0.017807103409239744,0.004826852827854999,-0.028757173327598196,0.0,70.0,255.0,255.0,255.0
490,24.5,-15.800203906480945,0.6358042710044798,-14.725093862202655,-0.6122073387650673,0.15738275440626337,-1.0852356993421175,-0.01799127530119904,0.0052180764637310695,-0.028192641837776478,0.0,70.0,255.0,255.0,255.0
491,24.55,-15.83083694698672,0.6436801388802599,-14.779390593650483,-0.6131055134067509,0.1576469225739774,-1.0866406312013588,-0.017699468187970524,0.00507978820264432,-0.02838291630951062,0.0,70.0,255.0,255.0,255.0
492,24.6,-15.86151445782162,0.6515689632618775,-14.833757925322791,-0.6139772855838643,0.1578907332265278,-1.0880739909730686,-0.01706028360555223,0.004530572593153259,-0.029137749842611527,0.0,70.0,255.0,255.0,255.0
493,24.650000000000002,-15.892234675545106,0.6594692122029127,-14.88819799274779,-0.6148115417673061,0.15809997983329271,-1.08955440618562,-0.016324034584869196,0.0038166399006667184,-0.030077841496556346,0.0,70.0,255.0,255.0,255.0
494,24.700000000000003,-15.922995611998351,0.6673789612452068,-14.942713365941353,-0.6156096890423512,0.15827239721659447,-1.0910817751227242,-0.015742416472974696,0.0031747516723856783,-0.030828513628655685,0.0,70.0,255.0,255.0,255.0
495,24.75,-15.953795644449341,0.6752964519245721,-14.997306170260062,-0.6163857834146036,0.15841745500053128,-1.0926372575484855,-0.015575707375425907,0.0028350760338247127,-0.03100974493897013,0.0,70.0,255.0,255.0,255.0
496,24.8,-15.984634190339811,0.6832207067452599,-15.051977091696202,-0.6171672597798938,0.15855590481997694,-1.0941827496166212,-0.015950926391816722,0.002918744997892908,-0.030431402917585615,0.0,70.0,255.0,255.0,255.0
497,24.85,-16.01551237042733,0.6911520424065698,-15.106724445221724,-0.6179808760537853,0.15870932950032057,-1.095680397840244,-0.01670602069463456,0.0033476406602783726,-0.029296576175674716,0.0,70.0,255.0,255.0,255.0
498,24.900000000000002,-16.04643227794519,0.699091639695292,-15.161545131480226,-0.6188378618493573,0.15889066888600478,-1.0971124072341887,-0.01753180035528601,0.003951648408995201,-0.028003374484697474,0.0,70.0,255.0,255.0,255.0
499,24.950000000000003,-16.077396156612267,0.7070411092951703,-15.216435685945143,-0.6197340560893139,0.1591044943412201,-1.0984807352887138,-0.018123370560019225,0.004560853769497442,-0.02694191901131404,0.0,70.0,255.0,255.0,255.0
500,25.0,-16.10840568355412,0.715002089129414,-15.271393205009097,-0.6206501989053592,0.15934675426295453,-1.09980659913532,-0.01817396046419617,0.005005628724918942,-0.026492294491653468,0.0,70.0,255.0,255.0,255.0
501,25.05,-16.139461176502802,0.7229757847214657,-15.326416345858675,-0.6215514521357335,0.159605057213712,-1.1011299647378792,-0.017536453280442288,0.005192457912817083,-0.026845131693065127,0.0,70.0,255.0,255.0,255.0
502,25.1,-16.170560828767695,0.7309625948507852,-15.381506201482885,-0.6224038442334034,0.15986600005423623,-1.1024911123046266,-0.016402813101379365,0.005162501129385433,-0.027826062002844765,0.0,70.0,255.0,255.0,255.0
503,25.150000000000002,-16.201701560926143,0.7389623847268894,-15.436665457089138,-0.6231917334458714,0.16012130732665053,-1.1039125709381636,-0.015142423669090022,0.0050122909390215575,-0.029077704854785225,0.0,70.0,255.0,255.0,255.0
504,25.200000000000003,-16.23288000211228,0.7469747255834502,-15.491897458576702,-0.6239180866003124,0.1603672291481384,-1.1053988827901051,-0.014123448609026923,0.004835632783539712,-0.030237749720463114,0.0,70.0,255.0,255.0,255.0
505,25.25,-16.264093369586174,0.7549991076417032,-15.547205345368148,-0.6246040783067741,0.1606048706050045,-1.10693634591021,-0.013704394825353461,0.004734390418337231,-0.030949095741839017,0.0,70.0,255.0,255.0,255.0
506,25.3,-16.29534040994296,0.7630352126439507,-15.602591093167723,-0.6252885260828478,0.1608406681899721,-1.108493792364289,-0.014063633443228696,0.004764197243434243,-0.031022009703463027,0.0,70.0,255.0,255.0,255.0
507,25.35,-16.32662222219446,0.7710831744607004,-15.658054724604577,-0.626010441651097,0.16108129032934793,-1.1100385468805563,-0.01503284344934741,0.004881422421298964,-0.0305682201011237,0.0,70.0,255.0,255.0,255.0
508,25.400000000000002,-16.35794145410807,0.7791433416768855,-15.713594947855778,-0.6267918104277825,0.161328810432102,-1.1115506143744014,-0.016267549259652014,0.005000959396883609,-0.02983592264893531,0.0,70.0,255.0,255.0,255.0
509,25.450000000000003,-16.389301403237237,0.7872160555039106,-15.769209786042017,-0.6276371965770622,0.1615813862690363,-1.1130221391454498,-0.01741677439781597,0.005049528849410123,-0.02907416835551402,0.0,70.0,255.0,255.0,255.0
510,25.5,-16.420705173765775,0.7953014803037891,-15.824897161770323,-0.6285334878675641,0.16183376331704302,-1.1144580312099528,-0.018136478882979645,0.004960865545611259,-0.028539294566520823,0.0,70.0,255.0,255.0,255.0
511,25.55,-16.452154752023993,0.8033994318356149,-15.880655589163013,-0.6294508444653601,0.1620774728235974,-1.1158760686021019,-0.018242952339875274,0.00470366686607937,-0.028372377276220107,0.0,70.0,255.0,255.0,255.0
512,25.6,-16.48365025821231,0.8115092275861489,-15.936484768630534,-0.6303577831015517,0.16230413000365096,-1.1172952689375748,-0.01783485738897639,0.004313580747272727,-0.028496488829432565,0.0,70.0,255.0,255.0,255.0
513,25.650000000000002,-16.51519053033415,0.81962984483598,-15.99238511605677,-0.6312343302042578,0.16250883089832469,-1.1187257174850451,-0.017137495842689532,0.003862939072796223,-0.02874485163815166,0.0,70.0,255.0,255.0,255.0
514,25.700000000000003,-16.546773691232737,0.8277601106759813,-16.048357340379038,-0.6320715326858206,0.16269042391093058,-1.12016975410139,-0.016376540047957633,0.0034257389983749498,-0.028964691076716065,0.0,70.0,255.0,255.0,255.0
515,25.75,-16.57839768360273,0.8358988872270731,-16.10440209146691,-0.6328719842090536,0.16285140479816218,-1.1216221865927167,-0.015777661672800036,0.0030661567230305664,-0.029005800583092878,0.0,70.0,255.0,255.0,255.0
516,25.8,-16.610060889653642,0.8440452511557975,-16.16051955903831,-0.6336492988531006,0.16299703958323364,-1.1230703341596993,-0.015470104981218924,0.0028211352919638166,-0.028788621050779284,0.0,70.0,255.0,255.0,255.0
517,25.85,-16.64176261348804,0.8521985911853964,-16.21670912488288,-0.6344189947071754,0.16313351832735856,-1.1245010486977947,-0.015423158226113287,0.0027015506268934786,-0.028368528544930882,0.0,70.0,255.0,255.0,255.0
518,25.900000000000002,-16.67350278912436,0.8603586029885334,-16.27296966390809,-0.635191614675712,0.163267194645923,-1.1259071870141923,-0.0155487144578359,0.0027099882750070137,-0.027861966836439933,0.0,70.0,255.0,255.0,255.0
519,25.950000000000003,-16.705281774955612,0.8685253106499887,-16.329299843584298,-0.635973866152959,0.16340451715485926,-1.1272872453814387,-0.015769466347137495,0.00284080187055169,-0.02738035404945549,0.0,70.0,255.0,255.0,255.0
520,26.0,-16.737100175739656,0.8766990547040193,-16.385698388446233,-0.6367685613104257,0.16355127483297816,-1.128645222419138,-0.016012921044961104,0.0030784702660824337,-0.027029484452611996,0.0,70.0,255.0,255.0,255.0
521,26.05,-16.768958631086655,0.8848804381332865,-16.442164365826212,-0.6375751582574551,0.1637123641814675,-1.1299901938266999,-0.016230567127450968,0.003406104320169412,-0.026866425234928215,0.0,70.0,255.0,255.0,255.0
522,26.1,-16.8008576915654,0.8930702911221661,-16.498697407828903,-0.6383916180231708,0.1638918852649951,-1.1313318649426307,-0.016393442106021894,0.0037993775841793642,-0.026866693027827182,0.0,70.0,255.0,255.0,255.0
523,26.150000000000002,-16.83279779288897,0.901269626659786,-16.555297552320475,-0.6392145024680573,0.16409230193988544,-1.1326768631294826,-0.016465874764293176,0.0042162686665681015,-0.02696998497881964,0.0,70.0,255.0,255.0,255.0
524,26.200000000000003,-16.864779141812207,0.9094795213161546,-16.61196509414185,-0.6400382054996001,0.1643135121316519,-1.1340288634405127,-0.016406107387467728,0.004605365873966427,-0.027113892726760014,0.0,70.0,255.0,255.0,255.0
525,26.25,-16.89680161343893,0.9177009778729512,-16.668700438664526,-0.6408551132068041,0.16455283852728209,-1.1353882524021586,-0.016170654145852836,0.004923924916422351,-0.027232252282161085,0.0,70.0,255.0,255.0,255.0
526,26.3,-16.928864653132887,0.9259348051688828,-16.725503919382067,-0.6416552709141854,0.16480590462329414,-1.1367520886687288,-0.015747113686614966,0.005147734140464877,-0.027286190828590406,0.0,70.0,255.0,255.0,255.0
527,26.35,-16.96096714053035,0.9341815683352807,-16.7823756475314,-0.6424298245754656,0.16506761194132857,-1.1381168714850176,-0.015204844912020121,0.005263642999076001,-0.027285631744078387,0.0,70.0,255.0,255.0,255.0
528,26.400000000000002,-16.993107635590434,0.9424415663630157,-16.83931560653057,-0.6431757554053874,0.16533226892320174,-1.1394806518431366,-0.014666854082889813,0.00526223309609275,-0.02725632168925074,0.0,70.0,255.0,255.0,255.0
529,26.450000000000003,-17.02528471607089,0.9507147952276008,-16.896323712715713,-0.6438965099837546,0.16559383525093785,-1.1408425036539427,-0.014258877998329922,0.005144447920490958,-0.02721787457709013,0.0,70.0,255.0,255.0,255.0
530,26.5,-17.05749728658881,0.9590009498881095,-16.953399856895963,-0.6446016432052204,0.16584671371525084,-1.1422024393008456,-0.014096443724653795,0.004921867364238164,-0.02718947844151387,0.0,70.0,255.0,255.0,255.0
531,26.55,-17.08974488039141,0.9672994665991259,-17.010543956645797,-0.64530615435622,0.16608602198736166,-1.143561451498094,-0.014234777655275366,0.004608646763470947,-0.027182098164502122,0.0,70.0,255.0,255.0,255.0
532,26.6,-17.12202790202443,0.9756095520868456,-17.067756002045773,-0.6460251209707479,0.16630757839159793,-1.1449206491172959,-0.014622702721922565,0.004226889580360993,-0.027190779999841652,0.0,70.0,255.0,255.0,255.0
533,26.650000000000002,-17.154347392488486,0.9839302244382857,-17.125036021557527,-0.6467684246284122,0.16650871094539776,-1.1462805294980782,-0.015150345271663923,0.0038156381099829773,-0.027204728266383427,0.0,70.0,255.0,255.0,255.0
