idx,t,px,py,pz,vx,vy,vz,ax,ay,az,yaw,mode,ledr,ledg,ledb
0,0.0,-4.500000000000003,-1.5000000000000004,1.0460776154247579e-18,0.0005663327102922722,0.00016619992805999573,0.0009103403415700497,-0.013108884735224535,0.0028920004796262333,-0.028735602277133666,0.0,70.0,255.0,255.0,255.0
1,0.05,-4.499971683364488,-1.4999916900035974,4.551701707850353e-05,-8.91115264689546e-05,0.0003107999520413074,-0.0005264397722866336,-0.01952471651103238,0.004476500659467142,-0.043011453131058794,0.0,70.0,255.0,255.0,255.0
2,0.1,-4.50000891115265,-1.4999689200047963,-5.264397722866232e-05,-0.001386138940810966,0.0006138499940067099,-0.00339080497153583,-0.025663327102964928,0.006338000719385839,-0.05710340341570049,0.0,70.0,255.0,255.0,255.0
3,0.15000000000000002,-4.500110297258569,-1.4999303050041968,-0.0002935634800750795,-0.0026554442367654474,0.0009446000239798913,-0.0062367801138566836,-0.02510888473610251,0.006892000479208349,-0.056735602277136685,0.0,70.0,255.0,255.0,255.0
4,0.2,-4.500274455576326,-1.4998744600023983,-0.0006763219886143307,-0.003897027414421217,0.0013030500419275448,-0.009064365199249498,-0.024549523997219325,0.0074509093253238845,-0.05636679831748181,0.0,70.0,255.0,255.0,255.0
5,0.25,-4.500500000000011,-1.499800000000004,-0.0012000000000000294,-0.00511039663648738,0.0016896909565122797,-0.011873459945604865,-0.023961882621215125,0.008038045415914574,-0.0559922281365602,0.0,70.0,255.0,255.0,255.0
6,0.30000000000000004,-4.500785495239975,-1.499705490906747,-0.0018636679831748172,-0.006293215676542729,0.0021068545835190022,-0.014663588012905519,-0.023338446433118776,0.008660908741897622,-0.05561035964660791,0.0,70.0,255.0,255.0,255.0
7,0.35000000000000003,-4.5011293215676655,-1.4995893145416521,-0.0026663588012905814,-0.007444241279799257,0.002555781830702042,-0.017434495910265656,-0.022743290881432898,0.009255544823805195,-0.05523425737791937,0.0,70.0,255.0,255.0,255.0
8,0.4,-4.501529919367955,-1.499449912723677,-0.003607117574201383,-0.00856754476468602,0.0030324090658995217,-0.020187013750697456,-0.022278745412407375,0.009719817403186504,-0.05488478558036476,0.0,70.0,255.0,255.0,255.0
9,0.45,-4.501986076044134,-1.4992860736350622,-0.004685060176360327,-0.009672115821039995,0.0035277635710206923,-0.022922974468302132,-0.0220330297945992,0.009965698611713592,-0.05457595593640209,0.0,70.0,255.0,255.0,255.0
10,0.5,-4.502497130950059,-1.4990971363665748,-0.0058994150210315965,-0.01077084774414594,0.004028978927070881,-0.025644609344337665,-0.022085000573568436,0.009914601182869909,-0.054304962145718706,0.0,70.0,255.0,255.0,255.0
11,0.55,-4.503063160818549,-1.498883175742355,-0.007249521110794094,-0.011880615878396839,0.004519223689307683,-0.028353470682874003,-0.022460596213935702,0.00954067434806305,-0.05407101888611904,0.0,70.0,255.0,255.0,255.0
12,0.6000000000000001,-4.5036851925378985,-1.498645213997644,-0.008734762089318997,-0.01301690736553951,0.004983046361877186,-0.03105171123294957,-0.02306203876312196,0.00894118123166976,-0.05390598450691616,0.0,70.0,255.0,255.0,255.0
13,0.65,-4.504364851555103,-1.4983848711061674,-0.01035469223408905,-0.014186819754709035,0.005413341812474659,-0.03374406913356562,-0.02371017403373088,0.00829441040914869,-0.05385604745739316,0.0,70.0,255.0,255.0,255.0
14,0.7000000000000001,-4.505103874513369,-1.4981038798163966,-0.012109169002675559,-0.015387924768912598,0.005812487402792055,-0.036437315978688885,-0.02421227126792047,0.007792179567522872,-0.053954624969177606,0.0,70.0,255.0,255.0,255.0
15,0.75,-4.505903644031994,-1.4978036223658882,-0.01399842383195794,-0.016608046881501082,0.006192559769226946,-0.03913953163048338,-0.02437197905722499,0.0076296139166487364,-0.05423208614906125,0.0,70.0,255.0,255.0,255.0
16,0.8,-4.5067646792015195,-1.497484623839474,-0.016023122165723897,-0.017825122674635097,0.006575448794456928,-0.04186052459359501,-0.02409425033915724,0.007901302952184608,-0.05469216105542504,0.0,70.0,255.0,255.0,255.0
17,0.8500000000000001,-4.5076861562994575,-1.4971460774864425,-0.01818447629131744,-0.019017471915416806,0.006982690064445407,-0.04460874773602588,-0.02349396199194942,0.008494322324081871,-0.05526096543357652,0.0,70.0,255.0,255.0,255.0
18,0.9,-4.508666426393061,-1.4967863548330294,-0.020483996939326485,-0.02017451887383004,0.0074248810268651155,-0.04738662113695266,-0.022795150526899732,0.009187948885669428,-0.0558101854292236,0.0,70.0,255.0,255.0,255.0
19,0.9500000000000001,-4.5097036081868405,-1.496403589383756,-0.022923138405012707,-0.02129698696810678,0.00790148495301235,-0.05018976627894824,-0.0222244585605047,0.009759009691490128,-0.05620656982791364,0.0,70.0,255.0,255.0,255.0
20,1.0,-4.510796125089872,-1.4959962063377281,-0.02550297356722131,-0.02239696472988051,0.008400781996014128,-0.053007278119744025,-0.02201104590087155,0.009982980446587852,-0.05632268393402848,0.0,70.0,255.0,255.0,255.0
21,1.05,-4.5119433046598285,-1.4955635111841545,-0.02822386621698711,-0.023498091558193934,0.008899782997671135,-0.05582203467235109,-0.022268975855599393,0.009747540416626954,-0.05609982407167105,0.0,70.0,255.0,255.0,255.0
22,1.1,-4.513145934245691,-1.495106228037961,-0.03108517703445642,-0.024623862315440448,0.009375536037676824,-0.05861726052691113,-0.022876705344287984,0.00916693739743124,-0.055614629283252254,0.0,70.0,255.0,255.0,255.0
23,1.1500000000000001,-4.514405690891373,-1.4946259575803869,-0.03408559226967822,-0.025785762092622733,0.00981647673741426,-0.061383497600676316,-0.023594631784185083,0.008468386122895133,-0.055019574462077114,0.0,70.0,255.0,255.0,255.0
24,1.2000000000000002,-4.5157245104549535,-1.4941245803642196,-0.03722352679452405,-0.026983325493858956,0.010222374649966337,-0.06411921797311884,-0.024183321063731,0.007878355092971745,-0.054478582898658326,0.0,70.0,255.0,255.0,255.0
25,1.25,-4.5171040234407585,-1.4936037201153902,-0.040497514066990106,-0.028204094198995833,0.010604312246711434,-0.06683135589054215,-0.02439987463507265,0.007622427000897325,-0.054165196762844675,0.0,70.0,255.0,255.0,255.0
26,1.3,-4.518544919874853,-1.4930641491395484,-0.043906662383578265,-0.02942331295736622,0.01098461735005607,-0.06953573764940331,-0.024123272811760188,0.007815108807851523,-0.05416802983737798,0.0,70.0,255.0,255.0,255.0
27,1.35,-4.520046354736495,-1.4925052583803846,-0.04745108783193044,-0.03061642148017185,0.011385823127496586,-0.07224815887427995,-0.023484624556413536,0.00835252016071486,-0.05439688106977855,0.0,70.0,255.0,255.0,255.0
28,1.4000000000000001,-4.52160656202287,-1.4919255668267988,-0.05113147827100626,-0.031771775413007575,0.011819869366127556,-0.07497542575638116,-0.022740914410945834,0.009023914548222933,-0.05467599224694766,0.0,70.0,255.0,255.0,255.0
29,1.4500000000000002,-4.523223532277796,-1.4913232714437719,-0.054948630407568554,-0.032890512921266435,0.01228821458231888,-0.07771575809897471,-0.022148830611445902,0.009620996510140145,-0.05483201233036569,0.0,70.0,255.0,255.0,255.0
30,1.5,-4.524895613314997,-1.4906967453685669,-0.05890305408090373,-0.033986658474152165,0.01278196901714157,-0.08045862698941773,-0.021973418262533073,0.00994334884589776,-0.0546765756346386,0.0,70.0,255.0,255.0,255.0
31,1.55,-4.526622198125211,-1.4900450745420577,-0.06299449310651033,-0.03508785474751974,0.013282549466908655,-0.08318341566243857,-0.02234450632379037,0.009885450925439798,-0.05412148315224394,0.0,70.0,255.0,255.0,255.0
32,1.6,-4.528404398789749,-1.489368490421876,-0.06722139564714759,-0.0362211091065312,0.01377051410968555,-0.08587077530464213,-0.023099388504466134,0.009508389885182211,-0.05332055040033687,0.0,70.0,255.0,255.0,255.0
33,1.6500000000000001,-4.530244309035864,-1.4886680231310891,-0.07158157063697454,-0.037397793597966356,0.014233388455426876,-0.08851547070247226,-0.023927118497368838,0.008950547758734828,-0.052553752587435054,0.0,70.0,255.0,255.0,255.0
34,1.7000000000000002,-4.5321441781495455,-1.4879451515763333,-0.07607294271739481,-0.038613820956268086,0.014665568885559033,-0.09112615056338563,-0.024521496351503913,0.008350945579582714,-0.05209322791973614,0.0,70.0,255.0,255.0,255.0
35,1.75,-4.534105691131491,-1.4872014662425332,-0.0806941856933131,-0.03984994323311675,0.015068483013385148,-0.09372479349444587,-0.024574517582909294,0.007840168291584071,-0.052216426106520275,0.0,70.0,255.0,255.0,255.0
36,1.8,-4.536129172472857,-1.4864383032749948,-0.0854454220668394,-0.041071272714559015,0.01544958571471744,-0.09634779317403766,-0.02393832893234915,0.007495861383266522,-0.053046923334536256,0.0,70.0,255.0,255.0,255.0
37,1.85,-4.538212818402947,-1.4856565076710615,-0.09032896501071687,-0.04224377612635166,0.0158180691517118,-0.0990294858278995,-0.022805000912562434,0.007330283934781079,-0.054354670242628966,0.0,70.0,255.0,255.0,255.0
38,1.9000000000000001,-4.540353550085492,-1.4848564963598236,-0.09534837064962935,-0.04335177280581526,0.016182614108195548,-0.10178326019830056,-0.02154427127321057,0.007338369941201073,-0.05571356616789064,0.0,70.0,255.0,255.0,255.0
39,1.9500000000000002,-4.542547995683528,-1.484038246260242,-0.10050729103054692,-0.04439820325367272,0.016551906145831907,-0.10460084244468856,-0.020524531302790194,0.007514708351030741,-0.05669624149185343,0.0,70.0,255.0,255.0,255.0
40,2.0,-4.54479337041086,-1.4832013057452405,-0.10580845489409821,-0.04540422593609428,0.016934084943298622,-0.1074528843474859,-0.020104455461655846,0.007851968663974418,-0.05688177588332177,0.0,70.0,255.0,255.0,255.0
41,2.0500000000000003,-4.547088418277138,-1.482344837765912,-0.11125257946529551,-0.046408648799838303,0.01733710301222935,-0.11028902003302074,-0.020462550906596988,0.008332129182675452,-0.056069937728731034,0.0,70.0,255.0,255.0,255.0
42,2.1,-4.5494342352908435,-1.4814675954440175,-0.11683735689740028,-0.04745048102675398,0.017767297861566167,-0.113059878120359,-0.021430724395266054,0.008889635214770486,-0.054512423640812324,0.0,70.0,255.0,255.0,255.0
43,2.15,-4.551833466379813,-1.4805681079797555,-0.12255856727733141,-0.04855172123936491,0.018226066533706398,-0.11574026239710197,-0.02266484069908259,0.009415133315382462,-0.052702006051030814,0.0,70.0,255.0,255.0,255.0
44,2.2,-4.55428940741478,-1.4796449887906469,-0.12841138313711048,-0.049716965096662236,0.018708811193104413,-0.11833007872546208,-0.02381431783176069,0.009791246657298025,-0.05114064061168683,0.0,70.0,255.0,255.0,255.0
45,2.25,-4.5568051628894795,-1.478697226860445,-0.13439157514987762,-0.05093315302254098,0.0192051911994362,-0.12085432645827066,-0.024535679217940753,0.009907947728771127,-0.050320433064146575,0.0,70.0,255.0,255.0,255.0
46,2.3000000000000003,-4.559382722717034,-1.4777244696707033,-0.14049681578293755,-0.05217053301845631,0.019699605965981526,-0.12336212203187674,-0.024645406834533645,0.009715109065600025,-0.05049318589038787,0.0,70.0,255.0,255.0,255.0
47,2.35,-4.562022216191325,-1.4767272662638469,-0.1467277873530653,-0.05339769370599434,0.020176702105996203,-0.12590364504730944,-0.024241145795667052,0.009275650730544704,-0.05146211538060719,0.0,70.0,255.0,255.0,255.0
48,2.4000000000000004,-4.5647224920876335,-1.4757067994601036,-0.1530871802876685,-0.054594647598023016,0.020627171039035996,-0.12850833356993746,-0.023546482480707454,0.008717460433405044,-0.0528119294415208,0.0,70.0,255.0,255.0,255.0
49,2.45,-4.567481680951127,-1.4746645491599433,-0.15957862071005904,-0.05575234195406509,0.021048448149336707,-0.13118483799146152,-0.022785283617299257,0.008179792199114466,-0.05412133592153645,0.0,70.0,255.0,255.0,255.0
50,2.5,-4.57029772628304,-1.47360195464517,-0.16620566408681464,-0.05687317595975294,0.021445150258947443,-0.1339204671620911,-0.02218079969473763,0.007804259069077446,-0.05497252915611095,0.0,70.0,255.0,255.0,255.0
51,2.5500000000000003,-4.573168998547103,-1.4725200341340485,-0.17297066742626815,-0.05797042192353885,0.02182887405624445,-0.13668209090707262,-0.021861369541031905,0.007666921734572618,-0.05513848421088152,0.0,70.0,255.0,255.0,255.0
52,2.6,-4.576094768475394,-1.4714190672395455,-0.1798738731775219,-0.05905931291385613,0.022211842432404705,-0.13943431558317926,-0.02180012365737838,0.0077241254995197295,-0.05472909152677008,0.0,70.0,255.0,255.0,255.0
53,2.6500000000000004,-4.579074929838488,-1.470298849890808,-0.18691409898458608,-0.06015043428927669,0.022601286606196425,-0.14215500005974963,-0.021915476463707506,0.007879500475382883,-0.053998621171250094,0.0,70.0,255.0,255.0,255.0
54,2.7,-4.5821098119043215,-1.4691589385789259,-0.19408937318349687,-0.06125086056022688,0.022999792479942993,-0.14483417770030427,-0.02213694863151261,0.00803578501225033,-0.05319490148301964,0.0,70.0,255.0,255.0,255.0
55,2.75,-4.585200015894511,-1.4679988706428138,-0.2013975167546165,-0.06236412915242795,0.023404865107421458,-0.1474744902080516,-0.02240116862424202,0.008083034642902831,-0.052565394367326546,0.0,70.0,255.0,255.0,255.0
56,2.8000000000000003,-4.588346224819564,-1.4668184520681837,-0.20883682220430203,-0.06349097742265108,0.023808095944233276,-0.15009071713703692,-0.022663054395977156,0.007964430103402087,-0.05225171176494181,0.0,70.0,255.0,255.0,255.0
57,2.85,-4.591549113636776,-1.4656180610483904,-0.2164065884683202,-0.06463043459202567,0.024201308117761666,-0.15269966138454577,-0.022879291975197447,0.00774877967240073,-0.05221694974777702,0.0,70.0,255.0,255.0,255.0
58,2.9000000000000004,-4.594809268278767,-1.4643983212564076,-0.2241067883427566,-0.06577890662017083,0.02458297391147335,-0.15531241211181462,-0.022989840101850234,0.0075627661033861315,-0.052359832959733565,0.0,70.0,255.0,255.0,255.0
59,2.95,-4.598127004298793,-1.463159763657243,-0.23193782967950166,-0.06692941860221069,0.02495758472810028,-0.15793564468051913,-0.022927434676844882,0.007524153998961225,-0.05259145907876572,0.0,70.0,255.0,255.0,255.0
60,3.0,-4.601502210138988,-1.4619025627835975,-0.23990035281080851,-0.06807165008785532,0.02533538931136947,-0.1605715580196912,-0.02261452580878398,0.007759546415186946,-0.052825939994610716,0.0,70.0,255.0,255.0,255.0
61,3.0500000000000003,-4.604934169307579,-1.4606262247261061,-0.24799498548147078,-0.06919087118308909,0.025733539369618974,-0.1632182386799802,-0.022025900054867265,0.008322444098873838,-0.05300860812330055,0.0,70.0,255.0,255.0,255.0
62,3.1,-4.608421297257297,-1.4593292088466356,-0.25622217667880653,-0.07027424009334204,0.026167633721256855,-0.16587241883202125,-0.02128448000338068,0.009078984249111244,-0.05312404188305142,0.0,70.0,255.0,255.0,255.0
63,3.1500000000000004,-4.611961593316913,-1.4580094613539805,-0.2645822273646729,-0.07131931918342715,0.0266414377945301,-0.16853064286828534,-0.02060423072833828,0.00979036751198592,-0.053160275428046355,0.0,70.0,255.0,255.0,255.0
64,3.2,-4.61555322917564,-1.4566650650671826,-0.27307524096563507,-0.07233466316617587,0.027146670472455448,-0.1711884463748259,-0.020199373267182352,0.010221538385901674,-0.05309977502245267,0.0,70.0,255.0,255.0,255.0
65,3.25,-4.6191950596335305,-1.455294794306735,-0.2817010720021555,-0.07333925651014539,0.027663591633120266,-0.1738406203705306,-0.02028068151940232,0.010138826316441474,-0.05293084565423101,0.0,70.0,255.0,255.0,255.0
66,3.3000000000000003,-4.622887154826654,-1.4538987059038706,-0.29045930300268813,-0.0743627313181161,0.028160553104099595,-0.176481530940249,-0.02094094445164174,0.009438194433442071,-0.052653342921343826,0.0,70.0,255.0,255.0,255.0
67,3.35,-4.626631332765342,-1.452478738996325,-0.2993492250961804,-0.07543335095530956,0.028607411076464473,-0.179105954662665,-0.022016540926106387,0.008301530417376135,-0.05228865428178464,0.0,70.0,255.0,255.0,255.0
68,3.4000000000000004,-4.630430489922185,-1.4510379647962242,-0.30836989846895463,-0.07656438541072674,0.02899070614583721,-0.18171039636842745,-0.023197805750463374,0.007071195084074056,-0.05187813292713006,0.0,70.0,255.0,255.0,255.0
69,3.45,-4.634287771306415,-1.4495796683817412,-0.31752026473302314,-0.0777531315303559,0.02931453058487188,-0.184293767955378,-0.02416952446893106,0.006095240243064737,-0.051468928010889314,0.0,70.0,255.0,255.0,255.0
70,3.5,-4.638205803075221,-1.448106511737737,-0.32679927526449243,-0.07898133785761985,0.029600230170143682,-0.18685728916951638,-0.024634776084297982,0.0057131203470506264,-0.05109468671247175,0.0,70.0,255.0,255.0,255.0
71,3.5500000000000003,-4.642185905092177,-1.4466196453647269,-0.3362059936499748,-0.0802166091387857,0.02988584261957694,-0.18940323662662517,-0.024443235890547754,0.006091864414314863,-0.05077802019133881,0.0,70.0,255.0,255.0,255.0
72,3.6,-4.646227463989099,-1.4451179274757793,-0.34573959892715495,-0.08142566144667462,0.03020941661157517,-0.19193509118865026,-0.02369923974256949,0.0070650106315239825,-0.050558637027142694,0.0,70.0,255.0,255.0,255.0
73,3.6500000000000004,-4.650328471236844,-1.4435987037035694,-0.3553995027688398,-0.08258653311304265,0.03059234368272934,-0.19445910032933944,-0.02263550198149389,0.008293896440925153,-0.050489896826139136,0.0,70.0,255.0,255.0,255.0
74,3.7,-4.6544861173004035,-1.4420586931075063,-0.3651855089600889,-0.08368921164482401,0.031038806255667684,-0.19698408087126418,-0.021495302750196288,0.009431440035734262,-0.05061779964721791,0.0,70.0,255.0,255.0,255.0
75,3.75,-4.658697392401327,-1.4404948230780026,-0.3750979108559662,-0.08473606338806228,0.031535487686302766,-0.19952088029406123,-0.02050422346711045,0.010136710943164928,-0.05099437019985276,0.0,70.0,255.0,255.0,255.0
76,3.8000000000000003,-4.66295972363921,-1.438905144338876,-0.385137596989495,-0.08573963399153506,0.032052477349984176,-0.20208351789124945,-0.019798373058588226,0.010228287303348793,-0.05162888866767079,0.0,70.0,255.0,255.0,255.0
77,3.85,-4.66727135580048,-1.4372895753430042,-0.39530626264509117,-0.0867159006939211,0.032558316416637645,-0.2046837691608283,-0.019419227376094028,0.009807471345846253,-0.05239595844883094,0.0,70.0,255.0,255.0,255.0
78,3.9000000000000004,-4.671631313708602,-1.4356493126972123,-0.40560597390557784,-0.08768155672914446,0.0330332244845688,-0.20732311373613255,-0.01938913737200565,0.009103335702342896,-0.05308144060744979,0.0,70.0,255.0,255.0,255.0
79,3.95,-4.676039511473395,-1.4339862528945473,-0.4160385740187044,-0.08865481443112166,0.033468649986871934,-0.2099919132215733,-0.019728238889804572,0.008346085860821972,-0.05346761232793429,0.0,70.0,255.0,255.0,255.0
80,4.0,-4.680496795151714,-1.432302447698525,-0.4266051652277352,-0.08965438061812492,0.033867833070651,-0.21266987496892598,-0.020460311399972397,0.007768007908115493,-0.05333585113611594,0.0,70.0,255.0,255.0,255.0
81,4.05,-4.685004949535207,-1.4305994695874822,-0.437305561515597,-0.0907008455711189,0.034245450777683484,-0.21532549833518488,-0.021565323157091143,0.007500534157922623,-0.0525921127836948,0.0,70.0,255.0,255.0,255.0
82,4.1000000000000005,-4.689566879708826,-1.4288779026207568,-0.44813771506125366,-0.09181091293383403,0.03461788648644326,-0.21792908624729546,-0.02286217243030464,0.007500535220672511,-0.051423776263836984,0.0,70.0,255.0,255.0,255.0
83,4.15,-4.6941860408285905,-1.4271376809388379,-0.45909847014032656,-0.09298706281414937,0.034995504299750735,-0.22046787596156858,-0.02404627020879957,0.007659007835947307,-0.05017977197949164,0.0,70.0,255.0,255.0,255.0
84,4.2,-4.698865585990241,-1.4253783521907817,-0.4701845026574105,-0.09421553995471399,0.03538378727003799,-0.22294706344524462,-0.02480050625992547,0.00787661745327295,-0.049217298826581546,0.0,70.0,255.0,255.0,255.0
85,4.25,-4.703607594824062,-1.423599302211834,-0.481393176484851,-0.09546711344014192,0.03578316604507803,-0.22538960584422674,-0.024818540256799082,0.008051304044420782,-0.048890197283635306,0.0,70.0,255.0,255.0,255.0
86,4.3,-4.708412297334255,-1.4218000355862739,-0.4927234632418332,-0.0966973939803939,0.03618891767448007,-0.22783608317360815,-0.023965509137990892,0.008123515458735575,-0.04936974644459413,0.0,70.0,255.0,255.0,255.0
87,4.3500000000000005,-4.713277334222101,-1.419980410444386,-0.5041767848022118,-0.097863664353941,0.03659551759095159,-0.23032658048868615,-0.02246280551316815,0.008111320172377035,-0.05045905304594811,0.0,70.0,255.0,255.0,255.0
88,4.4,-4.718198663769649,-1.4181404838271787,-0.5157561212907018,-0.09894367453171071,0.037000049691717773,-0.23288198847820296,-0.02073757666520848,0.008058861392368222,-0.05176851576370045,0.0,70.0,255.0,255.0,255.0
89,4.45,-4.723171701675272,-1.4162804054752143,-0.5274649836500321,-0.09993742202046185,0.03740140373018841,-0.2355034320650562,-0.019234771035403497,0.008001243859911966,-0.05290384504642587,0.0,70.0,255.0,255.0,255.0
90,4.5,-4.728192405971695,-1.4144003434541599,-0.5393064644972074,-0.10086715163525106,0.03780017407770897,-0.23817237298284555,-0.018381518247956308,0.007974747941985605,-0.05348340634929727,0.0,70.0,255.0,255.0,255.0
91,4.55,-4.7332584168387974,-1.4125003880674434,-0.5512822209483167,-0.10177557384525748,0.03819887852438697,-0.24085177269998592,-0.018399213718467422,0.00799869072021231,-0.053309041298044146,0.0,70.0,255.0,255.0,255.0
92,4.6000000000000005,-4.738369963356221,-1.4105804556017212,-0.563391641767206,-0.1027070730070978,0.0386000431497302,-0.24350327711264996,-0.019153085704104456,0.008054184090022787,-0.05251082740322932,0.0,70.0,255.0,255.0,255.0
93,4.65,-4.743529124139507,-1.4086403837524704,-0.5756325486595817,-0.10369088241566793,0.03900429693338925,-0.24610285544030885,-0.020336942943988134,0.008105546594916468,-0.051375349114912705,0.0,70.0,255.0,255.0,255.0
94,4.7,-4.748739051597788,-1.4066800259083823,-0.5880019273112369,-0.10474076730149662,0.03941059780922185,-0.24864081202414123,-0.021633836171819354,0.00811840710692735,-0.05019389441430766,0.0,70.0,255.0,255.0,255.0
95,4.75,-4.754003200869657,-1.4046993239715482,-0.6004966298619958,-0.10585426603284986,0.039816137644081984,-0.2511222448817396,-0.02273939607393416,0.008049704187396145,-0.049248158671089115,0.0,70.0,255.0,255.0,255.0
96,4.800000000000001,-4.759324478201073,-1.402698412143974,-0.6131141517994109,-0.10701470690889003,0.04021556822796146,-0.25356562789125014,-0.023472601023311057,0.00788172166035217,-0.0486996361488079,0.0,70.0,255.0,255.0,255.0
97,4.8500000000000005,-4.764704671560546,-1.400677767148752,-0.6258531926511208,-0.10820152613518097,0.0406043098101172,-0.2559922084966204,-0.023813056799859567,0.007671943467757458,-0.04853036461393012,0.0,70.0,255.0,255.0,255.0
98,4.9,-4.770144630814591,-1.3986379811629623,-0.6387133726490729,-0.10939601258887599,0.04098276257473721,-0.25841866435264316,-0.02378392894790693,0.007518952228080522,-0.04865903882554923,0.0,70.0,255.0,255.0,255.0
99,4.95,-4.7756442728194335,-1.3965794908912783,-0.6516950590863851,-0.11057991902997166,0.04135620503292525,-0.26085811237917533,-0.023404709451924077,0.007518414425655706,-0.04900626494200866,0.0,70.0,255.0,255.0,255.0
100,5.0,-4.781202622717588,-1.3945023606596698,-0.6647991838869904,-0.1117364835340684,0.04173460401730278,-0.263319290846844,-0.022696888131701343,0.0077744073363472666,-0.04948796829032931,0.0,70.0,255.0,255.0,255.0
101,5.050000000000001,-4.78681792117284,-1.392406030489548,-0.6780269881710695,-0.1128496078431418,0.04213364576655998,-0.26580690920820826,-0.021701617619118707,0.008328222171938293,-0.05004066585498901,0.0,70.0,255.0,255.0,255.0
102,5.1000000000000005,-4.792487583501902,-1.3902889960830138,-0.6913798748078113,-0.11390664529598027,0.04256742623449661,-0.2683233574323429,-0.02055636541911099,0.009056270477425521,-0.050607807381197745,0.0,70.0,255.0,255.0,255.0
103,5.15,-4.798208585702438,-1.3881492878660984,-0.7048593239143038,-0.1149052443850529,0.04303927281430253,-0.27086768994632804,-0.01948901958614968,0.009739576893785795,-0.051105884860247475,0.0,70.0,255.0,255.0,255.0
104,5.2,-4.803978107940408,-1.3859850688015836,-0.7184666438024441,-0.11585554725459524,0.04354138392387519,-0.27343394591836767,-0.018745274737685946,0.010161874584180275,-0.0514358709924112,0.0,70.0,255.0,255.0,255.0
105,5.25,-4.809794140427898,-1.3837951494737109,-0.7322027185061406,-0.11677977185882149,0.04405546027272056,-0.27601127704556916,-0.018561070047695694,0.01011271308730688,-0.0515039308715437,0.0,70.0,255.0,255.0,255.0
106,5.300000000000001,-4.81565608512629,-1.3815795227743115,-0.746067771507001,-0.1177116542593648,0.044552655232605876,-0.27858433900552204,-0.019041954141751916,0.00949779058430078,-0.05127047432409437,0.0,70.0,255.0,255.0,255.0
107,5.3500000000000005,-4.821565305853834,-1.3793398839504503,-0.7600611524066928,-0.11868396727299668,0.04500523933115064,-0.2811383244779786,-0.020032530474534127,0.008469221708962138,-0.05080288138584743,0.0,70.0,255.0,255.0,255.0
108,5.4,-4.827524481853589,-1.3770789988411964,-0.7741816039547988,-0.11971490730681822,0.04539957740350209,-0.2836646271441068,-0.02122726543447584,0.007318171432202369,-0.05023378536979095,0.0,70.0,255.0,255.0,255.0
109,5.45,-4.833536796584516,-1.3747999262101,-0.7884276151211035,-0.12080669381644427,0.045737056474370874,-0.2861617030149577,-0.02230193052463747,0.006346348309671512,-0.04970973826770031,0.0,70.0,255.0,255.0,255.0
110,5.5,-4.839605151235234,-1.3725052931937594,-0.8027977742562946,-0.12194510035928197,0.04603421223446924,-0.2886356009708768,-0.022934822353626316,0.005854740314381601,-0.0493843268715044,0.0,70.0,255.0,255.0,255.0
111,5.550000000000001,-4.845731306620444,-1.3701965049866531,-0.8172911752181912,-0.1231001760518069,0.046322530505809034,-0.29110013570210813,-0.02295779192182934,0.005993902204171064,-0.049336924028198226,0.0,70.0,255.0,255.0,255.0
112,5.6000000000000005,-4.8519151688404145,-1.3678730401431785,-0.8319077878265054,-0.1242408795514649,0.04663360245488635,-0.29356929337369664,-0.02248255697177015,0.006618730798813033,-0.049497030711831425,0.0,70.0,255.0,255.0,255.0
113,5.65,-4.858155394575591,-1.3655331447411645,-0.8466481045555608,-0.1253484317489839,0.04698440358569034,-0.2960498387732913,-0.021752035225031108,0.007435849265591266,-0.04972344918509064,0.0,70.0,255.0,255.0,255.0
114,5.7,-4.864450012015313,-1.3631745997846094,-0.8615127717038346,-0.126416083073968,0.047377187381445474,-0.2985416382922057,-0.021014089410797965,0.008146158750310661,-0.04987808968961449,0.0,70.0,255.0,255.0,255.0
115,5.75,-4.870797002882988,-1.36079542600302,-0.8765022683847814,-0.1274498406900637,0.047799019460721404,-0.3010376477422527,-0.020527612566656472,0.00844035362708162,-0.049818808262402925,0.0,70.0,255.0,255.0,255.0
116,5.800000000000001,-4.877194996084319,-1.3583946978385373,-0.8916165364780598,-0.12846884433063366,0.048221222744153636,-0.303523519118446,-0.02043242595659578,0.008160539993062876,-0.04947525613658854,0.0,70.0,255.0,255.0,255.0
117,5.8500000000000005,-4.883643887316051,-1.3559733037286046,-0.906854620296626,-0.1294930832857233,0.04861507346002769,-0.3059851733559116,-0.020632672874132396,0.007462195422136553,-0.0489316997296152,0.0,70.0,255.0,255.0,255.0
118,5.9,-4.890144304412892,-1.3535331904925345,-0.922215053813651,-0.1305321116180469,0.04896744228636729,-0.3084166890914075,-0.020930840751187674,0.006651252018197162,-0.04834971392716492,0.0,70.0,255.0,255.0,255.0
119,5.95,-4.896697098477856,-1.3510765594999679,-0.9376962892057668,-0.13158616736084205,0.04928019866184741,-0.31082014474862807,-0.02114082605055856,0.006022676362760215,-0.04788447640041715,0.0,70.0,255.0,255.0,255.0
120,6.0,-4.903302921148976,-1.3486051706263498,-0.9532970682885138,-0.13264619422310275,0.04956970992264331,-0.31320513673144923,-0.021066801972136062,0.005863751937340567,-0.04768039345880437,0.0,70.0,255.0,255.0,255.0
121,6.050000000000001,-4.909961717900166,-1.3461195885077035,-0.9690168028789117,-0.13369284755805566,0.049866573855581464,-0.3155881840945085,-0.020612644111750456,0.006317597497340621,-0.047809137672505386,0.0,70.0,255.0,255.0,255.0
122,6.1000000000000005,-4.916672205904781,-1.3436185132407916,-0.9848558866979646,-0.1347074586342778,0.050201469672377375,-0.31798605049869977,-0.019909455494548922,0.007245308025294328,-0.048211694845257114,0.0,70.0,255.0,255.0,255.0
123,6.15,-4.923432463763594,-1.3410994415404658,-1.0008154079287817,-0.13568379310751055,0.0505911046581109,-0.3204093535790342,-0.019201897807796797,0.008365482987793271,-0.04876133146991535,0.0,70.0,255.0,255.0,255.0
124,6.2,-4.930240585215532,-1.3385594027749805,-1.016896822055868,-0.13662764841505748,0.0510380179711567,-0.3228621836456913,-0.018722466526632786,0.009397075192651982,-0.04932451752921452,0.0,70.0,255.0,255.0,255.0
125,6.25,-4.9370952286050995,-1.3359956397433501,-1.0331016262933508,-0.13755603976017383,0.051530812177376095,-0.32534180533195567,-0.018693104953104722,0.010076666595715267,-0.0497715992543446,0.0,70.0,255.0,255.0,255.0
126,6.300000000000001,-4.94399618919155,-1.333406321557243,-1.0494310025890636,-0.13849695891036795,0.05204568463072823,-0.32783934357112576,-0.01921788337755359,0.0102624965911291,-0.05002870599390974,0.0,70.0,255.0,255.0,255.0
127,6.3500000000000005,-4.950944924496136,-1.3307910712802773,-1.0658855606504634,-0.1394778280979292,0.052557061836489005,-0.33034467593134664,-0.020163258061334233,0.01000468436480606,-0.05010515725294429,0.0,70.0,255.0,255.0,255.0
128,6.4,-4.957943972001343,-1.328150615373594,-1.0824654701821983,-0.14051328471650137,0.053046153067208834,-0.3328498592964202,-0.021266136782038814,0.009438704142383791,-0.05004048466872302,0.0,70.0,255.0,255.0,255.0
129,6.45,-4.9649962529677865,-1.3254864559735564,-1.0991705465801054,-0.14160444177613307,0.053500932250727384,-0.33534872439821894,-0.02225704677041307,0.008709022866604244,-0.04987796630329111,0.0,70.0,255.0,255.0,255.0
130,6.5,-4.972104416178956,-1.3228005221485213,-1.1160003426220202,-0.14273898939354268,0.05391705535386926,-0.3378376559267493,-0.022880778215306208,0.007961609651752077,-0.04967721884787668,0.0,70.0,255.0,255.0,255.0
131,6.550000000000001,-4.979270151907141,-1.3200947504381695,-1.1329543121727803,-0.1438925195976637,0.05429709321590259,-0.3403164462830066,-0.023002535665028745,0.007290877676502383,-0.04947501271097554,0.0,70.0,255.0,255.0,255.0
132,6.6000000000000005,-4.986493668138722,-1.317370812826931,-1.1500319872503209,-0.14503924296004556,0.0546461431215195,-0.34278515719784686,-0.022685624148799377,0.006733157312832638,-0.049248515303701446,0.0,70.0,255.0,255.0,255.0
133,6.65,-4.993774076203145,-1.3146301361260175,-1.167232827892565,-0.14616108201254363,0.054970408947185856,-0.34524129781337676,-0.022085443175878794,0.006325015128205713,-0.048957569015839475,0.0,70.0,255.0,255.0,255.0
134,6.7,-5.001109776339977,-1.3118737719322124,-1.1845561170316585,-0.14724778727763344,0.05527864463434007,-0.3476809140994308,-0.021369346391431066,0.0061120081661592,-0.04857601819008295,0.0,70.0,255.0,255.0,255.0
135,6.75,-5.008498854930909,-1.3091022716625835,-1.202000919302508,-0.14829801665168674,0.055581609763801776,-0.35009889963238505,-0.020715810156968217,0.006128922769121914,-0.048067590622213885,0.0,70.0,255.0,255.0,255.0
136,6.800000000000001,-5.0159395780051454,-1.3063156109558323,-1.219566006994897,-0.14931936829333026,0.05589153691125226,-0.3524876731616522,-0.020230435500145916,0.006381731630367149,-0.04742415691516566,0.0,70.0,255.0,255.0,255.0
137,6.8500000000000005,-5.023430791760242,-1.3035131179714583,-1.2372496866186733,-0.15032106020170133,0.05621978292683849,-0.3548413153239016,-0.019891448141517998,0.006819143260328175,-0.04673984913137197,0.0,70.0,255.0,255.0,255.0
138,6.9,-5.030971684025316,-1.3006936326631484,-1.2550501385272872,-0.15130851310748206,0.05657345123728508,-0.3571616580747894,-0.01963740520061208,0.007343100146806059,-0.04617101082946551,0.0,70.0,255.0,255.0,255.0
139,6.95,-5.03856164307099,-1.2978557728477298,-1.2729658524261522,-0.15228480072176254,0.0569540929415191,-0.35945841640684817,-0.019417455775005976,0.007837256823184369,-0.045864021542318945,0.0,70.0,255.0,255.0,255.0
140,7.0,-5.046200164097492,-1.2949982233689965,-1.290995980167972,-0.15325025868498265,0.057357176919603514,-0.3617480602290213,-0.0191600371000078,0.008182652651744782,-0.0459483627192947,0.0,70.0,255.0,255.0,255.0
141,7.050000000000001,-5.053886668939488,-1.2921200551557694,-1.3091406584490544,-0.15420080443176332,0.057772358206693575,-0.36405325267877764,-0.018829661728769764,0.008315995335661519,-0.04647647151672096,0.0,70.0,255.0,255.0,255.0
142,7.1000000000000005,-5.061620244540668,-1.2892209875483271,-1.3274013054358498,-0.15513322485785963,0.058188776453169666,-0.3663957073806934,-0.01850681172408386,0.008273906009370613,-0.04734677348547933,0.0,70.0,255.0,255.0,255.0
143,7.15,-5.069399991425274,-1.2863011775104525,-1.3457802291871237,-0.1560514856041717,0.058599748807630636,-0.3687879300273256,-0.018325868422319758,0.00813810876019172,-0.04836118486881702,0.0,70.0,255.0,255.0,255.0
144,7.2,-5.077225393101085,-1.283361012667564,-1.3642800984385823,-0.1569658117000916,0.05900258732918884,-0.3712318258675751,-0.018401203468343397,0.007992764075037684,-0.049309434102196015,0.0,70.0,255.0,255.0,255.0
145,7.25,-5.085096572595283,-1.2804009187775336,-1.3829034117738812,-0.15789160595100604,0.059399025215134404,-0.3737188734375452,-0.018843948203617344,0.007932447975855794,-0.05000693052865657,0.0,70.0,255.0,255.0,255.0
146,7.300000000000001,-5.093014553696186,-1.2774211101460506,-1.4016519857823369,-0.15885020652045334,0.05979583212677442,-0.37623251892044074,-0.019692316186770142,0.00800706091974579,-0.050349957018247515,0.0,70.0,255.0,255.0,255.0
147,7.3500000000000005,-5.100981593247329,-1.2744213355648562,-1.4205266636659253,-0.15986083756968306,0.06019973130710898,-0.3787538691393699,-0.0207986942391436,0.008164300301238825,-0.05032116881493742,0.0,70.0,255.0,255.0,255.0
148,7.4,-5.109000637453154,-1.2714011370153397,-1.4395273726962738,-0.1609300759443677,0.0606122621568983,-0.3812646358019345,-0.02189921434965214,0.008306236374044929,-0.049936137806882996,0.0,70.0,255.0,255.0,255.0
149,7.45,-5.117074600841765,-1.2683601093491663,-1.4586531272461187,-0.16205075900464827,0.061030354944513476,-0.3837474829200582,-0.022725982100091358,0.008344600629683896,-0.04922495533550286,0.0,70.0,255.0,255.0,255.0
150,7.5,-5.125205713353619,-1.2652981015208884,-1.4779021209882797,-0.16320267415437684,0.06144672221986669,-0.38618713133548477,-0.02302817941028934,0.008191611388919107,-0.048207971109959225,0.0,70.0,255.0,255.0,255.0
151,7.550000000000001,-5.133394868257203,-1.2622154371271797,-1.4972718403796672,-0.1643535769456772,0.06184951608340539,-0.38856828003105415,-0.022686761169410374,0.007808674738263299,-0.04692836241515508,0.0,70.0,255.0,255.0,255.0
152,7.6000000000000005,-5.141641071048187,-1.2591131499125479,-1.516758948991385,-0.16547135027131787,0.06222758969369302,-0.3908799675770003,-0.021827362368131986,0.007270664347536204,-0.045567525614109705,0.0,70.0,255.0,255.0,255.0
153,7.65,-5.149942003284335,-1.2559926781578103,-1.5363598371373672,-0.1665363131824904,0.06257658251815901,-0.3931250325924651,-0.02071000145198454,0.006716013342478178,-0.04441864618782709,0.0,70.0,255.0,255.0,255.0
154,7.7,-5.158294702366436,-1.252855491660732,-1.5560714522506316,-0.16754235041651633,0.06289919102794084,-0.395321832195783,-0.019613842489629718,0.006281607299163383,-0.043781979986712294,0.0,70.0,255.0,255.0,255.0
155,7.75,-5.1666962383259865,-1.2497027590550163,-1.5758920203569455,-0.16849769743145337,0.06320474324807535,-0.39750323059113635,-0.018819371451339606,0.006093087820691068,-0.04395316638350355,0.0,70.0,255.0,255.0,255.0
156,7.800000000000001,-5.175144472109581,-1.2465350173359244,-1.5958217753097452,-0.1694242875616503,0.06350849981000994,-0.39971714883413334,-0.018479613495259173,0.006212039660735691,-0.0450519313167419,0.0,70.0,255.0,255.0,255.0
157,7.8500000000000005,-5.1836386670821515,-1.2433519090740153,-1.6158637352403589,-0.1703456587809793,0.06382594721414891,-0.40200842372281054,-0.018524583561330132,0.00658856678406039,-0.04679893851886607,0.0,70.0,255.0,255.0,255.0
158,7.9,-5.192179037987679,-1.2401524226145095,-1.6360226176820263,-0.1712767459177833,0.06416735648841598,-0.40439704268601995,-0.018789730890755862,0.007113346619691541,-0.04867571100810597,0.0,70.0,255.0,255.0,255.0
159,7.95,-5.20076634167393,-1.2369351734251737,-1.6563034395089609,-0.17222463187005488,0.06453728187611807,-0.40687599482362113,-0.01911104887257764,0.007669482994199228,-0.05014260257307779,0.0,70.0,255.0,255.0,255.0
160,8.0,-5.209401501174685,-1.2336986944268977,-1.6767102171643884,-0.17318785080504107,0.0649343047878359,-0.4094113029433277,-0.019310372080738603,0.008148018680342872,-0.05066337268011534,0.0,70.0,255.0,255.0,255.0
161,8.05,-5.218085126754434,-1.23044174294639,-1.6972445698032936,-0.17415566907812874,0.06535208374415236,-0.41194233209163267,-0.019289237065489573,0.00848367943926398,-0.04997682607097431,0.0,70.0,255.0,255.0,255.0
162,8.1,-5.2268170680824975,-1.2271634860524825,-1.7179044503735517,-0.17511677451159002,0.0657826727317623,-0.41440898555042516,-0.0191161681886598,0.008658704879982437,-0.04837201168563787,0.0,70.0,255.0,255.0,255.0
163,8.15,-5.235596804205593,-1.2238634756732139,-1.7386854683583362,-0.17606728589699472,0.0662179542321506,-0.41677953326019646,-0.018927531860502,0.008666124654221896,-0.04642405756514201,0.0,70.0,255.0,255.0,255.0
164,8.200000000000001,-5.244423796672197,-1.2205416906292674,-1.7595824036995713,-0.17700952769764022,0.0666492851971845,-0.41905139130693936,-0.018842847800026874,0.008500973544500745,-0.044720243753570976,0.0,70.0,255.0,255.0,255.0
165,8.25,-5.253297756975357,-1.2171985471534954,-1.78059060748903,-0.1779515706769974,0.06706805158660067,-0.42125155763555355,-0.018983056310073465,0.008158846781913809,-0.04384928695202461,0.0,70.0,255.0,255.0,255.0
166,8.3,-5.262218953739897,-1.2138348854706074,-1.8017075594631267,-0.17890783332864757,0.06746516987537587,-0.4234363200021418,-0.019403811204288246,0.0076522169410564445,-0.04411339843217732,0.0,70.0,255.0,255.0,255.0
167,8.35,-5.271188540308222,-1.2104520301659578,-1.8229342394892443,-0.17989195179742623,0.06783327328070632,-0.4256628974787713,-0.020008972122464996,0.007057452857073265,-0.04525856252406424,0.0,70.0,255.0,255.0,255.0
168,8.4,-5.280208148919639,-1.2070515581425367,-1.8442738492110038,-0.18090873054089407,0.0681709151610832,-0.42796217625454824,-0.020621074067772582,0.006502993924351053,-0.04676335010633803,0.0,70.0,255.0,255.0,255.0
169,8.450000000000001,-5.289279413362311,-1.2036349386498495,-1.865730457114699,-0.1819540592042035,0.06848357267314142,-0.4303392324894051,-0.021064786033786476,0.0061255971866680525,-0.04810947602564841,0.0,70.0,255.0,255.0,255.0
170,8.5,-5.29840355484006,-1.2002032008752226,-1.8873077724599443,-0.18301520914427272,0.06878347487975,-0.4327731238571131,-0.0211654213265966,0.006060603515956053,-0.04877957275217781,0.0,70.0,255.0,255.0,255.0
171,8.55,-5.307580934276738,-1.1967565911618745,-1.9090077695004104,-0.18407060133686315,0.06908963302473703,-0.43521718976462287,-0.02084171858438566,0.006367965616993487,-0.04850365945456847,0.0,70.0,255.0,255.0,255.0
172,8.6,-5.316810614973746,-1.1932942375727489,-1.9308294914364066,-0.18509938100271128,0.06942027144144935,-0.43762348980256993,-0.020212418846199398,0.00694700816730176,-0.04748548646953399,0.0,70.0,255.0,255.0,255.0
173,8.65,-5.3260908723770095,-1.1898145640177296,-1.9527701184806674,-0.1860918432214831,0.0697843338414672,-0.43996573841157627,-0.019504535504122344,0.007605536012067482,-0.04614995459686355,0.0,70.0,255.0,255.0,255.0
174,8.700000000000001,-5.335419799295894,-1.1863158041886022,-1.9748260652775642,-0.18704983455312352,0.0701808250426561,-0.4422384852622563,-0.01895078195772726,0.008143863816090224,-0.04491551181786679,0.0,70.0,255.0,255.0,255.0
175,8.75,-5.344795855832322,-1.182796481513464,-1.996993967006893,-0.18798692141725581,0.07059872022307623,-0.44445728959336295,-0.018791249059990633,0.008362748478174531,-0.044200347447298505,0.0,70.0,255.0,255.0,255.0
176,8.8,-5.35421849143762,-1.1792559321662945,-2.0192717942369005,-0.18892895945912258,0.07101709989047356,-0.44665852000698614,-0.019142601171040496,0.008162633877639713,-0.04422459778192778,0.0,70.0,255.0,255.0,255.0
177,8.85,-5.363688751778234,-1.1756947715244166,-2.0416598190075916,-0.18990118153435986,0.0714149836108402,-0.4488797493715557,-0.019855944566948835,0.00763992239920519,-0.04483044730849706,0.0,70.0,255.0,255.0,255.0
178,8.9,-5.373208609591056,-1.1721144338052105,-2.064159769174056,-0.19091455391581746,0.07178109213039408,-0.45114156473783584,-0.020646191841411365,0.006989454101935522,-0.045686714956350016,0.0,70.0,255.0,255.0,255.0
179,8.950000000000001,-5.382780207169816,-1.1685166623113772,-2.086773975481375,-0.191965800718501,0.07211392902103375,-0.4534484208671907,-0.02123222599630381,0.006405520975527601,-0.046468103742602906,0.0,70.0,255.0,255.0,255.0
180,9.0,-5.392405189662906,-1.1649030409031071,-2.109504611260775,-0.19303777651544785,0.07242164422794684,-0.45578837511209613,-0.021337647701802354,0.0060723652753447155,-0.04684309340241555,0.0,70.0,255.0,255.0,255.0
181,9.05,-5.402083984821361,-1.1612744978885825,-2.132352812992585,-0.19409956548868124,0.07272116554856822,-0.4581327302074323,-0.020827503769549338,0.006088072298982006,-0.04663860209861426,0.0,70.0,255.0,255.0,255.0
182,9.1,-5.411815146211774,-1.1576309243482503,-2.1553178842815184,-0.19512052689240278,0.07303045145784504,-0.46045223532195756,-0.019850982372737747,0.006407894310522799,-0.04599906462283698,0.0,70.0,255.0,255.0,255.0
183,9.15,-5.421596037510601,-1.153971452742798,-2.1783980365247806,-0.196084663725955,0.0733619549796205,-0.462732636669716,-0.018704356805088196,0.006922055505631519,-0.045216006090420535,0.0,70.0,255.0,255.0,255.0
184,9.200000000000001,-5.43142361258437,-1.1502947288502883,-2.20159114794849,-0.1969909625729116,0.07372265700840819,-0.4649738359309996,-0.017686374663838933,0.007520765568447274,-0.04457244617190881,0.0,70.0,255.0,255.0,255.0
185,9.25,-5.441295133767892,-1.1465991870419572,-2.2248954201178806,-0.1978533011923389,0.07411403153646523,-0.46718988128690686,-0.01708613216049315,0.008111799744514592,-0.0443592136748272,0.0,70.0,255.0,255.0,255.0
186,9.3,-5.4512089427036035,-1.1428833256966417,-2.2483101360771807,-0.1986995757889609,0.07453383698285965,-0.46940975729848233,-0.017053957176127454,0.00863230303362883,-0.044720853963875484,0.0,70.0,255.0,255.0,255.0
187,9.35,-5.461165091346788,-1.1391458033436712,-2.271836395847729,-0.19955869690995165,0.07497726183982811,-0.4716619666832944,-0.01749201405356615,0.009012136722308384,-0.04548788627447564,0.0,70.0,255.0,255.0,255.0
188,9.4,-5.471164812394599,-1.135385599512659,-2.29547633274551,-0.20044877719431753,0.07543505065509049,-0.4739585459259299,-0.018184492826822662,0.009157848351137865,-0.046334668607306284,0.0,70.0,255.0,255.0,255.0
189,9.450000000000001,-5.48120996906622,-1.1316022982781622,-2.3192322504403218,-0.20137714619263392,0.0758930466749419,-0.47629543354402504,-0.01890898863532442,0.008978642857870867,-0.04694225143029307,0.0,70.0,255.0,255.0,255.0
190,9.5,-5.491302527013862,-1.1277962948451647,-2.3431058760999126,-0.20233967605784997,0.07633291494087757,-0.4786527710689592,-0.01943782365696478,0.008376473042570609,-0.04698811716621343,0.0,70.0,255.0,255.0,255.0
191,9.55,-5.501443936672005,-1.1239690067840744,-2.3670975275472177,-0.2033209285583304,0.07673069397919896,-0.4809942452606464,-0.01964440645361165,0.007327890391728431,-0.0463176090855999,0.0,70.0,255.0,255.0,255.0
192,9.600000000000001,-5.511634619869695,-1.1201232254472449,-2.3912053006259772,-0.20430411670321114,0.07706570398005042,-0.4832845319775192,-0.019585530176957633,0.006026169522987956,-0.045136569766413004,0.0,70.0,255.0,255.0,255.0
193,9.65,-5.521874348342326,-1.1162624363860694,-2.4154259807449696,-0.20527948157602616,0.07733331093149776,-0.4855079022372877,-0.019391424801451507,0.004806457849726442,-0.043838979154076085,0.0,70.0,255.0,255.0,255.0
194,9.700000000000001,-5.532162568027298,-1.112389894354095,-2.439756090849706,-0.2062432591833563,0.07754634976502306,-0.4876684298929268,-0.019185269862198595,0.004009697964879599,-0.042817895426416896,0.0,70.0,255.0,255.0,255.0
195,9.75,-5.542498674260662,-1.108507801409567,-2.4641928237342623,-0.20719800856224602,0.07773428072798572,-0.48978969177992937,-0.01910252659236278,0.003966270789046433,-0.04246426171605755,0.0,70.0,255.0,255.0,255.0
196,9.8,-5.552882368883522,-1.1046164662812965,-2.488735060027699,-0.20815351184259256,0.0779429768439277,-0.49191485606453256,-0.019214477616014136,0.004824247287804617,-0.042969082654176205,0.0,70.0,255.0,255.0,255.0
197,9.850000000000001,-5.563314025444921,-1.1007135037251743,-2.5133843093407156,-0.20911945632384743,0.07821670545676618,-0.494086600045347,-0.019444932836965023,0.006352462575143214,-0.0441159512100775,0.0,70.0,255.0,255.0,255.0
198,9.9,-5.573794314515907,-1.0967947957356199,-2.5381437200322337,-0.21009800512628907,0.07857822310144202,-0.4963264511855403,-0.01965157952898977,0.00810452537798323,-0.0454784590653734,0.0,70.0,255.0,255.0,255.0
199,9.950000000000001,-5.58432382595755,-1.09285568141503,-2.5630169544592696,-0.2110846142767464,0.0790271579945645,-0.49863444595188433,-0.019702845668501112,0.009617530317385103,-0.0466268195445263,0.0,70.0,255.0,255.0,255.0
200,10.0,-5.594902775943582,-1.0888920799361634,-2.588007164627422,-0.21206828969313918,0.07953997613318053,-0.5009891331399929,-0.01945612591800483,0.01044245312524783,-0.04713488258936138,0.0,70.0,255.0,255.0,255.0
201,10.05,-5.605530654926864,-1.084901683801712,-2.613115867773269,-0.2130302268685469,0.08007140330708928,-0.5033479342108205,-0.01885059683557344,0.010348547030725186,-0.04678620015803325,0.0,70.0,255.0,255.0,255.0
202,10.100000000000001,-5.616205798630436,-1.0808849396054545,-2.638341958048504,-0.21395334937669652,0.08057483083625305,-0.5056677531557963,-0.018036510036267828,0.009497499990129832,-0.045770441244430415,0.0,70.0,255.0,255.0,255.0
203,10.15,-5.626925989864533,-1.0768442007180867,-2.6636826430888485,-0.21483387787217367,0.08102115330610227,-0.5079249783352635,-0.017281324681750476,0.008241920824736404,-0.0444763687335481,0.0,70.0,255.0,255.0,255.0
204,10.200000000000001,-5.637689186417654,-1.0727828242748443,-2.6891344558820305,-0.21568148184487157,0.0813990229187267,-0.5101153900291511,-0.016849408070296334,0.006946754192060922,-0.04329468653501145,0.0,70.0,255.0,255.0,255.0
205,10.25,-5.648494138049021,-1.068704298426214,-2.7146941820917636,-0.2165188186792033,0.08171582872530836,-0.5122544469887647,-0.017012923115533596,0.0059799073858890495,-0.04261616130634138,0.0,70.0,255.0,255.0,255.0
206,10.3,-5.659341068285574,-1.0646112414023134,-2.740359900580907,-0.21738277415642493,0.0819970136573156,-0.5143770061597852,-0.017890734108672035,0.005546599554251408,-0.04264546403325298,0.0,70.0,255.0,255.0,255.0
207,10.350000000000001,-5.670232415464663,-1.0605045970604825,-2.766131882707742,-0.2183078920900705,0.0822704886807335,-0.51651899339209,-0.019242779931882836,0.005569332336263777,-0.04323323952335478,0.0,70.0,255.0,255.0,255.0
208,10.4,-5.681171857494581,-1.05638419253424,-2.792011799920116,-0.2193070521496132,0.08255394689094198,-0.5187003301121207,-0.020627690509122942,0.005858513933931775,-0.04406594945018938,0.0,70.0,255.0,255.0,255.0
209,10.450000000000001,-5.692163120679624,-1.0522492023713883,-2.818001915718954,-0.2203706611409828,0.08285634007412668,-0.5209255883371089,-0.021600687550904496,0.0062340543127925585,-0.04483406135480372,0.0,70.0,255.0,255.0,255.0
210,10.5,-5.703208923608679,-1.0480985585268274,-2.844104358753827,-0.22146712090470366,0.08317735232222123,-0.5231837362476011,-0.02171623756401786,0.0065059825992141995,-0.04522452812962818,0.0,70.0,255.0,255.0,255.0
211,10.55,-5.714309832770095,-1.0439314671391662,-2.8703202893437143,-0.2225422848973846,0.0835069383340481,-0.5254480411500717,-0.020765580948722828,0.006566220253545474,-0.0450725963899945,0.0,70.0,255.0,255.0,255.0
212,10.600000000000001,-5.725463152098418,-1.0397478646934226,-2.896649162868834,-0.22354367899957595,0.08383397434757578,-0.5276909958866005,-0.01904402524770532,0.0064670354666285235,-0.04450294098790053,0.0,70.0,255.0,255.0,255.0
213,10.65,-5.736664200670052,-1.0355480697044086,-2.9230893889323744,-0.22444668742215512,0.08415364188071095,-0.5298983352488618,-0.017117936592292438,0.006320480315946675,-0.043772653978013665,0.0,70.0,255.0,255.0,255.0
214,10.700000000000001,-5.747907820840633,-1.0313325005053515,-2.94963899639372,-0.2252554726588052,0.08446602237917045,-0.5320682612844019,-0.015559962937761185,0.006217914337658392,-0.043129441006595215,0.0,70.0,255.0,255.0,255.0
215,10.75,-5.759189747935933,-1.0271014674664916,-2.9762962150608145,-0.22600268371593124,0.08477543331447679,-0.5342112793495213,-0.014934061360794004,0.006240078301367191,-0.04281766090761252,0.0,70.0,255.0,255.0,255.0
216,10.8,-5.7705080892122265,-1.0228549571739038,-3.0030601243286723,-0.2267488787948846,0.08509003020930717,-0.5363500273751631,-0.01552060177072434,0.006428892392018604,-0.042964010546819864,0.0,70.0,255.0,255.0,255.0
217,10.850000000000001,-5.781864635815421,-1.0185924644455608,-3.029931217798331,-0.22755474389300367,0.08541832255367865,-0.5385076804042033,-0.017045827701345218,0.0067607542352243755,-0.043469588598998854,0.0,70.0,255.0,255.0,255.0
218,10.9,-5.793263563601527,-1.014313124918536,-3.0569108923690926,-0.2284534615650191,0.0857661056328296,-0.540696986235063,-0.018955015336175052,0.0071804972030964365,-0.044128842562507486,0.0,70.0,255.0,255.0,255.0
219,10.950000000000001,-5.804709981971923,-1.0100158538822779,-3.084000916421837,-0.22945024542662118,0.0861363722739883,-0.542920564660454,-0.020686826665450297,0.007634801157041515,-0.04474160119278814,0.0,70.0,255.0,255.0,255.0
220,11.0,-5.816208588144189,-1.0056994876911372,-3.111202948835138,-0.23052214423156414,0.08652958574853375,-0.5451711463543418,-0.021691572936610726,0.008089694871471487,-0.0451208655363633,0.0,70.0,255.0,255.0,255.0
221,11.05,-5.82776219639508,-1.0013628953074245,-3.1385180310572713,-0.23161940272028225,0.08694534176113544,-0.5474326512140903,-0.021679377935956978,0.008518210178531938,-0.045164787995810585,0.0,70.0,255.0,255.0,255.0
222,11.100000000000001,-5.839370528416217,-0.9970049535150236,-3.165946213956547,-0.23269008202515984,0.08738140676638695,-0.5496876251539229,-0.020827116161736825,0.008852651555002478,-0.04490411254165494,0.0,70.0,255.0,255.0,255.0
223,11.15,-5.851031204597596,-0.9926247546307858,-3.1934867935726636,-0.23370211433645594,0.08783060691663569,-0.5519230624682558,-0.01952671068750078,0.00899482690890352,-0.0444265678466671,0.0,70.0,255.0,255.0,255.0
224,11.200000000000001,-5.862740739849863,-0.98822189282336,-3.2211385202033727,-0.23464275309390992,0.0882808894572773,-0.5541302819385896,-0.01817310336011957,0.008856307607629788,-0.04382415422199415,0.0,70.0,255.0,255.0,255.0
225,11.25,-5.874495479906987,-0.9837966656850581,-3.2488998217665226,-0.2355194246724679,0.08871623767739867,-0.5563054778904553,-0.01716360959678198,0.00834920748087331,-0.04318689559492661,0.0,70.0,255.0,255.0,255.0
226,11.3,-5.88629268231711,-0.9793502690556202,-3.276769067992418,-0.23635911405358812,0.08911581020536463,-0.5584489714980823,-0.01672020816405606,0.007450155005805925,-0.042575811828760024,0.0,70.0,255.0,255.0,255.0
227,11.350000000000001,-5.898131391312345,-0.9748850846645216,-3.304744718916331,-0.2371914454888735,0.08946125317797926,-0.5605630590733313,-0.016757502523745416,0.006311250267332369,-0.04203209643280914,0.0,70.0,255.0,255.0,255.0
228,11.4,-5.910011826865997,-0.9704041437378222,-3.3328253738997513,-0.23803486430596266,0.08974693523209787,-0.5626521811413632,-0.017068864524727445,0.005200101921221112,-0.041608429174777584,0.0,70.0,255.0,255.0,255.0
229,11.450000000000001,-5.921934877742942,-0.9659103911413118,-3.361009937030467,-0.23889833194134624,0.08998126337010137,-0.564723901990809,-0.017459361292360143,0.004391716664098322,-0.04136075627796387,0.0,70.0,255.0,255.0,255.0
230,11.5,-5.9339016600601315,-0.9614060174008121,-3.389297764098832,-0.23978080043519867,0.0901861068985077,-0.5667882567691596,-0.017722053943813876,0.004149465880942671,-0.041331552083656575,0.0,70.0,255.0,255.0,255.0
231,11.55,-5.945912957786462,-0.9568917804514611,-3.417688762707383,-0.24067053733572763,0.09039620995819564,-0.5688570571991747,-0.01774095490958416,0.0045954821526805745,-0.04153299033031743,0.0,70.0,255.0,255.0,255.0
232,11.600000000000001,-5.957968713793704,-0.9523663964049925,-3.4461834698187497,-0.2415548959261571,0.09064565511377576,-0.5709415558021913,-0.01758473854565068,0.005573396326763458,-0.041923958603673483,0.0,70.0,255.0,255.0,255.0
233,11.65,-5.970068447379077,-0.9478272149400835,-3.474782918287602,-0.2424290111902927,0.09095354959087198,-0.573049453059542,-0.01739428808935628,0.006772038133440184,-0.042421580255824765,0.0,70.0,255.0,255.0,255.0
234,11.700000000000001,-5.982211614912734,-0.9432710414459053,-3.503488415124704,-0.24329432473509272,0.09132285892711978,-0.5751837138277738,-0.017290337251107957,0.007864564663673246,-0.04292713302054274,0.0,70.0,255.0,255.0,255.0
235,11.75,-5.9943978798525865,-0.9386949290473715,-3.5323012896703796,-0.2441580449154035,0.09174000605723931,-0.5773421663615963,-0.017392090712053943,0.008528919671413338,-0.04334684945033196,0.0,70.0,255.0,255.0,255.0
236,11.8,-6.006627419404274,-0.9340970408401814,-3.5612226317608635,-0.2450335338062981,0.09217575089426111,-0.579518398772807,-0.01775634515848168,0.008595142490819274,-0.043626026383858374,0.0,70.0,255.0,255.0,255.0
237,11.850000000000001,-6.018901233233216,-0.9294773539579454,-3.5902531295476603,-0.24593367943125166,0.09259952030632124,-0.5817047689999821,-0.018301771731721317,0.00816420871454504,-0.04375570551644614,0.0,70.0,255.0,255.0,255.0
238,11.9,-6.031220787347399,-0.9248370888095493,-3.6193931086608617,-0.24686371097947024,0.09299217176571561,-0.5838939693244516,-0.018874915518285462,0.007461862095059502,-0.043740774277356564,0.0,70.0,255.0,255.0,255.0
239,11.950000000000001,-6.043587604331163,-0.9201781367813738,-3.6486425264801055,-0.2478211709830802,0.09334570651582719,-0.5860788464277178,-0.019326515810647038,0.006717110928355918,-0.043591224460337585,0.0,70.0,255.0,255.0,255.0
240,12.0,-6.056002904445707,-0.9155025181579666,-3.6780009933036335,-0.24879636256053494,0.0936638828585512,-0.5882530917704853,-0.019517601855589817,0.006162827461397846,-0.04332505943849263,0.0,70.0,255.0,255.0,255.0
241,12.05,-6.068467240587217,-0.9108117484955187,-3.707467835657154,-0.2497729311686392,0.09396198926196697,-0.590411352371567,-0.019379864922797196,0.005929495669609874,-0.04296187849326394,0.0,70.0,255.0,255.0,255.0
242,12.100000000000001,-6.080980197562571,-0.9061063192317699,-3.73704212854079,-0.25073434905281466,0.0942568324255122,-0.5925492796198117,-0.01897265005270654,0.005965200050417341,-0.042534058491972004,0.0,70.0,255.0,255.0,255.0
243,12.15,-6.093540675492498,-0.9013860652529675,-3.766722763619135,-0.25167019617390984,0.0945585092670087,-0.5946647582207643,-0.018422413474095123,0.00614676057258956,-0.042096161795246445,0.0,70.0,255.0,255.0,255.0
244,12.200000000000001,-6.106147217179962,-0.896650468305069,-3.7965086043628666,-0.2525765904002242,0.09487150848277115,-0.5967588957993364,-0.01786308668547676,0.006359392555310706,-0.041713656783493036,0.0,70.0,255.0,255.0,255.0
245,12.25,-6.118798334532521,-0.8918989144046904,-3.826398653199069,-0.2534565048424575,0.09519444852253978,-0.5988361238991136,-0.017425520512759363,0.006479817102911234,-0.041448950091860226,0.0,70.0,255.0,255.0,255.0
246,12.3,-6.131492867664208,-0.887131023452815,-3.856392216752778,-0.2543191424515001,0.09551949019306227,-0.6009037908085224,-0.01718368232959122,0.006440814224750735,-0.041333172930002604,0.0,70.0,255.0,255.0,255.0
247,12.350000000000001,-6.144230248777671,-0.8823469653853842,-3.886489032279921,-0.25517487307541664,0.09583852994501485,-0.6029694411921138,-0.017123991694756313,0.006295923484822552,-0.041345356553490475,0.0,70.0,255.0,255.0,255.0
248,12.4,-6.157010354971749,-0.8775471704583135,-3.9166891608719894,-0.25603154162097574,0.09614908254154453,-0.6050383264638715,-0.017199906110665353,0.006149324052795446,-0.041437282504430684,0.0,70.0,255.0,255.0,255.0
249,12.450000000000001,-6.169833402939768,-0.8727320571312297,-3.946992864926308,-0.2568948636864832,0.0964534623502944,-0.6071131694425569,-0.01736733791251055,0.006092405097413156,-0.04155414840489868,0.0,70.0,255.0,255.0,255.0
250,12.5,-6.182699841340398,-0.8679018242232841,-3.977400477816245,-0.2577682754122268,0.09675832305128584,-0.6091937413043613,-0.01758833474037047,0.006213848182834436,-0.041635130869632775,0.0,70.0,255.0,255.0,255.0
251,12.55,-6.195610230480991,-0.8630562248261011,-4.007912239056744,-0.2586536971605202,0.09707484716857784,-0.6112766825295202,-0.017832631866721016,0.00655433367858782,-0.04164594260780419,0.0,70.0,255.0,255.0,255.0
252,12.600000000000001,-6.20856521105645,-0.8581943395064263,-4.038528146069197,-0.2595515385988989,0.09741375641914463,-0.6133583355651417,-0.018052315569594413,0.007049334448594458,-0.04160544769553631,0.0,70.0,255.0,255.0,255.0
253,12.65,-6.221565384340881,-0.8533148491841867,-4.0692480726132585,-0.26045892871747967,0.09777978061343728,-0.6154372272990738,-0.018176190521934643,0.007576875617110179,-0.04155293662506665,0.0,70.0,255.0,255.0,255.0
254,12.700000000000001,-6.234611103928198,-0.8484163614450826,-4.1000718687991045,-0.26136915765109237,0.09817144398085564,-0.6175136292276484,-0.018128074484380363,0.008018213162186427,-0.041523549130140225,0.0,70.0,255.0,255.0,255.0
255,12.75,-6.24770230010599,-0.8434977047861011,-4.130999435536023,-0.2622717361659177,0.09858160192965593,-0.6195895822120878,-0.01782114052559791,0.008272808813725163,-0.04155849845739468,0.0,70.0,255.0,255.0,255.0
256,12.8,-6.2608382775447895,-0.838558201252117,-4.162030827020313,-0.26315127170365216,0.09899872486222816,-0.6216694790733879,-0.017225277384191884,0.008288051527249873,-0.04167634335301429,0.0,70.0,255.0,255.0,255.0
257,12.850000000000001,-6.274017427276355,-0.8335978322998783,-4.193166383443362,-0.2639942639043369,0.09941040708238091,-0.6237572165473892,-0.016468517587586717,0.008071214245330971,-0.041832852664569486,0.0,70.0,255.0,255.0,255.0
258,12.9,-6.287237703935223,-0.8286171605438789,-4.224406548675052,-0.26479812346241083,0.09980584628676126,-0.6258527643398448,-0.015774399400125816,0.007659537114990123,-0.0419509709943533,0.0,70.0,255.0,255.0,255.0
259,12.950000000000001,-6.3004972396225964,-0.8236172476712021,-4.255751659877347,-0.26557170384434947,0.10017636079387993,-0.6279523136468246,-0.015366424756724228,0.007100942720006387,-0.04195836836116129,0.0,70.0,255.0,255.0,255.0
260,13.0,-6.313794874319658,-0.8185995244644909,-4.287201780039735,-0.26633476593808325,0.1005159405587619,-0.630048601175961,-0.015467056537410429,0.006434963182322395,-0.04178290327354617,0.0,70.0,255.0,255.0,255.0
261,13.05,-6.327130716216405,-0.813565653615326,-4.318756519994943,-0.2671184094980905,0.10081985711211217,-0.6321306039741792,-0.016173857664636415,0.0056991478581847055,-0.04139488444696582,0.0,70.0,255.0,255.0,255.0
262,13.100000000000001,-6.340506715269467,-0.8085175387532797,-4.3504148404371525,-0.2679521517045469,0.10108585534458037,-0.6341880896206575,-0.017307366992902473,0.004983943768277488,-0.0408649132073613,0.0,70.0,255.0,255.0,255.0
263,13.15,-6.3539259313868595,-0.8034570680808679,-4.3821753289570085,-0.26884914619738076,0.10131825148893991,-0.6362170952949153,-0.018530780641690114,0.004428519046373314,-0.04032224699548337,0.0,70.0,255.0,255.0,255.0
264,13.200000000000001,-6.367391629889205,-0.7983857136043857,-4.414036549966644,-0.2698052297687159,0.1015287072492177,-0.6382203143202059,-0.019500678704176266,0.004170277029991176,-0.03989575131830847,0.0,70.0,255.0,255.0,255.0
265,13.25,-6.380906454363731,-0.7933041973559462,-4.445997360389029,-0.2707992140677984,0.10173527919193903,-0.6402066704267462,-0.019882661296577453,0.004335310484948618,-0.039701869800889966,0.0,70.0,255.0,255.0,255.0
266,13.3,-6.394471551295985,-0.7882121856851918,-4.478057217009319,-0.27179349589837365,0.10196223829771256,-0.6421905013002949,-0.019512205710103814,0.004970182214891761,-0.039797918392814324,0.0,70.0,255.0,255.0,255.0
267,13.350000000000001,-6.408085803953568,-0.7831079735261749,-4.5102164105190585,-0.27275043463880877,0.10223229741342821,-0.6441864622660276,-0.018551897891239122,0.005947695996288971,-0.04014301898180861,0.0,70.0,255.0,255.0,255.0
268,13.4,-6.421746594759866,-0.777988955943849,-4.5424758632359215,-0.27364868568749756,0.10255700789734146,-0.6462048031984757,-0.017333433743615956,0.00702918390228513,-0.0406436773869423,0.0,70.0,255.0,255.0,255.0
269,13.450000000000001,-6.435450672522318,-0.7728522727364407,-4.574836890838906,-0.27448377801317037,0.10293521580365672,-0.6482508300047218,-0.016196921032118894,0.007959487621533867,-0.04119913918598783,0.0,70.0,255.0,255.0,255.0
270,13.5,-6.449194972561183,-0.7676954343634833,-4.607300946236394,-0.27526837779070945,0.10335295665949484,-0.6503247171170745,-0.015474279628691079,0.008491766905827092,-0.04172159887518845,0.0,70.0,255.0,255.0,255.0
271,13.55,-6.462977510301389,-0.7625169770704913,-4.6398693625506136,-0.2760312059760395,0.10378439249423943,-0.6524229898922407,-0.015343380101828785,0.008500123282295657,-0.04215395480233752,0.0,70.0,255.0,255.0,255.0
272,13.600000000000001,-6.476798093158787,-0.7573169951140594,-4.672543245225618,-0.27680271580089233,0.10420296898772441,-0.6545401125973083,-0.015715997153087358,0.00807338413466585,-0.042446647229610335,0.0,70.0,255.0,255.0,255.0
273,13.65,-6.490657781881478,-0.7520966801717188,-4.705323373810344,-0.2776028056913482,0.10459173090770602,-0.6566676546152017,-0.016385367832594255,0.007406633456330525,-0.04253856793221544,0.0,70.0,255.0,255.0,255.0
274,13.700000000000001,-6.504558373727922,-0.7468578220232888,-4.738210010687138,-0.27844125258415175,0.10494363233335746,-0.6587939693905298,-0.017144550919923063,0.006705059197165131,-0.04237491804461868,0.0,70.0,255.0,255.0,255.0
275,13.75,-6.5185019071398935,-0.7416023169383831,-4.771202770749397,-0.2793172607833405,0.10526223682742253,-0.6609051464196636,-0.017792248161185853,0.006177621891756413,-0.04190777199397644,0.0,70.0,255.0,255.0,255.0
276,13.8,-6.532490099806256,-0.7363315983405465,-4.804300525329104,-0.28022047740027034,0.1055613945225331,-0.6629847465899275,-0.018208726097768135,0.005941585728319598,-0.04113143722292989,0.0,70.0,255.0,255.0,255.0
277,13.850000000000001,-6.546523954879921,-0.7310461774861298,-4.83750124540839,-0.28113813339311733,0.10585639540025449,-0.6650182901419566,-0.018388682261072375,0.005954198700552915,-0.04015300282302903,0.0,70.0,255.0,255.0,255.0
278,13.9,-6.560603913145568,-0.7257459588005211,-4.8708023543433,-0.2820593456263776,0.1061568143925884,-0.6670000468722304,-0.018358847838584325,0.006110529358482886,-0.03916195764412933,0.0,70.0,255.0,255.0,255.0
279,13.950000000000001,-6.574729889442558,-0.7204304960468709,-4.904201250095613,-0.28297401817697576,0.10646744833610278,-0.6689344859063695,-0.0181391876423298,0.006312676522124416,-0.03835965017353615,0.0,70.0,255.0,255.0,255.0
280,14.0,-6.588901314963265,-0.7150992139669108,-4.937695802933937,-0.28387326439061056,0.10678808204480084,-0.670836011889584,-0.017748709079512537,0.006457792147251951,-0.037935331796834504,0.0,70.0,255.0,255.0,255.0
281,14.05,-6.603117215881619,-0.7097516878423908,-4.9712848512845715,-0.284748889084927,0.10711322755082797,-0.672728019086053,-0.017213976579899537,0.006487473198424354,-0.03798080912646995,0.0,70.0,255.0,255.0,255.0
282,14.100000000000001,-6.617376203871758,-0.704387891211828,-5.004968604842542,-0.2855946620486005,0.10743682936464327,-0.674634092802231,-0.016610112962567314,0.006430753464181649,-0.03841416199144021,0.0,70.0,255.0,255.0,255.0
283,14.15,-6.631676682086479,-0.6990080049059265,-5.038748260564795,-0.28640990038118375,0.10775630289724614,-0.676569435285197,-0.01606007997301262,0.00634947754789561,-0.039059941818209154,0.0,70.0,255.0,255.0,255.0
284,14.200000000000001,-6.646017193909876,-0.6936122609221034,-5.072625548371062,-0.2872006700459018,0.10807177711943283,-0.6785400869840519,-0.01569767287055157,0.0062980342479312945,-0.0397269940810574,0.0,70.0,255.0,255.0,255.0
285,14.25,-6.66039674909107,-0.6882008271939832,-5.1066022692632,-0.2879796676682389,0.10838610632203927,-0.6805421346933027,-0.015656924845419695,0.00633918154726576,-0.04021887284606507,0.0,70.0,255.0,255.0,255.0
286,14.3,-6.6748151606767,-0.6827736502898994,-5.140679761840392,-0.28876636253044374,0.10870569527415941,-0.6825619742686584,-0.01599588040299693,0.006501808191339276,-0.04042635191252586,0.0,70.0,255.0,255.0,255.0
287,14.350000000000001,-6.689273385344114,-0.6773302576665673,-5.174858466690066,-0.2895792557085386,0.1090362871411732,-0.6845847698845553,-0.01660639036353828,0.006722787442625666,-0.0403949179756502,0.0,70.0,255.0,255.0,255.0
288,14.4,-6.703773086247554,-0.6718700215757821,-5.209138238828848,-0.29042700156679757,0.10937797401842198,-0.6866014660662234,-0.017284468632894345,0.006891560449928669,-0.040232027997078035,0.0,70.0,255.0,255.0,255.0
289,14.450000000000001,-6.718316085500794,-0.6663924602647251,-5.243518613296688,-0.29130770257182803,0.10972544318616606,-0.6886079726842631,-0.017817346983317606,0.006901899772926434,-0.04003997256987191,0.0,70.0,255.0,255.0,255.0
290,14.5,-6.732903856504737,-0.6608974772571655,-5.277999036097274,-0.29220873626512933,0.11006816399571462,-0.6906054633232106,-0.017987600862312547,0.006637509635754046,-0.03992913019841282,0.0,70.0,255.0,255.0,255.0
291,14.55,-6.747536959127307,-0.6553856438651536,-5.312579159629009,-0.2931064626580593,0.11038919414974147,-0.6926008857041044,-0.01768921509484045,0.006051494502423704,-0.03995984382960671,0.0,70.0,255.0,255.0,255.0
292,14.600000000000001,-6.762214502770543,-0.6498585578421914,-5.347259124667684,-0.2939776577746134,0.11067331344595699,-0.6946014477061713,-0.017049733509200138,0.005279868327012771,-0.040085233705422496,0.0,70.0,255.0,255.0,255.0
293,14.65,-6.776934724904768,-0.6443183125205579,-5.382039304399626,-0.2948114360089793,0.11091718098244274,-0.6966094090746466,-0.016316637569779857,0.004563348251518384,-0.04021371775548843,0.0,70.0,255.0,255.0,255.0
294,14.700000000000001,-6.791695646371441,-0.6387668397439471,-5.416920065575149,-0.29560932153159136,0.11112964827110883,-0.6986228194817201,-0.015739512622658935,0.004140427266530189,-0.04026602939184443,0.0,70.0,255.0,255.0,255.0
295,14.75,-6.806495657057927,-0.633205347693447,-5.451901586347798,-0.2963853872712452,0.11133122370909576,-0.7006360120138311,-0.015576634408986934,0.004250733289590247,-0.04016866230411864,0.0,70.0,255.0,255.0,255.0
296,14.8,-6.821334185098565,-0.6276337173730375,-5.486983666776532,-0.29716698497249006,0.11155472160006785,-0.702639685712132,-0.015953832644299837,0.0049998128664463515,-0.03988718652250256,0.0,70.0,255.0,255.0,255.0
297,14.850000000000001,-6.836212355555176,-0.6220498755334403,-5.522165554919011,-0.2979807705356752,0.1118312049957404,-0.7046247306660813,-0.01670926767465275,0.006191492163076795,-0.03946591876493599,0.0,70.0,255.0,255.0,255.0
298,14.9,-6.851132262152133,-0.6164505968734635,-5.55744613984314,-0.29883791173995533,0.11217387081637553,-0.7065862775886256,-0.017534389013107443,0.007459615308735845,-0.03899216857981003,0.0,70.0,255.0,255.0,255.0
299,14.950000000000001,-6.866096146729172,-0.6108324884518027,-5.592824182677874,-0.2997342094369859,0.11257716652661398,-0.7085239475240623,-0.01812474238622741,0.008430843375484276,-0.03855539704176181,0.0,70.0,255.0,255.0,255.0
300,15.0,-6.881105683095831,-0.6051928802208021,-5.6282985345955465,-0.30065038597857807,0.11301695515392396,-0.7104418172928018,-0.01817392676990437,0.008731585177790269,-0.03824022990892573,0.0,70.0,255.0,255.0,255.0
301,15.05,-6.8961611853270295,-0.5995307929364103,-5.663868364407154,-0.30155160211397636,0.11345032504439301,-0.7123479705149549,-0.017535081366926164,0.008182167784598349,-0.03809141008046524,0.0,70.0,255.0,255.0,255.0
302,15.100000000000001,-6.911260843307229,-0.5938478477163628,-5.699533331647042,-0.3024038941152707,0.1138351719323838,-0.7142509583008483,-0.01640037527961269,0.0070040464705378724,-0.03808838727250574,0.0,70.0,255.0,255.0,255.0
303,15.15,-6.9264015747385566,-0.5881472757431719,-5.735293460237239,-0.3031916396419376,0.1141507296914468,-0.7161568092422055,-0.015139466052715989,0.0056291462246171875,-0.038180311887714424,0.0,70.0,255.0,255.0,255.0
304,15.200000000000001,-6.941580007271423,-0.5824327747472181,-5.771149012571263,-0.3039178407205423,0.11439808655484551,-0.7180689894896197,-0.014120865152289497,0.0044955465509310955,-0.038312382441496595,0.0,70.0,255.0,255.0,255.0
305,15.25,-6.956793358810611,-0.5767074670876874,-5.807100359186201,-0.3046037261571666,0.1146002843465399,-0.7199880474863551,-0.013703602566295103,0.0040428793791180695,-0.03842640873639169,0.0,70.0,255.0,255.0,255.0
306,15.3,-6.972040379887139,-0.5709727463125641,-5.843147817319898,-0.3052882009771718,0.11480237449275732,-0.7219116303632589,-0.014066214847474612,0.0044913761350073855,-0.038487685974786245,0.0,70.0,255.0,255.0,255.0
307,15.350000000000001,-6.987322178908328,-0.5652272296384117,-5.879291522222527,-0.30601034764191404,0.11504942196004064,-0.7238368160838338,-0.015039347757994648,0.005621506103914431,-0.038501464545870334,0.0,70.0,255.0,255.0,255.0
308,15.4,-7.002641414651331,-0.55946780411656,-5.9155314989282815,-0.30679213575297126,0.11536452510314876,-0.7257617768178459,-0.0162767910662609,0.006994615643662883,-0.03848481230885881,0.0,70.0,255.0,255.0,255.0
309,15.450000000000001,-7.018001392483625,-0.5536907771280968,-5.951867699904311,-0.3076380267485401,0.11574888352440693,-0.7276852973147196,-0.017425736397402858,0.008173823567725336,-0.0384488727264376,0.0,70.0,255.0,255.0,255.0
310,15.5,-7.033405217326185,-0.5478929157641194,-5.988300028659753,-0.30853470939271155,0.1161819074599213,-0.7296066640904897,-0.018139681611106795,0.008728971897697946,-0.03840210717296344,0.0,70.0,255.0,255.0,255.0
311,15.55,-7.048854863422896,-0.5420725863821046,-6.02482836631336,-0.3094519949096508,0.11662178071417673,-0.731525508032016,-0.01823399863782882,0.008439180822206183,-0.03835113273256141,0.0,70.0,255.0,255.0,255.0
312,15.600000000000001,-7.06435041681715,-0.5362307376927017,-6.061452579462955,-0.31035810925649443,0.11702582554214191,-0.7334417773637458,-0.017811277978641016,0.007480744964649677,-0.03830575454379925,0.0,70.0,255.0,255.0,255.0
313,15.65,-7.079890674348546,-0.5303700038278905,-6.098172544049735,-0.3112331227075149,0.1173698552106417,-0.7353560834863959,-0.017103486232361576,0.0062215753499073045,-0.03828043887814658,0.0,70.0,255.0,255.0,255.0
314,15.700000000000001,-7.095473729087901,-0.5244937521716375,-6.134988187811595,-0.3120684578797306,0.11764798307713265,-0.7372698212515605,-0.01634327550421588,0.005029019318125716,-0.0382921266533387,0.0,70.0,255.0,255.0,255.0
315,15.75,-7.111097520136519,-0.5186052055201772,-6.171899526174891,-0.3128674502579365,0.11787275714245427,-0.7391852961517298,-0.01576564301632999,0.004261186410003948,-0.03836516257180733,0.0,70.0,255.0,255.0,255.0
316,15.8,-7.126760474113695,-0.5127064764573921,-6.208906717426768,-0.3136450221813636,0.11807410171813304,-0.7411063375087412,-0.01550333838791218,0.0041112478954774545,-0.03850778309439917,0.0,70.0,255.0,255.0,255.0
317,15.850000000000001,-7.142462022354655,-0.5067977953483639,-6.246010159925765,-0.3144177840967277,0.11828388193200201,-0.7430360744611697,-0.015510971563692522,0.004486469748488098,-0.03867551727756435,0.0,70.0,255.0,255.0,255.0
318,15.9,-7.158202252523368,-0.5008780882641919,-6.2832103248728846,-0.31519611933773284,0.11852274869298185,-0.7449738892364977,-0.015675511090229577,0.005168966406576825,-0.03879343217869646,0.0,70.0,255.0,255.0,255.0
319,15.950000000000001,-7.173981634288428,-0.4949455204790657,-6.320507548849415,-0.3159853352057507,0.1188007785726597,-0.7469154176790394,-0.015893562517810267,0.005943012912684731,-0.03878933394787509,0.0,70.0,255.0,255.0,255.0
320,16.0,-7.189800786043943,-0.4889980104069259,-6.3579018666407885,-0.31678547558951387,0.11911704998425032,-0.7488528226312852,-0.016057792943602323,0.0065983104342748344,-0.038589270512456864,0.0,70.0,255.0,255.0,255.0
321,16.05,-7.20566018184738,-0.48303381548064067,-6.395392831112543,-0.3175911145001109,0.11946060961608718,-0.750774344730285,-0.016106587204856027,0.0070102798103377495,-0.0381639353558505,0.0,70.0,255.0,255.0,255.0
322,16.1,-7.221559897493954,-0.4770519494453172,-6.432979301113817,-0.31839613430999947,0.1198180779652841,-0.7526692161668702,-0.01606576816719496,0.007177944805991654,-0.03759394790670001,0.0,70.0,255.0,255.0,255.0
323,16.150000000000002,-7.23749979527838,-0.47105200768411226,-6.47065975272923,-0.3191976913168304,0.12017840409668634,-0.754533739520955,-0.015992697845046422,0.007136311937566697,-0.03702490000643266,0.0,70.0,255.0,255.0,255.0
324,16.2,-7.253479666625637,-0.46503410903564857,-6.5084326750659125,-0.3199954040945041,0.12053170915904077,-0.7563717061675135,-0.01593627395850561,0.006913241385481106,-0.03660331144814677,0.0,70.0,255.0,255.0,255.0
325,16.25,-7.26949933568783,-0.4589988367682082,-6.546296923345982,-0.32079131871268096,0.12086972823523445,-0.7581940706657697,-0.01595115723693752,0.0065375532047773355,-0.03646973673028242,0.0,70.0,255.0,255.0,255.0
326,16.3,-7.285558798496905,-0.4529471362121251,-6.5842520821324895,-0.32159051981819786,0.1211854644795185,-0.7600186798405417,-0.016063599505766746,0.006039893935388951,-0.0366902750167597,0.0,70.0,255.0,255.0,255.0
327,16.35,-7.30165838766965,-0.44688029032025633,-6.622298791330036,-0.32239767866325764,0.12147371762877335,-0.7618630981674457,-0.01622595576744601,0.0054825901884714145,-0.03718421557072915,0.0,70.0,255.0,255.0,255.0
328,16.400000000000002,-7.317798566363231,-0.4407997644492478,-6.660438391949234,-0.32321311539494246,0.12173372349836564,-0.7637371013976146,-0.016353697530124833,0.0049666250040381055,-0.03779060415887159,0.0,70.0,255.0,255.0,255.0
329,16.45,-7.333979699209144,-0.43470691797041977,-6.698672501469797,-0.3240330484162701,0.12197038012917716,-0.7656421585833328,-0.01636805493498983,0.0046029959043403235,-0.03834464636689461,0.0,70.0,255.0,255.0,255.0
330,16.5,-7.350201871204858,-0.4286027264363301,-6.737002607807567,-0.32484992088844145,0.12219402308879967,-0.7675715660343041,-0.01618960608000819,0.004495486070565935,-0.03869579188968686,0.0,70.0,255.0,255.0,255.0
331,16.55,-7.366464691297988,-0.4224875156615398,-6.775429658073228,-0.32565200902427094,0.12241992873623375,-0.7695117377723015,-0.01578521523786236,0.004690657268618947,-0.03876167786387441,0.0,70.0,255.0,255.0,255.0
332,16.6,-7.382767072107285,-0.4163607335627067,-6.8139537815847975,-0.3264284424122277,0.12266308881566157,-0.7714477338206915,-0.015232180325153166,0.005127218915706999,-0.0385545977370505,0.0,70.0,255.0,255.0,255.0
333,16.650000000000002,-7.399107535539211,-0.41022120677997365,-6.852574431455297,-0.32717522705678626,0.12293265062780445,-0.7733671975460066,-0.014671579634217835,0.0056808244099593175,-0.03812727543293093,0.0,70.0,255.0,255.0,255.0
334,16.7,-7.4154845948129635,-0.40406746849992625,-6.891290501339398,-0.32789560037564947,0.1232311712566575,-0.7752604613639846,-0.014244280194830594,0.006215287817640247,-0.03753810308362304,0.0,70.0,255.0,255.0,255.0
335,16.75,-7.431897095576776,-0.3978980896543079,-6.9301004775916955,-0.3285996550762693,0.12355417940956848,-0.7771210078543689,-0.014082399794546063,0.006592483864847898,-0.036835114359146104,0.0,70.0,255.0,255.0,255.0
336,16.8,-7.4483445603205904,-0.3917120505589694,-6.969002602124835,-0.32930384035510407,0.12389041964314229,-0.7789439727998992,-0.01424933907578918,0.006737989810634559,-0.036061987886348845,0.0,70.0,255.0,255.0,255.0
337,16.85,-7.464827479612286,-0.38550904768999367,-7.007994874871685,-0.33002458898384823,0.12422797839063193,-0.7807272066430038,-0.014680847407344544,0.006692170512406781,-0.03531552867901411,0.0,70.0,255.0,255.0,255.0
338,16.900000000000002,-7.481347019218975,-0.3792892527199062,-7.047075322789135,-0.3307719250958385,0.12455963669438297,-0.7824755256678007,-0.01524362029670101,0.006545601831708936,-0.03474383723371943,0.0,70.0,255.0,255.0,255.0
339,16.95,-7.49790467212187,-0.37305308402055537,-7.086242427438465,-0.33154895101351833,0.12488253857380283,-0.7842015903663757,-0.015795337107249452,0.006389652358890219,-0.034495202370621314,0.0,70.0,255.0,255.0,255.0
340,17.0,-7.514501914320327,-0.36680099886252593,-7.125495481825773,-0.33235145880656347,0.125198601930272,-0.7859250459048628,-0.016192776093415517,0.006326559821928646,-0.03471172270126388,0.0,70.0,255.0,255.0,255.0
341,17.05,-7.531139818002527,-0.36053322382752817,-7.164834932028952,-0.3331682286228599,0.1255151945559957,-0.7876727626365021,-0.01635794127787804,0.006410157381575576,-0.03544519576603733,0.0,70.0,255.0,255.0,255.0
342,17.1,-7.547818737182613,-0.35424947940692636,-7.204262758089423,-0.3339872529343513,0.12583961766842955,-0.7894695654814665,-0.016328066410320474,0.0065831666338167505,-0.03653797286160554,0.0,70.0,255.0,255.0,255.0
343,17.150000000000002,-7.564538543295962,-0.3479492620606852,-7.243781888577098,-0.33480103526389193,0.12617351121937737,-0.7913265599226627,-0.016189463655802427,0.006738539825063006,-0.037700172834398415,0.0,70.0,255.0,255.0,255.0
344,17.2,-7.581298840709002,-0.3416321282849886,-7.2833954140816894,-0.3356061992999315,0.12651347165093585,-0.7932395827649064,-0.016028170909176964,0.006779016499680601,-0.03862933918226119,0.0,70.0,255.0,255.0,255.0
345,17.25,-7.598099163225955,-0.33529791489559163,-7.323105846853589,-0.33640385235480963,0.12685141286934543,-0.7951894938408888,-0.015938477183130573,0.0066053327913928594,-0.03903799483611081,0.0,70.0,255.0,255.0,255.0
346,17.3,-7.614939225944483,-0.3289469869980541,-7.362914363465778,-0.3372000470182446,0.12717400493007514,-0.7971433822485174,-0.01597166970537245,0.006174294415961512,-0.03878342951590952,0.0,70.0,255.0,255.0,255.0
347,17.35,-7.631819167927779,-0.3225805144025841,-7.402820185078441,-0.3380010193253469,0.12746884231094158,-0.7990678367924797,-0.01608595455069306,0.005576934514195386,-0.03798246332431532,0.0,70.0,255.0,255.0,255.0
348,17.400000000000002,-7.648739327877018,-0.3162001027669599,-7.442821147145026,-0.3388086424733139,0.12773169838149467,-0.800941628580949,-0.016200296642221446,0.004979306467178812,-0.03688642713921553,0.0,70.0,255.0,255.0,255.0
349,17.45,-7.665700032175111,-0.30980734456443465,-7.482914347936536,-0.339621048989569,0.12796677295765946,-0.8027564795064013,-0.016244893008554584,0.00454705553508683,-0.035760214793523204,0.0,70.0,255.0,255.0,255.0
350,17.5,-7.682701432775975,-0.303403425471194,-7.523096795095666,-0.34043313177416934,0.12818640393500336,-0.8045176500603013,-0.016157371118463715,0.004444090364369435,-0.0348603072781728,0.0,70.0,255.0,255.0,255.0
351,17.55,-7.699743345352528,-0.2969887041709343,-7.563366112942566,-0.3412367861014154,0.1284111819940964,-0.8062425102342186,-0.015908293654032235,0.004746464488375457,-0.0343333472423879,0.0,70.0,255.0,255.0,255.0
352,17.6,-7.716825111386116,-0.29056230727178434,-7.603721046119088,-0.34202396113957256,0.1286610503838409,-0.8079509847845401,-0.015529886948062455,0.005344619785013771,-0.034164901114586144,0.0,70.0,255.0,255.0,255.0
353,17.650000000000002,-7.733945741466485,-0.2841225991325502,-7.64416121142102,-0.34278977479622164,0.12894564397259778,-0.8096590003456772,-0.01508841737427602,0.006027870669916835,-0.03428306965771455,0.0,70.0,255.0,255.0,255.0
354,17.7,-7.7511040888657385,-0.27766774287452456,-7.684686946153656,-0.34353280287700017,0.12926383745083259,-0.8113792917503115,-0.014651744236093833,0.00657998746714239,-0.034615489288736256,0.0,70.0,255.0,255.0,255.0
355,17.75,-7.768299021754185,-0.27119621538746697,-7.725299140596051,-0.344254949219831,0.12960364271931202,-0.8131205492745508,-0.014276047667305392,0.006782315075060108,-0.03508478537410653,0.0,70.0,255.0,255.0,255.0
356,17.8,-7.785529583787722,-0.26470737860259336,-7.765999001081111,-0.3449604076437307,0.1299420689583386,-0.8148877702877222,-0.013995155678614424,0.006526560917247126,-0.03563143326212881,0.0,70.0,255.0,255.0,255.0
357,17.85,-7.802795062518558,-0.2582020084916331,-7.806787917624823,-0.34565446478769246,0.13025629881103673,-0.8166836926007637,-0.013831793693874772,0.005929994271255956,-0.03619802545919981,0.0,70.0,255.0,255.0,255.0
358,17.900000000000002,-7.820095030266491,-0.2516817487214897,-7.847667370341187,-0.3463435870131182,0.1305350683854642,-0.8185075728336422,-0.01380873782368397,0.005223802927817323,-0.03669868350835159,0.0,70.0,255.0,255.0,255.0
359,17.95,-7.83742942121987,-0.2451485016530867,-7.888638674908187,-0.34703533857006086,0.13077867910381846,-0.8203535609515988,-0.013941416760232528,0.0046395680228378255,-0.03703265322529958,0.0,70.0,255.0,255.0,255.0
360,18.0,-7.854798564123497,-0.23860388081110784,-7.929702726436347,-0.34773772868914143,0.13099902518774797,-0.8222108381561721,-0.014242400915787101,0.004410612039262851,-0.03710451392882064,0.0,70.0,255.0,255.0,255.0
361,18.05,-7.872203194088784,-0.2320485991343119,-7.970859758723805,-0.34845957866163957,0.13121974030774475,-0.8240640123444809,-0.014705395986425174,0.0046538652692079685,-0.03687369360170223,0.0,70.0,255.0,255.0,255.0
362,18.1,-7.889644521989661,-0.22548190678033336,-8.012109127670795,-0.34920826828778395,0.13146441171466877,-0.8258982075163424,-0.015262099116508665,0.005249995204645308,-0.036407472574051525,0.0,70.0,255.0,255.0,255.0
363,18.150000000000002,-7.907124020917562,-0.218902157962845,-8.053449579475439,-0.34998578857329044,0.13174473982820928,-0.827704759601886,-0.015795792169903677,0.005962325544286995,-0.035838559945844395,0.0,70.0,255.0,255.0,255.0
364,18.2,-7.92464310084699,-0.21230743279751244,-8.094879603630984,-0.3507878475047743,0.13206064426909747,-0.8294820635109268,-0.016183614362574872,0.006555167014876684,-0.035313384988633345,0.0,70.0,255.0,255.0,255.0
365,18.25,-7.94220280566804,-0.20569609353593526,-8.136397785826532,-0.3516041500095479,0.13240025652969695,-0.8312360981007494,-0.016310339345082525,0.00679127406386093,-0.03498517755797792,0.0,70.0,255.0,255.0,255.0
366,18.3,-7.959803515847945,-0.19906740714454274,-8.178003213441059,-0.35241888143928257,0.13273977167548356,-0.8329805812667246,-0.01612274755604659,0.006551404579333009,-0.03493327951122893,0.0,70.0,255.0,255.0,255.0
367,18.35,-7.977444693811968,-0.1924221163683869,-8.219695843953204,-0.3532164247651526,0.13305539698763025,-0.8347294260518723,-0.015684285365669126,0.005955432835647034,-0.035088447881470586,0.0,70.0,255.0,255.0,255.0
368,18.400000000000002,-7.99512515832446,-0.18576186744577972,-8.261476156046246,-0.3539873099758495,0.13333531495904827,-0.8364894260548716,-0.015124457132742464,0.0052414869696981725,-0.03531155223193139,0.0,70.0,255.0,255.0,255.0
369,18.45,-8.012843424809553,-0.17908858487248208,-8.303344786558691,-0.3547288704784268,0.13357954568460007,-0.8382605812750654,-0.014583612967911108,0.004646337344166307,-0.03546672057268552,0.0,70.0,255.0,255.0,255.0
370,18.5,-8.030598045372303,-0.1724039128773197,-8.345302214173753,-0.3554456712726406,0.1337999486934649,-0.8400360981121402,-0.01420426035183553,0.004408254409193901,-0.03541482245950078,0.0,70.0,255.0,255.0,255.0
371,18.55,-8.048387991936817,-0.1657085900031356,-8.387348396369905,-0.3561492965136104,0.13402037112551946,-0.8418020635210155,-0.014063100969075037,0.0046470898400291505,-0.03508661492759302,0.0,70.0,255.0,255.0,255.0
372,18.6,-8.066212975023664,-0.15900187576476776,-8.429482420525854,-0.3568519813695481,0.1342646576774678,-0.8435447596048995,-0.014117123057566516,0.005242865527424478,-0.03456143986255711,0.0,70.0,255.0,255.0,255.0
373,18.650000000000002,-8.084073190073772,-0.1522821242353888,-8.471702872330395,-0.35756100881936703,0.1345446576782619,-0.8452582075072712,-0.014270854823550394,0.005957134502382333,-0.03399252716320689,0.0,70.0,255.0,255.0,255.0
374,18.7,-8.1019690759056,-0.14554740999694157,-8.514008241276581,-0.35827906685190314,0.13486037112770605,-0.8469440123212202,-0.014428134232247203,0.0065529101818007085,-0.03352630614816832,0.0,70.0,255.0,255.0,255.0
375,18.75,-8.119901096758962,-0.1387960871226182,-8.556397273562517,-0.35900382224259175,0.13519994869644197,-0.848610838122088,-0.014480637895353254,0.006791745595344234,-0.03329548598394183,0.0,70.0,255.0,255.0,255.0
376,18.8,-8.13786945812986,-0.13202741512729738,-8.59886932508879,-0.35972713064143846,0.13553954568724047,-0.8502735609196144,-0.014372074674184887,0.006553662633995705,-0.03336734702443778,0.0,70.0,255.0,255.0,255.0
377,18.85,-8.155873809823106,-0.12524213255389416,-8.641424629654479,-0.36044102971001024,0.13585531495984154,-0.8519475728245318,-0.014168154805282995,0.005958512980112907,-0.033701317144441134,0.0,70.0,255.0,255.0,255.0
378,18.900000000000002,-8.17391356110086,-0.11844188363131322,-8.684064082371243,-0.36114394612196676,0.13613539698525176,-0.8536436926340585,-0.01399035201199439,0.005244567095426256,-0.03420197547949755,0.0,70.0,255.0,255.0,255.0
379,18.95,-8.191988204435303,-0.11162859285536898,-8.726788998917884,-0.3618400649112097,0.13637977166938417,-0.8553677703724816,-0.013950936350681786,0.004648595355150054,-0.034768567654630544,0.0,70.0,255.0,255.0,255.0
380,19.0,-8.210097567591982,-0.1048039064643748,-8.769600859408492,-0.36253903975703494,0.13660025652076677,-0.8571205493995215,-0.01416913212199944,0.004408725913318534,-0.03531521495698797,0.0,70.0,255.0,255.0,255.0
381,19.05,-8.228242108411006,-0.0979685672032923,-8.812501053857837,-0.3632569781234096,0.13682064426071602,-0.8588992918681804,-0.014695686580701306,0.004644833050571062,-0.03578450979517811,0.0,70.0,255.0,255.0,255.0
382,19.1,-8.246423265404323,-0.0911218420383032,-8.85549078859531,-0.3640086084151051,0.13706473982582387,-0.8606990003790393,-0.015408486159351753,0.005237674626752675,-0.03611692792304666,0.0,70.0,255.0,255.0,255.0
383,19.150000000000002,-8.264642969252517,-0.08426209322070992,-8.89857095389574,-0.3647978267393448,0.1373444117233913,-0.862510984660485,-0.016088669530844868,0.005950005041391315,-0.036235095393166716,0.0,70.0,255.0,255.0,255.0
384,19.200000000000003,-8.282903048078257,-0.07738740086596407,-8.941741887061358,-0.36561747536818956,0.137659740329963,-0.864322509918356,-0.016522059760148977,0.006546134971051332,-0.036066649339971946,0.0,70.0,255.0,255.0,255.0
385,19.25,-8.301204716789336,-0.07049611918771362,-8.985003204887576,-0.3664500327153597,0.13799902522049642,-0.8661176495944822,-0.016502880235158557,0.006789388047358791,-0.03553969148626379,0.0,70.0,255.0,255.0,255.0
386,19.3,-8.319548051349793,-0.06358749834391443,-9.028353652020806,-0.3672677633917054,0.13833867913469888,-0.8678764790669824,-0.015937579934544033,0.006560431737104855,-0.034639788620793865,0.0,70.0,255.0,255.0,255.0
387,19.35,-8.337931493128506,-0.05666225127424373,-9.071790852794274,-0.3680437907088141,0.1386550683942069,-0.8695816284565616,-0.014964147643325987,0.0059761964383045485,-0.03351358188439235,0.0,70.0,255.0,255.0,255.0
388,19.400000000000002,-8.356352430420674,-0.04972199150449374,-9.115311814866462,-0.368764178156038,0.13893629877852934,-0.8712278372554216,-0.013850401100334864,0.005270004813657525,-0.03241754970684241,0.0,70.0,255.0,255.0,255.0
389,19.450000000000003,-8.37480791094411,-0.042768621396390795,-9.158913636519816,-0.3694288308188476,0.13918206887557266,-0.8728233834272459,-0.012873085681341934,0.004673438187235146,-0.031616583238047724,0.0,70.0,255.0,255.0,255.0
390,19.5,-8.39329531350256,-0.03580378461693647,-9.202594153209187,-0.3700514867241722,0.13940364259725285,-0.8743894955792264,-0.012299346936828215,0.004417684601140115,-0.03136200977547077,0.0,70.0,255.0,255.0,255.0
391,19.55,-8.411813059616527,-0.028828257136665508,-9.24635258607774,-0.3706587655125304,0.13962383733568667,-0.8759595844047929,-0.012267280393807312,0.0046200134275184435,-0.03177064807626806,0.0,70.0,255.0,255.0,255.0
392,19.6,-8.430361190053812,-0.021841400883367803,-9.290190111649666,-0.37127821476355294,0.1398656439400047,-0.8775665603868532,-0.012686811380113738,0.005172131694627102,-0.03269979348878849,0.0,70.0,255.0,255.0,255.0
393,19.650000000000002,-8.448940881092883,-0.014841692742665037,-9.334109242116424,-0.3719274466505418,0.14014105050514938,-0.8792295637536718,-0.013357837957705954,0.0058553836294650274,-0.033861978506699586,0.0,70.0,255.0,255.0,255.0
394,19.700000000000003,-8.467553934718866,-0.007827295832852865,-9.378113068025034,-0.37261399855932353,0.1404511823029512,-0.8809527582375232,-0.014072310799839727,0.006453538853487817,-0.03495475663637393,0.0,70.0,255.0,255.0,255.0
395,19.75,-8.486202280948815,-0.0007965745123699154,-9.422204517940177,-0.37333467773052575,0.14078640439049817,-0.8827250394173092,-0.01461973201610789,0.006755910844045698,-0.035688260087063384,0.0,70.0,255.0,255.0,255.0
396,19.8,-8.504887402491919,0.006251344606196953,-9.466385571966764,-0.3740759717609343,0.14112677338735577,-0.8845215842462295,-0.014881037419200993,0.006652941126171763,-0.03590484518234405,0.0,70.0,255.0,255.0,255.0
397,19.85,-8.523609878124908,0.013316102826365663,-9.5106566763648,-0.37482278147244585,0.14145169850311534,-0.8863155239355436,-0.014893175602459507,0.006220684708596602,-0.03565628844945934,0.0,70.0,255.0,255.0,255.0
398,19.900000000000002,-8.542369680639164,0.02039651445650849,-9.555017124360319,-0.3755652893211803,0.14174884185821543,-0.8880872130911754,-0.014751999983353414,0.005623052743155554,-0.03508465281516493,0.0,70.0,255.0,255.0,255.0
399,19.950000000000003,-8.561166407057026,0.027490987012187208,-9.599465397673917,-0.3762979814707812,0.1420140037774309,-0.8898239892170601,-0.014545270184385117,0.005025693112170326,-0.03433818975082659,0.0,70.0,255.0,255.0,255.0
400,20.0,-8.579999478786242,0.03459791483425158,-9.643999523282025,-0.3770198163396188,0.14225141116943246,-0.8915210320662581,-0.014361678377206033,0.00459466269860237,-0.03356494987620806,0.0,70.0,255.0,255.0,255.0
401,20.05,-8.598868388690988,0.041716128129130454,-9.688617500880543,-0.3777341493085018,0.14247347004729113,-0.8931804842046809,-0.014254630537102742,0.004420995960484064,-0.032861719445698157,0.0,70.0,255.0,255.0,255.0
402,20.1,-8.617772893717092,0.04884526183898069,-9.733317571702493,-0.37844527939332906,0.14269351076548087,-0.8948072040108279,-0.014219553809802221,0.00446149310734667,-0.032272255510612524,0.0,70.0,255.0,255.0,255.0
403,20.150000000000002,-8.636712916630321,0.05598547920567854,-9.778098221281626,-0.379156104689482,0.1429196193580258,-0.8964077097557421,-0.014235933670470047,0.004616880922471978,-0.031844724918705936,0.0,70.0,255.0,255.0,255.0
404,20.200000000000003,-8.65568850418604,0.06313722377478327,-9.822958342678067,-0.37986887276037606,0.14315519885772807,-0.8979916765026985,-0.014292808927329759,0.0047898891641001695,-0.03163765918632322,0.0,70.0,255.0,255.0,255.0
405,20.25,-8.674699803906359,0.07030099909145135,-9.867897388931896,-0.380585385582215,0.14339860827443582,-0.8995714756743745,-0.014385582446863054,0.004873457009498816,-0.03170396838001466,0.0,70.0,255.0,255.0,255.0
406,20.3,-8.693747042744262,0.07747708460222685,-9.912915490245505,-0.38130743100506237,0.14364254455867795,-0.9011620733407,-0.014507153721687871,0.004810301139031303,-0.03205601596167895,0.0,70.0,255.0,255.0,255.0
407,20.35,-8.712830547006865,0.08466525354731914,-9.958013596265966,-0.3820361009543838,0.14387963838833895,-0.9027770772705423,-0.014628609158506833,0.004654275262944152,-0.03261114638313245,0.0,70.0,255.0,255.0,255.0
408,20.400000000000002,-8.7319506528397,0.09186504844106075,-10.003193197972559,-0.38277029192091305,0.14410797208497236,-0.9044231879790132,-0.014704265332987632,0.0045076520052811375,-0.03321831231204442,0.0,70.0,255.0,255.0,255.0
409,20.450000000000003,-8.751107576198956,0.09907605075581638,-10.048455915063867,-0.38350652748768255,0.14433040358886706,-0.9060989085017468,-0.014690207392575871,0.004461836478589221,-0.03371219914747314,0.0,70.0,255.0,255.0,255.0
410,20.5,-8.770301305588468,0.10629808879994745,-10.093803088822733,-0.38423931266017064,0.14455415573283129,-0.9077944078937605,-0.014548019807669732,0.004607453319270538,-0.03393115795660151,0.0,70.0,255.0,255.0,255.0
411,20.55,-8.789531507464973,0.11353146632909951,-10.139235355853243,-0.3849613294684495,0.14479114892079412,-0.9094920242974069,-0.014262955043520265,0.004984885730388577,-0.03379421670537397,0.0,70.0,255.0,255.0,255.0
412,20.6,-8.808797438535313,0.12077720369202687,-10.184752291252474,-0.38566560816452267,0.14505264430587014,-0.9111738295642979,-0.013867781119003553,0.005519634279110841,-0.03336856688100909,0.0,70.0,255.0,255.0,255.0
413,20.650000000000002,-8.828098068281426,0.12803673075968652,-10.230352738809673,-0.3863481075803499,0.1453431123487052,-0.9128288809855079,-0.01342607259591233,0.006073443457425831,-0.032796617907315806,0.0,70.0,255.0,255.0,255.0
414,20.700000000000003,-8.847432249293348,0.13531151492689739,-10.276035179351025,-0.3870082154241139,0.14565998865161273,-0.9144534913550295,-0.013005848680336385,0.006509991028837148,-0.0322268309382423,0.0,70.0,255.0,255.0,255.0
415,20.75,-8.866798889823837,0.1426027296248478,-10.321798087945176,-0.3876486924483835,0.14599411145158891,-0.9160515640793321,-0.012666347645229337,0.006704748361358037,-0.0318073904715277,0.0,70.0,255.0,255.0,255.0
416,20.8,-8.886197118538187,0.14991092607205628,-10.367640335758958,-0.38827485018863683,0.14633046348774853,-0.9176342304021823,-0.0124410261044261,0.006596356405530468,-0.03161989110793684,0.0,70.0,255.0,255.0,255.0
417,20.85,-8.9056263748427,0.15723577597362265,-10.413561510985394,-0.3888927950588261,0.14665374709214196,-0.9192135531901258,-0.012337562405129177,0.006231663145106481,-0.03163094972791214,0.0,70.0,255.0,255.0,255.0
418,20.900000000000002,-8.92508639804407,0.16457630078127047,-10.45956169107797,-0.38950860642914975,0.14695362980225918,-0.9207973253749735,-0.012354148246274121,0.005714937801443165,-0.03175969158366598,0.0,70.0,255.0,255.0,255.0
419,20.950000000000003,-8.944577235485616,0.17193113895384857,-10.505641243522891,-0.39012820988345354,0.14722524087228628,-0.9223895223484924,-0.012479684597010987,0.005157686585594012,-0.031926677566218586,0.0,70.0,255.0,255.0,255.0
420,21.0,-8.964099219032414,0.1792988248684991,-10.55180064331282,-0.39075657488885085,0.14746939846081858,-0.9239899931315954,-0.01269055231460925,0.004661571883257665,-0.03204729880668111,0.0,70.0,255.0,255.0,255.0
421,21.05,-8.9836528929745,0.18667807879993042,-10.598040242836051,-0.39139726511491446,0.14769139806061204,-0.9255942522291605,-0.012967252894213743,0.004289175826918679,-0.0320734449694271,0.0,70.0,255.0,255.0,255.0
422,21.1,-9.003238945543906,0.1940679646745603,-10.644360068535736,-0.3920533001782722,0.14789831604351045,-0.9271973376285381,-0.01330113010169498,0.004070076776840903,-0.032028566607422704,0.0,70.0,255.0,255.0,255.0
423,21.150000000000002,-9.022858222992328,0.20146791040428147,-10.690759976598905,-0.39272737812508396,0.14809840573829613,-0.9287971088899027,-0.013676495257719523,0.004031280861327424,-0.03196284419733075,0.0,70.0,255.0,255.0,255.0
424,21.200000000000003,-9.042511683356414,0.20887780524838992,-10.737239779424726,-0.3934209497040442,0.1483014441296432,-0.9303936220482711,-0.014069725284571177,0.004198749808317914,-0.031920258331119555,0.0,70.0,255.0,255.0,255.0
425,21.25,-9.062200317962732,0.2162980548172458,-10.783799338803732,-0.3941343506535411,0.14851828071912793,-0.9319891347230147,-0.014475405801483987,0.004604954781564641,-0.03195138632907657,0.0,70.0,255.0,255.0,255.0
426,21.3,-9.081925118421768,0.2237296333203027,-10.830438692897028,-0.3948684902841926,0.14876193960779965,-0.9335887606811788,-0.01488324903267113,0.005247965927762666,-0.03207961572666562,0.0,70.0,255.0,255.0,255.0
427,21.35,-9.101687166991152,0.23117424877802575,-10.87715821487185,-0.3956226755568082,0.1490430773119042,-0.9351970962956813,-0.015220621150291436,0.006007190586679312,-0.032254783842056156,0.0,70.0,255.0,255.0,255.0
428,21.400000000000002,-9.12148738597745,0.23863394105149313,-10.923958402526596,-0.3963905523992217,0.14936265866646758,-0.9368142390653844,-0.015377166759300565,0.006679099592499238,-0.032388931627913564,0.0,70.0,255.0,255.0,255.0
429,21.450000000000003,-9.141326222231074,0.2461105146446725,-10.970839638778388,-0.39716039223273825,0.14971098727115412,-0.9384359894584726,-0.01525484083710893,0.007055053108936948,-0.03239900239666582,0.0,70.0,255.0,255.0,255.0
430,21.5,-9.161203425200723,0.25360503977860854,-11.017802001472443,-0.3979160364829326,0.15006816397736128,-0.940054139305051,-0.01475588974759745,0.006926627638423333,-0.03219918384829157,0.0,70.0,255.0,255.0,255.0
431,21.55,-9.181117825879367,0.26111733104240864,-11.064845052708893,-0.398635981207498,0.15040365003499645,-0.9416559078433018,-0.013851639088180434,0.006204648107629995,-0.031754292589525335,0.0,70.0,255.0,255.0,255.0
432,21.6,-9.201067023321473,0.2686454047821082,-11.111967592256773,-0.39930120039175065,0.15068862878812428,-0.9432295685640035,-0.012698996020432674,0.005067407962677795,-0.03115406958595912,0.0,70.0,255.0,255.0,255.0
433,21.650000000000002,-9.221047945918542,0.27618619392122107,-11.159168009565294,-0.39990588080954126,0.15091039083126423,-0.9447713148018977,-0.011574744464226683,0.0038477520042434765,-0.030560496890608135,0.0,70.0,255.0,255.0,255.0
434,21.700000000000003,-9.241057611402427,0.2837364438652346,-11.206444723736963,-0.4004586748381733,0.15107340398854863,-0.9462856182530643,-0.010762659617213899,0.0028865855415449726,-0.030136505975519867,0.0,70.0,255.0,255.0,255.0
435,21.75,-9.26109381340236,0.29129353432007593,-11.2537965713906,-0.40098214677126265,0.15119904938541873,-0.9477849653994497,-0.010537025884183038,0.0025165066925958435,-0.03004385962928069,0.0,70.0,255.0,255.0,255.0
436,21.8,-9.281155826079553,0.2988563488037765,-11.301223220276908,-0.4015123774265916,0.1513250546578082,-0.9492900042159924,-0.011024506971857306,0.0029005278887273,-0.030357013449844317,0.0,70.0,255.0,255.0,255.0
437,21.85,-9.301245051145019,0.30642603978585675,-11.3487255718122,-0.4020845974684484,0.15148910217429146,-0.9508206667444341,-0.012054443718945151,0.0038732941127106457,-0.03096446228987304,0.0,70.0,255.0,255.0,255.0
438,21.900000000000002,-9.321364285826398,0.31400525902120563,-11.396305286951351,-0.40271782179848614,0.15171238406907928,-0.9523864504449797,-0.013291128107439931,0.00509893667967054,-0.03165271717211482,0.0,70.0,255.0,255.0,255.0
439,21.950000000000003,-9.341516833324867,0.3215972781927647,-11.443964216856697,-0.4034137102791924,0.1519989958422585,-0.9539859384616456,-0.014382259622713889,0.0062325441189226005,-0.0322021998096389,0.0,70.0,255.0,255.0,255.0
440,22.0,-9.361705656854317,0.3292051586054315,-11.491703880797516,-0.40415604776075753,0.15233563848097154,-0.9556066704259436,-0.014971997393864456,0.006935364239141206,-0.032389386959508215,0.0,70.0,255.0,255.0,255.0
441,22.05,-9.381932438100943,0.33683084204086183,-11.539524883899292,-0.4049109100185788,0.15269253226617263,-0.9572248771575964,-0.014877559131853957,0.007027179731328159,-0.03210436689577989,0.0,70.0,255.0,255.0,255.0
442,22.1,-9.402196747856175,0.34447441183204874,-11.587426368513276,-0.4056438036739429,0.15303835645410435,-0.9588171071155216,-0.014252273393466908,0.0066084598755011825,-0.03147348917913462,0.0,70.0,255.0,255.0,255.0
443,22.150000000000002,-9.422496818468337,0.35213467768627227,-11.635406594610844,-0.4063361373579255,0.15335337825372275,-0.9603722260755099,-0.013410859653895102,0.005906617827200478,-0.030743226496277032,0.0,70.0,255.0,255.0,255.0
444,22.200000000000003,-9.442830361591968,0.359809749657421,-11.683463591120827,-0.40698488963933244,0.1536290182368244,-0.9618914297651493,-0.01266867485174572,0.005150324229930003,-0.030161268212935965,0.0,70.0,255.0,255.0,255.0
445,22.25,-9.46319530743227,0.3674975795099547,-11.731595737587359,-0.4076030048431001,0.15386841067671575,-0.9633883528968035,-0.012350928598081623,0.0045700083788347,-0.029982555238206032,0.0,70.0,255.0,255.0,255.0
446,22.3,-9.483590662076278,0.3751965907250926,-11.779802426410507,-0.4082199824991406,0.15408601907470787,-0.9648896852889699,-0.012624603819766378,0.00429630097142919,-0.0303320923928041,0.0,70.0,255.0,255.0,255.0
447,22.35,-9.504017305682185,0.3829061814174255,-11.828084706116256,-0.4088654652250767,0.15429804077385867,-0.9664215621360839,-0.013330122381205456,0.0042882976206803924,-0.031056173066446036,0.0,70.0,255.0,255.0,255.0
448,22.400000000000002,-9.524477208598785,0.39062639480247846,-11.876444582624115,-0.40955299473726114,0.1545148488367759,-0.9679953025956145,-0.014152612763673744,0.004440839097813454,-0.03185978476949458,0.0,70.0,255.0,255.0,255.0
449,22.450000000000003,-9.54497260515591,0.3983576663011031,-11.924884236375817,-0.4102807265014441,0.15474212468364001,-0.9696075406130333,-0.01478938129562124,0.004658559893816472,-0.03245286719941731,0.0,70.0,255.0,255.0,255.0
450,22.5,-9.56550528124893,0.40610060727084246,-11.973405336685419,-0.41103193286682327,0.15498070482615756,-0.9712405893155562,-0.014944381454817801,0.004844648865592882,-0.032548457355829896,0.0,70.0,255.0,255.0,255.0
451,22.55,-9.586075798442593,0.41385573678371884,-12.022008295307373,-0.4117751646469259,0.1552265895701993,-0.9728623863486163,-0.01447036591528672,0.004941555776827311,-0.03200689057081263,0.0,70.0,255.0,255.0,255.0
452,22.6,-9.606682797713622,0.4216232662278624,-12.07069157532028,-0.41247896945835194,0.1554748604038403,-0.9744412783726375,-0.01351441656769481,0.00495928204264362,-0.030988998040903937,0.0,70.0,255.0,255.0,255.0
453,22.650000000000002,-9.627323695388428,0.42940322282410287,-12.119452423144637,-0.41312660630369535,0.15572251777446366,-0.9759612861527067,-0.012372348965072888,0.00492825421987142,-0.029811294102088937,0.0,70.0,255.0,255.0,255.0
454,22.700000000000003,-9.647995458343992,0.43719551800530876,-12.168287703935551,-0.41371620435485923,0.15596768582582743,-0.9774224077828464,-0.011339860572157079,0.004869235728716115,-0.028793323597042786,0.0,70.0,255.0,255.0,255.0
455,22.75,-9.668695315823914,0.4449999914066856,-12.217194663922921,-0.41426059236091106,0.15620944134733528,-0.978840618512411,-0.010699517611634235,0.0047993681866587146,-0.02825158736570188,0.0,70.0,255.0,255.0,255.0
456,22.8,-9.689421517580083,0.4528164621400423,-12.266171765786792,-0.41478615611602265,0.1564476226444933,-0.9802475665194166,-0.010600505945035366,0.004730762634458374,-0.028346918748312078,0.0,70.0,255.0,255.0,255.0
457,22.85,-9.710173931435516,0.46064475367113494,-12.315219420574863,-0.4153206429554146,0.1566825176107811,-0.9816753103872422,-0.0109640994585547,0.004674574208768378,-0.028939722881560215,0.0,70.0,255.0,255.0,255.0
458,22.900000000000002,-9.730953581875625,0.4684847139011204,-12.364339296825516,-0.4158825660618781,0.15691508006537014,-0.9831415388075726,-0.011606103265293655,0.004646144022735221,-0.029743150713024136,0.0,70.0,255.0,255.0,255.0
459,22.950000000000003,-9.751762188041704,0.47633626167767196,-12.41353357445562,-0.41648125328194396,0.15714713201305464,-0.9846496254585446,-0.012337889704028271,0.004664497191381178,-0.030467264985922782,0.0,70.0,255.0,255.0,255.0
460,23.0,-9.772601707203819,0.48419942710242586,-12.46280425937137,-0.41711635503228095,0.15738152978450826,-0.9861882653061649,-0.012977548098724867,0.004757878387734449,-0.030817221150059027,0.0,70.0,255.0,255.0,255.0
461,23.05,-9.793473823544932,0.4920744146561228,-12.512152400986237,-0.41777900809181645,0.15762291985182808,-0.9877313475735505,-0.0134153492306055,0.004935393685256972,-0.03063937382865589,0.0,70.0,255.0,255.0,255.0
462,23.1,-9.814379608013,0.49996171908760867,-12.561577394128726,-0.4184578899553415,0.15787506915303395,-0.9892522026890305,-0.013633754362452066,0.005142421122300567,-0.030058450761139,0.0,70.0,255.0,255.0,255.0
463,23.150000000000002,-9.835319612540466,0.5078619215714262,-12.61107762125514,-0.41914238352806166,0.15813716196405814,-0.9907371926496644,-0.013636990888166167,0.005287169689272009,-0.029328923561244835,0.0,70.0,255.0,255.0,255.0
464,23.200000000000003,-9.856293846365807,0.5157754352840145,-12.660651113393692,-0.4198215890441581,0.15840378612196115,-0.992185095045155,-0.013422892966552524,0.005279488792486742,-0.02869798942057855,0.0,70.0,255.0,255.0,255.0
465,23.25,-9.877301771444882,0.5237023001836223,-12.710296130759655,-0.4204846728247169,0.1586651108433068,-0.9936069915917223,-0.012982271346295704,0.005021146234396312,-0.028411462762534256,0.0,70.0,255.0,255.0,255.0
466,23.3,-9.898342313648278,0.5316419463683452,-12.760011812552865,-0.4211198161787877,0.15890590074540079,-0.9950262413214084,-0.012330358204160063,0.004473863090637131,-0.02859544607520803,0.0,70.0,255.0,255.0,255.0
467,23.35,-9.919413753062761,0.5395928902581624,-12.809798754891796,-0.4217177086451329,0.15911249715237052,-0.9964665361992431,-0.011581722252174131,0.0037575128637556965,-0.0291410661505509,0.0,70.0,255.0,255.0,255.0
468,23.400000000000002,-9.940514084512792,0.5475531960835822,-12.859658466172789,-0.4222779884040051,0.15928165203177636,-0.9979403479364635,-0.010926772342045865,0.003084244819362425,-0.02982656296950381,0.0,70.0,255.0,255.0,255.0
469,23.450000000000003,-9.961641551903162,0.55552105546134,-12.909592789685442,-0.4228103858793375,0.15942092163430677,-0.9994491924961935,-0.010562799500846154,0.0026636082448128207,-0.030434203906004598,0.0,70.0,255.0,255.0,255.0
470,23.5,-9.982795123100725,0.5634952882470129,-12.959603385422408,-0.4233342683540897,0.15954801285625764,-1.000983768327064,-0.010685347868744088,0.002697490054603957,-0.030752965093583384,0.0,70.0,255.0,255.0,255.0
471,23.55,-10.00397497873857,0.5714758567469658,-13.009691166518149,-0.4238789206662119,0.15969067063976716,-1.0025244890055518,-0.011377530307576933,0.0032767530196875505,-0.030672268442089035,0.0,70.0,255.0,255.0,255.0
472,23.6,-10.025183015167347,0.5794643553109896,-13.059855834322963,-0.4244720213848474,0.1598756881582264,-1.0040509951712728,-0.012473109542554539,0.004261280336370632,-0.030262692562565974,0.0,70.0,255.0,255.0,255.0
473,23.650000000000002,-10.046422180877055,0.5874634255627884,-13.110096266035276,-0.42512623162046737,0.16011679867340423,-1.0055507582618084,-0.013660488508371316,0.00538041979795123,-0.029679416636874123,0.0,70.0,255.0,255.0,255.0
474,23.700000000000003,-10.067695638329393,0.59547603517833,-13.160410910149144,-0.42583807023568454,0.16041373013802152,-1.0070189368349602,-0.014620361244865876,0.006353817156079522,-0.029078481669131406,0.0,70.0,255.0,255.0,255.0
475,23.75,-10.089005987900624,0.6035047985765906,-13.210798159718772,-0.42658826774495395,0.16075218038901218,-1.0084586064287215,-0.015048365151137943,0.006908893547119543,-0.0286126675385745,0.0,70.0,255.0,255.0,255.0
476,23.8,-10.110354465103889,0.6115512532172312,-13.261256770792016,-0.42734290675079833,0.16110461949273347,-1.0098802035888177,-0.014792434319055303,0.0069058381172326655,-0.02836825404823884,0.0,70.0,255.0,255.0,255.0
477,23.85,-10.131740278575704,0.6196152605258639,-13.311786180077654,-0.4280675111768595,0.16144276420073544,-1.0112954318335454,-0.013975723027570552,0.006445477678906908,-0.02832452723566803,0.0,70.0,255.0,255.0,255.0
478,23.900000000000002,-10.153161216221575,0.6276955296373048,-13.362386313975371,-0.4287404790535554,0.16174916726062416,-1.0127126563123845,-0.012862229334942299,0.005745964100833945,-0.028420246009375205,0.0,70.0,255.0,255.0,255.0
479,23.950000000000003,-10.17461432648106,0.6357901772519263,-13.413057445708892,-0.4293537341103537,0.16201736061081884,-1.014137456434483,-0.01172852941238034,0.005034409844162369,-0.028598069882690424,0.0,70.0,255.0,255.0,255.0
480,24.0,-10.19609658963261,0.6438972656983867,-13.46380005961882,-0.4299133319947934,0.1622526082450404,-1.0155724633006535,-0.010845200851150594,0.004546935756755133,-0.02880438339971647,0.0,70.0,255.0,255.0,255.0
481,24.05,-10.217605659680538,0.6520154380764304,-13.514614692038958,-0.4304382541954688,0.16247205418649435,-1.0170178947744546,-0.010364993488209961,0.004412155583566335,-0.029001941473083548,0.0,70.0,255.0,255.0,255.0
482,24.1,-10.239140415052157,0.6601444711170361,-13.565501849096265,-0.4309498313436144,0.16269382380339703,-1.018472657447962,-0.010256725618162932,0.004552240183530731,-0.029160130895178327,0.0,70.0,255.0,255.0,255.0
483,24.150000000000002,-10.2607006428149,0.6682848204567701,-13.616461957783754,-0.43146392675728507,0.16292727820484743,-1.0199339078639724,-0.010419545201401093,0.00480197088511547,-0.029237827764028168,0.0,70.0,255.0,255.0,255.0
484,24.200000000000003,-10.282286807727886,0.6764371989375209,-13.667495239882662,-0.43199178586375453,0.16317402089190858,-1.0213964402243647,-0.01075120875242419,0.005007657686451061,-0.02918975161971815,0.0,70.0,255.0,255.0,255.0
485,24.25,-10.303899821401275,0.6846022225459609,-13.71860160180619,-0.4325390476325275,0.16342804397349253,-1.0228528830259442,-0.011134840767290655,0.005015438017708096,-0.028969798861844254,0.0,70.0,255.0,255.0,255.0
486,24.3,-10.325540712491138,0.6927800033348701,-13.769780528185256,-0.4331052699404836,0.1636755646936794,-1.0242934201105491,-0.011495843476083678,0.004745679408546533,-0.028563467238917895,0.0,70.0,255.0,255.0,255.0
487,24.35,-10.347210348395324,0.7009697790153289,-13.821030943817245,-0.43368863198013585,0.16390261191434718,-1.025709229749836,-0.01183746774078287,0.004268265549800532,-0.028036720745383548,0.0,70.0,255.0,255.0,255.0
488,24.400000000000002,-10.368909575689152,0.7091702645263048,-13.87235145116024,-0.4342890167145619,0.16410239124865944,-1.0270970921850875,-0.012176979137556998,0.0037234483960979503,-0.02750751053550715,0.0,70.0,255.0,255.0,255.0
489,24.450000000000003,-10.39063925006678,0.7173800181401948,-13.923740653035754,-0.43490632989389155,0.16427495675395698,-1.0284599808033867,-0.012514747464287268,0.00324153283669526,-0.027095697532253382,0.0,70.0,255.0,255.0,255.0
490,24.5,-10.412400208678541,0.7255977602017005,-13.975197449240579,-0.4355404914609906,0.16442654453232897,-1.0298066619383128,-0.012867370811342482,0.0029312655521973596,-0.02690840250298976,0.0,70.0,255.0,255.0,255.0
491,24.55,-10.434193299212879,0.7338226725934277,-14.026721319229585,-0.4361930669750258,0.16456808330917672,-1.0311508210536857,-0.013238206036803035,0.0028522130292141235,-0.02699798910299478,0.0,70.0,255.0,255.0,255.0
492,24.6,-10.456019515376044,0.7420545685326182,-14.078312531345947,-0.4368643120646709,0.16471176583525038,-1.0325064608486123,-0.013556107382051152,0.003010222092925119,-0.027328510598501055,0.0,70.0,255.0,255.0,255.0
493,24.650000000000002,-10.477879730419346,0.7502938491769527,-14.129971965314446,-0.4375486777132309,0.16486910551846923,-1.0338836721135358,-0.013709834283659461,0.003387871894222627,-0.027815766459760027,0.0,70.0,255.0,255.0,255.0
494,24.700000000000003,-10.499774383147367,0.7585414790844651,-14.1817008985573,-0.43823529549303686,0.16505055302467264,-1.0352880374945883,-0.013603227961489495,0.003960010500581035,-0.02836797107423905,0.0,70.0,255.0,255.0,255.0
495,24.75,-10.52170325996865,0.76679890447942,-14.233500769063905,-0.43890900050937987,0.16526510656852733,-1.0367204692209597,-0.013143741255916552,0.004719453153334552,-0.0289085724769933,0.0,70.0,255.0,255.0,255.0
496,24.8,-10.543665283198305,0.7750679897413179,-14.285372945479397,-0.4395496696186285,0.1655224983400061,-1.0381788947422876,-0.012303220490750277,0.005639780828836649,-0.02938508916709992,0.0,70.0,255.0,255.0,255.0
497,24.85,-10.565658226930513,0.7833511543134206,-14.337318658538134,-0.4401393225584549,0.165829084651411,-1.0396589781376697,-0.011220713453852227,0.0065727108804258805,-0.02973287322465268,0.0,70.0,255.0,255.0,255.0
498,24.900000000000002,-10.58767921545415,0.791650898206459,-14.389338843293164,-0.44067174096401374,0.16617976942804868,-1.041152182064753,-0.01014359048738811,0.007281520903501537,-0.02986494810315321,0.0,70.0,255.0,255.0,255.0
499,24.950000000000003,-10.609725401026914,0.7999691312562255,-14.44143387674461,-0.4411536816071937,0.16655723674176115,-1.042645472947985,-0.009324088940410036,0.007532877375504565,-0.029699644278302628,0.0,70.0,255.0,255.0,255.0
500,25.0,-10.63179458361487,0.8083066218806351,-14.493603390587962,-0.44160414985805474,0.16693305716559914,-1.0441221464925832,-0.00899365484041681,0.00709497777839907,-0.029153344883781074,0.0,70.0,255.0,255.0,255.0
501,25.05,-10.65388581601272,0.8166624369727854,-14.545846091393868,-0.4420530470912354,0.16726673451960106,-1.0455608074363631,-0.00926322435574889,0.005880038946737276,-0.028206829053445404,0.0,70.0,255.0,255.0,255.0
502,25.1,-10.675999888323993,0.8250332953325952,-14.598159471331599,-0.44253047229362963,0.16752106106027287,-1.0469428293979277,-0.010032087753586438,0.0041460206326227045,-0.02702260722617922,0.0,70.0,255.0,255.0,255.0
503,25.150000000000002,-10.698138863242082,0.8334145430788127,-14.65054037433366,-0.44305625586659403,0.16768133658286333,-1.048263068158981,-0.011083076494600164,0.0023623148880491662,-0.02588434788819427,0.0,70.0,255.0,255.0,255.0
504,25.200000000000003,-10.720305513910652,0.8418014289908815,-14.702985778147497,-0.44363877994308965,0.16775729254907779,-1.0495312641867471,-0.012181441917746838,0.00101300214190303,-0.025085200064900448,0.0,70.0,255.0,255.0,255.0
505,25.25,-10.742502741236391,0.8501902723337205,-14.755493500752335,-0.4442744000583687,0.16778263679705363,-1.0507715881654711,-0.013105602084451107,0.0005726170849484902,-0.0249140386623381,0.0,70.0,255.0,255.0,255.0
506,25.3,-10.76473295391649,0.8585796926705869,-14.808062936964044,-0.44494934015153476,0.16781455425757263,-1.052022668052981,-0.013724907728196456,0.0012676624517982127,-0.025501906971037158,0.0,70.0,255.0,255.0,255.0
507,25.35,-10.786997675251545,0.8669717277594777,-14.860695767557633,-0.44564689083118836,0.16790940304223345,-1.0533217788625748,-0.014018208259969356,0.00282884761487745,-0.02664774682283877,0.0,70.0,255.0,255.0,255.0
508,25.400000000000002,-10.809297642999608,0.8753706329748102,-14.913395114850301,-0.4463511609775317,0.16809743901906038,-1.0546874427352648,-0.01399515248454719,0.004721900197024453,-0.027964933072155418,0.0,70.0,255.0,255.0,255.0
509,25.450000000000003,-10.831632791349298,0.8837814716613838,-14.96616451183116,-0.4470464060796431,0.1683815930619359,-1.0561182721697904,-0.013671169029905172,0.0063962795580185805,-0.029054007677409288,0.0,70.0,255.0,255.0,255.0
510,25.5,-10.854002283607572,0.8922087922810038,-15.01900694206728,-0.4477182778805222,0.16873706697486224,-1.0575928435030058,-0.013071955469712293,0.007306581853694372,-0.029518519117033293,0.0,70.0,255.0,255.0,255.0
511,25.55,-10.87640461913735,0.90065517835887,-15.07192379618146,-0.4483536016266143,0.16911225124730533,-1.0590701240814937,-0.012235093448786927,0.007169963926723089,-0.029158969632803178,0.0,70.0,255.0,255.0,255.0
512,25.6,-10.898837643770234,0.9091200174057343,-15.12491395447543,-0.4489417872254009,0.16945406336753455,-1.060508740466286,-0.011256757528599337,0.006193041122470877,-0.028157221330715743,0.0,70.0,255.0,255.0,255.0
513,25.650000000000002,-10.92129879785989,0.9176005846956234,-15.177974670228089,-0.44947927737947424,0.16973155535955242,-1.0618858462145653,-0.01029799189016245,0.00481479294861531,-0.026885103974905178,0.0,70.0,255.0,255.0,255.0
514,25.700000000000003,-10.943785571508181,0.9260931729416896,-15.231102539096886,-0.44997158641441715,0.16993554266239608,-1.0631972508637766,-0.009538543967835267,0.003475539299613306,-0.025718629367155188,0.0,70.0,255.0,255.0,255.0
515,25.75,-10.966295956501332,0.934594138961863,-15.284294395314467,-0.45043313177625777,0.17007910928951375,-1.0644577091512808,-0.009146622655187286,0.002612990232064849,-0.02503183824877908,0.0,70.0,255.0,255.0,255.0
516,25.8,-10.988828884685807,0.943101083870641,-15.337548310012014,-0.4508862486799359,0.17019684168560256,-1.0657004346886545,-0.009201944582670762,0.0024646030534203334,-0.02502156181503068,0.0,70.0,255.0,255.0,255.0
517,25.85,-11.011384581369326,0.9516138231304233,-15.390864438783332,-0.45135332623452484,0.17032556959485579,-1.0669598653327839,-0.009627582140225854,0.0029090112053431483,-0.02555432356459164,0.0,70.0,255.0,255.0,255.0
518,25.900000000000002,-11.03396421730926,0.9601336408301265,-15.444244296545293,-0.45184900689395846,0.17048774280613688,-1.0682558670451137,-0.010259220283082016,0.003670583020254359,-0.02634453448031593,0.0,70.0,255.0,255.0,255.0
519,25.950000000000003,-11.056569482058721,0.968662597411037,-15.497690025487843,-0.45237924826283304,0.17069262789688122,-1.0695943187808155,-0.010915167918845725,0.0044806774626482415,-0.02711110189501653,0.0,70.0,255.0,255.0,255.0
520,26.0,-11.079202142135543,0.9772029036198147,-15.551203728423374,-0.45294052368584303,0.1709358105524017,-1.0709669772346153,-0.011409525935413,0.005065513162005875,-0.0275781838302791,0.0,70.0,255.0,255.0,255.0
521,26.05,-11.101863534427306,0.9857561784662772,-15.604786723211305,-0.45352020085637434,0.1711991792130818,-1.0723521371638434,-0.011638153859649947,0.005272789360710739,-0.027595435787119982,0.0,70.0,255.0,255.0,255.0
522,26.1,-11.12455416222118,0.9943228215411228,-15.658438942139759,-0.454104339071808,0.17146308948847278,-1.0737265208133273,-0.011637482676007949,0.0051754828206629355,-0.02723182473651775,0.0,70.0,255.0,255.0,255.0
523,26.150000000000002,-11.147273968334487,1.0029024874151244,-15.712159375292638,-0.45468394912397514,0.1717167274951481,-1.0750753196374951,-0.011498879893245828,0.004936627884166711,-0.026649578617465863,0.0,70.0,255.0,255.0,255.0
524,26.200000000000003,-11.170022557133578,1.0114944942906376,-15.765946474103508,-0.4552542270611326,0.17195675227688945,-1.076391478675074,-0.011308383424157853,0.004709349917564332,-0.02600404930284128,0.0,70.0,255.0,255.0,255.0
525,26.25,-11.1927993910406,1.0200981626428134,-15.819798523160145,-0.4558147874663909,0.17218766248690454,-1.0776757245677793,-0.01115522698214022,0.004664910499907471,-0.02543938913230903,0.0,70.0,255.0,255.0,255.0
526,26.3,-11.215604035880217,1.028713260539328,-15.873714046560286,-0.45636974975934663,0.1724232433268802,-1.0789354175883048,-0.011091500583404468,0.004890300109661183,-0.025042755641635495,0.0,70.0,255.0,255.0,255.0
527,26.35,-11.238436366016535,1.0373404869755014,-15.927692064918975,-0.45692393752473137,0.17267669249787065,-1.0801800001319428,-0.011101554754944232,0.005268125110968747,-0.02483474112509043,0.0,70.0,255.0,255.0,255.0
528,26.400000000000002,-11.26129642963269,1.0459809297891152,-15.98173204657348,-0.45747990523484106,0.17295005583797707,-1.0814188917008138,-0.0111470317083473,0.005584677004955019,-0.024821626573334754,0.0,70.0,255.0,255.0,255.0
529,26.450000000000003,-11.284184356540019,1.0546354925592991,-16.035833954089057,-0.4580386406955661,0.17323516019836616,-1.0826621627892763,-0.01119749885152288,0.005641549906720833,-0.025012188076800612,0.0,70.0,255.0,255.0,255.0
530,26.5,-11.307100293702247,1.0633044458089518,-16.089998262852408,-0.45859965511999334,0.17351421082864915,-1.083920110508494,-0.011221594105315091,0.005230928754329511,-0.02542025031573303,0.0,70.0,255.0,255.0,255.0
531,26.55,-11.330044322052018,1.071986913642164,-16.144225965139906,-0.4591608001060976,0.1737582530737991,-1.0852041878208496,-0.011202557091394283,0.004265124419888799,-0.02603456728529352,0.0,70.0,255.0,255.0,255.0
532,26.6,-11.353016373712856,1.0806802711163317,-16.198518681634493,-0.45971991082913277,0.17394072327063803,-1.0865235672370233,-0.011156298306147505,0.002955559859030288,-0.02674837160192567,0.0,70.0,255.0,255.0,255.0
533,26.650000000000002,-11.376016313134931,1.0893809859692278,-16.25287832186361,-0.46027642993671236,0.17405380905970214,-1.0878790249810422,-0.011112993275830263,0.001682799294089321,-0.027383075927644995,0.0,70.0,255.0,255.0,255.0
534,26.700000000000003,-11.399044016706528,1.098085652022302,-16.307306584132597,-0.4608312101567158,0.17410900320004696,-1.0892618748297878,-0.011101621170439557,0.0008232849544542731,-0.027754937320878525,0.0,70.0,255.0,255.0,255.0
