idx,t,px,py,pz,vx,vy,vz,ax,ay,az,yaw,mode,ledr,ledg,ledb
0,0.0,1.5000000000000004,-1.5000000000000002,1.3075970192809473e-18,0.0005810867387623375,0.00016656215612087522,0.0006038718443626036,-0.009207244925057978,0.0028895856258870367,-0.02669247896241736,0.0,70.0,255.0,255.0,255.0
1,0.05,1.5000290543369386,-1.4999916718921942,3.019359221813149e-05,0.00012072449250943862,0.00031104143741522705,-0.0007307521037582646,-0.013659961771983475,0.004473180235553542,-0.040202158573323876,0.0,70.0,255.0,255.0,255.0
2,0.1,1.5000120724492514,-1.4999688958562587,-7.307521037582516e-05,-0.00078490943843601,0.0006138801796762294,-0.0034163440129697845,-0.017810867387635376,0.00633437843875484,-0.05403871844362606,0.0,70.0,255.0,255.0,255.0
3,0.15000000000000002,1.499950563393095,-1.4999302838742266,-0.00031144080907884696,-0.001660362246254099,0.000944479281290711,-0.0061346239481208705,-0.017207244924755116,0.006889585625513561,-0.05469247896242037,0.0,70.0,255.0,255.0,255.0
4,0.2,1.499846036224626,-1.4998744479281296,-0.0006865376051879122,-0.0025056339309115216,0.0013028387422275856,-0.008885591909211822,-0.016597672340679104,0.00744972722912518,-0.055353241450138146,0.0,70.0,255.0,255.0,255.0
5,0.25,1.4997000000000038,-1.4998000000000038,-0.0012000000000000292,-0.0033201294803220094,0.001689452004203229,-0.011669948093134685,-0.015953886558039976,0.008038241728325346,-0.056054265259172696,0.0,70.0,255.0,255.0,255.0
6,0.30000000000000004,1.4995140232765938,-1.4997055027277093,-0.0018535324145013809,-0.004101022586715519,0.00210666291506012,-0.014491018435129092,-0.015266797111945785,0.008662667813652547,-0.056806247842059815,0.0,70.0,255.0,255.0,255.0
7,0.35000000000000003,1.4992898977413323,-1.4995893337084978,-0.0026491018435129384,-0.004846809191516588,0.0025557187855684838,-0.017350572877340667,-0.014613920864792185,0.009258721003746473,-0.05751796910362717,0.0,70.0,255.0,255.0,255.0
8,0.4,1.4990293423574421,-1.4994499308491525,-0.003588589702235448,-0.005562414673194738,0.0030325350154347674,-0.02024281534549181,-0.014119053402472659,0.009723738022326955,-0.05804374919038794,0.0,70.0,255.0,255.0,255.0
9,0.45,1.4987336562740128,-1.4992860802069543,-0.0046733833780621195,-0.006258714531763854,0.0035280925878011793,-0.02315494779637946,-0.01389173733070681,0.009969167501266973,-0.058259020604686206,0.0,70.0,255.0,255.0,255.0
10,0.5,1.4984034709042657,-1.4990971215903723,-0.005904084481873394,-0.006951588406265419,0.004029451765561465,-0.02606871740596043,-0.014040749952037856,0.009915687585593247,-0.05805639058334141,0.0,70.0,255.0,255.0,255.0
11,0.55,1.4980384974333862,-1.4988831350303982,-0.0072802551186581625,-0.007662789526967639,0.004519661346360504,-0.028960586854713602,-0.0146017740388249,0.009537208273058262,-0.057400498650602705,0.0,70.0,255.0,255.0,255.0
12,0.6000000000000001,1.497637191951569,-1.4986451554557363,-0.008800143167344754,-0.008411765810147909,0.004983172592867291,-0.0318087672710207,-0.01541982681978471,0.008932397130934078,-0.0564171874611942,0.0,70.0,255.0,255.0,255.0
13,0.65,1.4971973208523714,-1.4983848177711114,-0.010461131845760233,-0.00920477220894611,0.005412901059453912,-0.03460230560083302,-0.016219572056930254,0.008281904112550365,-0.05534017513927958,0.0,70.0,255.0,255.0,255.0
14,0.7000000000000001,1.4967167147306744,-1.498103865349791,-0.012260373727428057,-0.010033723015840934,0.005811363004122327,-0.03734278478494866,-0.016713536838119936,0.0077800377506598295,-0.054421624992854536,0.0,70.0,255.0,255.0,255.0
15,0.75,1.4961939485507874,-1.4978036814706992,-0.014195410324255099,-0.010876125892758104,0.006190904834519895,-0.040044468100118476,-0.016601009515704312,0.007625268305777588,-0.05390646563866258,0.0,70.0,255.0,255.0,255.0
16,0.8,1.4956291021413985,-1.497484774866339,-0.016264820537439904,-0.011693823967411365,0.006573889834700086,-0.04273343134881492,-0.01574635707761729,0.0079134335109865,-0.053918759524453075,0.0,70.0,255.0,255.0,255.0
17,0.8500000000000001,1.4950245661540462,-1.4971462924872292,-0.01846875345913659,-0.012450761600519833,0.006982248185618545,-0.04543634405256378,-0.014393951343261158,0.008526282547061115,-0.054365169163483745,0.0,70.0,255.0,255.0,255.0
18,0.9,1.4943840259813466,-1.496786550047777,-0.020808454942696283,-0.013133219101737481,0.007426518089406198,-0.04816994826516329,-0.012996318043367872,0.009234053452877866,-0.055043662140606686,0.0,70.0,255.0,255.0,255.0
19,0.9500000000000001,1.4937112442438725,-1.4964036406782886,-0.02328574828565292,-0.01375039340485662,0.007905653530906331,-0.05094071026662445,-0.012006749349580126,0.00980410806965537,-0.05574119271061148,0.0,70.0,255.0,255.0,255.0
20,1.0,1.493008986640861,-1.4959959846946864,-0.025902525969358728,-0.014333894036695494,0.008406928896371735,-0.05374406753622444,-0.011879128069280931,0.009999276487349107,-0.05623774686200865,0.0,70.0,255.0,255.0,255.0
21,1.05,1.492277854840203,-1.4955629477886514,-0.028660155039275364,-0.014938306211784713,0.008905581179641242,-0.05656448495282532,-0.012826970144708127,0.009702484256202126,-0.056412202179324106,0.0,70.0,255.0,255.0,255.0
22,1.1,1.4915151560196824,-1.4951054265767223,-0.03155897446464126,-0.015616591051166306,0.009377177321991947,-0.05938528775415685,-0.014552712795490308,0.009047880606272152,-0.05632670464943909,0.0,70.0,255.0,255.0,255.0
23,1.1500000000000001,1.4907161957350863,-1.4946252300564522,-0.03459868381469105,-0.016393577491333744,0.009810369240268457,-0.062197155417769226,-0.016485132459553853,0.008296474150770727,-0.05611892921204738,0.0,70.0,255.0,255.0,255.0
24,1.2000000000000002,1.489875798270549,-1.4941243896526955,-0.03777869000641818,-0.01726510429712169,0.01020682473706902,-0.06499718067536159,-0.018047344551397337,0.007710103397307044,-0.055921203232300876,0.0,70.0,255.0,255.0,255.0
25,1.25,1.4889896853053741,-1.4936045475827453,-0.04109840188222721,-0.018198311946473478,0.010581379579999162,-0.06778927574099931,-0.018670543475418633,0.007561588448612433,-0.05588250029325767,0.0,70.0,255.0,255.0,255.0
26,1.3,1.4880559670759017,-1.4930662516946955,-0.044557617580518113,-0.019132158644663555,0.010962983581930263,-0.07058543070468735,-0.018072102669797196,0.007983202890660124,-0.05607849236431359,0.0,70.0,255.0,255.0,255.0
27,1.35,1.4870764694409078,-1.4925082492245523,-0.04815694495269594,-0.020005522213453197,0.011379699869065174,-0.07339712497743067,-0.016530488850086122,0.008796787102438586,-0.05640707983782592,0.0,70.0,255.0,255.0,255.0
28,1.4000000000000001,1.4860554148545564,-1.491928281707789,-0.05189733007826118,-0.020785207529672167,0.011842662292174122,-0.07622613868846995,-0.01460869990415059,0.009665457869600935,-0.056682392572975776,0.0,70.0,255.0,255.0,255.0
29,1.4500000000000002,1.4849979486879405,-1.4913239829953349,-0.05577955882154294,-0.021466392203868256,0.012346245656025268,-0.07906536423472825,-0.01287650647738836,0.010255618201249206,-0.056733621399815415,0.0,70.0,255.0,255.0,255.0
30,1.5,1.4839087756341696,-1.4906936571421865,-0.059803866501734006,-0.022072858177411003,0.012868224112299043,-0.08189950082845149,-0.011894642084953055,0.010222434986073559,-0.05638833588104547,0.0,70.0,255.0,255.0,255.0
31,1.55,1.4827906628701994,-1.490037160584105,-0.06396950890438809,-0.022655856412363562,0.013368489154632623,-0.0847041978228328,-0.011957253208705332,0.009404331220874695,-0.055572942582532425,0.0,70.0,255.0,255.0,255.0
32,1.6,1.4816431899929332,-1.4893568082267232,-0.06827428628401729,-0.023268583498281536,0.013808657234386512,-0.08745679508670473,-0.012870879589654827,0.008052150471238306,-0.05444851912280099,0.0,70.0,255.0,255.0,255.0
33,1.6500000000000001,1.4804638045203713,-1.4886562948606663,-0.07271518841305856,-0.023942944371329045,0.014173704201756454,-0.0901490497351129,-0.01421535929926332,0.006635354044459696,-0.0533096356941945,0.0,70.0,255.0,255.0,255.0
34,1.7000000000000002,1.4792488955558003,-1.4879394378065476,-0.07728919125752857,-0.02469011942820787,0.014472192638832482,-0.09278775865612418,-0.015572969865407238,0.005620057830313385,-0.0524498589539818,0.0,70.0,255.0,255.0,255.0
35,1.75,1.4779947925775505,-1.487209075596783,-0.08199396427867098,-0.02550024135786977,0.014735709984787793,-0.09539403563051108,-0.016538953452727156,0.005472587690924513,-0.052148118886520545,0.0,70.0,255.0,255.0,255.0
36,1.8,1.4766988714200133,-1.4864658668080688,-0.08682859482057968,-0.026344014773480584,0.015019451407924933,-0.09800257054477624,-0.01688676328335248,0.0064136447200491276,-0.05253733637315822,0.0,70.0,255.0,255.0,255.0
37,1.85,1.4753603911002025,-1.4857071304559906,-0.0917942213331486,-0.027188917686205016,0.015377074456792705,-0.1006477692678269,-0.016675969481272368,0.008142956000911639,-0.053469892622015625,0.0,70.0,255.0,255.0,255.0
38,1.9000000000000001,1.4739799796513928,-1.4849281593623895,-0.09689337174736237,-0.02801161172160782,0.015833747008016097,-0.1033495598069778,-0.01607820788691594,0.010083102642566288,-0.05464633737752994,0.0,70.0,255.0,255.0,255.0
39,1.9500000000000002,1.4725592299280417,-1.484123755755189,-0.10212917731384638,-0.02879673847489661,0.016385384721049334,-0.10611240300557989,-0.015259213128593352,0.011652029265585284,-0.05575468171199888,0.0,70.0,255.0,255.0,255.0
40,2.0,1.4711003058039032,-1.4832896208902846,-0.10750461204792036,-0.029537533034467156,0.016998949934574625,-0.10892502797817769,-0.014377516132313417,0.012275279518192406,-0.05649517924885411,0.0,70.0,255.0,255.0,255.0
41,2.0500000000000003,1.469605476624595,-1.4824238607617315,-0.11302168011166415,-0.030234490088127952,0.017612912672868575,-0.1117619209304653,-0.013540728623073761,0.011667430225181796,-0.05670493803206639,0.0,70.0,255.0,255.0,255.0
42,2.1,1.4680768567950904,-1.4815283296229977,-0.11868080414096689,-0.030891605896774532,0.018165692957092805,-0.11459552178138432,-0.01282244528233445,0.01011131690049627,-0.056440954678177446,0.0,70.0,255.0,255.0,255.0
43,2.15,1.4665163160349175,-1.4806072914660222,-0.12448123228980258,-0.0315167346163614,0.018624044362918202,-0.11740601639828305,-0.012317123838156974,0.008177783170837394,-0.05585513134580139,0.0,70.0,255.0,255.0,255.0
44,2.2,1.4649251833334542,-1.479665925186706,-0.1304214057807952,-0.03212331828059023,0.018983471274176544,-0.12018103491596446,-0.012128639158714982,0.006444459139998138,-0.05510521373183058,0.0,70.0,255.0,255.0,255.0
45,2.25,1.4633039842068585,-1.4787089443386046,-0.13649933578139903,-0.032729598532232895,0.019268490276918016,-0.1229165377714661,-0.01235098201799456,0.005482238292220387,-0.054351164118053574,0.0,70.0,255.0,255.0,255.0
46,2.3000000000000003,1.461652223480231,-1.4777390761590141,-0.1427130595579418,-0.033358416482389686,0.019531695103398583,-0.12561615132776982,-0.01301186068600746,0.005589268411876347,-0.05369465975033627,0.0,70.0,255.0,255.0,255.0
47,2.35,1.4599681425586195,-1.4767557748282647,-0.149060950914176,-0.03403078460083364,0.01982741711810565,-0.12828600374649973,-0.013988934704167733,0.006557324182687729,-0.05316349146249899,0.0,70.0,255.0,255.0,255.0
48,2.4000000000000004,1.4582491450201476,-1.4757563344472036,-0.15554165993259178,-0.03475730995280646,0.020187427521667356,-0.13093250047401972,-0.015056093963150552,0.007941056049354245,-0.05277845192455943,0.0,70.0,255.0,255.0,255.0
49,2.45,1.4564924115633389,-1.474737032076098,-0.16215420096157798,-0.035536393997148696,0.020621522723041075,-0.13356384893895568,-0.015967768698099682,0.009296474500763985,-0.05256963818583982,0.0,70.0,255.0,255.0,255.0
50,2.5,1.4546955056204327,-1.4736941821748994,-0.16889804482648735,-0.03635408682261643,0.021117074971743754,-0.1361894642926037,-0.016486527823622588,0.010183832581001084,-0.052552192250962526,0.0,70.0,255.0,255.0,255.0
51,2.5500000000000003,1.4528570028810772,-1.4726253245789236,-0.17577314739083835,-0.037185046779510955,0.021639905981141183,-0.13881906816405193,-0.016491828632969607,0.010363374915134393,-0.05272416189432416,0.0,70.0,255.0,255.0,255.0
52,2.6,1.4509770009424816,-1.4715301915767853,-0.18277995164289254,-0.03800326968591339,0.022153412463257194,-0.14146188048203612,-0.016069927788997518,0.009949363058603389,-0.05306153634830335,0.0,70.0,255.0,255.0,255.0
53,2.6500000000000004,1.4490566759124859,-1.4704099833325979,-0.18991933543904196,-0.03879203955841071,0.022634842287001522,-0.14412522179888226,-0.015410388420944443,0.009206337619960259,-0.05351292575783151,0.0,70.0,255.0,255.0,255.0
54,2.7,1.4470977969866405,-1.4692667073480852,-0.19719247382278077,-0.03954430852800783,0.02307404622525322,-0.14681317305781927,-0.014713572762503624,0.008390528637947092,-0.05401054587911569,0.0,70.0,255.0,255.0,255.0
55,2.75,1.445102245059685,-1.4681025787100725,-0.2046006527448239,-0.04026339683466107,0.02347389515079623,-0.14952627638679383,-0.014182906687554286,0.007758375440003462,-0.05450002025805811,0.0,70.0,255.0,255.0,255.0
56,2.8000000000000003,1.4430714573031744,-1.4669193178330056,-0.21214510146146015,-0.04096259919676326,0.023849883769253566,-0.15226317508362508,-0.013933085854178628,0.007456066426270169,-0.05494249220614478,0.0,70.0,255.0,255.0,255.0
57,2.85,1.4410059851400088,-1.4657175903331472,-0.2198269702531864,-0.04165670542007893,0.024219501793423248,-0.1550205256074083,-0.01392678537535108,0.0074406548182137655,-0.055273999507918226,0.0,70.0,255.0,255.0,255.0
58,2.9000000000000004,1.4389057867611665,-1.4644973676536632,-0.22764715402220098,-0.04235527773429837,0.024593949251074942,-0.1577905750344169,-0.014068599439354124,0.0075998405572264005,-0.055405369519664904,0.0,70.0,255.0,255.0,255.0
59,2.95,1.436770457366579,-1.4632581954080397,-0.2356060277566281,-0.043063565364014345,0.024979485849145888,-0.1605610625593748,-0.014270341184374757,0.007833811879787156,-0.05525540440492749,0.0,70.0,255.0,255.0,255.0
60,3.0,1.434599430224765,-1.4619994190687486,-0.24370326027813846,-0.043782311852735845,0.025377330439053658,-0.16331611547490965,-0.014441892046157534,0.008042712278966135,-0.05474376401282677,0.0,70.0,255.0,255.0,255.0
61,3.0500000000000003,1.4323922261813054,-1.4607204623641343,-0.25193763930411905,-0.0445077545686301,0.025783757077042502,-0.16603543896065748,-0.014529767344262368,0.008166298773759628,-0.05385104410626229,0.0,70.0,255.0,255.0,255.0
62,3.1,1.430148654767902,-1.4594210433610444,-0.2603068041742042,-0.04523528858716208,0.02619396031642962,-0.16870121988553588,-0.014543863110616506,0.00820895006961031,-0.052725076342644006,0.0,70.0,255.0,255.0,255.0
63,3.1500000000000004,1.4278686973225891,-1.4581010663324914,-0.26880776129267264,-0.04596214087969175,0.026604652084003533,-0.17130794659492188,-0.014513442259600495,0.008192528589345827,-0.05162550292344137,0.0,70.0,255.0,255.0,255.0
64,3.2,1.425552440679933,-1.456760578152644,-0.2774375988336964,-0.04668663281312213,0.027013213175364204,-0.17386377017788002,-0.014458862033750464,0.008128023376352544,-0.050819584752925806,0.0,70.0,255.0,255.0,255.0
65,3.25,1.423200034041277,-1.455399745014955,-0.28619413831046064,-0.047408027083066795,0.027417454421638787,-0.17638990507021446,-0.01439749715590466,0.008018747472116061,-0.05056091436660415,0.0,70.0,255.0,255.0,255.0
66,3.3000000000000003,1.4208116379716262,-1.4540188327104802,-0.29507658934071784,-0.0481263825287126,0.02781508792257581,-0.17891986161454043,-0.0143411314821984,0.007872025192323662,-0.050967643723126566,0.0,70.0,255.0,255.0,255.0
67,3.35,1.4183873957884057,-1.4526182362226974,-0.3040861244719147,-0.048842140231286635,0.028204656940871153,-0.18148666944252712,-0.01429776218235812,0.007723544903259771,-0.051896744072554846,0.0,70.0,255.0,255.0,255.0
68,3.4000000000000004,1.4159274239484976,-1.451198367016393,-0.31322525628497055,-0.04955615874694841,0.028587442412901787,-0.18410953602179592,-0.01427763152201944,0.007630045085282866,-0.05305989151385693,0.0,70.0,255.0,255.0,255.0
69,3.45,1.4134317799137108,-1.4497594919814072,-0.3224970780740943,-0.05026990338348858,0.02896766144939944,-0.1867926585939128,-0.014294210680376729,0.007647381328124148,-0.05415399551109146,0.0,70.0,255.0,255.0,255.0
70,3.5,1.4109004336101487,-1.448301600871453,-0.33190452214436184,-0.05098557981498608,0.0293521805457142,-0.18952493557290506,-0.01436811933033244,0.007830269860420458,-0.054888569196692716,0.0,70.0,255.0,255.0,255.0
71,3.5500000000000003,1.4083332219322122,-1.4468242739268358,-0.3414495716313848,-0.05170671531652182,0.029750688435441486,-0.19228151551358208,-0.014505706727230283,0.008199399991037915,-0.05510560710847989,0.0,70.0,255.0,255.0,255.0
72,3.6,1.4057297620784965,-1.445326532027909,-0.35113267369572004,-0.05243615048770911,0.030172120544817993,-0.19503549628375305,-0.014665088159904194,0.008695098755762132,-0.054856991656210274,0.0,70.0,255.0,255.0,255.0
73,3.6500000000000004,1.4030896068834413,-1.443807061872354,-0.3609531212597601,-0.05317322413251224,0.0306201983110177,-0.1977672146792031,-0.01477603165200847,0.009208223470236199,-0.054285047571250855,0.0,70.0,255.0,255.0,255.0
74,3.7,1.4004124396652453,-1.4422645121968072,-0.37090939516364035,-0.05391375365290996,0.031092942891841613,-0.20046400104087814,-0.014771008531488938,0.009629677418132587,-0.05353823273652747,0.0,70.0,255.0,255.0,255.0
75,3.75,1.3976982315181503,-1.4406977675831698,-0.3809995213638479,-0.054650324985661136,0.03158316605283096,-0.20312103795285585,-0.014582053495004743,0.009868191734119236,-0.05276480884661705,0.0,70.0,255.0,255.0,255.0
76,3.8000000000000003,1.3949474071666792,-1.439106195591524,-0.39122149895892594,-0.05537195900241043,0.032079762065253536,-0.20574048192553984,-0.014182242075122531,0.00987657530993058,-0.05206167609466683,0.0,70.0,255.0,255.0,255.0
77,3.85,1.3921610356179093,-1.4374897913766445,-0.4015735695564019,-0.05606854919317339,0.032570823583824016,-0.20832720556232254,-0.013643656739681376,0.009660535598277065,-0.051472492099863265,0.0,70.0,255.0,255.0,255.0
78,3.9000000000000004,1.3893405522473619,-1.4358491132331417,-0.4120542195151582,-0.05673632467637857,0.03304581562508124,-0.21088773113552617,-0.0130973094688569,0.009253424670174759,-0.051045232886487435,0.0,70.0,255.0,255.0,255.0
79,3.95,1.3864874031502714,-1.4341852098141363,-0.4226623426699545,-0.05737828014005908,0.03349616605084149,-0.21343172885097128,-0.012674529086575959,0.00870010946538713,-0.05083824836792372,0.0,70.0,255.0,255.0,255.0
80,4.0,1.383602724233356,-1.4324994966280575,-0.4333973924002553,-0.058003777585036165,0.033915826571619956,-0.21597155597231854,-0.01249564804186587,0.00803700982305866,-0.05090422338887568,0.0,70.0,255.0,255.0,255.0
81,4.05,1.3806870253917678,-1.4307936271569743,-0.44425949826718636,-0.058627844944245666,0.03429986703314736,-0.21852215118985885,-0.012619124506008106,0.007299986414976978,-0.05125542744058298,0.0,70.0,255.0,255.0,255.0
82,4.1000000000000005,1.3777399397389314,-1.4290695099247428,-0.4552496075192412,-0.059265690035636975,0.034645825213117654,-0.22109709871637684,-0.012995809356697308,0.006580894049301733,-0.05180949682077052,0.0,70.0,255.0,255.0,255.0
83,4.15,1.374760456388204,-1.4273290446356626,-0.46636920813882404,-0.0599274258799154,0.03495795643807753,-0.2237031008719359,-0.01351836683611829,0.006021620972851416,-0.05241588568468125,0.0,70.0,255.0,255.0,255.0
84,4.2,1.3717471971509398,-1.425573714280935,-0.4776199176064348,-0.060617526719248804,0.035247987310402795,-0.22633868728484496,-0.014071387942959923,0.005762145792487239,-0.052909799432815374,0.0,70.0,255.0,255.0,255.0
85,4.25,1.3686987037162792,-1.4238042459046223,-0.48900307686730854,-0.06133456467421139,0.035534171017326255,-0.22899408081521744,-0.014547335689707452,0.005931741001452551,-0.05313027894984779,0.0,70.0,255.0,255.0,255.0
86,4.3,1.3656137406835187,-1.4220202971792024,-0.5005193256879565,-0.06207226028821955,0.03584116141054805,-0.23165171517982974,-0.014881772721175857,0.006578304205051566,-0.05299661414296941,0.0,70.0,255.0,255.0,255.0
87,4.3500000000000005,1.3624914776874573,-1.4202201297635675,-0.5121682483852915,-0.06282274194632897,0.03619200143783141,-0.23429374222951438,-0.015056742196928319,0.0075705735191888834,-0.05257492854248702,0.0,70.0,255.0,255.0,255.0
88,4.4,1.3593314664888858,-1.4184010970354193,-0.523948699910908,-0.06357793450791238,0.03659821876246694,-0.23690920803407844,-0.015064747662085765,0.008662888641275401,-0.0520058164494297,0.0,70.0,255.0,255.0,255.0
89,4.45,1.356133684236666,-1.4165603078873208,-0.5358591691886994,-0.06432921671253755,0.03705829030195895,-0.23949432387445735,-0.014900431962239225,0.009592845826178475,-0.05143584061408912,0.0,70.0,255.0,255.0,255.0
90,4.5,1.352898544817632,-1.4146952680052234,-0.5478981322983537,-0.0650679777041363,0.037557503345084786,-0.24205279209548736,-0.014559018523452316,0.010103998198940367,-0.051010651487704006,0.0,70.0,255.0,255.0,255.0
91,4.55,1.3496268864662524,-1.4128045575528123,-0.5600644483982481,-0.06578511856488278,0.03806869012185299,-0.24459538902322775,-0.014052758968263745,0.010066796764918173,-0.05081088988029281,0.0,70.0,255.0,255.0,255.0
92,4.6000000000000005,1.3463200329611438,-1.410888398993038,-0.5723576712006765,-0.06647325360096268,0.038564183021576603,-0.24713388108351664,-0.01345806101646918,0.009584923762151476,-0.05080715264567104,0.0,70.0,255.0,255.0,255.0
93,4.65,1.3429795611061561,-1.4089481392506547,-0.5847778365065998,-0.0671309246665297,0.039027182498068136,-0.24967610428779485,-0.012903481676351802,0.008878712573934244,-0.05092532404217254,0.0,70.0,255.0,255.0,255.0
94,4.7,1.3396069404944908,-1.4069856807432313,-0.597325281629456,-0.06776360176859786,0.03945205427897003,-0.2522264134877339,-0.012525858566947434,0.008179757616133543,-0.051093038576977,0.0,70.0,255.0,255.0,255.0
95,4.75,1.3362032009292963,-1.4050029338227576,-0.6100004778553731,-0.06838351052322444,0.03984515825968149,-0.25478540814549255,-0.012460599540364825,0.007732266202609139,-0.05123513374722943,0.0,70.0,255.0,255.0,255.0
96,4.800000000000001,1.3327685894421684,-1.4030011649172631,-0.6228038224440052,-0.06900966172263434,0.04022528089923094,-0.25734992686245683,-0.012767704226379628,0.007666769807523899,-0.05130705244309475,0.0,70.0,255.0,255.0,255.0
97,4.8500000000000005,1.329302234757033,-1.4009804057328346,-0.6357354705416188,-0.06966028094586241,0.04061183524043388,-0.25991611338980203,-0.013346538212988257,0.007885162667964352,-0.05131739327582929,0.0,70.0,255.0,255.0,255.0
98,4.9,1.3258025613475821,-1.3989399813932197,-0.6487954337829854,-0.07034431554393317,0.04101379716602738,-0.26248166619003976,-0.014004961996039178,0.008188508149276075,-0.05129111582019563,0.0,70.0,255.0,255.0,255.0
99,4.95,1.3222678032026396,-1.3968790260162318,-0.6619836371606228,-0.07106077714546633,0.04143068605536149,-0.2650452249718216,-0.014543359876939554,0.008387237928131341,-0.05124580461179917,0.0,70.0,255.0,255.0,255.0
100,5.0,1.3186964836330355,-1.3947969127876836,-0.6752999562801676,-0.07179865153162712,0.04185252095884051,-0.2676062466512197,-0.014762592639194771,0.00827901158260147,-0.05119678555123297,0.0,70.0,255.0,255.0,255.0
101,5.050000000000001,1.3150879380494769,-1.3926937739203478,-0.6887442618257448,-0.0725370364093858,0.042258587213621635,-0.2701649035269449,-0.014563137413081684,0.007766263865183198,-0.051154187060598044,0.0,70.0,255.0,255.0,255.0
102,5.1000000000000005,1.311442779992097,-1.3905710540663214,-0.7023164466328621,-0.07325496527293529,0.04262914734535883,-0.2727216653572795,-0.014041194056990669,0.006997129528873991,-0.05112327425107477,0.0,70.0,255.0,255.0,255.0
103,5.15,1.3077624415221833,-1.3884308591858119,-0.7160164283614727,-0.07394115581508487,0.042958300166509034,-0.27527723095205237,-0.013391262414086391,0.006244550866307819,-0.0511102126770413,0.0,70.0,255.0,255.0,255.0
104,5.2,1.3040486644105884,-1.3862752240496705,-0.7298441697280673,-0.07459409151434393,0.04325360243198961,-0.2778326866249836,-0.012807275351867098,0.00577115081097368,-0.05112374297580047,0.0,70.0,255.0,255.0,255.0
105,5.25,1.300303032370749,-1.384105498942613,-0.7437996970239711,-0.07522188335027158,0.0435354152476064,-0.2803896052496324,-0.012472992606804567,0.005839612874947164,-0.05117772404794607,0.0,70.0,255.0,255.0,255.0
106,5.300000000000001,1.2965264760755613,-1.3819216825249099,-0.7578831302530306,-0.07584139077502439,0.04383756371948433,-0.2829504590297782,-0.012486319547888591,0.00656906051270667,-0.05127619931450944,0.0,70.0,255.0,255.0,255.0
107,5.3500000000000005,1.2927188932932465,-1.3797217425706645,-0.7720947429269489,-0.07647051530506044,0.04419232129887707,-0.28551722518108336,-0.012803277633599564,0.007760072130080786,-0.05138950971966816,0.0,70.0,255.0,255.0,255.0
108,5.4,1.2888794245450552,-1.3775024503950222,-0.7864348527711389,-0.07712171853838434,0.04461357093249241,-0.28808941000174504,-0.013315396272983726,0.009037857150051565,-0.05146803347171325,0.0,70.0,255.0,255.0,255.0
109,5.45,1.285006721439408,-1.3752603854774152,-0.8009036839271234,-0.07780205493235881,0.045096107013882225,-0.2906640285282547,-0.013914252002389382,0.010022611042614926,-0.05146593677184397,0.0,70.0,255.0,255.0,255.0
110,5.5,1.2810992190518193,-1.372992839693634,-0.8155012556239644,-0.07851314373862328,0.0456158320367539,-0.29323600367892944,-0.014509446257626735,0.010334564889746822,-0.051344346228976434,0.0,70.0,255.0,255.0,255.0
111,5.550000000000001,1.2771554070655458,-1.3706988022737399,-0.8302272842950164,-0.07925299955812148,0.04612956350285691,-0.2957984631511523,-0.015038810502554512,0.0097904078369071,-0.05108721614756062,0.0,70.0,255.0,255.0,255.0
112,5.6000000000000005,1.2731739190960072,-1.3683798833433483,-0.8450811019390796,-0.08001702478887873,0.04659487282044461,-0.2983447252936855,-0.015429331772143229,0.00861246540058147,-0.05072045843194095,0.0,70.0,255.0,255.0,255.0
113,5.65,1.2691537045866579,-1.3660393149916954,-0.8600617568243849,-0.08079593273533581,0.046990810042915054,-0.3008705089943464,-0.015582676969327913,0.007234976244374636,-0.05029672103519234,0.0,70.0,255.0,255.0,255.0
114,5.7,1.2650943258224736,-1.3636808023390568,-0.8751681528385142,-0.08157529248581152,0.047318370444882074,-0.30337439739720473,-0.015402942745978976,0.006097752337863582,-0.04987199711636858,0.0,70.0,255.0,255.0,255.0
115,5.75,1.2609961753380767,-1.3613074779472072,-0.8903991965641054,-0.0823362270099337,0.04760058527670141,-0.3058577087059833,-0.014785259659078065,0.005642080946044459,-0.04948890036007292,0.0,70.0,255.0,255.0,255.0
116,5.800000000000001,1.2568607031214802,-1.3589207438113866,-0.9057539237091126,-0.08305381845171933,0.04788257853948652,-0.308323287433212,-0.013703613266891068,0.006089168279577173,-0.04917493609530865,0.0,70.0,255.0,255.0,255.0
117,5.8500000000000005,1.2526907934929048,-1.3565192200932585,-0.9212315253074266,-0.08370658833662281,0.04820950210465913,-0.31077520231551414,-0.012362006000099512,0.007219250416778955,-0.04896595258992997,0.0,70.0,255.0,255.0,255.0
118,5.9,1.248490044287818,-1.3540997936009207,-0.936831443940664,-0.08429001905172928,0.048604503581164415,-0.313219882692205,-0.011113802609497014,0.008593053723338073,-0.04890778635012749,0.0,70.0,255.0,255.0,255.0
119,5.95,1.2442617915877319,-1.351658769735142,-0.9525535135766471,-0.08481796859757251,0.04906880747699294,-0.3156659809505269,-0.010319011978965342,0.009773232752707806,-0.049039361475911036,0.0,70.0,255.0,255.0,255.0
120,6.0,1.2400082474280607,-1.3491929128532214,-0.9683980420357167,-0.08532192024962582,0.049581826856435196,-0.3181238188397961,-0.010333477810320346,0.010329185918100947,-0.04940401503474856,0.0,70.0,255.0,255.0,255.0
121,6.050000000000001,1.2357295995627693,-1.3467005870494986,-0.9843658954606267,-0.08585131637860455,0.05010172606880303,-0.32060638245400175,-0.011314848317778292,0.010039772191694496,-0.050007351825598345,0.0,70.0,255.0,255.0,255.0
122,6.1000000000000005,1.2314231157902003,-1.344182740246341,-1.0004586802811168,-0.08645340508140364,0.050585804075604646,-0.32312455402235596,-0.01299192161661189,0.009081348783102072,-0.050734892047532565,0.0,70.0,255.0,255.0,255.0
123,6.15,1.227084259054629,-1.3416420066419381,-1.0166783508628623,-0.08715050854026574,0.05100986094711324,-0.325679871658755,-0.014850317720904727,0.007821993011591921,-0.05139129440336898,0.0,70.0,255.0,255.0,255.0
124,6.2,1.2227080649361737,-1.3390817541516298,-1.0330266674469923,-0.08793843685349412,0.05136800337676384,-0.32826368346269286,-0.016362687659876585,0.006629176791062008,-0.05177829590767846,0.0,70.0,255.0,255.0,255.0
125,6.25,1.2182904153692795,-1.3365052063042617,-1.0495047192091316,-0.0887867773062534,0.05167277862621944,-0.33085770124952285,-0.017016866395835883,0.005861128761286416,-0.051703058149121794,0.0,70.0,255.0,255.0,255.0
126,6.300000000000001,1.2138293872055483,-1.3339144762890078,-1.0661124375719446,-0.0896401234930777,0.05195411625289248,-0.33343398927760504,-0.016556620501551045,0.005711090273186059,-0.05108134424802735,0.0,70.0,255.0,255.0,255.0
127,6.3500000000000005,1.2093264030199717,-1.3313097946789725,-1.082848118136892,-0.0904424393564085,0.052243887653538046,-0.3359658356743256,-0.015205598908774043,0.006086310161879105,-0.05006072630611147,0.0,70.0,255.0,255.0,255.0
128,6.4,1.2047851432699075,-1.328690087523654,-1.0997090211393772,-0.09116068338395511,0.05256274726908039,-0.3384400619082162,-0.01343047429245292,0.006768857680117257,-0.048922467271705905,0.0,70.0,255.0,255.0,255.0
129,6.45,1.2002103346815762,-1.3260535199520644,-1.1166921243277137,-0.09178548678565379,0.05292077342154977,-0.3408580824014962,-0.011709584700692055,0.007542973835872324,-0.04795971596556203,0.0,70.0,255.0,255.0,255.0
130,6.5,1.195606594591342,-1.323398010181499,-1.1337948293795268,-0.09233164185402432,0.05331704465266762,-0.3432360335047724,-0.010507028634343385,0.008198327008668294,-0.04746375236888145,0.0,70.0,255.0,255.0,255.0
131,6.550000000000001,1.1909771704961738,-1.3207218154867977,-1.151015727678191,-0.09283618964908813,0.0537406061224166,-0.3456044576383843,-0.010077504175032281,0.008610318930069027,-0.04758055789559901,0.0,70.0,255.0,255.0,255.0
132,6.6000000000000005,1.1863229756264333,-1.3180239495692574,-1.1683552751433652,-0.09333939227152754,0.054178076545674525,-0.3479940892943323,-0.010333002095608279,0.008777979334051444,-0.0481740908399475,0.0,70.0,255.0,255.0,255.0
133,6.65,1.181643231269021,-1.3153040078322302,-1.1858151366076242,-0.09386948985864896,0.054618404055821745,-0.35042186672237907,-0.011042144083561745,0.00873632918176881,-0.048966948397821675,0.0,70.0,255.0,255.0,255.0
134,6.7,1.1769360266405684,-1.3125621091636752,-1.2033974618156031,-0.09444360667988372,0.055051709463851406,-0.35289078413411445,-0.011971374469599283,0.00851324021979849,-0.049676266803366786,0.0,70.0,255.0,255.0,255.0
135,6.75,1.1721988706010327,-1.309798836885845,-1.2211042150210356,-0.09506662730560889,0.055469728077801594,-0.35538949340271575,-0.01288303771473931,0.008137544555864018,-0.05001396034747252,0.0,70.0,255.0,255.0,255.0
136,6.800000000000001,1.1674293639100075,-1.307015136355895,-1.2389364111558747,-0.09573191045135765,0.05586546391943781,-0.3578921801688617,-0.013628840654034136,0.007639895078703773,-0.049830363563607705,0.0,70.0,255.0,255.0,255.0
137,6.8500000000000005,1.162625679555897,-1.3042122904939013,-1.2568934330379218,-0.0964295113710123,0.05623371758567197,-0.3603725297590765,-0.014186122312587202,0.007082611662756477,-0.049249250660565735,0.0,70.0,255.0,255.0,255.0
138,6.9,1.1577864127729063,-1.3013917645973279,-1.2749736641317824,-0.09715052268261637,0.056573725085713455,-0.3628171052349183,-0.014553863126165467,0.00656666475367107,-0.04852255964979957,0.0,70.0,255.0,255.0,255.0
139,6.95,1.1529106272876353,-1.29855491798533,-1.2931751435614136,-0.09788489768362885,0.05689038406103908,-0.3652247857240565,-0.014713542129451973,0.006203039644070429,-0.047895589781199455,0.0,70.0,255.0,255.0,255.0
140,7.0,1.1479979230045434,-1.295702726191224,-1.311496142704188,-0.09862187689556157,0.0571940290501205,-0.3676066642130382,-0.014656764562581692,0.006095504091852,-0.04761234097312439,0.0,70.0,255.0,255.0,255.0
141,7.050000000000001,1.1430484395980791,-1.292835515080318,-1.3299358099827174,-0.09935057413988702,0.05749993447022428,-0.3699860198213689,-0.014392680994523843,0.006290613575621329,-0.04779784798998321,0.0,70.0,255.0,255.0,255.0
142,7.1000000000000005,1.1380628655905547,-1.2899527327442015,-1.348494744686325,-0.10006114499501395,0.05782309040768263,-0.37238644901203655,-0.013966051777614119,0.0067270984904110875,-0.048343498592373635,0.0,70.0,255.0,255.0,255.0
143,7.15,1.1330423250985777,-1.2870532060395496,-1.367174454883921,-0.10074717931764843,0.05817264431926539,-0.3748203696806063,-0.01346053860986629,0.007280648167196091,-0.04902822092816006,0.0,70.0,255.0,255.0,255.0
144,7.2,1.1279881476587899,-1.284135468312275,-1.3859767816543855,-0.10140719885600058,0.05855115522440224,-0.37728927110485255,-0.01298014465827002,0.00781511402461188,-0.04963480064534842,0.0,70.0,255.0,255.0,255.0
145,7.25,1.1229016052129777,-1.2811980905171094,-1.4049033819944063,-0.10204519378347543,0.058954155721726575,-0.3797838497451411,-0.012629950654918787,0.008192420428532188,-0.04995271305627824,0.0,70.0,255.0,255.0,255.0
146,7.300000000000001,1.1177836282804423,-1.2782400527401023,-1.4239551666288996,-0.10267019392149246,0.05937039726725546,-0.3822845424104804,-0.012466635833963124,0.008338163439303159,-0.049871671049905864,0.0,70.0,255.0,255.0,255.0
147,7.3500000000000005,1.1126345858208284,-1.2752610507903839,-1.4431318362354544,-0.10329185736687174,0.05978797206565689,-0.3847710168501317,-0.01246603421336534,0.008292630739403783,-0.04946216289514194,0.0,70.0,255.0,255.0,255.0
148,7.4,1.1074544425437551,-1.2722612555335366,-1.4624322683139128,-0.10391679734282899,0.06019966034119584,-0.38723075869999457,-0.01256845795905015,0.00814626705309962,-0.048879148712055454,0.0,70.0,255.0,255.0,255.0
149,7.45,1.1022429060865455,-1.2692410847562643,-1.4818549121054538,-0.10454870316277676,0.06060259877096685,-0.38965893172133725,-0.012712079703680601,0.007990303791149955,-0.048278494350917356,0.0,70.0,255.0,255.0,255.0
150,7.5,1.0969995722274775,-1.26620099565644,-1.5013981614860465,-0.10518800531319705,0.06099869072031083,-0.3920586081350863,-0.01283145146557807,0.00792679554575404,-0.04781279747789746,0.0,70.0,255.0,255.0,255.0
151,7.550000000000001,1.0917241055552258,-1.2631412156842332,-1.5210607729189625,-0.10583184830933456,0.06139527832554226,-0.394440211469127,-0.01288800177676741,0.008009506559991664,-0.04756824170297769,0.0,70.0,255.0,255.0,255.0
152,7.6000000000000005,1.086416387396544,-1.2600614678238857,-1.5408421826329592,-0.1064768054908738,0.06179964137631,-0.3968154323053841,-0.01289074376995547,0.008181446151356297,-0.04752421346334579,0.0,70.0,255.0,255.0,255.0
153,7.65,1.0810764250061384,-1.2569612515466022,-1.5607423161495009,-0.10712092268633011,0.06221342294067789,-0.3991926328154616,-0.012863857992395644,0.008336055182245339,-0.04761965974819926,0.0,70.0,255.0,255.0,255.0
154,7.7,1.075704295127911,-1.253840125529818,-1.5807614459145054,-0.10776319129011336,0.06263324689453453,-0.401577398280204,-0.01282533606083991,0.008376584563407619,-0.04779742241713958,0.0,70.0,255.0,255.0,255.0
155,7.75,1.070300105877127,-1.2506979268571488,-1.6009000559775213,-0.1084034562924141,0.06305108139701865,-0.40397237505717554,-0.012792215510470939,0.008204453332405492,-0.04800411568017804,0.0,70.0,255.0,255.0,255.0
156,7.800000000000001,1.0648639494986696,-1.247535017390116,-1.621158683420223,-0.10904241284116045,0.06345369222777508,-0.4063778098482218,-0.012774643772117678,0.0077767240738157994,-0.048202588245227496,0.0,70.0,255.0,255.0,255.0
157,7.8500000000000005,1.059395864593011,-1.2443525576343712,-1.6415378369623435,-0.10968092066962587,0.06382875380440023,-0.4087926338816983,-0.012770990706889584,0.007183356217099757,-0.048361915652339604,0.0,70.0,255.0,255.0,255.0
158,7.9,1.053895857431707,-1.241152142009676,-1.6620379468083928,-0.11031951191184941,0.06417202784948506,-0.41121400141345577,-0.012776110071510693,0.006588579816879658,-0.04844044073375464,0.0,70.0,255.0,255.0,255.0
159,7.95,1.048363913401826,-1.2379353548494227,-1.682659237103689,-0.11095853167677694,0.0644876117860882,-0.41363667795507375,-0.012786576052969956,0.006156131847845359,-0.048392328801005746,0.0,70.0,255.0,255.0,255.0
160,8.0,1.0428000042640293,-1.2347033808310672,-1.7034016146039002,-0.1115981695171464,0.0647876410342696,-0.41605323429355634,-0.012799686492526163,0.006047372476714052,-0.048170739801212115,0.0,70.0,255.0,255.0,255.0
161,8.05,1.0372040964501115,-1.2314565907459958,-1.7242645605330447,-0.11223850032602956,0.0650923490337596,-0.41845375193519496,-0.012813423134883095,0.00633739667854627,-0.047760892495518625,0.0,70.0,255.0,255.0,255.0
162,8.1,1.0315761542314263,-1.2281941459276913,-1.7452469897974197,-0.11287951183063472,0.06542138070212422,-0.4208293235431082,-0.012825293402407567,0.006920653455666503,-0.04722989548904266,0.0,70.0,255.0,255.0,255.0
163,8.15,1.025916145267048,-1.2249144526757834,-1.7663474928873555,-0.11352102966627031,0.06578441437932625,-0.42317674148409923,-0.012831701721416344,0.0075932619138852075,-0.046697644916116055,0.0,70.0,255.0,255.0,255.0
164,8.200000000000001,1.0202240512647993,-1.2216157044897586,-1.7875646639458296,-0.11416268200277635,0.06618070689351274,-0.4254990880347198,-0.012828359727246053,0.008146114152562944,-0.04628603627161443,0.0,70.0,255.0,255.0,255.0
165,8.25,1.0144998770667704,-1.218296381986432,-1.8088974016908275,-0.11480386563899492,0.06659902579458254,-0.42780534511126067,-0.012809038519567828,0.008370066084717465,-0.04610490646683729,0.0,70.0,255.0,255.0,255.0
166,8.3,1.0087436647008998,-1.2149558019103004,-1.8303451984569556,-0.11544358585473313,0.06701771350198449,-0.43010957868140354,-0.012771663688604384,0.008160402498691433,-0.046207641306539315,0.0,70.0,255.0,255.0,255.0
167,8.35,1.002955518481297,-1.2115946106362336,-1.8519083595589678,-0.11608103200785536,0.06741506604445169,-0.4324261092419146,-0.012727835683268296,0.0076194378857197265,-0.04655402686704058,0.0,70.0,255.0,255.0,255.0
168,8.4,0.9971355615001143,-1.2082142953058552,-1.873587809381147,-0.11671636942305996,0.06777965729055646,-0.4347649813681076,-0.012697083042545465,0.006952964602002787,-0.04705261596542609,0.0,70.0,255.0,255.0,255.0
169,8.450000000000001,0.991283881538991,-1.204816644907178,-1.8953848576957786,-0.1173507403121099,0.06811036250465197,-0.4371313708384572,-0.012699985038200357,0.006365984968503824,-0.047604038932846926,0.0,70.0,255.0,255.0,255.0
170,8.5,0.9854004874689033,-1.20140325905539,-1.9173009464649928,-0.11798636792688,0.06841625578740684,-0.4395253852613923,-0.012764159429357047,0.006056325888459391,-0.048121615683438534,0.0,70.0,255.0,255.0,255.0
171,8.55,0.979485244746303,-1.1979750193284373,-1.9393373962219178,-0.11862715625504561,0.0687159950934979,-0.44194353240680107,-0.01289992211060964,0.006127566753200142,-0.04854905509910079,0.0,70.0,255.0,255.0,255.0
172,8.6,0.9735377718433987,-1.1945316595460402,-1.961495299705673,-0.11927636013794096,0.06902901246272686,-0.44438029077130237,-0.013063363864340705,0.006516187076122115,-0.048837633406439984,0.0,70.0,255.0,255.0,255.0
173,8.65,0.967557608732509,-1.1910721180821646,-1.983775425299048,-0.11993349264147968,0.06936761380111012,-0.44682729574744506,-0.0131799661084675,0.007080287603411506,-0.048927415697597176,0.0,70.0,255.0,255.0,255.0
174,8.700000000000001,0.9615444225792508,-1.1875948981659292,-2.0061780292804174,-0.12059435674878771,0.06973704122306801,-0.4492730323410621,-0.013178413406833567,0.007676659260091867,-0.04876503410411459,0.0,70.0,255.0,255.0,255.0
175,8.75,0.9554981730576302,-1.1840984139598578,-2.0287027285331543,-0.12125133398216303,0.0701352797271193,-0.4517037991578565,-0.012986351735033708,0.008168639685557366,-0.04830466809551126,0.0,70.0,255.0,255.0,255.0
176,8.8,0.9494192891810345,-1.1805813701932173,-2.051348409196203,-0.12189299192229108,0.07055390519162374,-0.4541034991506132,-0.012574848335100697,0.00847655659572677,-0.04754131312223464,0.0,70.0,255.0,255.0,255.0
177,8.85,0.9433088738654011,-1.1770430234406954,-2.0741130784482156,-0.1225088188156731,0.07098293538669198,-0.45645793047008,-0.012020480421093271,0.008599450173463197,-0.04657805022985073,0.0,70.0,255.0,255.0,255.0
178,8.9,0.9371684072994672,-1.173483076654548,-2.096994202243211,-0.12309503996440041,0.07141385020897006,-0.4587613041735983,-0.011462120122651687,0.00856140945988404,-0.04559762800422362,0.0,70.0,255.0,255.0,255.0
179,8.950000000000001,0.930999369868961,-1.1699016384197984,-2.1199892088655754,-0.12365503082793827,0.07183907633268038,-0.46101769327050235,-0.011039135227308705,0.008387890811523135,-0.04479428618902048,0.0,70.0,255.0,255.0,255.0
180,9.0,0.9248029042166733,-1.16629916902128,-2.1430959715702613,-0.12419895348713128,0.07225263929012238,-0.46324073279250033,-0.010882414982604782,0.008113124693420737,-0.04434773058266117,0.0,70.0,255.0,255.0,255.0
181,9.05,0.9185794745202479,-1.1626763744907862,-2.1663132821448254,-0.12474327232619875,0.07265038880202246,-0.46545246632876847,-0.011054484082728688,0.007765181223096107,-0.04434620523228183,0.0,70.0,255.0,255.0,255.0
182,9.1,0.9123285769840535,-1.1590341301410778,-2.189641218203138,-0.12530440189540415,0.07302915741243199,-0.4676753533157285,-0.011490238926725738,0.007366851390733231,-0.0447229861866294,0.0,70.0,255.0,255.0,255.0
183,9.15,0.9060490343307075,-1.155373458749543,-2.2130808174763983,-0.12589229621887132,0.07338707394109578,-0.4699247649474314,-0.012055189764581531,0.006954913717649447,-0.04532841261206677,0.0,70.0,255.0,255.0,255.0
184,9.200000000000001,0.8997393473621663,-1.1516954227469682,-2.2366336946978813,-0.1265099208718623,0.07372464878419693,-0.4722081945769352,-0.012605558504408254,0.006577465139390171,-0.045998333960461935,0.0,70.0,255.0,255.0,255.0
185,9.25,0.8933980422435213,-1.1480009938711233,-2.260301636934092,-0.12715285206931215,0.0740448204550348,-0.4745245983434776,-0.012995969686613318,0.006274898837022036,-0.046572381601928114,0.0,70.0,255.0,255.0,255.0
186,9.3,0.8870240621552351,-1.1442909407014648,-2.284086154532229,-0.12780951784052363,0.07435213866789914,-0.476865432737128,-0.0131477281545056,0.006069431798905178,-0.04695489158939026,0.0,70.0,255.0,255.0,255.0
187,9.35,0.8806170904594689,-1.1405657800043334,-2.3079881802078046,-0.1284676248847627,0.07465176363492532,-0.4792200875024166,-0.013102200235537431,0.005970440300773205,-0.04713457378802133,0.0,70.0,255.0,255.0,255.0
188,9.4,0.8741772996667588,-1.1368257643379722,-2.3320081632824707,-0.12911973786407738,0.07494918269797646,-0.48157889011593014,-0.012952645294528331,0.005981639632013369,-0.04712247446159168,0.0,70.0,255.0,255.0,255.0
189,9.450000000000001,0.8677051166730612,-1.1330708617345358,-2.3561460692193976,-0.12976288941421554,0.07524992759812665,-0.4839323349485758,-0.012792430288832701,0.006095535344097236,-0.046926690323711995,0.0,70.0,255.0,255.0,255.0
190,9.5,0.8612010107253373,-1.1293007715781596,-2.3804013967773283,-0.13039898089296065,0.07555873623238618,-0.48627155914830134,-0.01272568762296089,0.0062912426625594264,-0.0465547243616804,0.0,70.0,255.0,255.0,255.0
191,9.55,0.8546652185837651,-1.1255149881112971,-2.4047732251342278,-0.13103545817651163,0.0758790518643826,-0.48858780738474383,-0.012807377192058933,0.006551403935728395,-0.046026489482020594,0.0,70.0,255.0,255.0,255.0
192,9.600000000000001,0.8480974649076861,-1.1217128663917213,-2.4292601775158027,-0.13167971861216654,0.07621387662595902,-0.4908742080965034,-0.012980027730125077,0.006870548245219155,-0.04541955782211282,0.0,70.0,255.0,255.0,255.0
193,9.65,0.8414972467225484,-1.1178936004487012,-2.453860645943878,-0.13233346094952414,0.07656610668890451,-0.4931297631669551,-0.013136000619085042,0.007237688593386693,-0.04486252870270491,0.0,70.0,255.0,255.0,255.0
194,9.700000000000001,0.8348641188127337,-1.1140562557228308,-2.478573153832498,-0.13299331867407505,0.07693764548529769,-0.4953604609667739,-0.013177634093286539,0.0076347058386216915,-0.044493879103635336,0.0,70.0,255.0,255.0,255.0
195,9.75,0.8281979148551409,-1.1101998359001715,-2.5033966920405555,-0.1336512243588528,0.07732957727276668,-0.49757915107731865,-0.013005335765592374,0.008064093216764157,-0.04445273027529062,0.0,70.0,255.0,255.0,255.0
196,9.8,0.8214989963768484,-1.1063232979955542,-2.52833106894023,-0.13429385225063428,0.0777440548069741,-0.49980573399430295,-0.01257567683010663,0.008518239171406705,-0.04479966330293017,0.0,70.0,255.0,255.0,255.0
197,9.850000000000001,0.8147685296300775,-1.102425430419474,-2.5533772654399858,-0.13490879204186346,0.07818140118990735,-0.5020591174076117,-0.011979460405664444,0.008910070681089621,-0.04542271939915743,0.0,70.0,255.0,255.0,255.0
198,9.9,0.8080081171726621,-1.0985051578765634,-2.5785369806809912,-0.13549179829120073,0.07863506187508307,-0.5043480059342187,-0.011382419828243062,0.009104902031764617,-0.04611104709129066,0.0,70.0,255.0,255.0,255.0
199,9.950000000000001,0.8012193498009574,-1.0945619242319657,-2.6038120660334076,-0.13604703402468776,0.07909189139308381,-0.5066702221167407,-0.010949807230931086,0.008979067874803626,-0.046645019369062624,0.0,70.0,255.0,255.0,255.0
200,10.0,0.7944034137701933,-1.090595968737255,-2.6292040028926653,-0.13658677901429384,0.07953296866256343,-0.509012507871125,-0.010844950666566433,0.008400449738443783,-0.04679836386123348,0.0,70.0,255.0,255.0,255.0
201,10.05,0.787560671899528,-1.0866086273657094,-2.65471331682052,-0.1371315290913444,0.07993193636692819,-0.5113500585028641,-0.011143715021288969,0.007327527490574859,-0.04646157059253753,0.0,70.0,255.0,255.0,255.0
202,10.100000000000001,0.7806902608610589,-1.0826027751005622,-2.6803390087429517,-0.13770115051642273,0.08026572141162092,-0.5136586649303787,-0.011737655122801005,0.0059717797531666506,-0.045774972506462674,0.0,70.0,255.0,255.0,255.0
203,10.15,0.7737905568478858,-1.0785820552245473,-2.706079183313558,-0.1383052946036245,0.08052911434224486,-0.5159275557535103,-0.012417956431598487,0.004702610039353239,-0.04500787500703041,0.0,70.0,255.0,255.0,255.0
204,10.200000000000001,0.7668597314006964,-1.0745498636663378,-2.7319317643183028,-0.13894294615958258,0.08073598241555624,-0.5181594524310817,-0.012970363090236692,0.003894057627085168,-0.04443261684690114,0.0,70.0,255.0,255.0,255.0
205,10.25,0.7598962622319275,-1.0705084569829917,-2.757895128556666,-0.13960233091264818,0.08091852010495337,-0.5203708174382005,-0.013178870891994432,0.003918070533437401,-0.044337776983427446,0.0,70.0,255.0,255.0,255.0
206,10.3,0.7528994983094316,-1.0664580116558424,-2.783968846062123,-0.14026083324878202,0.08112778946889998,-0.5225932301294245,-0.012936176371403096,0.004939762754418986,-0.04486062775335142,0.0,70.0,255.0,255.0,255.0
207,10.350000000000001,0.7458701789070493,-1.0623956780361017,-2.8101544515696086,-0.14089594854978849,0.08141249638039527,-0.5248568802135356,-0.012355327028690244,0.006672087695624995,-0.04579198264975659,0.0,70.0,255.0,255.0,255.0
208,10.4,0.7388099034544527,-1.058316762017803,-2.8364545340834764,-0.14149636595165105,0.08179499823846248,-0.5271724283944001,-0.0116603465199705,0.008572862938938108,-0.04674286080619261,0.0,70.0,255.0,255.0,255.0
209,10.450000000000001,0.7317205423118842,-1.0542161782122554,-2.8628716944090487,-0.14206198320178554,0.08226978267428908,-0.5295311662941549,-0.01107531383465199,0.010086379938512025,-0.0473313663903685,0.0,70.0,255.0,255.0,255.0
210,10.5,0.7246037051342742,-1.050089783750374,-2.889407650712892,-0.14260389733511625,0.08280363623231368,-0.531905565033437,-0.010823528469405819,0.01066330542389693,-0.04717062144461437,0.0,70.0,255.0,255.0,255.0
211,10.55,0.7174601525783726,-1.045935814589024,-2.9160622509123924,-0.14314433604872612,0.08333611321667878,-0.5342482284386163,-0.011018152919650692,0.010033048531266076,-0.04608174589990632,0.0,70.0,255.0,255.0,255.0
212,10.600000000000001,0.7102892715294016,-1.041756172428706,-2.9428324735567535,-0.14370571262708132,0.08380694108544029,-0.5365137396234276,-0.011555628837134346,0.008475160839704898,-0.0443460479438329,0.0,70.0,255.0,255.0,255.0
213,10.65,0.7030895813156645,-1.03755512048048,-2.969713624874735,-0.14429989893243955,0.08418362930064927,-0.5386828332329996,-0.012226065413967202,0.006551485990535788,-0.042493409041055585,0.0,70.0,255.0,255.0,255.0
214,10.700000000000001,0.6958592816361576,-1.0333378094986412,-2.9967007568800534,-0.14492831916847804,0.08446208968449387,-0.5407630805275332,-0.012821808144447555,0.004833056651465384,-0.04105403880414471,0.0,70.0,255.0,255.0,255.0
215,10.75,0.6885967493988167,-1.0291089115120307,-3.0237899329274884,-0.1455820797468843,0.0846669349657958,-0.5427882371134141,-0.013143052526365384,0.003884651826946417,-0.040547662645273874,0.0,70.0,255.0,255.0,255.0
216,10.8,0.6813010736614692,-1.0248711160020616,-3.050979580591395,-0.14624262442111458,0.08485055486718851,-0.5448178467920606,-0.01308463852348618,0.004000677153115362,-0.041226561140694784,0.0,70.0,255.0,255.0,255.0
217,10.850000000000001,0.6739724869567052,-1.0206238560253118,-3.0782717176066945,-0.14689054359923293,0.08506700268110734,-0.5469108932274835,-0.012707565548264466,0.004972816731019236,-0.042809466601134716,0.0,70.0,255.0,255.0,255.0
218,10.9,0.6666120193015459,-1.0163644157339509,-3.105670669914143,-0.14751338097594102,0.08534783654029043,-0.549098793452174,-0.012149983898801509,0.0063564844742014515,-0.04473618368248111,0.0,70.0,255.0,255.0,255.0
219,10.950000000000001,0.6592211488591111,-1.0120890723712828,-3.133181596951912,-0.14810554198911308,0.08570265112852749,-0.5513845115957317,-0.01155074030073644,0.007707733782069681,-0.046433643894427945,0.0,70.0,255.0,255.0,255.0
220,11.0,0.6518014651026346,-1.0077941506210981,-3.1608091210737164,-0.14866845500601467,0.0861186099184974,-0.5537421578416168,-0.011040252100991133,0.008586152536493863,-0.04733075594591796,0.0,70.0,255.0,255.0,255.0
221,11.05,0.6443543033585096,-1.003477211379433,-3.1885558127360736,-0.1492095671992122,0.08656126638217687,-0.5561175871903234,-0.0106960668791789,0.008752121644095556,-0.04713266221743062,0.0,70.0,255.0,255.0,255.0
222,11.100000000000001,0.6368805083827134,-0.9991380239828804,-3.2164208797927487,-0.14973806169393256,0.08699382208290696,-0.5584554240633599,-0.010530472606229413,0.008323548926036928,-0.04607053786656046,0.0,70.0,255.0,255.0,255.0
223,11.15,0.6293804971891164,-0.9947778291711423,-3.2444013551424096,-0.15026261445983513,0.08739362127478056,-0.5607246409769795,-0.010538474515475738,0.007570921100885641,-0.044626564854155504,0.0,70.0,255.0,255.0,255.0
224,11.200000000000001,0.6218542469367299,-0.9903986618554024,-3.2724933438904467,-0.15079190914548013,0.08775091419299552,-0.5629180805487755,-0.010714717832116527,0.006756894001214153,-0.043285045291652224,0.0,70.0,255.0,255.0,255.0
225,11.25,0.6143013062745684,-0.9860027377518428,-3.300693163197287,-0.15133408624304678,0.08806931067490198,-0.5650531455061447,-0.01105192974550917,0.006146682083141286,-0.04254124830271877,0.0,70.0,255.0,255.0,255.0
226,11.3,0.6067208383124252,-0.9815917307879122,-3.328998658441061,-0.15189710212003105,0.08836558240130965,-0.5671722053790473,-0.011532119600765611,0.005889670769321231,-0.042654911201545076,0.0,70.0,255.0,255.0,255.0
227,11.350000000000001,0.5991115960625653,-0.9771661795117118,-3.357410383735192,-0.15248729820312334,0.0886582777518341,-0.5693186366262992,-0.01208970486602512,0.005928418800238422,-0.04341840524264562,0.0,70.0,255.0,255.0,255.0
228,11.4,0.5914721084921128,-0.9727259030127288,-3.385930522103691,-0.15310607260663356,0.08895842428133349,-0.5715140459033119,-0.01261527887855829,0.006126078208468222,-0.044409211912732616,0.0,70.0,255.0,255.0,255.0
229,11.450000000000001,0.5838009888019019,-0.9682703370835785,-3.414561788325523,-0.15374882609097917,0.08927088557268092,-0.5737595578175725,-0.012991414011853664,0.006357091145514637,-0.04521871573150982,0.0,70.0,255.0,255.0,255.0
230,11.5,0.5760972258830149,-0.9637988144554607,-3.4433064778854483,-0.15440521400781893,0.08959413339588496,-0.5760359174764629,-0.013108019592933395,0.0064871657510678915,-0.04543236273120144,0.0,70.0,255.0,255.0,255.0
231,11.55,0.56836046740112,-0.95931092374399,-3.4721653800731693,-0.1550596280502725,0.08991960214778771,-0.5783027940906926,-0.012914941897201881,0.006443134672495798,-0.04484125941015549,0.0,70.0,255.0,255.0,255.0
232,11.600000000000001,0.5605912630779877,-0.9548068542406819,-3.5011367572945176,-0.1556967081975391,0.09023844686313454,-0.5805200434174784,-0.01247518345415255,0.0062837082738465,-0.04366395305117621,0.0,70.0,255.0,255.0,255.0
233,11.65,0.5527907965813661,-0.9502870790576765,-3.530217384414917,-0.15630714639568777,0.09054797297517236,-0.5826691893958102,-0.011916773606657216,0.006122994503476864,-0.042328475606456806,0.0,70.0,255.0,255.0,255.0
234,11.700000000000001,0.5449605484384189,-0.9457520569431647,-3.5594036762340986,-0.15688838555820483,0.09085074631348222,-0.5847528909781241,-0.011379113299869736,0.006061827663905728,-0.04125323863517494,0.0,70.0,255.0,255.0,255.0
235,11.75,0.5371019580255456,-0.9412020044263283,-3.5886926735127296,-0.15744505772567474,0.09115415574156294,-0.5867945132593277,-0.011004010530779595,0.006200598968608695,-0.04085321685649568,0.0,70.0,255.0,255.0,255.0
236,11.8,0.5292160426658514,-0.9366366413690084,-3.6180831275600314,-0.1579887866112828,0.09147080621034309,-0.5888382126637737,-0.010867599989983212,0.006584876787685268,-0.04133371083172577,0.0,70.0,255.0,255.0,255.0
237,11.850000000000001,0.5213030793644173,-0.932054923805294,-3.647576494779107,-0.15853181772467306,0.09181264342033146,-0.5909278843425003,-0.010925924953708588,0.007134976542588767,-0.04247589910315597,0.0,70.0,255.0,255.0,255.0
238,11.9,0.5133628608933841,-0.9274553770269752,-3.6771759159942814,-0.15908137910665365,0.09218430386460197,-0.5930858025740893,-0.01108210221926198,0.007702876178583562,-0.04384592995032577,0.0,70.0,255.0,255.0,255.0
239,11.950000000000001,0.505394941453752,-0.9228364934188338,-3.706885075036516,-0.15964002794659926,0.09258293103818982,-0.5953124773375329,-0.01123833325483159,0.008142824305956697,-0.0450089824083566,0.0,70.0,255.0,255.0,255.0
240,12.0,0.4973988580987242,-0.9181970839231562,-3.7367071637280347,-0.1602052124321368,0.09299858629519764,-0.5975867008149249,-0.011283956931951167,0.008318457022638004,-0.04553481646274449,0.0,70.0,255.0,255.0,255.0
241,12.05,0.4893744202105383,-0.913536634789314,-3.7666437451180084,-0.16076842363979438,0.09341477674045362,-0.5998659589838073,-0.011161884250177057,0.00816355864305951,-0.04520403712287013,0.0,70.0,255.0,255.0,255.0
242,12.100000000000001,0.48132201573474476,-0.9088556062491109,-3.7966937596264154,-0.16132140085715452,0.09381494215950359,-0.602107104527212,-0.010942049131984488,0.007740861080229866,-0.04420326638752137,0.0,70.0,255.0,255.0,255.0
243,12.15,0.47324228012482283,-0.9041551405733637,-3.8268544555707296,-0.16186262855299283,0.0941888628484766,-0.6042862856225595,-0.010753045954492446,0.007181864418559503,-0.042916988741392714,0.0,70.0,255.0,255.0,255.0
244,12.200000000000001,0.4651357528794455,-0.8994367199642632,-3.8571223881886714,-0.16239670545260376,0.09453312860135954,-0.6063988034013512,-0.01071463992786681,0.006626362291661803,-0.04173069187087819,0.0,70.0,255.0,255.0,255.0
245,12.25,0.45700260957956246,-0.8947018277132277,-3.8874943359108647,-0.1629340925457795,0.09485149907764279,-0.6084593548096473,-0.01095610579733286,0.00621359158891055,-0.041027470672316824,0.0,70.0,255.0,255.0,255.0
246,12.3,0.4488423436248675,-0.8899515700564989,-3.917968323669636,-0.16349231603233705,0.0951544877602506,-0.6105015504685829,-0.011531949256432528,0.006020375819570933,-0.04100948799621307,0.0,70.0,255.0,255.0,255.0
247,12.350000000000001,0.44065337797632875,-0.8851863789372026,-3.948544490957723,-0.16408728747142276,0.09545353665959988,-0.6125603036092686,-0.01230410695663986,0.00601794277279577,-0.041541991058302585,0.0,70.0,255.0,255.0,255.0
248,12.4,0.43243361487772525,-0.880406216390539,-3.979224354030563,-0.16472272672800103,0.09575628203753017,-0.6146557495744132,-0.013026646363678562,0.00613414167175419,-0.04233599853398218,0.0,70.0,255.0,255.0,255.0
249,12.450000000000001,0.42418110530352865,-0.8756107507334496,-4.010010065915164,-0.16538995210779062,0.0960669508267753,-0.6167939034626668,-0.01345704642762846,0.006297926993559244,-0.04310787714723041,0.0,70.0,255.0,255.0,255.0
250,12.5,0.4158946196669462,-0.8707995213078614,-4.04090374437683,-0.16606843137076388,0.0963860747368861,-0.6189665372891362,-0.013351666498712111,0.00643519526974945,-0.04357935679188962,0.0,70.0,255.0,255.0,255.0
251,12.55,0.40757426216645226,-0.865972143259761,-4.071906719644078,-0.16672511875766183,0.09671047035375024,-0.6211518391418558,-0.012602719656445993,0.006502164185895332,-0.04359866357326325,0.0,70.0,255.0,255.0,255.0
252,12.600000000000001,0.39922210779118,-0.8611284742724864,-4.103018928291015,-0.16732870333640848,0.09703629115547563,-0.6233264036464625,-0.011407770127813688,0.006508300229435271,-0.04323510970580813,0.0,70.0,255.0,255.0,255.0
253,12.65,0.3908413918328114,-0.8562685141442135,-4.134239360008724,-0.1678658957704432,0.09736130037669377,-0.6254753501124366,-0.010135799826288538,0.00647979733274795,-0.042651837635432344,0.0,70.0,255.0,255.0,255.0
254,12.700000000000001,0.3824355182141357,-0.851392344234817,-4.165566463302259,-0.16834228331903733,0.09768427088875042,-0.6275915874100058,-0.009162722147093572,0.006435729267872947,-0.042004885787250146,0.0,70.0,255.0,255.0,255.0
255,12.75,0.3740071635009077,-0.8465000870553384,-4.196998518749725,-0.16878216798515255,0.09800487330348107,-0.6296758386911616,-0.008865200235658177,0.006393599360021707,-0.04143906486371307,0.0,70.0,255.0,255.0,255.0
256,12.8,0.36555730141562043,-0.8415918569044689,-4.228534047171375,-0.16922880334260315,0.0983236308247526,-0.6317354938963771,-0.009424258364870708,0.006364254150159621,-0.04104191831695303,0.0,70.0,255.0,255.0,255.0
257,12.850000000000001,0.35708428316664736,-0.8366677239728632,-4.2601720681393624,-0.16972459382163962,0.09864129871849703,-0.6337800305228569,-0.01061492908237538,0.006348856309446038,-0.04083393375511335,0.0,70.0,255.0,255.0,255.0
258,12.9,0.34858484203345647,-0.8317277270326192,-4.291912050223661,-0.1702902962508407,0.0989585164556972,-0.6358188872718884,-0.01199919862023835,0.006346668997303517,-0.04082112644887559,0.0,70.0,255.0,255.0,255.0
259,12.950000000000001,0.3400552535415633,-0.8267718723272934,-4.323753956866551,-0.17092451368366346,0.09927596561822738,-0.6378621431677445,-0.013132717664576798,0.006359155934920757,-0.041012066883272524,0.0,70.0,255.0,255.0,255.0
260,13.0,0.3314923906650901,-0.8218001304707965,-4.355698264540435,-0.17160356801729837,0.09959443204918927,-0.6399200939602157,-0.013567579178641598,0.006390407290157718,-0.04142037442846913,0.0,70.0,255.0,255.0,255.0
261,13.05,0.32289489673983346,-0.8168124291223745,-4.387745966262573,-0.17228127160152762,0.09991500634724315,-0.6420041806105914,-0.013080386744207528,0.006440819213471283,-0.04203468880001893,0.0,70.0,255.0,255.0,255.0
262,13.100000000000001,0.31426426350493736,-0.8118086298360722,-4.419898682601494,-0.17291160669171912,0.1002385139705364,-0.6441235628402175,-0.011903329393553319,0.006496274532796775,-0.04274831611343899,0.0,70.0,255.0,255.0,255.0
263,13.15,0.30560373607066155,-0.8067885777253209,-4.452158322546595,-0.17347160454088295,0.10056463380052283,-0.6462790122219353,-0.010496589841990644,0.00653352667805418,-0.04338281740832173,0.0,70.0,255.0,255.0,255.0
264,13.200000000000001,0.29691710305084906,-0.8017521664560199,-4.484526583823688,-0.1739612656759182,0.10089186663834182,-0.6484618445810497,-0.009319554047743095,0.0065276469924269165,-0.04375458560774703,0.0,70.0,255.0,255.0,255.0
265,13.25,0.28820760950306973,-0.7966993910614867,-4.5170045070047,-0.17440355994565726,0.10121739849976552,-0.65065447078271,-0.008832408457642993,0.006444771479341416,-0.04368745607008506,0.0,70.0,255.0,255.0,255.0
266,13.3,0.27947674705628334,-0.7916304266060433,-4.549592030901959,-0.17484450652168249,0.10153634378627596,-0.6528305901880582,-0.00926734151144859,0.006272468995849323,-0.0431050141279421,0.0,70.0,255.0,255.0,255.0
267,13.350000000000001,0.2707231588509015,-0.7865457566828591,-4.582287566023505,-0.17533029409680212,0.10184464539935045,-0.6549649721955042,-0.010400937492632822,0.00606604555938306,-0.04213904887775399,0.0,70.0,255.0,255.0,255.0
268,13.4,0.2619437176466031,-0.7814459620661083,-4.615088528121509,-0.17588460027094577,0.10214294834221427,-0.6570444950758336,-0.01178525786260376,0.005919224290629188,-0.04104303515379826,0.0,70.0,255.0,255.0,255.0
269,13.450000000000001,0.2531346988238069,-0.7763314618486377,-4.647992015531089,-0.1765088198830625,0.10243656782841337,-0.659069275710884,-0.012975919291319249,0.005923542808683457,-0.04008185175781165,0.0,70.0,255.0,255.0,255.0
270,13.5,0.24429283565829688,-0.7712023052832669,-4.680995455692598,-0.1771821922000777,0.10273530262308261,-0.6610526802516148,-0.013534861582856217,0.00617847882028455,-0.039509801290815716,0.0,70.0,255.0,255.0,255.0
271,13.55,0.23541647960379913,-0.7660579315863294,-4.71409728355625,-0.17786230604134812,0.10305441571044183,-0.6630202558399656,-0.013237100356849885,0.006723104336803232,-0.039458541400971825,0.0,70.0,255.0,255.0,255.0
272,13.600000000000001,0.22650660505416206,-0.7608968637122228,-4.747297481276594,-0.17850590223576268,0.10340761305676294,-0.664998534391712,-0.012263736486742283,0.007437771668050708,-0.0398473764880336,0.0,70.0,255.0,255.0,255.0
273,13.65,0.21756588938022287,-0.7557171702806531,-4.780597136995421,-0.17908867969002235,0.1037981928772469,-0.667004993488769,-0.010991562856760284,0.008110508560510432,-0.04049315386547292,0.0,70.0,255.0,255.0,255.0
274,13.700000000000001,0.20859773708515983,-0.7505170444244981,-4.813997980625471,-0.1796050585214387,0.10421866391281398,-0.6690478497782593,-0.009796628926866946,0.008532121166782147,-0.041204720647058934,0.0,70.0,255.0,255.0,255.0
275,13.75,0.199605383528079,-0.7452953038893717,-4.847501921973247,-0.18006834258270904,0.10465140499392511,-0.6711254655534749,-0.009048098590866416,0.008501359859514057,-0.0417933387659275,0.0,70.0,255.0,255.0,255.0
276,13.8,0.19059090282688892,-0.7400519039251056,-4.881110527180819,-0.18050986838052535,0.10506879989876539,-0.673227183654852,-0.008943604380479142,0.00792751458922325,-0.042148559195887,0.0,70.0,255.0,255.0,255.0
277,13.850000000000001,0.18155439669002646,-0.7347884238994952,-4.914824640338733,-0.18096270302075695,0.10544415645284744,-0.6753403214730636,-0.009375072271364249,0.006949114854681859,-0.04227601393509417,0.0,70.0,255.0,255.0,255.0
278,13.9,0.17249463252481323,-0.7295074882798208,-4.948644559328125,-0.18144737560766178,0.10576371138423357,-0.6774547850483614,-0.010098374160230628,0.005834172702856577,-0.04221810229854128,0.0,70.0,255.0,255.0,255.0
279,13.950000000000001,0.16340965912926028,-0.7242120527610718,-4.982570118843569,-0.18197254043678002,0.1060275737231331,-0.6795621317029177,-0.010870478754132495,0.004860233596404306,-0.04201357800868166,0.0,70.0,255.0,255.0,255.0
280,14.0,0.15429737848113523,-0.7189047309075075,-5.016600772498417,-0.18253442348307503,0.106249734743874,-0.6816561428492296,-0.011444772025684391,0.0042960817415838015,-0.041708824997144234,0.0,70.0,255.0,255.0,255.0
281,14.05,0.14515621678095278,-0.7135870792866844,-5.050735733128492,-0.18311701763934846,0.10645718189729148,-0.6837330142026321,-0.011682934335707773,0.004280124019617748,-0.04133948288664868,0.0,70.0,255.0,255.0,255.0
282,14.100000000000001,0.13598567671720038,-0.7082590127177784,-5.08497407391868,-0.1837027169166458,0.10667774714583578,-0.6857900911378945,-0.01164054319239688,0.00471765702519944,-0.0409294069326549,0.0,70.0,255.0,255.0,255.0
283,14.15,0.1267859450892882,-0.7029193045721008,-5.119314742242281,-0.18428107195858814,0.10692894759981142,-0.6878259548958976,-0.011448693416060696,0.005400912516129175,-0.04051527610240413,0.0,70.0,255.0,255.0,255.0
284,14.200000000000001,0.11755756952134157,-0.6975661179577972,-5.15375666940827,-0.18484758625825187,0.1072178383974487,-0.6898416187481349,-0.011229055124201137,0.0061136577342191245,-0.040146654963901796,0.0,70.0,255.0,255.0,255.0
285,14.25,0.10830118646346301,-0.692197520732356,-5.188298904117095,-0.18540397747100826,0.10754031337323333,-0.6918406203922878,-0.011112766686309505,0.006634313174158635,-0.039867398540938126,0.0,70.0,255.0,255.0,255.0
286,14.3,0.09901717177424074,-0.6868120866204739,-5.2229407314474985,-0.18595886292688282,0.10788126971486456,-0.6938283586022287,-0.011170718882755337,0.006839728260144007,-0.03970022254371486,0.0,70.0,255.0,255.0,255.0
287,14.350000000000001,0.08970530017077473,-0.6814093937608695,-5.2576817399773175,-0.1865210493592838,0.10822428619924773,-0.6958106426466593,-0.011341822558154357,0.006784825809180717,-0.039643654371346315,0.0,70.0,255.0,255.0,255.0
288,14.4,0.08036506683831236,-0.6759896580005491,-5.292521795712164,-0.18709304518269826,0.10855975229578263,-0.6977927240393633,-0.011508623737302437,0.006595930146291451,-0.039683497255094125,0.0,70.0,255.0,255.0,255.0
289,14.450000000000001,0.0709959956525049,-0.6705534185312912,-5.327461012381254,-0.18767191173301404,0.10888387921387688,-0.6997789923721687,-0.011566214501968486,0.006392734534244049,-0.03979980213575374,0.0,70.0,255.0,255.0,255.0
290,14.5,0.06159787566501096,-0.6651012700791614,-5.362499694949381,-0.1882496666328951,0.10919902574920703,-0.7017727042529387,-0.011408217173088653,0.006306618941753772,-0.039977571514882015,0.0,70.0,255.0,255.0,255.0
291,14.55,0.05217102898921539,-0.6596335159563705,-5.397638282806548,-0.1888127334503229,0.10951454110805225,-0.7037767495236569,-0.010987103886182237,0.006407023545884627,-0.04020013975933878,0.0,70.0,255.0,255.0,255.0
292,14.600000000000001,0.04271660231997867,-0.6541498159683562,-5.432877369901747,-0.18934837702151333,0.1098397281037955,-0.7057927182288726,-0.01039393813679429,0.006622107337239669,-0.04041690798297637,0.0,70.0,255.0,255.0,255.0
293,14.65,0.03323619128706406,-0.648649543145991,-5.468217554629435,-0.18985212726400233,0.11017675184177622,-0.7078184403219545,-0.009795879233813753,0.006817138460479821,-0.04054896331568969,0.0,70.0,255.0,255.0,255.0
294,14.700000000000001,0.023731389593578435,-0.6431321407841786,-5.503659213933942,-0.1903279649448947,0.11052144194984348,-0.7098476145604415,-0.00935886076069592,0.006868317881647545,-0.0405146493136499,0.0,70.0,255.0,255.0,255.0
295,14.75,0.014203394792574587,-0.6375973989510066,-5.539202316085479,-0.19078801334007192,0.11086358362994098,-0.7118699052533195,-0.009246345973270287,0.006643267002881537,-0.040222315398441566,0.0,70.0,255.0,255.0,255.0
296,14.8,0.004652588259571241,-0.6320457824211845,-5.574846204459274,-0.19125259954222174,0.11118576865013163,-0.7138698461002857,-0.00953466510631773,0.006085091309171453,-0.03963870559831051,0.0,70.0,255.0,255.0,255.0
297,14.850000000000001,-0.004921865161647588,-0.6264788220859935,-5.610589300695508,-0.1917414798507037,0.11147209276085812,-0.7158337758131506,-0.010117949370235801,0.0053285164036021015,-0.03889048525937966,0.0,70.0,255.0,255.0,255.0
298,14.9,-0.014521559725499131,-0.6208985731450987,-5.646429582040589,-0.19226439447924532,0.11171862029049184,-0.7177588946262237,-0.010791495691087616,0.0046145836109068306,-0.03819971708125536,0.0,70.0,255.0,255.0,255.0
299,14.950000000000001,-0.02414830460957212,-0.6153069600569443,-5.68236519015813,-0.19282062941981246,0.1119335511219488,-0.7196537475212761,-0.011345568562465824,0.0041800545452774784,-0.03778766121600441,0.0,70.0,255.0,255.0,255.0
300,15.0,-0.033803622667480375,-0.6097052180329038,-5.718394956792717,-0.1933989513354919,0.11213662574501959,-0.7215376607478241,-0.011570408257795262,0.00426026642666999,-0.03787312027121459,0.0,70.0,255.0,255.0,255.0
301,15.05,-0.04348819974312131,-0.6040932974824423,-5.754518956232912,-0.19397767024559198,0.1123595777646158,-0.7234410595483975,-0.011360948975259744,0.004960210284965516,-0.03855263691443511,0.0,70.0,255.0,255.0,255.0
302,15.100000000000001,-0.05320138969203957,-0.5984692602564422,-5.790739062747557,-0.19453504623301787,0.11263264677351614,-0.7253929244392676,-0.010819672307715023,0.006097579962027755,-0.03965490389283843,0.0,70.0,255.0,255.0,255.0
303,15.15,-0.0629417043664231,-0.5928300328050907,-5.827058248676839,-0.19505963747636348,0.11296933576081858,-0.7274065499376814,-0.01015273007643841,0.00732909586054209,-0.040856737123817766,0.0,70.0,255.0,255.0,255.0
304,15.200000000000001,-0.07270735343967592,-0.5871723266803603,-5.863479717741325,-0.1955503192406617,0.11336555635957035,-0.7294785981516494,-0.009565438416005989,0.008305916151862824,-0.04182915803792042,0.0,70.0,255.0,255.0,255.0
305,15.25,-0.08249673629048927,-0.5814934771691337,-5.900006108492004,-0.19601618131796408,0.11379992737600486,-0.7315894657414734,-0.009255983699466008,0.008687695262377115,-0.04225723148936211,0.0,70.0,255.0,255.0,255.0
306,15.3,-0.09230897157147233,-0.5757923339427599,-5.936638664315472,-0.1964759176106083,0.11423432588580806,-0.7337043213005856,-0.009328112419210166,0.008306981303785044,-0.04198366049621427,0.0,70.0,255.0,255.0,255.0
307,15.350000000000001,-0.1021443280515501,-0.5700700445805529,-5.973376540622063,-0.1969489925598851,0.11463062550638337,-0.7357878317910949,-0.009717953473545315,0.007331047198144702,-0.041139782617971576,0.0,70.0,255.0,255.0,255.0
308,15.4,-0.11200387082746084,-0.5643292713921215,-6.010217447494582,-0.19744771295796285,0.11496743060562253,-0.7378182995623828,-0.010282991928586838,0.006099988657914945,-0.04000429013446549,0.0,70.0,255.0,255.0,255.0
309,15.450000000000001,-0.12188909934734639,-0.5585733015199906,-6.047158370578301,-0.19797729175274378,0.11524062437217486,-0.7397882608045414,-0.010879391060217292,0.004962341453473851,-0.038868480526410565,0.0,70.0,255.0,255.0,255.0
310,15.5,-0.13180160000273522,-0.552805208954904,-6.084196273575036,-0.19853565206398457,0.11546366475096992,-0.7417051476150238,-0.011369666268294665,0.004260933875810391,-0.038021963095413724,0.0,70.0,255.0,255.0,255.0
311,15.55,-0.14174266455374485,-0.5470269350448936,-6.121328885339803,-0.19911425837957325,0.1156667177597559,-0.7435904571140828,-0.011673827455117858,0.0041779251059193,-0.03762498217252386,0.0,70.0,255.0,255.0,255.0
312,15.600000000000001,-0.15171302584069254,-0.5412385371789284,-6.158555319286444,-0.19970303480949636,0.11588145726156185,-0.7454676458322762,-0.011792150161793469,0.004609186956250344,-0.03761869290741515,0.0,70.0,255.0,255.0,255.0
313,15.65,-0.16171296803469448,-0.5354387893187375,-6.195875649923031,-0.2002934733957526,0.11612763645538093,-0.7473523264048243,-0.01175082668474492,0.005320832957655952,-0.03785505338704809,0.0,70.0,255.0,255.0,255.0
314,15.700000000000001,-0.1717423731802678,-0.5296257735333904,-6.233290551926927,-0.20087811747797085,0.11641354055732744,-0.749253151170981,-0.011577510163637839,0.006077631787215765,-0.03818932078978321,0.0,70.0,255.0,255.0,255.0
315,15.75,-0.18180077978249157,-0.5237974352630047,-6.270800965040129,-0.20145122441211638,0.11673539963410251,-0.7511712584838026,-0.011309360551320369,0.006640597206397647,-0.038470953425129295,0.0,70.0,255.0,255.0,255.0
316,15.8,-0.19188749562147944,-0.5179522335699801,-6.308407677775307,-0.2020090535331029,0.11707760027796721,-0.7531002465134939,-0.010975552119268928,0.006875770487047017,-0.03861086302761052,0.0,70.0,255.0,255.0,255.0
317,15.850000000000001,-0.20200168513580186,-0.512089675235208,-6.3461109896914785,-0.20254877962404327,0.11742297668280721,-0.7550323447865637,-0.010594285040169127,0.00683677374138103,-0.03862731055415125,0.0,70.0,255.0,255.0,255.0
318,15.9,-0.21214237358388377,-0.5062099359016994,-6.383910912253963,-0.2030684820371198,0.11776127765210531,-0.7569629775689091,-0.010194540493302373,0.006650432425192587,-0.03857195319412199,0.0,70.0,255.0,255.0,255.0
319,15.950000000000001,-0.22230853333951384,-0.5003135474699975,-6.421807287448369,-0.2035682336733735,0.11808801992532647,-0.7588895401059759,-0.009816255930933382,0.006434730465282312,-0.03848183538153194,0.0,70.0,255.0,255.0,255.0
320,16.0,-0.23249919695122112,-0.49440113390916673,-6.459799866264561,-0.20405010763021314,0.11840475069863354,-0.7608111611070623,-0.009488928822404263,0.0063166306784767645,-0.03839016725954991,0.0,70.0,255.0,255.0,255.0
321,16.05,-0.24271354410253515,-0.4884730724001341,-6.497888403559076,-0.20451712655561394,0.11871968299317415,-0.7627285568319309,-0.009230677354477024,0.006365053552015443,-0.038318139145054886,0.0,70.0,255.0,255.0,255.0
322,16.1,-0.2529509096067825,-0.4825291656098493,-6.536072721947754,-0.20497317536566084,0.11904125605383509,-0.7646429750215678,-0.009068005714873983,0.006522785677370857,-0.03827206487674317,0.0,70.0,255.0,255.0,255.0
323,16.150000000000002,-0.26321086163910123,-0.4765689467947506,-6.574352701061232,-0.20542392712710134,0.11937196156091123,-0.7665557633196052,-0.00903371530480146,0.0066792089033151925,-0.03825713383545093,0.0,70.0,255.0,255.0,255.0
324,16.2,-0.27349330231949265,-0.4705919694537582,-6.612728298279714,-0.205876546896141,0.1197091769441666,-0.7684686884051128,-0.009150752825931585,0.0067363601044923005,-0.038283337682543106,0.0,70.0,255.0,255.0,255.0
325,16.25,-0.28379851632871533,-0.46459802910033393,-6.651199569901744,-0.2063390024096945,0.12004559757136046,-0.7703840970878595,-0.009438886862939144,0.006596936023717248,-0.038368377536546205,0.0,70.0,255.0,255.0,255.0
326,16.3,-0.2941272025604621,-0.45858740969662215,-6.6897667079885,-0.2068204355824349,0.12036887054653833,-0.7723055261587675,-0.009896050817082003,0.006216929057872855,-0.03851658039391026,0.0,70.0,255.0,255.0,255.0
327,16.35,-0.3044805598869588,-0.4525611420456801,-6.72843012251762,-0.2073286074914027,0.12066729047714775,-0.7742357551272505,-0.010452852939585311,0.005673855110960302,-0.038684429939284115,0.0,70.0,255.0,255.0,255.0
328,16.400000000000002,-0.31486006330960237,-0.4465206806489074,-6.767190283501225,-0.20786572087639343,0.12093625605763436,-0.7761739691526959,-0.010989759126706078,0.0051117995606086986,-0.03879951146279481,0.0,70.0,255.0,255.0,255.0
329,16.45,-0.32526713197459817,-0.44046751643991666,-6.80604751943289,-0.2084275834040733,0.12117847043320862,-0.77811570627353,-0.011381758406320275,0.004672603009492349,-0.03879152717463086,0.0,70.0,255.0,255.0,255.0
330,16.5,-0.3357028216500097,-0.4344028336055865,-6.845001854128578,-0.20900389671702546,0.1214035163585836,-0.780053121870159,-0.011511514401763012,0.004487606578579273,-0.038588350567003715,0.0,70.0,255.0,255.0,255.0
331,16.55,-0.3461675216463007,-0.4283271648040583,-6.884052831619906,-0.2095787348442496,0.12162723109106655,-0.7819745413302304,-0.011324606556634143,0.004621029750279115,-0.038161739745579126,0.0,70.0,255.0,255.0,255.0
332,16.6,-0.35666069513443466,-0.42224011049647986,-6.9231993082616015,-0.21013635737268888,0.12186561933361151,-0.7838692958447169,-0.010885058051363083,0.005017318354383349,-0.03759198692776522,0.0,70.0,255.0,255.0,255.0
333,16.650000000000002,-0.3671811573835696,-0.41614060287069715,-6.962439761204378,-0.2106672406493859,0.12212896292650488,-0.7857337400230069,-0.01032361182488617,0.005557229217934001,-0.0370238879126461,0.0,70.0,255.0,255.0,255.0
334,16.7,-0.37772741919937325,-0.41002721420382937,-7.001772682263902,-0.2111687185551775,0.12242134225540491,-0.7875716846359815,-0.009781700728150877,0.006113740678020951,-0.036603327511830486,0.0,70.0,255.0,255.0,255.0
335,16.75,-0.38829802923908735,-0.40389846864515666,-7.041196929667976,-0.211645410722201,0.12274033699430698,-0.7893940727741899,-0.009403074177871673,0.006564619013871287,-0.03647020154780023,0.0,70.0,255.0,255.0,255.0
336,16.8,-0.39889196027159335,-0.3977531805043987,-7.080712089541321,-0.21210902597296466,0.12307780415679204,-0.7912187047907615,-0.009265010135883767,0.006839464761521086,-0.03669026015709065,0.0,70.0,255.0,255.0,255.0
337,16.85,-0.4095089318363838,-0.39159068822947746,-7.120318800147052,-0.21257191173578938,0.12342428347045908,-0.793063098789899,-0.00932327849144654,0.006940507835218046,-0.03718314682492618,0.0,70.0,255.0,255.0,255.0
338,16.900000000000002,-0.4201491514451723,-0.38541075215735277,-7.160018399420311,-0.21304135382210931,0.12377185494031384,-0.7949370194732541,-0.00948026909835531,0.006894808043222955,-0.037788573250363555,0.0,70.0,255.0,255.0,255.0
339,16.95,-0.43081306721859475,-0.3792135027354461,-7.199812502094377,-0.2135199386456249,0.12411376427478138,-0.7968419561149354,-0.009637639147180854,0.006732947098930797,-0.03834238888487107,0.0,70.0,255.0,255.0,255.0
340,17.0,-0.4415011453097348,-0.3729993757298746,-7.239702595031805,-0.2140051177368274,0.12444514965020692,-0.7987712583617412,-0.009684207534627065,0.006497926689863487,-0.038694852566933946,0.0,70.0,255.0,255.0,255.0
341,17.05,-0.4522135789922775,-0.3667689877704254,-7.279689627930551,-0.2144883593990876,0.12476355694376773,-0.8007114413716288,-0.009562579007044159,0.006220085562569366,-0.038763932912821986,0.0,70.0,255.0,255.0,255.0
342,17.1,-0.46294998124964354,-0.36052302003549785,-7.3197737391689675,-0.21496137563753182,0.12506715820646386,-0.8026476516530234,-0.009342760383873605,0.005901489465653942,-0.038560833696976715,0.0,70.0,255.0,255.0,255.0
343,17.150000000000002,-0.47370971655603067,-0.354262271949779,-7.359954393095854,-0.21542263543747497,0.12535370589033312,-0.8045675247413264,-0.009153540220052658,0.0055443777700225905,-0.03813641116030553,0.0,70.0,255.0,255.0,255.0
344,17.2,-0.48449224479339104,-0.34798764944646454,-7.4002304916431,-0.21587672965953708,0.12562159598346612,-0.806461292769054,-0.009114828930173458,0.005160158571920759,-0.03754711694838875,0.0,70.0,255.0,255.0,255.0
345,17.25,-0.4952973895219844,-0.3417001123514324,-7.440600522372759,-0.21633411833049232,0.1258697217475252,-0.8083222364361653,-0.009356039739405464,0.0047397115226888165,-0.03683840683370576,0.0,70.0,255.0,255.0,255.0
346,17.3,-0.5061256566264403,-0.335400677271712,-7.481062715286717,-0.21681233363347763,0.126095567135735,-0.8101451334524246,-0.0099317600829818,0.004286906274897362,-0.036052982551115775,0.0,70.0,255.0,255.0,255.0
347,17.35,-0.5169786228853321,-0.3290905556378589,-7.521615035718002,-0.2173272943387905,0.12629841237501493,-0.8119275346912769,-0.010703908411452412,0.0038908303395146504,-0.035291653584312854,0.0,70.0,255.0,255.0,255.0
348,17.400000000000002,-0.5278583860603193,-0.32277083603421053,-7.562255468755844,-0.21788272447462287,0.12648465016968646,-0.8136742988108558,-0.011426502422506868,0.003690384839399874,-0.03470932523148562,0.0,70.0,255.0,255.0,255.0
349,17.45,-0.5387668953327944,-0.31644209062089024,-7.602982465599087,-0.2184699445810412,0.12666745085895492,-0.8153984672144254,-0.011856984525904224,0.003812992039925467,-0.034461404394114936,0.0,70.0,255.0,255.0,255.0
350,17.5,-0.5497053805184234,-0.31010409094831504,-7.643795315477287,-0.2190684229272133,0.126865949373679,-0.8171204392502673,-0.011751680127591868,0.004395161951276094,-0.03469949212639989,0.0,70.0,255.0,255.0,255.0
351,17.55,-0.5606737376255158,-0.30375549568352234,-7.684694509524114,-0.21964511259380037,0.12710696705408253,-0.8188684164270654,-0.011002781593494326,0.005480401225987919,-0.0354789620568674,0.0,70.0,255.0,255.0,255.0
352,17.6,-0.5716698917778035,-0.2973933942429068,-7.725682157119993,-0.22016870108656272,0.1274139894962778,-0.8206683354559541,-0.009807853056786886,0.006852578453769853,-0.03662723728110606,0.0,70.0,255.0,255.0,255.0
353,17.650000000000002,-0.582690607734172,-0.29101409673389456,-7.766761343069709,-0.22062589789947906,0.12779222489945952,-0.822531140155176,-0.008535881325455463,0.008134176112467584,-0.03782908511711369,0.0,70.0,255.0,255.0,255.0
354,17.7,-0.5937324815677514,-0.28461417175296083,-7.807935271135511,-0.22102228921910827,0.12822740710752456,-0.8244512439676654,-0.007562780751546594,0.008942838303266365,-0.03875551722298809,0.0,70.0,255.0,255.0,255.0
355,17.75,-0.6047928366560829,-0.2781913560231421,-7.849206467466476,-0.22138217597463372,0.12868650872978615,-0.8264066918774748,-0.007265211778006986,0.008895677968190352,-0.03908362466011894,0.0,70.0,255.0,255.0,255.0
356,17.8,-0.6158706991652148,-0.2717455208799822,-7.8905759403232585,-0.22174881039690897,0.1291169749043436,-0.8283596064336773,-0.00782419979030724,0.00782337693308044,-0.038657369687022936,0.0,70.0,255.0,255.0,255.0
357,17.85,-0.6269677176957738,-0.26527965853270774,-7.932042428109844,-0.22216459595366445,0.1294688464230942,-0.8302724288461771,-0.009014795911754803,0.006029578456195894,-0.03764928074252438,0.0,70.0,255.0,255.0,255.0
358,17.900000000000002,-0.6380871587605812,-0.2587986362376728,-7.973603183207876,-0.22265028998808445,0.12971993274996318,-0.8321245345079298,-0.010399016564643926,0.004084705582527159,-0.03640529001112114,0.0,70.0,255.0,255.0,255.0
359,17.95,-0.6492327466945822,-0.2523076652577114,-8.015254881560637,-0.22320449761012884,0.1298773169813469,-0.8339129578472892,-0.011532545148296158,0.002573976425279678,-0.03528258731897438,0.0,70.0,255.0,255.0,255.0
360,18.0,-0.6604076085215941,-0.2458109045395381,-8.056994478992605,-0.22380354450291406,0.12997733039249115,-0.8356527932398272,-0.011967519380395863,0.002086088879882375,-0.034637990585828504,0.0,70.0,255.0,255.0,255.0
361,18.05,-0.6716131011448736,-0.2393099322184623,-8.09882016088462,-0.22440124954816842,0.13008592586933515,-0.8373767569058721,-0.011480559105558896,0.0029064640020837196,-0.03465761980159243,0.0,70.0,255.0,255.0,255.0
362,18.1,-0.6828477334764109,-0.2328023119526046,-8.140732154683192,-0.22495160041346995,0.13026797679269952,-0.8391185552199865,-0.010303779147080583,0.004693816346204582,-0.035206595459946755,0.0,70.0,255.0,255.0,255.0
363,18.150000000000002,-0.6941082611862206,-0.22628313453919235,-8.182732016406618,-0.22543162746287648,0.1305553075039556,-0.8408974164518668,-0.008897236565141853,0.006781453771914636,-0.03599963828833097,0.0,70.0,255.0,255.0,255.0
364,18.2,-0.7053908962226986,-0.21974678120220903,-8.224821896328379,-0.22584132406998414,0.130946122169891,-0.8427185190488196,-0.007720185508319766,0.008495335249664171,-0.03675376053973167,0.0,70.0,255.0,255.0,255.0
365,18.25,-0.716692393593219,-0.21318852232220326,-8.2670038683115,-0.22620364601370846,0.13140484102892203,-0.8445727925058399,-0.007232636108345236,0.009156050428274498,-0.037188468939852726,0.0,70.0,255.0,255.0,255.0
366,18.3,-0.7280112608240694,-0.20660629709931683,-8.309279175578963,-0.22656458768081866,0.13186172721271844,-0.8464373659428048,-0.007666710640641394,0.008424333492149105,-0.03715280378742136,0.0,70.0,255.0,255.0,255.0
367,18.35,-0.7393488523613009,-0.2000023496009314,-8.35164760490578,-0.2269703170777726,0.13224727437813694,-0.8482880728845821,-0.008799271649140294,0.006651379935296298,-0.03673067774414562,0.0,70.0,255.0,255.0,255.0
368,18.400000000000002,-0.7507082925318467,-0.19338156966150313,-8.394107982867421,-0.2274445148457327,0.13252686520624807,-0.8501104337172194,-0.010182853025686445,0.004533255553623716,-0.03610897734951379,0.0,70.0,255.0,255.0,255.0
369,18.45,-0.7620933038458741,-0.1867496630803066,-8.436658648277502,-0.22798860238034124,0.1327005999334993,-0.8518989706195335,-0.01137356596515593,0.0027644028557316513,-0.03546945676973223,0.0,70.0,255.0,255.0,255.0
370,18.5,-0.7735071527698808,-0.1801115096681532,-8.479297879929375,-0.22858187144224829,0.13280330549182123,-0.8536573793941926,-0.011934010778191784,0.0020415975188398106,-0.034992096357555624,0.0,70.0,255.0,255.0,255.0
371,18.55,-0.784951490990099,-0.17346933253112448,-8.522024386216922,-0.22918200345816042,0.1329047596853833,-0.855398180255289,-0.011639451478862028,0.002715922309029506,-0.03477722565445873,0.0,70.0,255.0,255.0,255.0
372,18.6,-0.7964253531156968,-0.16682103369961487,-8.564837697954903,-0.2297458165901345,0.13307489772272418,-0.8571351019596385,-0.010669950107244919,0.004444440136469607,-0.034787057199281435,0.0,70.0,255.0,255.0,255.0
373,18.650000000000002,-0.8079260726491124,-0.16016184275885206,-8.607737896412885,-0.2302489984688849,0.13334920369903025,-0.8588768859752172,-0.009400535481252081,0.006541747789887142,-0.03492892783789614,0.0,70.0,255.0,255.0,255.0
374,18.7,-0.8194502529625853,-0.15348611332971185,-8.650725386552425,-0.2306858701382597,0.1337290725017129,-0.8606279947434281,-0.008205410770856236,0.00832733304763078,-0.03511461284944062,0.0,70.0,255.0,255.0,255.0
375,18.75,-0.8309946596629384,-0.14678893550868077,-8.693800695887228,-0.23106953954597054,0.13418193700379333,-0.8623883472601612,-0.007451274158776222,0.009125671384396794,-0.035251164278271574,0.0,70.0,255.0,255.0,255.0
376,18.8,-0.8425572069171824,-0.14006791962933252,-8.736964221278441,-0.23143099755413732,0.13464163964015258,-0.8641531111712553,-0.007334830763328082,0.008592256992001612,-0.035285519700245516,0.0,70.0,255.0,255.0,255.0
377,18.85,-0.8541377594183521,-0.13332477154466552,-8.780216007004354,-0.23180302262230335,0.1350411627029935,-0.8659168992301858,-0.007751883632967083,0.007027083295108039,-0.035242025859716364,0.0,70.0,255.0,255.0,255.0
378,18.900000000000002,-0.8657375091794127,-0.12656380335903317,-8.82355591120146,-0.23220618591743403,0.13534434796966338,-0.8676773137572269,-0.008464888499171153,0.00504352951066489,-0.035173539738053705,0.0,70.0,255.0,255.0,255.0
379,18.95,-0.8773583780100955,-0.11979033674769918,-8.866983738380076,-0.23264951147222046,0.13554551565405998,-0.8694342532039911,-0.009237704704179173,0.0032526985201536407,-0.03512589136693833,0.0,70.0,255.0,255.0,255.0
380,19.0,-0.8890024603266348,-0.11300925179362717,-8.910499336521859,-0.23312995638785194,0.13566961782167875,-0.8711899028939207,-0.009832920558627833,0.002259633027448804,-0.03515121855741654,0.0,70.0,255.0,255.0,255.0
381,19.05,-0.9006713736488807,-0.1062233749655313,-8.954102728669469,-0.23363280352808324,0.13577147895680486,-0.8729493750597328,-0.010115677682387414,0.002380970468869592,-0.03527398225600109,0.0,70.0,255.0,255.0,255.0
382,19.1,-0.9123657406794431,-0.09943210389794668,-8.997794274027832,-0.23414152415609069,0.1359077148685657,-0.8747173011195208,-0.010127084125610697,0.0033927744686731987,-0.03544483936206433,0.0,70.0,255.0,255.0,255.0
383,19.150000000000002,-0.9240855260644898,-0.09263260347867473,-9.04157445878142,-0.2346455119406443,0.13611075640367218,-0.8764938589959392,-0.00997366343585826,0.00481942554279996,-0.03557691321205425,0.0,70.0,255.0,255.0,255.0
384,19.200000000000003,-0.9358302918735075,-0.08582102825757947,-9.085443659927426,-0.2351388904996765,0.1363896574228457,-0.8782749924407263,-0.00975136947992672,0.00618821319810503,-0.03558853496947734,0.0,70.0,255.0,255.0,255.0
385,19.25,-0.9475994151144574,-0.07899363773639016,-9.129401958025493,-0.23562064888863699,0.13672957772348268,-0.880052712492887,-0.009556996986526123,0.007023861773841622,-0.035395989463182786,0.0,70.0,255.0,255.0,255.0
386,19.3,-0.9593923567623712,-0.0721480704852312,-9.173448931176715,-0.23609459019832912,0.13709204360022986,-0.8818145913870445,-0.009448519113275378,0.007071739920361808,-0.03496475174049607,0.0,70.0,255.0,255.0,255.0
387,19.35,-0.9712088741342904,-0.06528443337636718,-9.217583417164198,-0.23656550079996452,0.13743675171551886,-0.8835491876669366,-0.009418847463804614,0.006491795520185972,-0.034380388254007244,0.0,70.0,255.0,255.0,255.0
388,19.400000000000002,-0.9830489068423677,-0.05840439531367931,-9.261803849943409,-0.23703647494470959,0.13774122315224846,-0.8852526302124453,-0.009442229319134299,0.00562711330653054,-0.033797875014762724,0.0,70.0,255.0,255.0,255.0
389,19.450000000000003,-0.9949125216287613,-0.05151031106114233,-9.306108680185442,-0.23750972373187795,0.13799946304617192,-0.8869289751684128,-0.009503017842216188,0.004808621181607298,-0.03337274264758605,0.0,70.0,255.0,255.0,255.0
390,19.5,-1.0067998792155555,-0.044604449009062117,-9.35049674746025,-0.2379867767289312,0.1382220852704092,-0.8885899044772039,-0.009591119467267095,0.004368835961048867,-0.03325680494032923,0.0,70.0,255.0,255.0,255.0
391,19.55,-1.0187111993016544,-0.03768810253410141,-9.394967670633163,-0.23846883567860466,0.1384363466422768,-0.8902546556624458,-0.009696959151206386,0.004484703882266516,-0.03352081031504639,0.0,70.0,255.0,255.0,255.0
392,19.6,-1.030646762783416,-0.030760814344834436,-9.439522213026494,-0.23895647264405184,0.13867055565863584,-0.8919419855087085,-0.009797526019172942,0.005033703124238398,-0.03406913209804685,0.0,70.0,255.0,255.0,255.0
393,19.650000000000002,-1.0426068465660596,-0.023821046968237825,-9.484161869184033,-0.23944858828052196,0.13893971695470064,-0.8936615688722505,-0.009857419287695457,0.005759300718324312,-0.03471522309421715,0.0,70.0,255.0,255.0,255.0
394,19.700000000000003,-1.0545916216114681,-0.01686684264936437,-9.52888836991372,-0.2399422145728214,0.13924648573046827,-0.8954135078181302,-0.009843272437892736,0.006416929115139747,-0.03526772054822658,0.0,70.0,255.0,255.0,255.0
395,19.75,-1.0666010680233418,-0.009896398395190997,-9.573703219965847,-0.24043291552431123,0.13958140986621462,-0.8971883409270731,-0.009730553116416019,0.0067688596499643205,-0.035540800097599856,0.0,70.0,255.0,255.0,255.0
396,19.8,-1.0786349131638993,-0.002908701662742909,-9.618607204006427,-0.240915269884463,0.1399233716954647,-0.8989675878278902,-0.009509844748034624,0.006689584410649596,-0.035438720284375336,0.0,70.0,255.0,255.0,255.0
397,19.85,-1.090692595011788,0.004095938774355473,-9.663599978748636,-0.2413838999991147,0.14025036830727958,-0.9007322129555106,-0.009192820021253212,0.006258799908266388,-0.03502849128018681,0.0,70.0,255.0,255.0,255.0
398,19.900000000000002,-1.1027733031638107,0.011116335167985051,-9.708680425301978,-0.2418345518865883,0.14054925168629134,-0.9024704369559089,-0.008807161129453789,0.005650275894837076,-0.03445582468390995,0.0,70.0,255.0,255.0,255.0
399,19.950000000000003,-1.1148760502004469,0.018150863942984607,-9.753847022444226,-0.24226461611206007,0.14081539589676328,-0.9041777954239016,-0.00838337958557478,0.0050369490711871245,-0.03386966187317597,0.0,70.0,255.0,255.0,255.0
400,20.0,-1.1269997647750167,0.02519787475766138,-9.799098204844368,-0.2426728898451458,0.14105294659341006,-0.9058574031432265,-0.007930677390799445,0.0045917161150199615,-0.03341598534465362,0.0,70.0,255.0,255.0,255.0
401,20.05,-1.1391433391849615,0.03225615860232561,-9.844432762758549,-0.24305768385114002,0.14127456750826528,-0.907519393958367,-0.0074636618567769375,0.004409732367832431,-0.03317708243955053,0.0,70.0,255.0,255.0,255.0
402,20.1,-1.1513055331601307,0.03932533150848791,-9.889850144240205,-0.24341925603082348,0.1414939198301933,-0.9091751113871815,-0.007068489933126365,0.004447460879059839,-0.03313326641851688,0.0,70.0,255.0,255.0,255.0
403,20.150000000000002,-1.1634852647880438,0.04640555058534494,-9.935350273897267,-0.24376453284445265,0.14171931359617126,-0.9108327206002187,-0.006876640157238434,0.004604071226879669,-0.033225953695925625,0.0,70.0,255.0,255.0,255.0
404,20.200000000000003,-1.175681986444576,0.053497262868105036,-9.980933416300227,-0.24410692004654733,0.14195432695288127,-0.9124977067567741,-0.007009782646405505,0.004781475066374663,-0.033399832424052533,0.0,70.0,255.0,255.0,255.0
405,20.25,-1.1878959567926985,0.06060098328063307,-10.026600044572945,-0.2444655111090932,0.14219746110280873,-0.914172703842624,-0.007598672052155919,0.004872294537910937,-0.03360327716972478,0.0,70.0,255.0,255.0,255.0
406,20.3,-1.2001285375554853,0.06771700897838591,-10.072350686684489,-0.24486678725176292,0.14244155640667236,-0.9158580344737466,-0.00868361971302356,0.004818712225171384,-0.03380017606549046,0.0,70.0,255.0,255.0,255.0
407,20.35,-1.2123826355178748,0.0748451389213003,-10.11818584802032,-0.24533387308039556,0.14267933232532587,-0.917552721449173,-0.010050609523748477,0.004672288976426131,-0.03395937544876659,0.0,70.0,255.0,255.0,255.0
408,20.400000000000002,-1.2246619248635249,0.0819849422109185,-10.164105958829406,-0.24587184820413777,0.14290878530431497,-0.9192539720186232,-0.01132637148166804,0.004531667635952752,-0.03403858897161882,0.0,70.0,255.0,255.0,255.0
409,20.450000000000003,-1.2369698203382886,0.0891360174517318,-10.210111245222182,-0.24646651022856236,0.14313249908892114,-0.9209565803463349,-0.012132454863866826,0.004484236910461126,-0.033991521250165135,0.0,70.0,255.0,255.0,255.0
410,20.5,-1.2493085758863811,0.09629819211981061,-10.25620161686404,-0.24708509369052445,0.14335720899536109,-0.9226531241436398,-0.012090671696562971,0.004615049789212511,-0.0337709059737179,0.0,70.0,255.0,255.0,255.0
411,20.55,-1.261678329707341,0.10347173835126791,-10.302376557636546,-0.24767557739821866,0.1435940040678424,-0.9243336709437067,-0.011033747402855454,0.004962504978489601,-0.03336170047649745,0.0,70.0,255.0,255.0,255.0
412,20.6,-1.274076133626203,0.11065759252659485,-10.34863498395841,-0.24818846843081,0.14385345949321005,-0.9259892941912895,-0.009259794582638925,0.005461611653467813,-0.032831003350075605,0.0,70.0,255.0,255.0,255.0
413,20.650000000000002,-1.286497176550422,0.11785708430058892,-10.394975487055675,-0.24860155685648255,0.14414016523318918,-0.9276167712787142,-0.007329668788025323,0.0059901906303339025,-0.03229875801871174,0.0,70.0,255.0,255.0,255.0
414,20.700000000000003,-1.2989362893118512,0.12507160904991377,-10.441396661086282,-0.24892143530961253,0.14445247855624344,-0.9292191699931607,-0.005818719576500264,0.0064288033990639315,-0.031886856468155145,0.0,70.0,255.0,255.0,255.0
415,20.75,-1.3113893200813833,0.13230233215621326,-10.48789740405499,-0.24918342881413258,0.14478304557309557,-0.9308054569255297,-0.005302603865420252,0.00667552495317858,-0.03170508028684793,0.0,70.0,255.0,255.0,255.0
416,20.8,-1.3238546321932645,0.13954991360722332,-10.534477206778835,-0.24945169569615455,0.1451200310515613,-0.9323896780218455,-0.006061763635800688,0.0066774683269904545,-0.03180682156074255,0.0,70.0,255.0,255.0,255.0
417,20.85,-1.3363344896509988,0.1468143352613694,-10.581136371857175,-0.24978960517771265,0.14545079240579462,-0.933986139081604,-0.007774920770309279,0.006445739934193839,-0.032152135626084544,0.0,70.0,255.0,255.0,255.0
418,20.900000000000002,-1.3488335927110358,0.1540949928478028,-10.627875820686995,-0.2502291877731855,0.14576460504498068,-0.9356048915844539,-0.009809405580818442,0.00602393347917396,-0.032650015319646286,0.0,70.0,255.0,255.0,255.0
419,20.950000000000003,-1.3613574084283173,0.16139079576586746,-10.67469686101562,-0.2507705457357945,0.146053185753712,-0.9372511406135686,-0.011526746084489226,0.00546674995953178,-0.033201565698348645,0.0,70.0,255.0,255.0,255.0
420,21.0,-1.3739106472846152,0.168700311423174,-10.721600934748352,-0.2513818623816344,0.14631128004093386,-0.9389250481542888,-0.012294996757789,0.004822897018033623,-0.03372075422962695,0.0,70.0,255.0,255.0,255.0
421,21.05,-1.3864955946664808,0.17602192376996084,-10.76858936583105,-0.2520000454115734,0.14653547545551537,-0.9406232160365313,-0.011792764487195129,0.004133309359158344,-0.03415152610166672,0.0,70.0,255.0,255.0,255.0
422,21.1,-1.3991106518257725,0.18335385896872552,-10.815663256352005,-0.2525611388303539,0.1467246109768497,-0.9423402007644555,-0.0102967461123038,0.0034735638079180786,-0.03444409050885611,0.0,70.0,255.0,255.0,255.0
423,21.150000000000002,-1.4117517085495161,0.1906943848676458,-10.862823385907495,-0.2530297200228038,0.14688283183630718,-0.9440676250874169,-0.00837648511280431,0.0029576185766128082,-0.034536705176968496,0.0,70.0,255.0,255.0,255.0
424,21.200000000000003,-1.424413623828053,0.19804214215235624,-10.910070018860747,-0.25339878734163435,0.14702037283451097,-0.9457938712821523,-0.006600729652062043,0.002696457835121846,-0.034374106847145924,0.0,70.0,255.0,255.0,255.0
425,21.25,-1.4370915872836796,0.2053964221510969,-10.95740277303571,-0.25368979298801,0.14715247761981937,-0.9475050357721315,-0.005521325187141102,0.0027808590025601987,-0.03390794009092701,0.0,70.0,255.0,255.0,255.0
426,21.3,-1.449782603126854,0.21275738991433818,-11.00482052243796,-0.25395091986034846,0.147298458734767,-0.949184665291245,-0.005433099161189503,0.003244119411097146,-0.03313224885594934,0.0,70.0,255.0,255.0,255.0
427,21.35,-1.4624866792697144,0.2201262680245736,-11.052321239564835,-0.2542331029041289,0.14747688956092908,-0.9508182606577265,-0.006183642566015557,0.00401469014885969,-0.03215411306083382,0.0,70.0,255.0,255.0,255.0
428,21.400000000000002,-1.4752059134172668,0.2275050788704311,-11.099902348503733,-0.25456928411695,0.14769992774965296,-0.9524000765973284,-0.007419945343478673,0.004948389417289145,-0.031163070732986853,0.0,70.0,255.0,255.0,255.0
429,21.450000000000003,-1.4879436076814094,0.2348962607995389,-11.147561247224568,-0.2549750974384768,0.147971728502658,-0.9539345677310251,-0.00878996234707774,0.005882243874846815,-0.03036046845199536,0.0,70.0,255.0,255.0,255.0
430,21.5,-1.5007034231611145,0.2423022517206969,-11.195295805276835,-0.2554482803516578,0.14828815213713764,-0.9554361234425279,-0.009955739789480056,0.00666961102756547,-0.029935504054456885,0.0,70.0,255.0,255.0,255.0
431,21.55,-1.5134884357165752,0.24972507601325267,-11.24310485956882,-0.2559706714174248,0.14863868960541454,-0.9569281181364708,-0.010716517189424124,0.007224012530154811,-0.029979991294837305,0.0,70.0,255.0,255.0,255.0
432,21.6,-1.526300490302857,0.25716612068123834,-11.290988617090482,-0.2565199320706002,0.14901055339015312,-0.9584341225720117,-0.01105688875189248,0.007514015923024142,-0.030412277759950257,0.0,70.0,255.0,255.0,255.0
433,21.650000000000002,-1.5391404289236352,0.264626131352268,-11.338948271826021,-0.25707636029261405,0.14939009119771696,-0.9599693459124659,-0.011013010902760634,0.007521644267166616,-0.031057352217267464,0.0,70.0,255.0,255.0,255.0
434,21.700000000000003,-1.5520081263321184,0.27210512980101004,-11.386985551681729,-0.25762123316087626,0.14976271781686978,-0.9615398577937384,-0.01061424613459927,0.007241792772755273,-0.03172453216677695,0.0,70.0,255.0,255.0,255.0
435,21.75,-1.5649025522397229,0.27960240313395496,-11.435102257605395,-0.258137784906074,0.15011427047499248,-0.9631417991291435,-0.009891706330900085,0.006680743507114784,-0.032218015718932236,0.0,70.0,255.0,255.0,255.0
436,21.8,-1.5778219048227258,0.2871165568485093,-11.483299731594643,-0.25861040379396627,0.15043079216758126,-0.9647616593656316,-0.008892067512178414,0.005864492472862359,-0.03242881160563371,0.0,70.0,255.0,255.0,255.0
437,21.85,-1.5907635926191195,0.2946454823507131,-11.531578423541959,-0.2590269916572918,0.15070071972227872,-0.9663846802897069,-0.007750480747992228,0.004890924480788206,-0.032401344664556575,0.0,70.0,255.0,255.0,255.0
438,21.900000000000002,-1.603724603988455,0.30218662882073716,-11.579938199623614,-0.2593854518687655,0.15091988461566008,-0.9680017938320873,-0.006689689367234131,0.003926711835822161,-0.03224127331105109,0.0,70.0,255.0,255.0,255.0
439,21.950000000000003,-1.616702137805996,0.3097374708122791,-11.628378602925167,-0.25969596059401523,0.15109339090586094,-0.969608807620812,-0.005951001832738001,0.0031552470388329645,-0.032049001949019384,0.0,70.0,255.0,255.0,255.0
440,22.0,-1.6296942000478565,0.31729596791132325,-11.676899080385695,-0.2599805520520393,0.15123540931954338,-0.9712066940269892,-0.00576545353487834,0.0027474615639455635,-0.03193238645025076,0.0,70.0,255.0,255.0,255.0
441,22.05,-1.6427001930112,0.32486101174423343,-11.725499272327866,-0.26027250594750306,0.1513681370622555,-0.9728020462658371,-0.006236238402812511,0.0027852436855213547,-0.031950822886273045,0.0,70.0,255.0,255.0,255.0
442,22.1,-1.6557214506426068,0.3324327816175488,-11.774179285012279,-0.26060417589232054,0.15151393368809551,-0.9744017763156165,-0.007212237207165906,0.003195106666670222,-0.03206141118052841,0.0,70.0,255.0,255.0,255.0
443,22.150000000000002,-1.668760610600432,0.340012405113043,-11.822939449959428,-0.26099372966821965,0.15168764772892251,-0.97600818738389,-0.008395504355451777,0.0038178487159923336,-0.03217932610350971,0.0,70.0,255.0,255.0,255.0
444,22.200000000000003,-1.6818208236094287,0.34760154639044105,-11.871780103750668,-0.2614437263278657,0.15189571855969475,-0.9776197089259675,-0.00946948546236559,0.004477731892471581,-0.03223237379046395,0.0,70.0,255.0,255.0,255.0
445,22.25,-1.6949049832332186,0.35520197696901246,-11.920701420852025,-0.2619406782144562,0.15213542091816967,-0.9792314247629363,-0.010122470205642387,0.004997382264998462,-0.03215649442296353,0.0,70.0,255.0,255.0,255.0
446,22.3,-1.7080148914308744,0.362815088482258,-11.969703246226961,-0.26245597334842996,0.1523954567861946,-0.9808353583682639,-0.010190204983628881,0.005275558425971161,-0.03192081060099383,0.0,70.0,255.0,255.0,255.0
447,22.35,-1.7211505805680616,0.3704415226476319,-12.018784956688851,-0.2629596987128191,0.1526629767607668,-0.9824235058230357,-0.00976961471228499,0.00533321761708172,-0.031554782174580964,0.0,70.0,255.0,255.0,255.0
448,22.400000000000002,-1.7343108613021563,0.3780813861583347,-12.067945596809265,-0.26343293481965846,0.15292877854790277,-0.983990836585722,-0.00907840976116514,0.0052356462140967786,-0.031120489876101942,0.0,70.0,255.0,255.0,255.0
449,22.450000000000003,-1.7474938740500274,0.3857344005024222,-12.117184040347423,-0.2638675396889356,0.15318654138217647,-0.9855355548106459,-0.008338142565045281,0.0050414244589513935,-0.030680990069065217,0.0,70.0,255.0,255.0,255.0
450,22.5,-1.7606976152710498,0.39340004029655234,-12.16649915229033,-0.264266749076163,0.1534329209937979,-0.9870589355926285,-0.00777263767044456,0.004802962755906526,-0.03028564518068322,0.0,70.0,255.0,255.0,255.0
451,22.55,-1.7739205489576437,0.401077692601802,-12.215889933906686,-0.26464480345598007,0.15366683765776712,-0.9885641193287142,-0.007508489447949351,0.004558583216573986,-0.02996593470943054,0.0,70.0,255.0,255.0,255.0
452,22.6,-1.7871620956166478,0.40876672406232906,-12.265355564223201,-0.2650175980209579,0.1538887793154553,-0.9900555290635715,-0.007504735179097999,0.004351090464083107,-0.029756756157262032,0.0,70.0,255.0,255.0,255.0
453,22.650000000000002,-1.8004223087597395,0.4164665705333475,-12.314895486813043,-0.26539527697388987,0.15410194670417543,-0.9915397949444404,-0.0076571036863759545,0.004241337989502325,-0.029701418355543296,0.0,70.0,255.0,255.0,255.0
454,22.700000000000003,-1.8137016233140368,0.4241769187327466,-12.364509543717645,-0.2657833083895955,0.15431291311440554,-0.9930256708991259,-0.007870345210081453,0.004296057451275148,-0.02983695264990871,0.0,70.0,255.0,255.0,255.0
455,22.75,-1.827000639598699,0.43189786184478807,-12.414198053902956,-0.266182311494898,0.15453155244930294,-0.9945234902094313,-0.008047025732471624,0.004590766711282113,-0.0302048875564509,0.0,70.0,255.0,255.0,255.0
456,22.8,-1.8403198544635266,0.4396300739776769,-12.463961892738588,-0.2665880109628427,0.15477198978553375,-0.996046159654771,-0.00812977661823755,0.0051506215281493795,-0.03080976291194304,0.0,70.0,255.0,255.0,255.0
457,22.85,-1.8536594406949833,0.44737506082334144,-12.513802669868433,-0.26699528915672177,0.15504661460211788,-0.9976044665006256,-0.008132376972325162,0.005860648964806092,-0.03153735403724767,0.0,70.0,255.0,255.0,255.0
458,22.900000000000002,-1.8670193833791988,0.4551347354378887,-12.56372233938865,-0.2674012486600752,0.15535805468201436,-0.9991998950584957,-0.008091403931742569,0.006519934228937929,-0.032192997543667445,0.0,70.0,255.0,255.0,255.0
459,22.950000000000003,-1.8803995655609909,0.4629108662915429,-12.613722659374282,-0.26780442954989603,0.15569860802501168,-1.0008237662549924,-0.00803427612858787,0.006928285129992329,-0.03257893825860947,0.0,70.0,255.0,255.0,255.0
460,23.0,-1.8937998263341884,0.47070459624038985,-12.66380471601415,-0.268204676272934,0.1560508831950136,-1.0024577888843567,-0.007987231427475372,0.006894017018888032,-0.0325028232394331,0.0,70.0,255.0,255.0,255.0
461,23.05,-1.9072200331882843,0.47851595461104424,-12.713968438262718,-0.26860315269264357,0.15638800972690048,-1.0040740485789357,-0.007965690792199887,0.006331331603104395,-0.031880701288322655,0.0,70.0,255.0,255.0,255.0
462,23.1,-1.9206601416034528,0.4863433972130799,-12.764212120872044,-0.269001245352154,0.15668401635532403,-1.005645859013189,-0.00796575693164936,0.005372560762972878,-0.03086007478199093,0.0,70.0,255.0,255.0,255.0
463,23.150000000000002,-1.9341201577234997,0.49418435624657664,-12.814533024164037,-0.2693997283858085,0.15692526580319777,-1.0071600560571348,-0.007977280586835,0.004274356330280504,-0.02972202270576929,0.0,70.0,255.0,255.0,255.0
464,23.200000000000003,-1.9476001144420336,0.5020359237933997,-12.864928126477757,-0.2697989734108375,0.15711145198835208,-1.0086180612837659,-0.007992550275770505,0.0033030631011288225,-0.02875955538677033,0.0,70.0,255.0,255.0,255.0
465,23.25,-1.9611000550645834,0.5098955014454118,-12.915394830292414,-0.27019898341338555,0.15725557211331065,-1.0100360115958118,-0.00800404855736403,0.002713165213075186,-0.02826381948519696,0.0,70.0,255.0,255.0,255.0
466,23.3,-1.9746200127833722,0.5177614810047307,-12.965931727637338,-0.2705993782665739,0.1573827685096596,-1.0114444432322856,-0.00800746021272225,0.0026373387725708852,-0.02838071864825764,0.0,70.0,255.0,255.0,255.0
467,23.35,-1.9881599928912408,0.5256337782963778,-13.016539274615642,-0.2709997294346578,0.15751930599056774,-1.0128740834606376,-0.008004595301103201,0.0030009960952481762,-0.028974234946765876,0.0,70.0,255.0,255.0,255.0
468,23.400000000000002,-2.001719985726838,0.5335134116037875,-13.067219135983402,-0.2713998377966842,0.15768286811918442,-1.0143418667269621,-0.007999473721276296,0.0036307523382017592,-0.029767023520754776,0.0,70.0,255.0,255.0,255.0
469,23.450000000000003,-2.015299976670909,0.5414020651082962,-13.117973461288338,-0.2717996768067854,0.1578823812243879,-1.015850785812713,-0.007995522768666774,0.004346175752223402,-0.030476266767642812,0.0,70.0,255.0,255.0,255.0
470,23.5,-2.0288999534075165,0.5493016497262263,-13.168804214564673,-0.2721993900735509,0.15811748569440676,-1.0173894934037264,-0.007996574342605811,0.0049733221286984985,-0.03081392679167294,0.0,70.0,255.0,255.0,255.0
471,23.55,-2.0425199156782643,0.5572138136777369,-13.219712410628711,-0.272599334241046,0.15837971343725776,-1.0189321784918803,-0.00800446835658164,0.0054070522342519745,-0.030630363512962333,0.0,70.0,255.0,255.0,255.0
472,23.6,-2.056159886831621,0.5651396210699521,-13.270697432413861,-0.27299983690920904,0.15865819091783195,-1.0204525297550227,-0.008015861864052454,0.0056280236206185386,-0.030049325756920098,0.0,70.0,255.0,255.0,255.0
473,23.650000000000002,-2.069819899369185,0.5730796327695201,-13.321757663604213,-0.27340092042745123,0.15894251579931962,-1.0219371110675723,-0.00802482452839648,0.005636387230800732,-0.029322703723444477,0.0,70.0,255.0,255.0,255.0
474,23.700000000000003,-2.083499978874366,0.581033872649884,-13.372891143520619,-0.2738023193620487,0.15922182964091203,-1.023384800127367,-0.008025358649677017,0.005426546244347019,-0.02869575050379325,0.0,70.0,255.0,255.0,255.0
475,23.75,-2.09720013130539,0.5890018157336113,-13.42409614361695,-0.27420345629241893,0.15948517042375432,-1.0248066861179517,-0.008009654071816641,0.004985527624046249,-0.02841240807978096,0.0,70.0,255.0,255.0,255.0
476,23.8,-2.110920324503608,0.5969823896922595,-13.475371812132414,-0.27460328476923035,0.15972038240331665,-1.0262260409353452,-0.007974666360865967,0.004326713362601264,-0.02859768744087887,0.0,70.0,255.0,255.0,255.0
477,23.85,-2.124660459782313,0.604973853973943,-13.526718747710484,-0.27500092292850553,0.15991784176001445,-1.0276664548620396,-0.00793195724284601,0.0035677485830443167,-0.0291430541015103,0.0,70.0,255.0,255.0,255.0
478,23.900000000000002,-2.1384204167964587,0.6129741738682609,-13.578138457618618,-0.27539648049351495,0.16007715726162108,-1.0291403463454962,-0.007901228165518859,0.0029045378995062876,-0.029827569511020613,0.0,70.0,255.0,255.0,255.0
479,23.950000000000003,-2.1522001078316646,0.6209815697001051,-13.629632782345034,-0.2757910457450574,0.16020829554996507,-1.0306492118131416,-0.007903042632717572,0.0025399003428017153,-0.030434157789827054,0.0,70.0,255.0,255.0,255.0
480,24.0,-2.1659995213709644,0.6289950034232574,-13.681203378799932,-0.2761867847567867,0.16033114729590126,-1.032183762124479,-0.007964809369642722,0.0026765487270430377,-0.0307524781836932,0.0,70.0,255.0,255.0,255.0
481,24.05,-2.1798187863073433,0.6370146844296952,-13.732851158557482,-0.2765875266820217,0.16047595042266938,-1.033724459631511,-0.008096866199869268,0.0034004066695292323,-0.030672313296875586,0.0,70.0,255.0,255.0,255.0
482,24.1,-2.1936582740391666,0.6450425984655244,-13.784575824763083,-0.27699647137677363,0.16067118796285418,-1.0352509934541665,-0.008256309164655917,0.004534734960937037,-0.03026386576223672,0.0,70.0,255.0,255.0,255.0
483,24.150000000000002,-2.2075184334450206,0.6530818032259806,-13.836376257902899,-0.2774131575984873,0.16092942391876308,-1.0367508462077346,-0.008370262809309637,0.005750029935847056,-0.029681610307896733,0.0,70.0,255.0,255.0,255.0
484,24.200000000000003,-2.2213995897990153,0.6611355408574007,-13.888250909383856,-0.2778334976577046,0.16124619095643888,-1.0382191544849562,-0.008369184106138405,0.006708304599090109,-0.029080905052047967,0.0,70.0,255.0,255.0,255.0
485,24.25,-2.235301783210791,0.6692064223216245,-13.940198173351394,-0.2782500760091011,0.1616002543786721,-1.0396589367129394,-0.008183136422079684,0.007080305439699508,-0.0286136698607109,0.0,70.0,255.0,255.0,255.0
486,24.3,-2.2492245973999254,0.6772955662952679,-13.99221680305515,-0.27865181129991257,0.16195422150040883,-1.0410805214710273,-0.0077840693059716415,0.006704573711902029,-0.028365833262000706,0.0,70.0,255.0,255.0,255.0
487,24.35,-2.2631669643407824,0.6854018444716654,-14.044306225498497,-0.2790284829396983,0.1622707117498623,-1.0424955200391395,-0.007244577659992757,0.005743195023144576,-0.028317846485137466,0.0,70.0,255.0,255.0,255.0
488,24.400000000000002,-2.2771274456938952,0.6935226374702541,-14.096466355059064,-0.27937626906591184,0.1625285410027233,-1.043912306119541,-0.006696788196203229,0.00452629806833027,-0.028410464784123235,0.0,70.0,255.0,255.0,255.0
489,24.450000000000003,-2.2911045912473735,0.7016546985719377,-14.148697456110451,-0.2796981617593186,0.16272334155669532,-1.0453365665175518,-0.006272994835532231,0.003392941866975363,-0.028588422469688624,0.0,70.0,255.0,255.0,255.0
490,24.5,-2.305097261869827,0.7097949716259236,-14.20100001171082,-0.28000356854946507,0.16286783518942083,-1.0467711483665099,-0.006094626294261829,0.0026742108659383312,-0.02880086102035051,0.0,70.0,255.0,255.0,255.0
491,24.55,-2.31910494810232,0.7179414820908798,-14.253374570947102,-0.2803076243887448,0.16299076264328916,-1.0482166526195869,-0.006220656110000888,0.002547359088744816,-0.029011579760940265,0.0,70.0,255.0,255.0,255.0
492,24.6,-2.3331280243087016,0.7260940478902526,-14.305821676972778,-0.28062563416046515,0.1631225710982953,-1.049672306342604,-0.006600904670639451,0.002923440657431886,-0.029185680697985106,0.0,70.0,255.0,255.0,255.0
493,24.650000000000002,-2.3471675115183666,0.7342537392007094,-14.358341801581362,-0.28096771485580874,0.16328310670903234,-1.0511352206893854,-0.0071262207695710345,0.003594661240868824,-0.02927475899596743,0.0,70.0,255.0,255.0,255.0
494,24.700000000000003,-2.3612247957942825,0.7424223585611558,-14.410935199041717,-0.28133825623742226,0.1634820372223822,-1.0525997822422006,-0.007679349372446964,0.004352841686139364,-0.02922591788987461,0.0,70.0,255.0,255.0,255.0
495,24.75,-2.375301337142109,0.7506019429229476,-14.463601779805582,-0.28173564979305343,0.16371839087764628,-1.0540578124783728,-0.008150339753232316,0.004994879068487279,-0.028982886055217705,0.0,70.0,255.0,255.0,255.0
496,24.8,-2.389398360773588,0.7587941976489204,-14.516340980289554,-0.2821532902127455,0.16398152512923092,-1.0554980708477224,-0.008473819074295008,0.005400442147329709,-0.02852733487372916,0.0,70.0,255.0,255.0,255.0
497,24.85,-2.4035166661633833,0.7670000954358707,-14.569151586890355,-0.28258303170048293,0.16425843509237925,-1.0569105459657457,-0.008635440020476892,0.005567611111700899,-0.027941202285575173,0.0,70.0,255.0,255.0,255.0
498,24.900000000000002,-2.417656663943636,0.7752200411581583,-14.622032034886129,-0.2830168342147932,0.164538286240401,-1.05829219107628,-0.008633853201267527,0.005528809882182628,-0.027369566831758618,0.0,70.0,255.0,255.0,255.0
499,24.950000000000003,-2.4318183495848626,0.7834539240599108,-14.674980805997983,-0.2834464170206097,0.16481131608059751,-1.0596475026489216,-0.008470120495607247,0.005310003742864389,-0.02696067986409645,0.0,70.0,255.0,255.0,255.0
500,25.0,-2.446001305645697,0.7917011727662181,-14.72799678515102,-0.2838638462643539,0.16506928661468745,-1.0609882590626896,-0.008148024017007316,0.004938254211905857,-0.02685957610957246,0.0,70.0,255.0,255.0,255.0
501,25.05,-2.460204734211298,0.7999608527213795,-14.781079631904252,-0.2842612194223104,0.1653051415017881,-1.0623334602598788,-0.007683041951755953,0.00444313339409419,-0.027132880278202265,0.0,70.0,255.0,255.0,255.0
502,25.1,-2.474427427587928,0.8082316869163969,-14.834230131177009,-0.2846321504595295,0.16551359995409687,-1.0637015470905098,-0.007138174407783637,0.00388695405659778,-0.02768503463510541,0.0,70.0,255.0,255.0,255.0
503,25.150000000000002,-2.488667949257251,0.8165122127167892,-14.887449786613303,-0.2849750368630888,0.16569383690744788,-1.0651019637233894,-0.006619205586089194,0.003370938391267231,-0.028330610039262183,0.0,70.0,255.0,255.0,255.0
504,25.200000000000003,-2.502924931274237,0.8248010706071417,-14.940740327549348,-0.2852940710181384,0.1658506937932236,-1.066534608094436,-0.006239143004327374,0.003006117701465083,-0.02887858876192695,0.0,70.0,255.0,255.0,255.0
505,25.25,-2.517197356359065,0.8330972820961116,-14.994103247422746,-0.2855989511635215,0.1659944486775944,-1.067989822599582,-0.006101573502848012,0.0028961134079352746,-0.029142818832461614,0.0,70.0,255.0,255.0,255.0
506,25.3,-2.531484826390589,0.8414005154749011,-15.047539309809306,-0.2859042283684232,0.16614030513401712,-1.0694488899776822,-0.006254525939208833,0.003087537096724269,-0.02902785730096724,0.0,70.0,255.0,255.0,255.0
507,25.35,-2.545787779195907,0.8497113126095133,-15.101048136420514,-0.2862244037574424,0.1663032023872668,-1.0708926083296788,-0.006647386823477319,0.0035200971373883227,-0.028604067096971164,0.0,70.0,255.0,255.0,255.0
508,25.400000000000002,-2.5601072667663334,0.8580308357136278,-15.154628570642274,-0.28656896705077095,0.16649231484775595,-1.0723092966873793,-0.007172960817936058,0.0040710729165227555,-0.02802258508420863,0.0,70.0,255.0,255.0,255.0
509,25.450000000000003,-2.5744446759009842,0.8663605440942889,-15.208279066089252,-0.286941699839236,0.1667103096789191,-1.0736948668380997,-0.007713820307975183,0.004606038271948165,-0.027438251804312586,0.0,70.0,255.0,255.0,255.0
510,25.5,-2.588801436750257,0.8747018666815197,-15.261998057326084,-0.28734034908156847,0.16695291867495077,-1.0750531218678105,-0.00815766332364909,0.004989273508304581,-0.02700513923752368,0.0,70.0,255.0,255.0,255.0
511,25.55,-2.603178710809141,0.8830558359617839,-15.315784378276033,-0.2877574661716009,0.16720923702974955,-1.076395380761852,-0.00843936711163451,0.00514723103932635,-0.02680846440963336,0.0,70.0,255.0,255.0,255.0
512,25.6,-2.617577183367417,0.8914227903844947,-15.369637595402269,-0.2881842857927319,0.1674676417788834,-1.0777339683087739,-0.008555914661823039,0.005116293757434498,-0.02681506061197325,0.0,70.0,255.0,255.0,255.0
513,25.650000000000002,-2.6319971393884143,0.8998026001396723,-15.42355777510691,-0.2886130576377832,0.167720866405493,-1.0790768868230494,-0.008524475618143512,0.0049802944182553155,-0.026943525148404035,0.0,70.0,255.0,255.0,255.0
514,25.700000000000003,-2.6464384891311954,0.908194877025044,-15.477545284084574,-0.28903673335454627,0.16796567122070893,-1.0804283208236143,-0.008366088584388365,0.004823528744624106,-0.027114604488431837,0.0,70.0,255.0,255.0,255.0
515,25.75,-2.660900812723869,0.9165991672617432,-15.531600607189272,-0.28944966649622206,0.1682032192799554,-1.0817883472718925,-0.00811178252635436,0.004738773910772931,-0.027244642864410196,0.0,70.0,255.0,255.0,255.0
516,25.8,-2.6753834557808176,0.9250151989530395,-15.585724118811763,-0.2898479116071817,0.16843954861178623,-1.0831527851100553,-0.007786979973101182,0.004776312638576918,-0.027285511166752485,0.0,70.0,255.0,255.0,255.0
517,25.85,-2.689885603884587,0.9334431221229218,-15.639915885700278,-0.2902283644935322,0.1686808505438131,-1.0845168983885678,-0.007409793689960864,0.004893795431903936,-0.027256622855631463,0.0,70.0,255.0,255.0,255.0
518,25.900000000000002,-2.704406292230171,0.9418832840074208,-15.69417580865062,-0.2905888909761778,0.16892892815497662,-1.0858784473956185,-0.007009975870619911,0.005009520972376613,-0.02720154276225628,0.0,70.0,255.0,255.0,255.0
519,25.950000000000003,-2.718944492982205,0.9503360149384195,-15.74850373043984,-0.29092936208059417,0.16918180264105076,-1.0872370526647934,-0.006627513000401208,0.005052760502655129,-0.027157129777499733,0.0,70.0,255.0,255.0,255.0
520,26.0,-2.7334992284382302,0.9588014642715259,-15.8028995139171,-0.2912516422762179,0.16943420420524213,-1.0885941603733684,-0.006291243866884955,0.004959686792549434,-0.027164261329915007,0.0,70.0,255.0,255.0,255.0
521,26.05,-2.7480696572098267,0.9672794353589437,-15.857363146477176,-0.29155848646728266,0.1696777713203057,-1.089953478797785,-0.006019426282621865,0.0047004321590993214,-0.02724277763519467,0.0,70.0,255.0,255.0,255.0
522,26.1,-2.7626550770849585,0.9757692414035565,-15.911894861796878,-0.2918535849044801,0.16990424742115207,-1.091318438136888,-0.005842206615414014,0.004310296076781572,-0.02735844796735165,0.0,70.0,255.0,255.0,255.0
523,26.150000000000002,-2.7772550157002747,0.9842698601010589,-15.966494990290865,-0.29214270712882406,0.17010880092798386,-1.09268932359452,-0.005798324861938653,0.0038606892914239133,-0.0274503038049545,0.0,70.0,255.0,255.0,255.0
524,26.200000000000003,-2.791869347797841,0.9927801214963549,-16.02116379415633,-0.29243341739067397,0.17029031635029446,-1.0940634685173833,-0.005917146127387696,0.0034249164242772245,-0.02746358968828133,0.0,70.0,255.0,255.0,255.0
525,26.25,-2.806498357439342,1.0012988917360883,-16.075901337142604,-0.29273442174156283,0.17045129257041158,-1.0954356825633482,-0.006227204710329559,0.0030664882429531914,-0.0273503397860253,0.0,70.0,255.0,255.0,255.0
526,26.3,-2.821142789971997,1.009825250753396,-16.130707362412664,-0.2930561378617069,0.17059696517458978,-1.0967985024959859,-0.006729627251012005,0.0028219587249078693,-0.02708957875867668,0.0,70.0,255.0,255.0,255.0
527,26.35,-2.8358039712255128,1.0183585882535473,-16.185581187392202,-0.29340738446666403,0.17073348844290237,-1.098144640439216,-0.007340540687073016,0.002702316298308638,-0.026711356836273126,0.0,70.0,255.0,255.0,255.0
528,26.400000000000002,-2.8504835284186636,1.0268985995976863,-16.240521826456586,-0.2937901919304142,0.17086719680442064,-1.0994696381796132,-0.007915885520715094,0.002710425824825613,-0.02627630961811178,0.0,70.0,255.0,255.0,255.0
529,26.450000000000003,-2.865182990418554,1.0354453079339894,-16.295528151210164,-0.29419897301873554,0.17100453102538493,-1.100772271401027,-0.008304928131597222,0.0028408605135199494,-0.02584799865097409,0.0,70.0,255.0,255.0,255.0
530,26.5,-2.879903425720537,1.0439990527002248,-16.35059905359669,-0.29462068474357395,0.17115128285577264,-1.1020544380447106,-0.00835592796750717,0.003078322939487066,-0.025478388847588462,0.0,70.0,255.0,255.0,255.0
531,26.55,-2.8946450588929116,1.0525604362195666,-16.405733595014635,-0.29503456581548626,0.17131236331933364,-1.103320110285786,-0.008001551892533598,0.003406045295517579,-0.025198907328771725,0.0,70.0,255.0,255.0,255.0
532,26.6,-2.9094068823020858,1.0611302890321581,-16.460931064625267,-0.2954208399328273,0.1714918873853244,-1.1045743287775878,-0.007360106160669844,0.0037995995690875972,-0.025033420725506517,0.0,70.0,255.0,255.0,255.0
