idx,t,px,py,pz,vx,vy,vz,ax,ay,az,yaw,mode,ledr,ledg,ledb
0,0.0,-4.5000000000000036,-4.500000000000003,-7.845582115685684e-19,0.0002551983810406,-0.0003628790999243847,0.0007725563707139572,-0.01130132254019145,0.00615252733275895,-0.03395037580475968,0.0,70.0,255.0,255.0,255.0
1,0.05,-4.4999872400809515,-4.500018143954999,3.8627818535697076e-05,-0.0003098677459689725,-5.5252733286437206e-05,-0.0009249624195240268,-0.016939318492781297,0.009059725082671832,-0.05088176673154456,0.0,70.0,255.0,255.0,255.0
2,0.1,-4.5000309867746004,-4.500005525273331,-9.249624195240347e-05,-0.0014387334682375297,0.0005430934083427985,-0.004315620302440499,-0.02255198381035939,0.011628790999385075,-0.06772556370713952,0.0,70.0,255.0,255.0,255.0
3,0.15000000000000002,-4.500131113427775,-4.499963834614165,-0.00039293421170835284,-0.0025650661270049113,0.0011076263666520703,-0.00769751879023798,-0.022501322541224056,0.010952527331831163,-0.06755037580476328,0.0,70.0,255.0,255.0,255.0
4,0.2,-4.500287493387301,-4.499894762636666,-0.0008622481209762015,-0.0036888657223599353,0.0016383461415259148,-0.011070657882916828,-0.022449598447238373,0.010268789602463357,-0.06737151263170507,0.0,70.0,255.0,255.0,255.0
5,0.25,-4.500500000000011,-4.499800000000012,-0.0015000000000000356,-0.004810025971728749,0.002134505326898406,-0.014434670053408488,-0.022391763114271157,0.009542076013335787,-0.06717151665223381,0.0,70.0,255.0,255.0,255.0
6,0.30000000000000004,-4.500768495984474,-4.499681312103976,-0.0023057151263170504,-0.005928042033787051,0.0025925537428594936,-0.01778780954814021,-0.022326192787325283,0.008760967852960988,-0.06694477286949081,0.0,70.0,255.0,255.0,255.0
7,0.35000000000000003,-4.50109280420339,-4.499540744625726,-0.0032787809548140566,-0.007042645250461277,0.003010602112194505,-0.02112914734035757,-0.0222667336986504,0.008022835553500585,-0.06673916189315728,0.0,70.0,255.0,255.0,255.0
8,0.4,-4.50147276050952,-4.499380251892757,-0.0044186298603528075,-0.00815471540365209,0.003394837298209552,-0.024461725737455937,-0.02223549848672235,0.007483181148160156,-0.06663114977152669,0.0,70.0,255.0,255.0,255.0
9,0.45,-4.501908275743755,-4.499201260895905,-0.0057249535285596505,-0.009266195099133512,0.0037589202270105204,-0.02779226231751024,-0.022254452178493977,0.0072763287435329005,-0.0666899788119274,0.0,70.0,255.0,255.0,255.0
10,0.5,-4.502399380019433,-4.499004359870056,-0.007197856092103831,-0.010380160621501489,0.004122470172562842,-0.031130723618648676,-0.02235441666602611,0.007523361829253616,-0.06699034375217135,0.0,70.0,255.0,255.0,255.0
11,0.55,-4.502946291805905,-4.498789013878649,-0.008838025890424518,-0.011501636765736123,0.004511256409935882,-0.03449129669272737,-0.02254542972988105,0.008264099546106962,-0.06755669907175052,0.0,70.0,255.0,255.0,255.0
12,0.6000000000000001,-4.503549543696007,-4.498553234229062,-0.010646985761376569,-0.012634703594489594,0.004948880127173538,-0.03788639352582373,-0.022768563692210364,0.009346524249664867,-0.06827273063712704,0.0,70.0,255.0,255.0,255.0
13,0.65,-4.504209762165354,-4.4982941258659315,-0.012626665243006891,-0.01377849313495716,0.005445908834902369,-0.04131856975644008,-0.022924739752028245,0.010492908163151071,-0.06893549520798313,0.0,70.0,255.0,255.0,255.0
14,0.7000000000000001,-4.504927393009503,-4.498008643345572,-0.014778842737020577,-0.014927177569692418,0.0059981709434886454,-0.04477994304662204,-0.022916160184660583,0.011411378687853357,-0.06934247228640222,0.0,70.0,255.0,255.0,255.0
15,0.75,-4.5057024799223235,-4.497694308771583,-0.017104659547669095,-0.016070109153423218,0.0065870467036877045,-0.0482528169850803,-0.022634361307982687,0.011826552682947522,-0.06929867161136263,0.0,70.0,255.0,255.0,255.0
16,0.8,-4.506534403924845,-4.497349938675203,-0.019604124435528607,-0.017190613700490687,0.007180826211783398,-0.051709810207758306,-0.022037225934301574,0.011601360367219371,-0.068717156505229,0.0,70.0,255.0,255.0,255.0
17,0.8500000000000001,-4.507421541292373,-4.496976226150404,-0.022275640568444926,-0.018273831746853375,0.007747182740409642,-0.0551245326356032,-0.02126078309405699,0.01084095089840531,-0.06773616264458236,0.0,70.0,255.0,255.0,255.0
18,0.9,-4.50836178709953,-4.496575220401162,-0.025116577699088927,-0.019316692009896386,0.008264921301623929,-0.05848342647221654,-0.020544610104078487,0.009776141910222691,-0.0666223006319723,0.0,70.0,255.0,255.0,255.0
19,0.9500000000000001,-4.509353210493362,-4.496149734020242,-0.02812398321566658,-0.020328292757261224,0.00872479693143191,-0.06178676269880043,-0.020126967689204633,0.00865093039674747,-0.06565239311472522,0.0,70.0,255.0,255.0,255.0
20,1.0,-4.510394616375256,-4.495702740708019,-0.03129525396896897,-0.02132938877881685,0.009130014341298676,-0.06504866578368906,-0.02024809148268858,0.007694436762584189,-0.06509496980237894,0.0,70.0,255.0,255.0,255.0
21,1.05,-4.511486149371244,-4.495236732586112,-0.034628849794035486,-0.02235310190553008,0.00949424060769033,-0.06829625967903832,-0.021013265599734154,0.00704272005780382,-0.06508796162062319,0.0,70.0,255.0,255.0,255.0
22,1.1,-4.512629926565809,-4.49475331664725,-0.0381248799368728,-0.023430715338790264,0.009834286347079058,-0.07155746194575138,-0.02222205684461187,0.006722399430092452,-0.06553450689643289,0.0,70.0,255.0,255.0,255.0
23,1.1500000000000001,-4.513829220905123,-4.494253303951404,-0.041784595988610625,-0.02457530758999127,0.010166480550699575,-0.07484971036868161,-0.02350138859705808,0.006731475245036478,-0.06622341415224026,0.0,70.0,255.0,255.0,255.0
24,1.2000000000000002,-4.5150874573248085,-4.49373666859218,-0.04560985097374096,-0.025780854198496073,0.010507433871582705,-0.07817980336097541,-0.024470421273825593,0.007063874083534927,-0.06693466854141156,0.0,70.0,255.0,255.0,255.0
25,1.25,-4.516407306324973,-4.493202560564246,-0.049602576324708166,-0.027022349717373828,0.010872867959053067,-0.08154317722282277,-0.02474530073293124,0.007707681618907003,-0.06744144917911962,0.0,70.0,255.0,255.0,255.0
26,1.3,-4.517789692296546,-4.492649381796275,-0.05376416869602324,-0.028255384271789197,0.011278202033473406,-0.08492394827888737,-0.02414262541883261,0.008629810684190886,-0.06761873594001641,0.0,70.0,255.0,255.0,255.0
27,1.35,-4.5192328447521515,-4.4920747403608985,-0.0580949711525969,-0.02943661225925709,0.011735849027472156,-0.08830505081682441,-0.022900872977160702,0.009707773059286495,-0.06753037853426194,0.0,70.0,255.0,255.0,255.0
28,1.4000000000000001,-4.520733353522472,-4.4914757968935275,-0.06259467377770568,-0.030545471569505267,0.012248979339402055,-0.09167698613231356,-0.021480791218841944,0.010736278788048281,-0.06731779567282214,0.0,70.0,255.0,255.0,255.0
29,1.4500000000000002,-4.522287391909102,-4.490849842426958,-0.06726266976582826,-0.03158469138114128,0.012809476906276984,-0.09503683038410662,-0.02035069453567573,0.011495624551027817,-0.06711653178722438,0.0,70.0,255.0,255.0,255.0
30,1.5,-4.523891822660586,-4.4901948492029,-0.07209835681611634,-0.03258054102307284,0.013398541794504837,-0.098388639311036,-0.019990658965696184,0.011786818113801445,-0.06707918686109648,0.0,70.0,255.0,255.0,255.0
31,1.55,-4.525545446011409,-4.489509988247508,-0.07710153369693186,-0.0335837572777109,0.013988158717657129,-0.10174474907021627,-0.0206360928641125,0.011517011564876611,-0.06728315522536998,0.0,70.0,255.0,255.0,255.0
32,1.6,-4.527250198388357,-4.488796033331134,-0.08227283172313797,-0.03464415030948409,0.014550242950992498,-0.105116954833573,-0.02200363539621719,0.010775459381218155,-0.06762304656559026,0.0,70.0,255.0,255.0,255.0
33,1.6500000000000001,-4.529009861042358,-4.4880549639524085,-0.08761322918028916,-0.03578412081733262,0.015065704655778944,-0.1085070537267753,-0.023546262378371097,0.009756136874994326,-0.06790717471824581,0.0,70.0,255.0,255.0,255.0
34,1.7000000000000002,-4.53082861047009,-4.487289462865556,-0.0931235370958155,-0.0369987765473212,0.01552585663849193,-0.11190767230539758,-0.024720367016950462,0.008672602071424507,-0.06795883134931291,0.0,70.0,255.0,255.0,255.0
35,1.75,-4.53270973869709,-4.486502378288559,-0.09880399641082892,-0.03825615751902767,0.015932964862921395,-0.11530293686170659,-0.024976165969103903,0.007721083221845504,-0.06759788729257948,0.0,70.0,255.0,255.0,255.0
36,1.8,-4.534654226221993,-4.485696166379264,-0.10465383078198616,-0.03949639314423159,0.01629796496067648,-0.11866746103465553,-0.024046056737692112,0.007021117415373368,-0.06674775737762484,0.0,70.0,255.0,255.0,255.0
37,1.85,-4.536659378011513,-4.484872581792492,-0.11067074251429447,-0.04066076319279688,0.01663507660445873,-0.12197771259946907,-0.022257172849471374,0.006623116689041808,-0.06558097832692622,0.0,70.0,255.0,255.0,255.0
38,1.9000000000000001,-4.538720302541273,-4.484032658718818,-0.11685160204193307,-0.04172211042917873,0.01696027662958066,-0.12522555886734815,-0.020242411015569672,0.00656812476060864,-0.06441164065233568,0.0,70.0,255.0,255.0,255.0
39,1.9500000000000002,-4.540831589054431,-4.483176554129534,-0.12319329840102929,-0.042685004294353845,0.017291889080519596,-0.12841887666470264,-0.018633758143149493,0.006892941521741136,-0.06355369060106891,0.0,70.0,255.0,255.0,255.0
40,2.0,-4.542988802970708,-4.482303469810766,-0.12969348970840333,-0.043585486243493676,0.017649570781754775,-0.13158092792745504,-0.018064583918153687,0.007640830351007821,-0.06331322667253725,0.0,70.0,255.0,255.0,255.0
41,2.0500000000000003,-4.54519013767878,-4.481411597051358,-0.1363513911937748,-0.044491462686169214,0.018055972115620378,-0.13475019933195637,-0.018846626571811242,0.008800570056077817,-0.06383341433173345,0.0,70.0,255.0,255.0,255.0
42,2.1,-4.547437949239325,-4.480497872599204,-0.14316850964159897,-0.0454701489006748,0.018529627787362557,-0.1379642693606284,-0.020632381830232305,0.010170395541209132,-0.06492408907776137,0.0,70.0,255.0,255.0,255.0
43,2.15,-4.549737152568848,-4.479558634272622,-0.15014781812983763,-0.046554700869192445,0.01907301166974129,-0.1412426082397325,-0.022738545773748342,0.011409685760632726,-0.06621353539968677,0.0,70.0,255.0,255.0,255.0
44,2.2,-4.552093419326244,-4.47859057143223,-0.15729277046557222,-0.047744003478049635,0.01967059636342583,-0.14458562290059707,-0.024478679664685643,0.012164396409897194,-0.06732085846087033,0.0,70.0,255.0,255.0,255.0
45,2.25,-4.554511552916653,-4.477591574636279,-0.16460638041989734,-0.04900256883566101,0.02028945131073101,-0.14797469408581954,-0.025161582274524363,0.01207960469846725,-0.0678772246652748,0.0,70.0,255.0,255.0,255.0
46,2.3000000000000003,-4.55699367620981,-4.476561626301157,-0.17209023987415417,-0.05026016170550207,0.020878556833272555,-0.15137334536712455,-0.02444100340834865,0.011001777185892792,-0.06769201186885565,0.0,70.0,255.0,255.0,255.0
47,2.35,-4.559537569087203,-4.475503718952952,-0.1797437149566098,-0.051446669176495874,0.02138962902932029,-0.1547438952727051,-0.02266952360576724,0.009226023756703228,-0.06689348121286243,0.0,70.0,255.0,255.0,255.0
48,2.4000000000000004,-4.56213834312746,-4.474422663398225,-0.18756462940142468,-0.052527114066078795,0.021801159208942877,-0.1580626934884108,-0.020547182114150075,0.007304927068663147,-0.06576340189810292,0.0,70.0,255.0,255.0,255.0
49,2.45,-4.564790280493811,-4.473323603032058,-0.19554998430545087,-0.05350138738791088,0.022120121736186604,-0.1613202354625154,-0.01877124347773318,0.005807794516865528,-0.06458944898202756,0.0,70.0,255.0,255.0,255.0
50,2.5,-4.567488481866251,-4.472210651224606,-0.20369665294767622,-0.05440423841385211,0.02238193866062943,-0.16452163838661354,-0.018040975094901768,0.005304713559439733,-0.06364985601835793,0.0,70.0,255.0,255.0,255.0
51,2.5500000000000003,-4.570230704335196,-4.471085409165995,-0.21200214814411222,-0.05530548489740106,0.022650593092130578,-0.1676852210643512,-0.018709080074508222,0.006072694160952352,-0.06310408597837158,0.0,70.0,255.0,255.0,255.0
52,2.6,-4.573019030355991,-4.469945591915393,-0.22046517505411134,-0.056275146421302935,0.022989208076724665,-0.1708320469844507,-0.020433299970612495,0.007790218056058507,-0.06293471334351264,0.0,70.0,255.0,255.0,255.0
53,2.6500000000000004,-4.575858218977326,-4.468786488358322,-0.2290853528425573,-0.05734881489446231,0.023429614897736428,-0.17397869239870245,-0.022528949546440913,0.009825058179036006,-0.063061808056869,0.0,70.0,255.0,255.0,255.0
54,2.7,-4.578753911845437,-4.46760263042562,-0.23786304429398158,-0.058528041375947026,0.023971713894628266,-0.1771382277901376,-0.024316626144749165,0.011538504776620329,-0.0634070332567016,0.0,70.0,255.0,255.0,255.0
55,2.75,-4.581711023114921,-4.4663893169688595,-0.24679917562157105,-0.059780477508937224,0.02458346537539846,-0.1803193957243726,-0.025122629233109706,0.012297624979940025,-0.06388736058529909,0.0,70.0,255.0,255.0,255.0
56,2.8000000000000003,-4.584731959596331,-4.46514428388808,-0.25589498386641885,-0.061040304299258,0.02520147639262227,-0.1835269638486675,-0.024602956013630717,0.011781012604039631,-0.06443989596591204,0.0,70.0,255.0,255.0,255.0
57,2.85,-4.587815053544847,-4.463869169329597,-0.2651518720064378,-0.062240773110300296,0.025761566635802424,-0.18676338532096382,-0.0230535002883947,0.0102693277947985,-0.06500775865319053,0.0,70.0,255.0,255.0,255.0
58,2.9000000000000004,-4.590956036907361,-4.4625681272244995,-0.2745713223985152,-0.06334565432809747,0.02622840917210212,-0.19002773971398657,-0.021080795924444118,0.008338616438852142,-0.06550675515183957,0.0,70.0,255.0,255.0,255.0
59,2.95,-4.5941496189776565,-4.461246328412387,-0.28415464597783646,-0.06434885270274471,0.02659542827968764,-0.19331406083614777,-0.019288685510066017,0.006564619943549843,-0.06583724316597261,0.0,70.0,255.0,255.0,255.0
60,3.0,-4.5973909221776355,-4.459908584396531,-0.29390272848213,-0.06527452287910407,0.026884871166457103,-0.19661146403058383,-0.018272424056320347,0.005508702605272475,-0.06590466434436837,0.0,70.0,255.0,255.0,255.0
61,3.0500000000000003,-4.600677071265567,-4.458557841295741,-0.30381579238089484,-0.06617609510837674,0.027146298540214886,-0.1999045272705846,-0.01834501661646115,0.005469176168926282,-0.06566910405074178,0.0,70.0,255.0,255.0,255.0
62,3.1,-4.604008531688473,-4.457193954542509,-0.31389318120918847,-0.06710902454075018,0.02743178878334973,-0.203178374435658,-0.019298246660870433,0.006278018549643605,-0.06519872756820533,0.0,70.0,255.0,255.0,255.0
63,3.1500000000000004,-4.607387973719642,-4.455814662417406,-0.32413362982446065,-0.06810591977446379,0.027774100395179246,-0.20642440002740514,-0.020683158131706847,0.007555767440514671,-0.06462753497220586,0.0,70.0,255.0,255.0,255.0
64,3.2,-4.6108191236659195,-4.454416544502991,-0.334535621211929,-0.06917734035392087,0.028187365527401198,-0.2096411279328786,-0.022054972141827278,0.008922642488862209,-0.06410348125891474,0.0,70.0,255.0,255.0,255.0
65,3.25,-4.614305707755034,-4.452995925864666,-0.3450977426177485,-0.07031141698864651,0.028666364644065467,-0.21283474815329662,-0.02297573980909462,0.010003601895292036,-0.06378200068518636,0.0,70.0,255.0,255.0,255.0
66,3.3000000000000003,-4.617850265364784,-4.451549908038585,-0.35581909602725864,-0.07147491433483033,0.0291877257169304,-0.21601932800139723,-0.023204856308556288,0.010583961042787138,-0.06374317501059434,0.0,70.0,255.0,255.0,255.0
67,3.35,-4.621453199188517,-4.450077153292973,-0.3666996754178882,-0.07263190261950214,0.02972476074834418,-0.21920906565435605,-0.022843489757917723,0.010706803134752363,-0.06391369471040464,0.0,70.0,255.0,255.0,255.0
68,3.4000000000000004,-4.625113455626734,-4.44857743196375,-0.37774000259269425,-0.0737592633106221,0.030258406030405638,-0.2224106974724377,-0.02213491653675348,0.010507591187458587,-0.06414758048383651,0.0,70.0,255.0,255.0,255.0
69,3.45,-4.628829125519579,-4.447051312689933,-0.388940745165132,-0.07484539427317749,0.03077551986709004,-0.2256238237027397,-0.02131231170316994,0.010112921988358892,-0.06430174555121515,0.0,70.0,255.0,255.0,255.0
70,3.5,-4.632597995054052,-4.445499879977041,-0.4003023849629682,-0.0758904944809391,0.03126969822924153,-0.2288408720275592,-0.020600560763028852,0.009660852518056373,-0.06422737953492019,0.0,70.0,255.0,255.0,255.0
71,3.5500000000000003,-4.636418174967673,-4.4439243428670085,-0.4118248323678879,-0.07690545034948038,0.03174160511889568,-0.23204656165623172,-0.020134392649318045,0.009240014626143989,-0.06385162248036536,0.0,70.0,255.0,255.0,255.0
72,3.6,-4.640288540089,-4.442325719465152,-0.4235070411285914,-0.0779039337458709,0.032193699691855926,-0.23522603427559574,-0.019923225543116985,0.008854675670821877,-0.0632691975528843,0.0,70.0,255.0,255.0,255.0
73,3.6500000000000004,-4.64420856834226,-4.440704972897823,-0.4353474357954475,-0.07889777290379207,0.032627072685977865,-0.23837348141152015,-0.019943422806889544,0.008496478531494489,-0.06265943912970307,0.0,70.0,255.0,255.0,255.0
74,3.7,-4.648178317379379,-4.439063012196554,-0.4473443892697434,-0.07989827602655986,0.033043347545005375,-0.24149197818856605,-0.02018146869113835,0.008177557669331037,-0.06219610996279212,0.0,70.0,255.0,255.0,255.0
75,3.75,-4.652198395944916,-4.437400638143322,-0.4594966336143041,-0.08091591977290591,0.03344482845291097,-0.24459309240779936,-0.02063003578660627,0.007901053300685135,-0.06204843455511755,0.0,70.0,255.0,255.0,255.0
76,3.8000000000000003,-4.65626990935667,-4.435718529351263,-0.47180369851052334,-0.08196127960522048,0.03383345287507389,-0.2476968216440778,-0.021265312021867544,0.007669407026611452,-0.06229742131505511,0.0,70.0,255.0,255.0,255.0
77,3.85,-4.660394523905438,-4.434017292855815,-0.4842663157787119,-0.08304245097509266,0.034211769155572114,-0.2508228345393049,-0.021982768908568318,0.007511790219361103,-0.06284503955354404,0.0,70.0,255.0,255.0,255.0
78,3.9000000000000004,-4.664574154454179,-4.432297352435706,-0.4968859819644538,-0.08415955649607731,0.03458463189701,-0.2539813255994322,-0.022610553075086415,0.007469198649268094,-0.06349829936097007,0.0,70.0,255.0,255.0,255.0
79,3.95,-4.668810479555046,-4.430558829666114,-0.5096644483386551,-0.0853035062826013,0.03495868902049892,-0.2571726644754019,-0.022969552460860854,0.0075701340475298196,-0.06406104070492691,0.0,70.0,255.0,255.0,255.0
80,4.0,-4.673104505082439,-4.428801483533656,-0.522603248411994,-0.0864565117421634,0.03534164530176298,-0.2603874296699249,-0.02288731473845118,0.007838896982992338,-0.0643428915686084,0.0,70.0,255.0,255.0,255.0
81,4.05,-4.677456130729262,-4.427024665135938,-0.5357031913056476,-0.08759223775644642,0.03574257871879816,-0.2636069536322627,-0.0222900469090348,0.008276669621753996,-0.0642454055460373,0.0,70.0,255.0,255.0,255.0
82,4.1000000000000005,-4.681863728858084,-4.425227225661776,-0.5489639437752203,-0.08868551643306688,0.03616931226393838,-0.2668119702245286,-0.021311945908220054,0.008817324291054973,-0.06383605215835031,0.0,70.0,255.0,255.0,255.0
83,4.15,-4.686324682372569,-4.423407733909544,-0.5623843883281004,-0.08972343234726843,0.036624311147903654,-0.26999055884809775,-0.020209796127268476,0.009345887710843215,-0.0632619555010705,0.0,70.0,255.0,255.0,255.0
84,4.2,-4.690836072092811,-4.421564794546986,-0.5759629996600301,-0.09070649604579373,0.0371039010350227,-0.2731381657746357,-0.01925258253878681,0.009742931781620001,-0.06267301393081404,0.0,70.0,255.0,255.0,255.0
85,4.25,-4.695395331977148,-4.419697343806042,-0.589698204905564,-0.09164869060114711,0.037598604326065654,-0.27625786024117915,-0.01870070525988865,0.009899349443553973,-0.06221598984640364,0.0,70.0,255.0,255.0,255.0
86,4.3,-4.7000009411529255,-4.417804934114379,-0.603588785684148,-0.09257656657178259,0.0380938359793781,-0.27935976475927604,-0.018687787055338134,0.00976340166589651,-0.06197373039352749,0.0,70.0,255.0,255.0,255.0
87,4.3500000000000005,-4.704652988634327,-4.415887960208104,-0.6176341813814916,-0.09351746930668092,0.038574944492655305,-0.2824552332805319,-0.01912133557020468,0.009383388140360438,-0.06192711544941165,0.0,70.0,255.0,255.0,255.0
88,4.4,-4.709352688083594,-4.4139474396651135,-0.6318343090122012,-0.09448870012880306,0.03903217479341414,-0.2855524763042172,-0.019798374303281463,0.008863614143539422,-0.0620183541592656,0.0,70.0,255.0,255.0,255.0
89,4.45,-4.714101858647207,-4.411984742728762,-0.6461894290119133,-0.09549730673700907,0.03946130590700925,-0.28865706869645846,-0.020506830670985465,0.008317626005904799,-0.06219310403804412,0.0,70.0,255.0,255.0,255.0
90,4.5,-4.7189024187572945,-4.410001309074413,-0.660700015881847,-0.0965393831959016,0.03986393739400462,-0.2917717867080216,-0.021029864222033012,0.007851723891150186,-0.062401167693748594,0.0,70.0,255.0,255.0,255.0
91,4.55,-4.723755796966797,-4.407998348989362,-0.6753666076827155,-0.09760029315921237,0.040246478296124266,-0.2948971854658333,-0.02124654379773716,0.007529210893775229,-0.06260689898708316,0.0,70.0,255.0,255.0,255.0
92,4.6000000000000005,-4.728662448073216,-4.4059766612448,-0.6901897344284303,-0.09866403757567532,0.040616858483382146,-0.29803247660672993,-0.021207280575197274,0.007365486783150743,-0.06277641844496529,0.0,70.0,255.0,255.0,255.0
93,4.65,-4.733622200724365,-4.403936663141024,-0.7051698553433885,-0.0997210212167321,0.04098302697443934,-0.30117482731032985,-0.021030459572646265,0.007364131239384619,-0.06286285630004995,0.0,70.0,255.0,255.0,255.0
94,4.7,-4.738634550194889,-4.401878358547356,-0.7203072171594633,-0.10076708353293995,0.04135327160732061,-0.30431876223673493,-0.020827693845060224,0.007526051374906473,-0.0628150827375551,0.0,70.0,255.0,255.0,255.0
95,4.75,-4.743698909077659,-4.399801335980292,-0.735601731567062,-0.10180379060123812,0.04173563211192999,-0.30745633558408536,-0.020719791232703955,0.007849745668231378,-0.06257933937866555,0.0,70.0,255.0,255.0,255.0
96,4.800000000000001,-4.748814929255013,-4.397704795336163,-0.7510528507178719,-0.10283906265621034,0.042138246174143745,-0.3105766961746015,-0.020772098360222202,0.008320780399806438,-0.06213816083763257,0.0,70.0,255.0,255.0,255.0
97,4.8500000000000005,-4.75398281534328,-4.395587511362877,-0.7666594011845221,-0.10388100043726034,0.04256771015191063,-0.3136701516678486,-0.020928609727643988,0.008873825565647309,-0.06156898233250496,0.0,70.0,255.0,255.0,255.0
98,4.9,-4.759203029298739,-4.393448024320972,-0.7824198658846567,-0.10493192362897474,0.043025628730708476,-0.316733594407852,-0.021081558967761538,0.009399021737799274,-0.061009288239566306,0.0,70.0,255.0,255.0,255.0
99,4.95,-4.764476007706177,-4.391284948489806,-0.7983327606253073,-0.1059891563340365,0.04350761232569056,-0.31977108049180525,-0.02113530770175842,0.009779194136161351,-0.06059933890452118,0.0,70.0,255.0,255.0,255.0
100,5.0,-4.7698019449321425,-4.389097263088403,-0.8143969739338373,-0.10704545439915059,0.04400354814432461,-0.3227935282983041,-0.02099502679131504,0.009905284111955126,-0.060473456143550486,0.0,70.0,255.0,255.0,255.0
101,5.050000000000001,-4.775180553146092,-4.386884593675374,-0.8306121134551377,-0.108088659013168,0.04449814073688607,-0.3258184261061603,-0.020617976514358816,0.009727154686167694,-0.06069425719607002,0.0,70.0,255.0,255.0,255.0
102,5.1000000000000005,-4.780610810833459,-4.3846474490147145,-0.8469788165444533,-0.10910725205058647,0.04497626361294138,-0.3288629540179111,-0.02008005207621011,0.009303686479089635,-0.06118317670061879,0.0,70.0,255.0,255.0,255.0
103,5.15,-4.786091278351151,-4.38238696731408,-0.8634984088569289,-0.11009666422078901,0.045428509384795035,-0.3319367437762222,-0.01952237215556707,0.008756145445332209,-0.06178362710546059,0.0,70.0,255.0,255.0,255.0
104,5.2,-4.791620477255538,-4.380104598076235,-0.8801724909220755,-0.11105948926614317,0.0458518781574746,-0.33504131672845716,-0.019083849239898143,0.008216659259918657,-0.0623347877515279,0.0,70.0,255.0,255.0,255.0
105,5.25,-4.797197227277765,-4.377801779498332,-0.8970025405297746,-0.11200504914477882,0.0462501753107869,-0.33817022255137497,-0.01889208295340339,0.007817136532395352,-0.06269084537102732,0.0,70.0,255.0,255.0,255.0
106,5.300000000000001,-4.802820982170016,-4.375479580545156,-0.913989513177213,-0.11294869756148351,0.04663359181071414,-0.3413104012655599,-0.019009795116708972,0.007630088035082139,-0.0627715236647286,0.0,70.0,255.0,255.0,255.0
107,5.3500000000000005,-4.808492097033914,-4.373138420317261,-0.9311335806563306,-0.11390602865644972,0.047013184114295115,-0.3444473749178478,-0.019386706443835777,0.007627792154618618,-0.06258371879053204,0.0,70.0,255.0,255.0,255.0
108,5.4,-4.814211585035661,-4.370778262133727,-0.9484342506689978,-0.11488736820586709,0.047396371026176,-0.3475687731446131,-0.01991258877369617,0.007740872004902144,-0.06217079541335213,0.0,70.0,255.0,255.0,255.0
109,5.45,-4.8199808338545,-4.368398783214643,-0.9658904579707919,-0.11589728753381934,0.04778727131478533,-0.35066445445918304,-0.02046980815801902,0.007900369290414488,-0.06158151008930357,0.0,70.0,255.0,255.0,255.0
110,5.5,-4.825801313789043,-4.365999535002248,-0.9835006961149161,-0.11693434902166899,0.04818640795521745,-0.35372692415354345,-0.020948622746530532,0.008034188406735865,-0.06085118102021614,0.0,70.0,255.0,255.0,255.0
111,5.550000000000001,-4.831674268756667,-4.363580142419122,-1.0012631503861462,-0.11799214980847239,0.048590690155458915,-0.35674957256120465,-0.02128335584030694,0.008099719280529882,-0.060018622504021124,0.0,70.0,255.0,255.0,255.0
112,5.6000000000000005,-4.83760052876989,-4.361140465986702,-1.0191756533710365,-0.11906268460569969,0.048996379883270436,-0.35972878640394557,-0.021456758512705676,0.008106077303349224,-0.059200083335453346,0.0,70.0,255.0,255.0,255.0
113,5.65,-4.843580537217237,-4.358680504430795,-1.0372360290265408,-0.12013782565974296,0.04940129788579384,-0.36266958089475,-0.021462797224813812,0.008078594973337516,-0.05857673436466815,0.0,70.0,255.0,255.0,255.0
114,5.7,-4.8496143113358645,-4.356200336198123,-1.0554426114605115,-0.12120896432818107,0.04980423938060419,-0.3655864598404124,-0.021297430947786467,0.008035663112337943,-0.05833143296349874,0.0,70.0,255.0,255.0,255.0
115,5.75,-4.855701433650055,-4.353700080492734,-1.073794675010582,-0.1222675687545216,0.05020486419702763,-0.36850272419109986,-0.020957435384616474,0.007994081868201164,-0.058652402576009344,0.0,70.0,255.0,255.0,255.0
116,5.800000000000001,-4.861841068211317,-4.35117984977842,-1.0922928838796215,-0.12330470786664272,0.050603647567424304,-0.3714517000980133,-0.020455755881432225,0.007964321555764542,-0.05960881149404962,0.0,70.0,255.0,255.0,255.0
117,5.8500000000000005,-4.8680319044367195,-4.348639715735992,-1.1109398450203833,-0.12431314434266483,0.051001296352604086,-0.3744636053405048,-0.01986709866592662,0.007947898631854855,-0.060970633182444445,0.0,70.0,255.0,255.0,255.0
118,5.9,-4.874272382645583,-4.34607972014316,-1.129739244413672,-0.12529141773323538,0.05139843743060979,-0.37754876341625776,-0.019317061487811316,0.007944748102151067,-0.06232506433065943,0.0,70.0,255.0,255.0,255.0
119,5.95,-4.880561046210043,-4.343499871992931,-1.1486947213620091,-0.12624485049144596,0.05179577116281919,-0.38069611177357077,-0.01893944241002643,0.007956978260637015,-0.06324772309160842,0.0,70.0,255.0,255.0,255.0
120,6.0,-4.886896867694728,-4.340900143026878,-1.167808855591029,-0.12718536197423802,0.05219413525667349,-0.3838735357254186,-0.018865645038967926,0.007989484119708123,-0.0633112366479116,0.0,70.0,255.0,255.0,255.0
121,6.050000000000001,-4.893279582407467,-4.338280458467263,-1.187082074934551,-0.12813141499534275,0.052594719574790005,-0.3870272354383619,-0.01915413345461303,0.0080429944961935,-0.06231853245217689,0.0,70.0,255.0,255.0,255.0
122,6.1000000000000005,-4.899710009194262,-4.335640671069399,-1.2065115791348653,-0.12910077531969932,0.05299843470629284,-0.3901053889706363,-0.019710371299197504,0.00810232816972345,-0.06056903894646748,0.0,70.0,255.0,255.0,255.0
123,6.15,-4.906189659939437,-4.332980614996634,-1.2260926138316146,-0.1301024521252625,0.05340495239176235,-0.3930841393330087,-0.020352593187045187,0.00814241261855031,-0.05863303162270128,0.0,70.0,255.0,255.0,255.0
124,6.2,-4.912720254406788,-4.330300175830223,-1.2458199930681662,-0.13113603463840384,0.05381267596814787,-0.3959686921329064,-0.020892025519714252,0.008136423845073182,-0.057089795882014904,0.0,70.0,255.0,255.0,255.0
125,6.25,-4.919303263403277,-4.327599347399819,-1.2656894830449053,-0.13219165467723393,0.05421859477626967,-0.39879311892121017,-0.021143993783923065,0.008047981652126168,-0.05651458556439337,0.0,70.0,255.0,255.0,255.0
126,6.300000000000001,-4.925939419874512,-4.324878316352596,-1.2856993049602872,-0.13325043401679615,0.05461747413336049,-0.40162015068934576,-0.021014423586773745,0.007863700459775913,-0.05719071837095857,0.0,70.0,255.0,255.0,255.0
127,6.3500000000000005,-4.932628306804957,-4.322137599986483,-1.3058514981138398,-0.1342930970359113,0.05500496482224726,-0.404512190758306,-0.020576824062423782,0.007642788689921076,-0.05881791965633987,0.0,70.0,255.0,255.0,255.0
128,6.4,-4.939368729578103,-4.319377819870371,-1.3261505240361178,-0.13530811642303853,0.055381753002352596,-0.40750194265497974,-0.01998715783821936,0.007485601423518062,-0.06079726139300856,0.0,70.0,255.0,255.0,255.0
129,6.45,-4.946159118447261,-4.316599424686248,-1.3466016923793378,-0.13629181281973324,0.055753524964599066,-0.4105919168976069,-0.019405742225231393,0.007490613072391739,-0.06252717263428575,0.0,70.0,255.0,255.0,255.0
130,6.5,-4.952997910860076,-4.313802467373911,-1.3672097157258785,-0.13724869064556167,0.05613081430959177,-0.4137546599184083,-0.018994370501257407,0.007766561299327179,-0.06342650501065528,0.0,70.0,255.0,255.0,255.0
131,6.550000000000001,-4.959883987511817,-4.310986343255289,-1.3879771583711786,-0.13819124986985898,0.056530181094531784,-0.4169345673986724,-0.018840946090303845,0.008356003198617401,-0.0631921604976382,0.0,70.0,255.0,255.0,255.0
132,6.6000000000000005,-4.966817035847062,-4.308149449264458,-1.4089031724657457,-0.13913278525459205,0.05696641462945351,-0.42007387596817214,-0.01889869608771022,0.009124745509758725,-0.06201550620434926,0.0,70.0,255.0,255.0,255.0
133,6.65,-4.973797266037276,-4.3052897017923435,-1.4299845459679958,-0.14008111947863,0.057442655645507656,-0.42313611801910733,-0.0190632509845301,0.009836114087935499,-0.060321699029186604,0.0,70.0,255.0,255.0,255.0
134,6.7,-4.980825147794925,-4.302405183699907,-1.4512167842676564,-0.14103911035304506,0.05795002603824706,-0.4261060458710908,-0.01923120604567785,0.010255063258579611,-0.058541373720655265,0.0,70.0,255.0,255.0,255.0
135,6.75,-4.9879011770725805,-4.299494699188519,-1.472595150555105,-0.14200424008319779,0.05846816197136562,-0.42899025539117286,-0.01928654285947573,0.010145819770546183,-0.057087366420827124,0.0,70.0,255.0,255.0,255.0
136,6.800000000000001,-4.995025571803245,-4.2965583675027705,-1.4941158098067737,-0.14296776463899263,0.05896460801530168,-0.4318147825131735,-0.019169018158660123,0.009404687678404855,-0.05619896131683344,0.0,70.0,255.0,255.0,255.0
137,6.8500000000000005,-5.00219795353648,-4.293598238386989,-1.5157766288064223,-0.1439211418990638,0.0594086307392061,-0.4346101515228562,-0.018949323987182964,0.00822447635764334,-0.05586914643536112,0.0,70.0,255.0,255.0,255.0
138,6.9,-5.009417685993151,-4.29061750442885,-1.5375768249590593,-0.14486269703771093,0.05978705565106601,-0.4374016971567096,-0.018758066662005746,0.006965373459877355,-0.05600936906371423,0.0,70.0,255.0,255.0,255.0
139,6.95,-5.016684223240251,-4.287619532821882,-1.5595167985220932,-0.14579694856526437,0.06010516808519384,-0.4402110884292276,-0.01871651983966771,0.005994681678966884,-0.056532507308171276,0.0,70.0,255.0,255.0,255.0
140,7.0,-5.023997380849678,-4.2846069876203305,-1.581597933801982,-0.1467343490216777,0.0603865238189627,-0.44305494788752675,-0.018955402117626363,0.005678131646469353,-0.0573440293060834,0.0,70.0,255.0,255.0,255.0
141,7.050000000000001,-5.031357658142419,-4.281580880439986,-1.603822293310846,-0.147692488777027,0.060672981249840774,-0.44594549135983597,-0.019530067521689176,0.006192332334187256,-0.058361271624485234,0.0,70.0,255.0,255.0,255.0
142,7.1000000000000005,-5.03876662972738,-4.2785396894953465,-1.6261924829379657,-0.14868735577384662,0.061005757052381426,-0.4488910750499753,-0.020302236400926432,0.007327465609741068,-0.059467162133408635,0.0,70.0,255.0,255.0,255.0
143,7.15,-5.046226393719803,-4.275480304734748,-1.6487114008158434,-0.14972271241711965,0.06140572781081488,-0.45189220757317683,-0.021025414768338635,0.008671436362028828,-0.06047737483236837,0.0,70.0,255.0,255.0,255.0
144,7.2,-5.053738900969092,-4.272399116714265,-1.6713817036952834,-0.15078989725068048,0.06187290068858431,-0.4549388125332121,-0.02145665399000407,0.009806862706529529,-0.06118444786245014,0.0,70.0,255.0,255.0,255.0
145,7.25,-5.061305383444871,-4.269293014665889,-1.6942052820691647,-0.15186837781612006,0.062386414081467834,-0.45801065235942184,-0.021351895290599998,0.010321700263471456,-0.061396469734908976,0.0,70.0,255.0,255.0,255.0
146,7.300000000000001,-5.068925738750704,-4.266160475306118,-1.7171827689312256,-0.15292508677974048,0.06290507071493145,-0.461078459506703,-0.02060311268694548,0.010006122844874454,-0.061028213257596775,0.0,70.0,255.0,255.0,255.0
147,7.3500000000000005,-5.076597892122845,-4.263002507594396,-1.740313128019835,-0.1539286890848146,0.06338702636595528,-0.4641134736851815,-0.019407977494800832,0.00903647705419175,-0.0601911560799584,0.0,70.0,255.0,255.0,255.0
148,7.4,-5.084318607659186,-4.259821772669523,-1.7635941162997437,-0.15486588452922057,0.06380871842035063,-0.46709757511469885,-0.0181357054996667,0.007778065241392795,-0.05911385887940046,0.0,70.0,255.0,255.0,255.0
149,7.45,-5.0920844805757675,-4.256621635752361,-1.7870228855313048,-0.15574225963478128,0.06416483289009456,-0.47002485957312157,-0.017162411986060278,0.006597727634982675,-0.05804867560104121,0.0,70.0,255.0,255.0,255.0
150,7.5,-5.099892833622664,-4.253405289380513,-1.8105966022570559,-0.1565821257278266,0.0644684911838489,-0.47290244267480297,-0.016864988748377385,0.0058550206792240544,-0.05724612905044779,0.0,70.0,255.0,255.0,255.0
151,7.550000000000001,-5.10774269314855,-4.250174786633976,-1.8343131297987851,-0.15742875850961902,0.06475033495801696,-0.47574947247816635,-0.017424567977997185,0.005742523605256622,-0.05684484970394088,0.0,70.0,255.0,255.0,255.0
152,7.6000000000000005,-5.115635709473626,-4.2469302558847115,-1.8581715495048725,-0.1583245825256263,0.06504274354437456,-0.47858692764519706,-0.0186159701700106,0.006157581884647101,-0.05680094081954579,0.0,70.0,255.0,255.0,255.0
153,7.65,-5.123575151401113,-4.243670512279539,-1.8821718225633048,-0.15929035552662008,0.06536609314648167,-0.4814295665601209,-0.020000807521736164,0.006866186122955753,-0.056996140699094866,0.0,70.0,255.0,255.0,255.0
154,7.7,-5.131564745026288,-4.240393646570063,-1.9063145061608846,-0.16032466327779993,0.06572936215667013,-0.48428654171510654,-0.021134350745999342,0.007635140506323523,-0.05731325066573589,0.0,70.0,255.0,255.0,255.0
155,7.75,-5.139607617728893,-4.237097576063872,-1.9306004767348155,-0.16140379060122,0.06612960719711403,-0.4871608916266945,-0.021568196335142176,0.008230244991302982,-0.05763505135929492,0.0,70.0,255.0,255.0,255.0
156,7.800000000000001,-5.14770512408641,-4.233780685850352,-1.955030595323554,-0.16248148291131415,0.06655238665580043,-0.49005004685103604,-0.02107875526151659,0.008518234948606818,-0.05788684014091938,0.0,70.0,255.0,255.0,255.0
157,7.8500000000000005,-5.155855766020024,-4.230442337398292,-1.979605481419919,-0.16351166612737167,0.06698143069197471,-0.49294957564078645,-0.019898957677266793,0.00853776417182317,-0.058046945443712694,0.0,70.0,255.0,255.0,255.0
158,7.9,-5.164056290699147,-4.2270825427811545,-2.0043255528876327,-0.16447137867904082,0.06740616307298275,-0.4958547413954073,-0.018490248562574862,0.008390943180369703,-0.05809803520084866,0.0,70.0,255.0,255.0,255.0
159,7.95,-5.172302903887928,-4.223701721090993,-2.02919095555946,-0.16536069098362915,0.06782052501001168,-0.4987593791608713,-0.017313331882462535,0.008169309407168868,-0.058012634090354176,0.0,70.0,255.0,255.0,255.0
160,8.0,-5.18059235979751,-4.220300490280153,-2.05420149080372,-0.16620271186728708,0.06822309401369964,-0.5016560048044427,-0.016830151318458775,0.007963952736211866,-0.05776163754034336,0.0,70.0,255.0,255.0,255.0
161,8.05,-5.188923175074657,-4.216879411689623,-2.079356556039904,-0.16704370611547503,0.06861692028363287,-0.5045355429149057,-0.01727355782898954,0.007830597206126555,-0.05734056362522999,0.0,70.0,255.0,255.0,255.0
162,8.1,-5.197296730409057,-4.21343879825179,-2.1046550450952104,-0.16793006765018603,0.06900615373431229,-0.5073900611669657,-0.018417383271263077,0.007770429026532355,-0.056813048967185864,0.0,70.0,255.0,255.0,255.0
163,8.15,-5.2057161818396755,-4.209978796316192,-2.1300955621566007,-0.16888544444260134,0.0693939631862861,-0.5102168478116242,-0.019809014078830955,0.007771812717827231,-0.05629078609636906,0.0,70.0,255.0,255.0,255.0
164,8.200000000000001,-5.2141852748533175,-4.206499401933161,-2.155676729876373,-0.16991096905806913,0.06978333500609502,-0.5130191397766026,-0.020999174870439674,0.007833822331271278,-0.055888986865682,0.0,70.0,255.0,255.0,255.0
165,8.25,-5.2227072787454825,-4.203000462815583,-2.181397476134261,-0.1709853619296453,0.07017734541941323,-0.5158057464981924,-0.02154327298358183,0.0079659720359615,-0.05571037983145288,0.0,70.0,255.0,255.0,255.0
166,8.3,-5.231283811046282,-4.19948166739122,-2.207257304526192,-0.1720652963564273,0.07057993220969117,-0.5185901777597479,-0.02121386656881441,0.008166089513483854,-0.05580470489214839,0.0,70.0,255.0,255.0,255.0
167,8.35,-5.239913808381125,-4.1959424695946135,-2.2332564939102357,-0.17310674858652675,0.07099395437076161,-0.5213862169874073,-0.020202325088281015,0.008380519722006596,-0.05613638316295244,0.0,70.0,255.0,255.0,255.0
168,8.4,-5.248594485904935,-4.192382271954144,-2.259395926224933,-0.1740855288652554,0.07141798418189182,-0.5242038160760432,-0.018902879271909256,0.008521805948813466,-0.05662245677737765,0.0,70.0,255.0,255.0,255.0
169,8.450000000000001,-5.257322361267651,-4.188800671176424,-2.28567687551784,-0.17499703651371767,0.07184613496564296,-0.527048462665145,-0.017709828775647196,0.008502114553987639,-0.0571719312677299,0.0,70.0,255.0,255.0,255.0
170,8.5,-5.2660941895563065,-4.18519765845758,-2.3121007724914473,-0.17585651174282013,0.07226819563729059,-0.5299210092028162,-0.017016710127304435,0.008224187091698809,-0.057708824485569465,0.0,70.0,255.0,255.0,255.0
171,8.55,-5.274908012441933,-4.181573851612695,-2.3386689764381217,-0.17669870752644812,0.07266855367481284,-0.532819345113702,-0.01703032321449527,0.007651245207007662,-0.0581811296264334,0.0,70.0,255.0,255.0,255.0
172,8.6,-5.283764060308951,-4.177930803090098,-2.3653827070028175,-0.17755954406426966,0.07303332015799135,-0.5357391221654595,-0.01760427208639115,0.006909263646992514,-0.058525054744684724,0.0,70.0,255.0,255.0,255.0
173,8.65,-5.29266396684836,-4.174270519596896,-2.3922428886546676,-0.17845913473508723,0.07335948003951209,-0.5386718505881705,-0.018429352284332623,0.0062200310853022245,-0.05865491126963995,0.0,70.0,255.0,255.0,255.0
174,8.700000000000001,-5.30160997378246,-4.170594855086147,-2.4192498920616345,-0.17940247929270292,0.07365532326652158,-0.5416046132924235,-0.019201137066016116,0.005803780059121522,-0.058490514170772556,0.0,70.0,255.0,255.0,255.0
175,8.75,-5.31060421477763,-4.166904987270244,-2.44640334998391,-0.18037924844168884,0.07393985804542424,-0.5445209020052477,-0.019613942450291688,0.005877232977358204,-0.05795035952238514,0.0,70.0,255.0,255.0,255.0
176,8.8,-5.319647898626629,-4.163200869281605,-2.4737019822621593,-0.1813638735377321,0.0742430465642574,-0.547399649244662,-0.019505493254623474,0.006536528725931134,-0.05701595142717508,0.0,70.0,255.0,255.0,255.0
177,8.85,-5.328740602131403,-4.159480682613818,-2.501143314908376,-0.1823297977671512,0.07459351091801736,-0.5502224971479652,-0.01898692689321635,0.0076161786030759515,-0.0558460085809287,0.0,70.0,255.0,255.0,255.0
178,8.9,-5.337880878403344,-4.155741518189803,-2.528724231976956,-0.18326256622705372,0.07500466442456499,-0.5529842501027549,-0.01829253210363646,0.008802638474492142,-0.05471780490391431,0.0,70.0,255.0,255.0,255.0
179,8.950000000000001,-5.347066858754109,-4.151980216171362,-2.5564417399186516,-0.18415905097751484,0.07547377476546657,-0.5556942776383567,-0.017645995920290147,0.009777217425099849,-0.05391776030081452,0.0,70.0,255.0,255.0,255.0
180,9.0,-5.3562967835010955,-4.148194140713256,-2.5842936597407915,-0.18502716581908274,0.07598238616707498,-0.5583760261328363,-0.017259454802065477,0.010238908971249572,-0.05372572810107279,0.0,70.0,255.0,255.0,255.0
181,9.05,-5.365569575336017,-4.144381977554654,-2.6122793425319353,-0.18588499645772139,0.07649766566259153,-0.5610668504484639,-0.017247563907218932,0.010035553641252193,-0.05426937701917822,0.0,70.0,255.0,255.0,255.0
182,9.1,-5.374885283146868,-4.140544374146997,-2.640400344785638,-0.18675192220980463,0.0769859415312002,-0.5638029638347541,-0.017562612417076906,0.00927590538974954,-0.05536195988229409,0.0,70.0,255.0,255.0,255.0
183,9.15,-5.384244767556997,-4.136683383401534,-2.6686596389154107,-0.18764125769942908,0.07742525620156648,-0.5666030464366933,-0.018085927226607623,0.008200370728683737,-0.05664114184202873,0.0,70.0,255.0,255.0,255.0
184,9.200000000000001,-5.3936494089168106,-4.1328018485268405,-2.6970606494293072,-0.1885605149324654,0.07780597860406857,-0.569467078018957,-0.018701592538761247,0.007060124134028456,-0.057732896840567705,0.0,70.0,255.0,255.0,255.0
185,9.25,-5.403100819050244,-4.128902785541127,-2.7256063467173064,-0.1895114169533052,0.07813126861496933,-0.5723763361207501,-0.01931224766495987,0.006091140461261801,-0.05827474672170929,0.0,70.0,255.0,255.0,255.0
186,9.3,-5.412600550612141,-4.124988721665344,-2.7542982830413822,-0.19049173969896138,0.07841509265019475,-0.575294552691128,-0.01985147722356473,0.005433517780950581,-0.05807996706965746,0.0,70.0,255.0,255.0,255.0
187,9.35,-5.42214999302014,-4.121061276276108,-2.783135801986419,-0.19149656467566167,0.07867462039306439,-0.5781843328277159,-0.020246259802814137,0.005112927109962584,-0.05727696774031621,0.0,70.0,255.0,255.0,255.0
188,9.4,-5.431750207079707,-4.117121259626037,-2.812116716324154,-0.1925163656792428,0.07892638536119101,-0.5810222494651596,-0.02039928346606601,0.00512482966037453,-0.05614681187733339,0.0,70.0,255.0,255.0,255.0
189,9.450000000000001,-5.441401629588064,-4.113168637739989,-2.841238026932935,-0.19353649302226827,0.07918710335910184,-0.5837990140154492,-0.020214860031586568,0.005461260398575973,-0.05497722576333075,0.0,70.0,255.0,255.0,255.0
190,9.5,-5.451103856381934,-4.109202549290127,-2.8704966177256988,-0.19453785168240145,0.0794725114010486,-0.5865199720414926,-0.019587591833492013,0.006108510534819089,-0.05404726636375479,0.0,70.0,255.0,255.0,255.0
191,9.55,-5.460855414756304,-4.105221386599884,-2.8998900241370844,-0.19549525220561748,0.07979795441258375,-0.5892037406518247,-0.01849170202303796,0.007032426516406787,-0.05351630248808803,0.0,70.0,255.0,255.0,255.0
192,9.600000000000001,-5.470653381602496,-4.101222753848869,-2.929416991790881,-0.19638702188470525,0.08017575405268929,-0.5918716022903014,-0.017134959094899926,0.008110707849073862,-0.0533628964292987,0.0,70.0,255.0,255.0,255.0
193,9.65,-5.480494116944775,-4.097203811194615,-2.9590771843661146,-0.19720874811510747,0.08060902519749114,-0.5945400302947546,-0.01587684566981551,0.00913863230884715,-0.05350056169763917,0.0,70.0,255.0,255.0,255.0
194,9.700000000000001,-5.490374256414007,-4.0931618513291195,-2.9888709948203567,-0.1979747064516868,0.081089617283574,-0.5972216584600654,-0.015084002299747823,0.009896885554194768,-0.05384388775189208,0.0,70.0,255.0,255.0,255.0
195,9.75,-5.500291587589944,-4.089094849466258,-3.018799350212121,-0.19871714834508225,0.08159871375291061,-0.5999244190699438,-0.015121347704383226,0.010186798750577708,-0.054300197147094664,0.0,70.0,255.0,255.0,255.0
196,9.8,-5.510245971248515,-4.085001979953828,-3.048863436727351,-0.19948684122212512,0.08210829715863177,-0.6026516781747748,-0.01614982657178743,0.009915750511435562,-0.05480307472609525,0.0,70.0,255.0,255.0,255.0
197,9.850000000000001,-5.520240271712156,-4.080884019750394,-3.0790645180295986,-0.200332131002261,0.08259028880405417,-0.6054047265425533,-0.017883181207256627,0.009173192543343589,-0.05531153978264314,0.0,70.0,255.0,255.0,255.0
198,9.9,-5.530279184348741,-4.076742951073423,-3.1094039093816064,-0.20127515934285078,0.08302561641296613,-0.6081828321530391,-0.019781538983121294,0.008153368377872283,-0.05576833060949582,0.0,70.0,255.0,255.0,255.0
199,9.950000000000001,-5.540367787646441,-4.072581458109098,-3.1398828012449025,-0.20231028490057312,0.0834056256418414,-0.6109815596035029,-0.021290809091123464,0.007070171743972509,-0.056102048403960936,0.0,70.0,255.0,255.0,255.0
200,10.0,-5.550510212838798,-4.068402388509239,-3.1705020653419567,-0.20340424025196313,0.08373263358736338,-0.6137930369934352,-0.02186305464544347,0.006120331758285857,-0.05625590775206746,0.0,70.0,255.0,255.0,255.0
201,10.05,-5.5607082116716375,-4.064208194750361,-3.201262104944246,-0.20449659036511747,0.08401765881766998,-0.6166071503787096,-0.021228618729018933,0.0054235457960238875,-0.05620417250029597,0.0,70.0,255.0,255.0,255.0
202,10.100000000000001,-5.57095987187531,-4.060000622627472,-3.2321627803798276,-0.20552710212486502,0.08427498816696577,-0.6194134542434648,-0.01966760745109042,0.0050292492506542885,-0.055955419964481834,0.0,70.0,255.0,255.0,255.0
203,10.15,-5.581260921884124,-4.055780695933665,-3.2632034503685925,-0.2064633511102265,0.08452058374273541,-0.6222026923751578,-0.01774254618389648,0.004976845228998883,-0.05554247950043667,0.0,70.0,255.0,255.0,255.0
204,10.200000000000001,-5.591606206986333,-4.051548564253198,-3.2943830496173434,-0.20730135674325467,0.08477267268986566,-0.6249677021935085,-0.016025395368313156,0.00530140182863903,-0.05501411909842879,0.0,70.0,255.0,255.0,255.0
205,10.25,-5.6019910575584495,-4.047303428664678,-3.3257002205879433,-0.20806589064705783,0.08505072392559931,-0.6277041042850007,-0.015082377769459754,0.006043855567927636,-0.05441621846506983,0.0,70.0,255.0,255.0,255.0
206,10.3,-5.612412796051038,-4.043043491860638,-3.3571534600458435,-0.20880959452020065,0.08537705824665842,-0.6304093240400155,-0.015208332544869307,0.007192117586551916,-0.053785922918381246,0.0,70.0,255.0,255.0,255.0
207,10.350000000000001,-5.62287201701047,-4.0387657228400125,-3.388741152991945,-0.20958672390154476,0.0857699356842545,-0.6330826965768388,-0.016191936774045956,0.00854813213244654,-0.05318491555725835,0.0,70.0,255.0,255.0,255.0
208,10.4,-5.633371468441193,-4.034466498292213,-3.4204617297035274,-0.21042878819760524,0.08623187145990308,-0.6357278155957413,-0.017583567656842547,0.009777572384717104,-0.05270529451220085,0.0,70.0,255.0,255.0,255.0
209,10.450000000000001,-5.64391489583023,-4.030142535694022,-3.452313934551519,-0.211345080667229,0.08674769292272622,-0.6383532260280589,-0.018933949761468227,0.010532985510103288,-0.05244044956165261,0.0,70.0,255.0,255.0,255.0
210,10.5,-5.654505976507916,-4.02579172899994,-3.4842970523063332,-0.21232218317375207,0.0872851700109134,-0.6409718605519066,-0.019795499544272843,0.010468255293805129,-0.05247921838757996,0.0,70.0,255.0,255.0,255.0
211,10.55,-5.665147114147605,-4.021414018692931,-3.5164111206067097,-0.2133246306216563,0.08779451845210673,-0.6436011478668169,-0.0199259298797827,0.009433158683158638,-0.052853161467059095,0.0,70.0,255.0,255.0,255.0
212,10.600000000000001,-5.675838439570081,-4.01701227715473,-3.548657167093015,-0.21431477616173034,0.08822848587922927,-0.6462571766986125,-0.019454622142767164,0.007708944829687425,-0.05346137468307255,0.0,70.0,255.0,255.0,255.0
213,10.65,-5.686578591763778,-4.012591170105008,-3.581036838276571,-0.215270092835933,0.08856541293507547,-0.6489472853351241,-0.018671528177893748,0.005824660104369883,-0.05411820725238492,0.0,70.0,255.0,255.0,255.0
214,10.700000000000001,-5.697365448853675,-4.008155735861222,-3.6135518956265273,-0.2161819289795197,0.08881095188966626,-0.651668997423851,-0.017859691366783892,0.0043249778102882885,-0.05462510829614686,0.0,70.0,255.0,255.0,255.0
215,10.75,-5.70819678466173,-4.003710074916041,-3.646203738018956,-0.2170560619726114,0.0889979107161043,-0.6544097961647388,-0.017311568108180353,0.0037470859605814866,-0.05477888933689279,0.0,70.0,255.0,255.0,255.0
216,10.8,-5.719071055050936,-3.9992559447896117,-3.6789928752430012,-0.21791308579033775,0.0891856604857244,-0.6571468863575403,-0.01718678243500804,0.004355620640650315,-0.05448143121329352,0.0,70.0,255.0,255.0,255.0
217,10.850000000000001,-5.729988093240764,-3.994791508867469,-3.71191842665471,-0.2187747402161122,0.08943347278016933,-0.6598579392860682,-0.01738500589043568,0.005880797172919117,-0.05385499363574908,0.0,70.0,255.0,255.0,255.0
218,10.9,-5.740948529072547,-3.9903125975115947,-3.744978669171608,-0.21965158637938131,0.08977374020301632,-0.6625323857211152,-0.01769656671823938,0.0077782394126035825,-0.05313646855276133,0.0,70.0,255.0,255.0,255.0
219,10.950000000000001,-5.751953251878702,-3.985814134847167,-3.7781716652268216,-0.22054439688793614,0.09021129672142969,-0.6651715861413443,-0.01792639899109716,0.009494469217008472,-0.05256569068037287,0.0,70.0,255.0,255.0,255.0
220,11.0,-5.763002968761341,-3.9812914678394518,-3.8114958277857425,-0.22144422627849103,0.09072318712471716,-0.6677889547891525,-0.01787030261422018,0.010487456807783957,-0.05238918696868211,0.0,70.0,255.0,255.0,255.0
221,11.05,-5.774097674506551,-3.9767418161346955,-3.844950560705737,-0.22233142714935816,0.09126004240220809,-0.6704105048382125,-0.017427080240217663,0.01047172472108393,-0.052727687106246535,0.0,70.0,255.0,255.0,255.0
222,11.100000000000001,-5.7852361114762765,-3.972165463599231,-3.8785368782695637,-0.2231869343025128,0.09177035959682556,-0.6730617234997771,-0.016728058258763667,0.009622318692681375,-0.05343324284905471,0.0,70.0,255.0,255.0,255.0
223,11.15,-5.796416367936803,-3.967564780175013,-3.9122567330557145,-0.22400423297523453,0.09222227427147622,-0.675753829123118,-0.016019500986264035,0.008327090870041687,-0.05422132646204503,0.0,70.0,255.0,255.0,255.0
224,11.200000000000001,-5.8076365347738,-3.9629432361720833,-3.9461122611818755,-0.2247888844011392,0.09260306868382973,-0.6784838561459816,-0.015534572808117986,0.006977518282713646,-0.05481226884209711,0.0,70.0,255.0,255.0,255.0
225,11.25,-5.8188952563769165,-3.95830447330663,-3.9801051186703127,-0.22555769025604633,0.09292002609974759,-0.6812350560073277,-0.015495146842958718,0.005967049512189959,-0.05493242805632015,0.0,70.0,255.0,255.0,255.0
226,11.3,-5.830192303799405,-3.9536512335621086,-4.014235766782608,-0.22633839908543507,0.09319977363504872,-0.6839770989516136,-0.016005782385875023,0.005515802153110982,-0.05444744740135121,0.0,70.0,255.0,255.0,255.0
227,11.350000000000001,-5.84152909628546,-3.948984495943125,-4.048502828565474,-0.22715826849463383,0.09347160631505869,-0.6866798007474628,-0.016936513987886315,0.005541722927926429,-0.053499214455676736,0.0,70.0,255.0,255.0,255.0
228,11.4,-5.852908130648868,-3.9443040729306027,-4.082903746857355,-0.2280320504842237,0.09375394592784136,-0.6893270203971813,-0.018029998100566047,0.005844119717623997,-0.052371885272695096,0.0,70.0,255.0,255.0,255.0
229,11.450000000000001,-5.864332301333882,-3.939609101350341,-4.117435530605192,-0.22896126830469044,0.09405601828682109,-0.6919169892747323,-0.019023048704625012,0.0062340590509801785,-0.05135129455684506,0.0,70.0,255.0,255.0,255.0
230,11.5,-5.875804257479337,-3.9348984711019206,-4.152095445784828,-0.2299343553546862,0.09437735183293938,-0.6944621498528658,-0.01966911001449745,0.006512410411962932,-0.05070907283393211,0.0,70.0,255.0,255.0,255.0
231,11.55,-5.887325736869351,-3.930171366167047,-4.186881745590479,-0.23092817930614018,0.09470725932801738,-0.6969878965581255,-0.019836503502634883,0.006566232167859454,-0.050589096714848125,0.0,70.0,255.0,255.0,255.0
232,11.600000000000001,-5.898897075409951,-3.925427745169119,-4.22179423544064,-0.2319180057049497,0.09503397504972533,-0.6995210595243506,-0.01957399767720247,0.006452654396893465,-0.05092178744039444,0.0,70.0,255.0,255.0,255.0
233,11.65,-5.910517537439846,-3.9206679686620745,-4.256833851542914,-0.23288557907386043,0.09535252476770673,-0.702080075302165,-0.019012394723993964,0.006292887135472824,-0.051539244335696566,0.0,70.0,255.0,255.0,255.0
234,11.700000000000001,-5.922185633317337,-3.915892492692348,-4.292002242970857,-0.2338192451773491,0.09566326376327261,-0.7046749839579203,-0.0182932323736118,0.006187131294543846,-0.052269266217130905,0.0,70.0,255.0,255.0,255.0
235,11.75,-5.933899461957581,-3.911101642285747,-4.327301349938706,-0.2347149023112216,0.09597123789716111,-0.7073070019238781,-0.01756044107059651,0.006227224924337804,-0.05295128060733845,0.0,70.0,255.0,255.0,255.0
236,11.8,-5.945657123548459,-3.906295368902632,-4.362732943163245,-0.23557528928440874,0.09628598625570639,-0.7099701120186541,-0.016906665142357724,0.006459642136213972,-0.05348390466686226,0.0,70.0,255.0,255.0,255.0
237,11.850000000000001,-5.957456990886022,-3.9014730436601766,-4.398298361140571,-0.23640556882545738,0.09661720211078251,-0.7126553923905643,-0.016364698100002073,0.006845887922368732,-0.05381820454779529,0.0,70.0,255.0,255.0,255.0
238,11.9,-5.969297680431005,-3.896633648691554,-4.433998482402301,-0.23721175909440895,0.09697057504794326,-0.7153519324734336,-0.015965737688361514,0.007305264140944345,-0.05390489029872825,0.0,70.0,255.0,255.0,255.0
239,11.950000000000001,-5.981178166795463,-3.8917759861553822,-4.469833554387915,-0.23800214259429353,0.09734772852487694,-0.7180458814204371,-0.015749196627012907,0.00775792859131208,-0.05369266621579882,0.0,70.0,255.0,255.0,255.0
240,12.0,-5.993097894690434,-3.886898875839066,-4.505803070544345,-0.23878667875711024,0.09774636790707447,-0.7207211990950135,-0.01574115367555251,0.008134680567151165,-0.053129814060337566,0.0,70.0,255.0,255.0,255.0
241,12.05,-6.005056834671174,-3.882001349364675,-4.541905674297416,-0.23957625796184878,0.09816119658159206,-0.7233588628264709,-0.015944574856074922,0.008395199287480892,-0.05221374615542729,0.0,70.0,255.0,255.0,255.0
242,12.100000000000001,-6.017055520486619,-3.877082756180907,-4.578138956826992,-0.24038113624271773,0.09858588783582256,-0.7259425737105563,-0.016323666798623293,0.008526497875882555,-0.05108800509114886,0.0,70.0,255.0,255.0,255.0
243,12.15,-6.0290949482954455,-3.8721427605810925,-4.614499931668472,-0.2412086246417111,0.09901384636918031,-0.7284676633355858,-0.016806519322631885,0.008523352337874712,-0.05000110123036805,0.0,70.0,255.0,255.0,255.0
244,12.200000000000001,-6.04117638295079,-3.867181371543989,-4.6509857231605505,-0.24206178817498092,0.09943822306961003,-0.7309426838335931,-0.017304293473063836,0.008387867626868939,-0.0492118171715461,0.0,70.0,255.0,255.0,255.0
245,12.25,-6.0533011271129435,-3.8621989382741315,-4.687594200051831,-0.2429390539890175,0.09985263313186721,-0.7333888450527404,-0.017734897608168154,0.008130090103231069,-0.048965453826088634,0.0,70.0,255.0,255.0,255.0
246,12.3,-6.065470288349692,-3.857196108230802,-4.7243246076658245,-0.24383527793579773,0.10025123207993314,-0.7358392292162019,-0.018048834967920868,0.007765248359659083,-0.04937542306473475,0.0,70.0,255.0,255.0,255.0
247,12.350000000000001,-6.077684654906523,-3.852173815066138,-4.761178122973451,-0.24474393748580958,0.10062915796783312,-0.7383263873592139,-0.018224271069922082,0.007328959734920204,-0.05030082403960634,0.0,70.0,255.0,255.0,255.0
248,12.4,-6.089944682098273,-3.847133192434019,-4.798157246401746,-0.24565770504278994,0.10098412805342516,-0.7408693116201626,-0.018243709495280314,0.006882165668553597,-0.05145797750856218,0.0,70.0,255.0,255.0,255.0
249,12.450000000000001,-6.102250425410802,-3.8420754022607957,-4.835265054135467,-0.2465683084353376,0.10131737453468848,-0.7434721851100701,-0.01809414229994033,0.006496288546564699,-0.05254780402532688,0.0,70.0,255.0,255.0,255.0
250,12.5,-6.114601512941807,-3.83700145498055,-4.872504464912753,-0.24746711927278398,0.10163375690808163,-0.7461240920226953,-0.017763265216075297,0.006240996315831637,-0.053284361309646755,0.0,70.0,255.0,255.0,255.0
251,12.55,-6.126997137338081,-3.8319120265699875,-4.909877463337737,-0.24834463495694514,0.10194147416627164,-0.7488006212410347,-0.0172590596323019,0.006150520561387651,-0.05351178769288367,0.0,70.0,255.0,255.0,255.0
252,12.600000000000001,-6.139435976437501,-3.826807307563923,-4.947384527036856,-0.24919302523601417,0.1022488089642204,-0.7514752707919836,-0.016660088082876,0.0061949592217391825,-0.053277743041402204,0.0,70.0,255.0,255.0,255.0
253,12.65,-6.151916439861682,-3.8216871456735655,-4.985024990416935,-0.25001064376523274,0.10256097008844556,-0.754128395545175,-0.01609948185627985,0.006310688950206256,-0.05271710528598206,0.0,70.0,255.0,255.0,255.0
254,12.700000000000001,-6.1644370408140245,-3.8165512105550783,-5.022797366591374,-0.25080297342164215,0.10287987785924102,-0.7567469813205818,-0.01571811168590287,0.006426978186757637,-0.051970766259490375,0.0,70.0,255.0,255.0,255.0
255,12.75,-6.176996737203846,-3.8113991578876414,-5.060699688548993,-0.25158245493382303,0.10320366790712132,-0.759325472171124,-0.01565605085156463,0.0064619153092415615,-0.051177100934296504,0.0,70.0,255.0,255.0,255.0
256,12.8,-6.189595286307407,-3.806230843764366,-5.098729913808486,-0.2523685785067986,0.10352606939016518,-0.7618646914140115,-0.015975439323412388,0.006373182215657636,-0.05042917441633321,0.0,70.0,255.0,255.0,255.0
257,12.850000000000001,-6.202233595054526,-3.801046550948625,-5.136886157690395,-0.25317999886616427,0.10384098612868708,-0.7643683896127573,-0.01657090107443082,0.006212135779026795,-0.049785406593283454,0.0,70.0,255.0,255.0,255.0
258,12.9,-6.214913286194023,-3.7958467451514974,-5.175166752769762,-0.2540256686142417,0.10414728296806786,-0.7668432320733398,-0.017241999443839973,0.006073306968801262,-0.04931891603288108,0.0,70.0,255.0,255.0,255.0
259,12.950000000000001,-6.22763616191595,-3.790631822651818,-5.213570480897729,-0.25490419881054827,0.10444831682556721,-0.7693002812160454,-0.01778063706323607,0.006042884953805228,-0.04911430576157727,0.0,70.0,255.0,255.0,255.0
260,13.0,-6.240403706075078,-3.7854019134689407,-5.252096780891367,-0.2558037323205653,0.10475157146344838,-0.7717546626494975,-0.01797654070081478,0.0062072865029350055,-0.04925926292447258,0.0,70.0,255.0,255.0,255.0
261,13.05,-6.253216535148007,-3.7801566655054732,-5.290745947162678,-0.25670185288062974,0.10506904547586071,-0.7742262075084927,-0.017725896361486804,0.006603836823071418,-0.04977925356897117,0.0,70.0,255.0,255.0,255.0
262,13.100000000000001,-6.266073891363141,-3.7748950089213547,-5.329519401642216,-0.257576321956714,0.10541195514575552,-0.7767325880063947,-0.017141715545410108,0.007154726100111475,-0.05053708746247665,0.0,70.0,255.0,255.0,255.0
263,13.15,-6.278974167343678,-3.7696154699908977,-5.368419205963318,-0.25841602443517075,0.10578451808587186,-0.7792799162547404,-0.016447112442730116,0.007717015575092745,-0.05128909538507642,0.0,70.0,255.0,255.0,255.0
264,13.200000000000001,-6.291915493806658,-3.7643165571127675,-5.40744739326769,-0.259221033200987,0.1061836567032648,-0.7818614975449023,-0.015865913487633776,0.008148708106059388,-0.051779749622049565,0.0,70.0,255.0,255.0,255.0
265,13.25,-6.304896270663777,-3.758997104320571,-5.446605355717808,-0.26000261578393413,0.1065993888964778,-0.7844578912169453,-0.015621749048477795,0.008316957327592078,-0.05174985669098575,0.0,70.0,255.0,255.0,255.0
266,13.3,-6.317915755385052,-3.7536566182231197,-5.485893182389384,-0.2607832081058348,0.107015352436024,-0.7870364832140009,-0.015827548656854873,0.00815767095780906,-0.051080011773496636,0.0,70.0,255.0,255.0,255.0
267,13.350000000000001,-6.3309745914743605,-3.748295569076969,-5.525309004039208,-0.2615853706496196,0.1074151559922587,-0.789565892394295,-0.016376828819275602,0.007733435344681183,-0.049953423044080125,0.0,70.0,255.0,255.0,255.0
268,13.4,-6.3440742924500135,-3.742915102623894,-5.564849771628814,-0.26242089098776233,0.10778869597049212,-0.7920318255184089,-0.017054958710982504,0.007174994366820897,-0.04871836210069702,0.0,70.0,255.0,255.0,255.0
269,13.450000000000001,-6.357216680573137,-3.7375166994799196,-5.604512186591049,-0.26329086652071787,0.1081326554289408,-0.7944377286043647,-0.017649135559150153,0.00662176980155138,-0.04772604307028416,0.0,70.0,255.0,255.0,255.0
270,13.5,-6.370403379102085,-3.7321018370809997,-5.64429354448925,-0.26418580454367735,0.10845087295064726,-0.7968044298254373,-0.017952500400753024,0.006212902835134315,-0.04731725436766254,0.0,70.0,255.0,255.0,255.0
271,13.55,-6.3836352610275044,-3.726671612184855,-5.684192629573593,-0.2650861165607932,0.10875394571245423,-0.7991694540411309,-0.017857335585080847,0.00602496652533091,-0.04766107229690064,0.0,70.0,255.0,255.0,255.0
272,13.600000000000001,-6.396911990758165,-3.7212264425097543,-5.7242104898933635,-0.26597153810218543,0.10905336960318035,-0.8015705370551274,-0.017436377103408063,0.006027896157378976,-0.04859933691081508,0.0,70.0,255.0,255.0,255.0
273,13.65,-6.410232414837723,-3.715766275224537,-5.7643496832791055,-0.266829754271134,0.10935673532819212,-0.8040293877322124,-0.016847644787709726,0.006147482481733135,-0.04980650050114832,0.0,70.0,255.0,255.0,255.0
274,13.700000000000001,-6.423594966185278,-3.710290768976935,-5.804613428666585,-0.2676563025809564,0.10966811785135366,-0.8065511871052422,-0.016250830989328335,0.006310413154242411,-0.05095001749140238,0.0,70.0,255.0,255.0,255.0
275,13.75,-6.436998045095819,-3.7047994634394015,-5.84500480198963,-0.2684548373700668,0.10998777664361636,-0.8091243894813527,-0.01580424002396441,0.006439449980000234,-0.051709144485911906,0.0,70.0,255.0,255.0,255.0
276,13.8,-6.450440449922285,-3.6992919913125735,-5.88552586761472,-0.26923672658335285,0.11031206284935369,-0.8117221015538334,-0.01559588289499203,0.006489689047661784,-0.05190963843180185,0.0,70.0,255.0,255.0,255.0
277,13.850000000000001,-6.463921717754154,-3.693768257154466,-5.926177012145013,-0.270014425659566,0.11063674554838254,-0.8143153533245329,-0.015594026404119887,0.006475912426662234,-0.05161827360291582,0.0,70.0,255.0,255.0,255.0
278,13.9,-6.477441892488241,-3.688228316757735,-5.966957402947173,-0.27079612922376484,0.11095965409201991,-0.816883928914125,-0.01571893766305621,0.006433304144648488,-0.05100575244538774,0.0,70.0,255.0,255.0,255.0
279,13.950000000000001,-6.49100133067653,-3.682672291745264,-6.0078654050364255,-0.27158631942587164,0.11128007596284739,-0.8194159285690716,-0.015893740949834978,0.006390377115739199,-0.05024768649670719,0.0,70.0,255.0,255.0,255.0
280,14.0,-6.5046005244308285,-3.6771003091614505,-6.04889899580408,-0.27238550331874833,0.11159869180359383,-0.8219086975637957,-0.016038558150821558,0.006377269272883623,-0.04952616768898466,0.0,70.0,255.0,255.0,255.0
281,14.05,-6.518239881008405,-3.6715124225649047,-6.090056274792805,-0.2731901752409538,0.11191780289013575,-0.8243685453379701,-0.016106358941581078,0.006409563996445655,-0.04895212222795209,0.0,70.0,255.0,255.0,255.0
282,14.100000000000001,-6.531919541954924,-3.665908528872437,-6.131335850337877,-0.27399613921290644,0.1122396482032384,-0.8268039097865909,-0.0161084496819619,0.006468454135877266,-0.048524771475033646,0.0,70.0,255.0,255.0,255.0
283,14.15,-6.545639494929696,-3.660288457744581,-6.172736665771464,-0.27480102020915,0.11256464830372348,-0.8292210224854735,-0.01607483299892465,0.006519300940643902,-0.04821580440337314,0.0,70.0,255.0,255.0,255.0
284,14.200000000000001,-6.559399643975839,-3.6546520640420646,-6.214257952586425,-0.2756036225127989,0.11289157829730279,-0.8316254902269282,-0.01602800474449495,0.006528078382794789,-0.048011124632463265,0.0,70.0,255.0,255.0,255.0
285,14.25,-6.573199857180976,-3.6489992999148506,-6.255899214794157,-0.2764038206835995,0.11321745614200296,-0.8340221349487198,-0.015989499399715612,0.006451472927793134,-0.04789024070150916,0.0,70.0,255.0,255.0,255.0
286,14.3,-6.587040026044199,-3.6433303184278643,-6.297660166081297,-0.27720257245277047,0.1135367255900821,-0.8364145142970791,-0.015971968051875507,0.006272054966816043,-0.04783581205147769,0.0,70.0,255.0,255.0,255.0
287,14.350000000000001,-6.600920114426253,-3.6376456273558424,-6.339540666223865,-0.27800101748878703,0.11384466163868456,-0.8388057161538676,-0.015972174869105515,0.006050271030133558,-0.04784086893598882,0.0,70.0,255.0,255.0,255.0
288,14.4,-6.6148401277930775,-3.631945852263996,-6.3815407376966835,-0.278799789939681,0.11414175269309546,-0.841198601190678,-0.015981730342140565,0.005889492092636672,-0.04789196234211701,0.0,70.0,255.0,255.0,255.0
289,14.450000000000001,-6.628800093420221,-3.626231452086533,-6.423660526342933,-0.2795991905230011,0.11443361084794823,-0.8435949123880793,-0.01599424007148187,0.005890596066171483,-0.047961614506242256,0.0,70.0,255.0,255.0,255.0
290,14.5,-6.642800046845378,-3.620502491179201,-6.465900228935491,-0.2803992139468292,0.1147308122997126,-0.8459947626413022,-0.016003444249346188,0.006164811043607443,-0.04801683220794217,0.0,70.0,255.0,255.0,255.0
291,14.55,-6.656840014814904,-3.6147583708565616,-6.508260002607063,-0.2811995349479357,0.11505009195230897,-0.8483965956088735,-0.01600576885154581,0.006756015670505988,-0.048038429100305535,0.0,70.0,255.0,255.0,255.0
292,14.600000000000001,-6.670920000340171,-3.60899748198397,-6.550739888496379,-0.2819997908319838,0.1154064138667632,-0.8507986055513328,-0.016002850842244953,0.007528690182345699,-0.04803268518278614,0.0,70.0,255.0,255.0,255.0
293,14.65,-6.685039993898102,-3.6032177294698853,-6.593339863162196,-0.2827998200321602,0.11580296097054354,-0.8531998641271521,-0.01599824563207619,0.008243663089357867,-0.04801457466676595,0.0,70.0,255.0,255.0,255.0
294,14.700000000000001,-6.699199982343387,-3.5974171858869157,-6.636059874909094,-0.2835996153951914,0.11623078017569899,-0.8556000630180094,-0.01599503496896304,0.00866347674599588,-0.047996216876367015,0.0,70.0,255.0,255.0,255.0
295,14.75,-6.713399955437621,-3.5915946514523154,-6.678899869463997,-0.2843993235290565,0.11666930864514313,-0.8579994858147888,-0.015996723602906826,0.008549329517926196,-0.04799040249414688,0.0,70.0,255.0,255.0,255.0
296,14.8,-6.727639914696293,-3.5857502550224014,-6.721859823490573,-0.2851992877554821,0.11708571312749161,-0.8603991032674241,-0.01600495654292544,0.0077962832838451845,-0.048003758259529405,0.0,70.0,255.0,255.0,255.0
297,14.850000000000001,-6.74191988421317,-3.579886080139566,-6.76493977979074,-0.28599981918334905,0.11744893697352765,-0.8627998616407417,-0.01601642176236595,0.006601215326584864,-0.04802839033306583,0.0,70.0,255.0,255.0,255.0
298,14.9,-6.756239896614628,-3.5740053613250486,-6.808139809654647,-0.2868009299317187,0.1177458346601501,-0.8652019423007307,-0.016025287128229593,0.00533128678523731,-0.0480497389920842,0.0,70.0,255.0,255.0,255.0
299,14.950000000000001,-6.770599977206341,-3.568111496673551,-6.851459974020813,-0.287602347896172,0.11798206565205138,-0.8676048355399502,-0.016025620052140255,0.004361044735512465,-0.0480535179880448,0.0,70.0,255.0,255.0,255.0
300,15.0,-6.785000131404245,-3.5622071547598435,-6.894900293208642,-0.2884034919369327,0.11818193913370134,-0.8700072940995351,-0.01600966133983306,0.004065842912570616,-0.048021557814781346,0.0,70.0,255.0,255.0,255.0
301,15.05,-6.799440326400035,-3.556293302760181,-6.938460703430766,-0.2892033140301553,0.11838864994330844,-0.8724069913214283,-0.015974404977114887,0.0046259374412827015,-0.04794653786142078,0.0,70.0,255.0,255.0,255.0
302,15.100000000000001,-6.8139204628072605,-3.5503682897655127,-6.982140992340785,-0.2900009324346442,0.11864453287782961,-0.8748019478856772,-0.015931462108120797,0.005816565061911305,-0.047853753484616846,0.0,70.0,255.0,255.0,255.0
303,15.15,-6.828440419643499,-3.544428849472398,-7.025940898219334,-0.2907964602409674,0.11897030644949957,-0.87719236666989,-0.015900605854035632,0.007200234058712951,-0.04778646936554054,0.0,70.0,255.0,255.0,255.0
304,15.200000000000001,-6.843000108831357,-3.5384712591205627,-7.069860229007774,-0.29159099302004776,0.1193645562837009,-0.8795805948222313,-0.015902484822394314,0.008332996992210795,-0.047789711172363525,0.0,70.0,255.0,255.0,255.0
305,15.25,-6.857599518945504,-3.532492393844028,-7.113898957701557,-0.2923867087232068,0.11980360614872065,-0.8819713377871263,-0.015964631039544486,0.008767345451676789,-0.047923366246571675,0.0,70.0,255.0,255.0,255.0
306,15.3,-6.872238779703678,-3.5264908985056906,-7.1580573627864865,-0.2931874561240022,0.12024129082886859,-0.8843729314468884,-0.01609742354835575,0.008280106810998333,-0.048210090294542596,0.0,70.0,255.0,255.0,255.0
307,15.350000000000001,-6.886918264557904,-3.520468264761141,-7.202336250846246,-0.2939964510780424,0.12063161682982049,-0.8867923468165806,-0.01625772980311524,0.007103340277003767,-0.04855659572822191,0.0,70.0,255.0,255.0,255.0
308,15.4,-6.901638424811482,-3.5144277368227086,-7.246736597468145,-0.29481322910431373,0.12095162485656896,-0.8892285910197106,-0.016372289455901523,0.0056969611292423394,-0.04880438354506467,0.0,70.0,255.0,255.0,255.0
309,15.450000000000001,-6.9163995874683355,-3.5083731022754843,-7.291259109948217,-0.29563368002363255,0.12120131294274472,-0.8916727851710871,-0.016371153946526107,0.004520114148398591,-0.04880106389633099,0.0,70.0,255.0,255.0,255.0
310,15.5,-6.931201792813845,-3.502307605528434,-7.335903875985253,-0.29645034449896634,0.12140363627140882,-0.8941086974093437,-0.016183842474504218,0.004032700688760826,-0.04838903314379195,0.0,70.0,255.0,255.0,255.0
311,15.55,-6.946044621918232,-3.4962327386483434,-7.380669979689151,-0.29725206427108297,0.1216045830116208,-0.8965116884854663,-0.01578210129471458,0.004466782167833472,-0.047505501892519675,0.0,70.0,255.0,255.0,255.0
312,15.600000000000001,-6.960926999240954,-3.490147147227272,-7.4255550448338,-0.2980285546284378,0.12185031448819217,-0.8988592475985957,-0.01523939024030696,0.005599257979360672,-0.04632340672543478,0.0,70.0,255.0,255.0,255.0
313,15.65,-6.975847477381076,-3.484047707199524,-7.470555904449011,-0.29877600329511367,0.12216450880955687,-0.9011440291580097,-0.014689303921588959,0.0069827372751074535,-0.045154131652402896,0.0,70.0,255.0,255.0,255.0
314,15.700000000000001,-6.990804599570465,-3.4779306963463164,-7.515669447749601,-0.2994974850205967,0.12254858821570291,-0.903374660763836,-0.014265673285684954,0.008173399560806871,-0.044311581028821934,0.0,70.0,255.0,255.0,255.0
315,15.75,-7.005797225883136,-3.471792848377954,-7.5608933705253945,-0.30020257062368216,0.12298184876563756,-0.9055751872608919,-0.014091980414931982,0.008733926385806612,-0.04410446388201095,0.0,70.0,255.0,255.0,255.0
316,15.8,-7.020824856632833,-3.4656325114697526,-7.60622696647569,-0.3009066830620899,0.12342198085428358,-0.9077851071520371,-0.014227970805080759,0.00843961766463508,-0.044675501202284806,0.0,70.0,255.0,255.0,255.0
317,15.850000000000001,-7.035887894189345,-3.4594506502925255,-7.651671881240598,-0.30162536770419024,0.12382581053210107,-0.9100427373811204,-0.014620233711415409,0.007470443655721581,-0.04582082632111906,0.0,70.0,255.0,255.0,255.0
318,15.9,-7.050987393403252,-3.4532499304165425,-7.697231240213802,-0.30236870643323144,0.12416902521985573,-0.912367189784149,-0.015154131221528644,0.0062012739195260735,-0.04714636257299176,0.0,70.0,255.0,255.0,255.0
319,15.950000000000001,-7.066124764832668,-3.44703374777054,-7.742908600219013,-0.3031407808263431,0.12444593792405367,-0.9147573736384196,-0.015706665730963465,0.005006147748742862,-0.04824706420327729,0.0,70.0,255.0,255.0,255.0
320,16.0,-7.081301471485887,-3.440805336624137,-7.788706977577644,-0.3039393730063278,0.12466963999473002,-0.9171918962044767,-0.016160217218708084,0.004251547147759993,-0.04872112997569289,0.0,70.0,255.0,255.0,255.0
321,16.05,-7.0965187021333005,-3.434566783771067,-7.834627789839461,-0.3047568025482139,0.12487109263882967,-0.9196294866359889,-0.016446528304925323,0.004134094492691531,-0.04836591987080752,0.0,70.0,255.0,255.0,255.0
322,16.1,-7.111777151740708,-3.428318227360254,-7.880669926241243,-0.3055840258368203,0.12508304944399917,-0.9220284881915575,-0.01656331127755095,0.004549923108720932,-0.047364103840763505,0.0,70.0,255.0,255.0,255.0
323,16.150000000000002,-7.1270771047169825,-3.422058478826667,-7.9268306386586165,-0.306413133675969,0.12532608494970177,-0.9243658970200652,-0.016529695668054956,0.005262050497201187,-0.04608960220640057,0.0,70.0,255.0,255.0,255.0
324,16.2,-7.142418465108305,-3.415785618865284,-7.9731065159432495,-0.3072369954036258,0.1256092544937193,-0.9266374484121975,-0.016368176610281893,0.006034923197528741,-0.044920022298633455,0.0,70.0,255.0,255.0,255.0
325,16.25,-7.157800804257345,-3.409497553377295,-8.019494383499836,-0.3080499513369972,0.12592957726945464,-0.9288578992499286,-0.016111160034437688,0.006631912994503608,-0.04423096959413897,0.0,70.0,255.0,255.0,255.0
326,16.3,-7.173223460242005,-3.4031926611383385,-8.065992305868242,-0.3088481114070696,0.12627244579316965,-0.9310605453716114,-0.01578489033446928,0.006918456578786092,-0.04422016663303552,0.0,70.0,255.0,255.0,255.0
327,16.35,-7.188685615398052,-3.396870308797978,-8.112600438036997,-0.3096284403704441,0.12662142292733325,-0.9332799159132321,-0.015407360339736442,0.006934432674077229,-0.044753714026946056,0.0,70.0,255.0,255.0,255.0
328,16.400000000000002,-7.204186304279049,-3.390530518845605,-8.159320297459566,-0.3103888474410432,0.12696588906057737,-0.935535916774306,-0.015007925266896649,0.006784277005289496,-0.04554511205157041,0.0,70.0,255.0,255.0,255.0
329,16.45,-7.219724500142156,-3.3841737198919204,-8.206154029714428,-0.3111292328971338,0.1272998506278622,-0.9378344271183892,-0.014626315472821005,0.006561758529199935,-0.04631247364184077,0.0,70.0,255.0,255.0,255.0
330,16.5,-7.235299227568762,-3.377800533782819,-8.253103740171404,-0.3118514789883253,0.12762206491349737,-0.9401671641384901,-0.014291179939451837,0.006360754254330914,-0.046779047592337974,0.0,70.0,255.0,255.0,255.0
331,16.55,-7.250909648040989,-3.3714115134005707,-8.300170746128277,-0.312558350891079,0.1279359260532953,-0.942512331877623,-0.014020623644217522,0.006238139797920539,-0.04679406627747795,0.0,70.0,255.0,255.0,255.0
332,16.6,-7.26655506265787,-3.3650069411774894,-8.347354973359167,-0.3132535413527471,0.12824587889328942,-0.9448465707662379,-0.013844543402097287,0.006191413794098821,-0.04642738037752281,0.0,70.0,255.0,255.0,255.0
333,16.650000000000002,-7.282235002176264,-3.3585869255112417,-8.3946554032049,-0.3139428052312887,0.12855506743270517,-0.9471550699153752,-0.013801307226835036,0.00620261304322689,-0.04584277010000193,0.0,70.0,255.0,255.0,255.0
334,16.7,-7.297949343180999,-3.352151434434219,-8.442070480350704,-0.3146336720754306,0.1288661401976121,-0.9494308477762381,-0.01391984821079717,0.0062642431520654185,-0.04519716938009566,0.0,70.0,255.0,255.0,255.0
335,16.75,-7.313698369383807,-3.3457003114914805,-8.489598487982525,-0.3153347900523684,0.12918149174791171,-0.9516747868533848,-0.014228082911849071,0.006377097960319489,-0.04463680274096049,0.0,70.0,255.0,255.0,255.0
336,16.8,-7.329482822186236,-3.3392332852594278,-8.537237959036043,-0.3160564803666155,0.12950384999364406,-0.9538945280503341,-0.014726927442776372,0.0065356975160746344,-0.04424962886382389,0.0,70.0,255.0,255.0,255.0
337,16.85,-7.345304017420468,-3.332749926492116,-8.584987940787558,-0.31680748279664606,0.12983506149951918,-0.9560997497397672,-0.015333626891234076,0.006699912149921161,-0.044053128098830996,0.0,70.0,255.0,255.0,255.0
338,16.900000000000002,-7.361163570465901,-3.326249779109476,-8.63284793401002,-0.3175898430557389,0.13017384120863618,-0.9582998408602172,-0.015906006665122874,0.0068052708216193025,-0.044048283073472305,0.0,70.0,255.0,255.0,255.0
339,16.95,-7.377063001726042,-3.3197325423712525,-8.68081792487358,-0.31839808346315834,0.1305155885816811,-0.9605045780471144,-0.016295317324743763,0.006787982148948046,-0.044238336016988455,0.0,70.0,255.0,255.0,255.0
340,17.0,-7.3930033788122165,-3.3131982202513077,-8.728898391814731,-0.3192193747882133,0.13085263942353098,-0.9627236744619161,-0.01635247908859938,0.006582881876449065,-0.04462973211882826,0.0,70.0,255.0,255.0,255.0
341,17.05,-7.4089849392048635,-3.3066472784288994,-8.777090292319771,-0.3200333313720183,0.13117387676932601,-0.9649675512589972,-0.016011153764416974,0.0061652706037307325,-0.045208443908961726,0.0,70.0,255.0,255.0,255.0
342,17.1,-7.425006711949418,-3.300080832574375,-8.82539514694063,-0.32082049016465497,0.13146916648390405,-0.9672445188528123,-0.015385424558012062,0.005610709167980232,-0.04587926806713938,0.0,70.0,255.0,255.0,255.0
343,17.150000000000002,-7.441066988221329,-3.293500361780509,-8.873814744205053,-0.3215718738278195,0.13173494768612404,-0.9695554780657112,-0.014691029748536977,0.0050553712696910225,-0.04648325844538448,0.0,70.0,255.0,255.0,255.0
344,17.2,-7.4571638993322,-3.2869073378057627,-8.922350694747202,-0.32228959313950867,0.13197470361087316,-0.9718928446973507,-0.014151656382921374,0.004636602145113855,-0.04685722547943527,0.0,70.0,255.0,255.0,255.0
345,17.25,-7.47329594753528,-3.2803028914194217,-8.971004028674788,-0.3229870394661116,0.13219860790063542,-0.9742412006136547,-0.013997991410263921,0.00448335588565385,-0.046852287431420336,0.0,70.0,255.0,255.0,255.0
346,17.3,-7.489462603278811,-3.273687477015699,-9.019774814808567,-0.32368939228053506,0.13242303919943854,-0.9765780734404927,-0.014341744213108854,0.004657019602394286,-0.04640228314567452,0.0,70.0,255.0,255.0,255.0
347,17.35,-7.505664886763333,-3.267060587499478,-9.068661836018837,-0.3244212138874225,0.13266430986087485,-0.9788814289282222,-0.015039266950989116,0.005092775653903203,-0.04559604671925399,0.0,70.0,255.0,255.0,255.0
348,17.400000000000002,-7.521904724667554,-3.2604210460296117,-9.11766295770139,-0.32519331897563397,0.13293231676482886,-0.9811376781124181,-0.015815282265840835,0.0056568804637446846,-0.04461411438168028,0.0,70.0,255.0,255.0,255.0
349,17.45,-7.538184218660897,-3.253767355822995,-9.166775603830079,-0.3260027421140066,0.13322999790724932,-0.9833428403663902,-0.016398197004008352,0.006206122091123589,-0.04365173642408848,0.0,70.0,255.0,255.0,255.0
350,17.5,-7.554504998878954,-3.2470980462388868,-9.215997241738028,-0.3268331386760348,0.13355292897394122,-0.985502851754827,-0.016523620538499983,0.006595675932574707,-0.04289314612542228,0.0,70.0,255.0,255.0,255.0
351,17.55,-7.5708675325285,-3.240412062925601,-9.265325889005561,-0.3276551041678566,0.1338895655005068,-0.9876321549789324,-0.016061496422281607,0.006747163806730683,-0.04244191068654146,0.0,70.0,255.0,255.0,255.0
352,17.6,-7.58727050929574,-3.233709089688836,-9.314760457235922,-0.32843928831826297,0.1342276453546143,-0.9897470428234811,-0.015144687125268064,0.006701824580446214,-0.04229020473118794,0.0,70.0,255.0,255.0,255.0
353,17.650000000000002,-7.6037114613603265,-3.2269892983901394,-9.36430059328791,-0.3291695728803834,0.1345597479585514,-0.9918611754520512,-0.014041500862305156,0.0065526313513419865,-0.04238746351781231,0.0,70.0,255.0,255.0,255.0
354,17.7,-7.620187466583778,-3.220253114892981,-9.413946574781127,-0.3298434384044935,0.1348829084897485,-0.9939857891752624,-0.013021616206820852,0.006392709023916865,-0.04267531600348207,0.0,70.0,255.0,255.0,255.0
355,17.75,-7.636695805200776,-3.2135010075411645,-9.463699172205436,-0.3304717345010655,0.1351990188609431,-0.9961287070523994,-0.01233549846340054,0.006325921735994555,-0.04308710941582916,0.0,70.0,255.0,255.0,255.0
356,17.8,-7.653234640033885,-3.2067332130068866,-9.513559445486367,-0.33107698825083354,0.13551550066334794,-0.9982945001168453,-0.01211884352469994,0.006407099063432398,-0.04357161256827169,0.0,70.0,255.0,255.0,255.0
357,17.85,-7.669803504025859,-3.1999494574748297,-9.56352862221712,-0.3316836188535355,0.13583972876728634,-1.0004858683092266,-0.012333872660708067,0.006578993623529428,-0.04408322759807959,0.0,70.0,255.0,255.0,255.0
358,17.900000000000002,-7.686403001919238,-3.193149240130158,-9.61360803231729,-0.33231037551690434,0.13617340002570089,-1.0027028228766532,-0.012866826172697188,0.006734365692517841,-0.044553420826609624,0.0,70.0,255.0,255.0,255.0
359,17.95,-7.70303454157755,-3.1863321174722596,-9.663798904504786,-0.3329703014708052,0.13651316533653812,-1.0049412103918876,-0.013595338166982884,0.006775955565885283,-0.04490182473624316,0.0,70.0,255.0,255.0,255.0
360,18.0,-7.719700032066319,-3.179497923596504,-9.714102153356478,-0.33366990933360263,0.13685099558228941,-1.0071930053502776,-0.014402357636456031,0.006604693067835399,-0.04506237891348519,0.0,70.0,255.0,255.0,255.0
361,18.05,-7.73640153251091,-3.1726470179140307,-9.764518205039813,-0.3344105372344508,0.13717363464332166,-1.009447448283236,-0.01520466794104891,0.0061773536923492856,-0.04500441293266988,0.0,70.0,255.0,255.0,255.0
362,18.1,-7.753141085789764,-3.165780560132172,-9.815046898184802,-0.3351903761277075,0.13746873095152434,-1.0116934466435445,-0.0159226194343276,0.005583972487377409,-0.04474136040268917,0.0,70.0,255.0,255.0,255.0
363,18.150000000000002,-7.769920570123681,-3.1589001448188783,-9.865687549704168,-0.33600279917788356,0.1377320318920594,-1.013921584323505,-0.016445879762194693,0.004988973477582093,-0.04431521681294015,0.0,70.0,255.0,255.0,255.0
364,18.2,-7.786741365707552,-3.152007356942966,-9.916439056617152,-0.336834964103927,0.13796762829928255,-1.0161249683248386,-0.016658569585548122,0.004556242604802918,-0.04378358551573314,0.0,70.0,255.0,255.0,255.0
365,18.25,-7.803604066534073,-3.14510338198895,-9.967300046536652,-0.33766865613643837,0.1381876561525397,-1.0182999428750783,-0.01645507099095056,0.004447287345010764,-0.04320342154944257,0.0,70.0,255.0,255.0,255.0
366,18.3,-7.820508231321196,-3.138188591327712,-10.01826905090466,-0.33848047120302205,0.13841235703378363,-1.0204453104797828,-0.015800946250976722,0.0047372857010063996,-0.04261642334828508,0.0,70.0,255.0,255.0,255.0
367,18.35,-7.8374521136543756,-3.1312621462855716,-10.06934457758463,-0.33924875076153604,0.13866138472264034,-1.0225615852099068,-0.014820964286776928,0.005320640902439777,-0.04206946599083494,0.0,70.0,255.0,255.0,255.0
368,18.400000000000002,-7.85443310639735,-3.124322452855448,-10.12052520942565,-0.33996256763169974,0.1389444211240276,-1.0246522570788663,-0.013746857576091287,0.005993376761193048,-0.04162925504509474,0.0,70.0,255.0,255.0,255.0
369,18.45,-7.8714483704175455,-3.117367704173169,-10.171809803292517,-0.3406234365191452,0.13926072239875964,-1.0267245107144163,-0.012828845028689528,0.006546300121579307,-0.04136280755719923,0.0,70.0,255.0,255.0,255.0
370,18.5,-7.888495450049264,-3.110396380615572,-10.223197660497092,-0.3412454521345687,0.13959905113618554,-1.0287885378345862,-0.012309386371001096,0.006770166875824657,-0.04132393488731623,0.0,70.0,255.0,255.0,255.0
371,18.55,-7.905572915631002,-3.1034077990595503,-10.274688657075975,-0.3418543751562453,0.1399377390863421,-1.030856904203148,-0.012311547055166017,0.006560216790818529,-0.041530919317089854,0.0,70.0,255.0,255.0,255.0
372,18.6,-7.922680887564889,-3.096402606706938,-10.326283350917407,-0.3424766068400853,0.1402550728152674,-1.0329416297662952,-0.012745411530890038,0.006018871828228356,-0.041937232512800904,0.0,70.0,255.0,255.0,255.0
373,18.650000000000002,-7.939820576315011,-3.0893822917780236,-10.377982820052605,-0.3431289163093343,0.14053962626916494,-1.035050627454428,-0.0134148018231528,0.005352111552348049,-0.042449627809126866,0.0,70.0,255.0,255.0,255.0
374,18.7,-7.956993779195822,-3.0823486440800214,-10.42978841366285,-0.3438180870224006,0.1407902839705022,-1.037186592547208,-0.014112763585494292,0.004765130335515622,-0.04295949660662046,0.0,70.0,255.0,255.0,255.0
375,18.75,-7.974202385017251,-3.0753032633809734,-10.481701479307326,-0.3445401926678837,0.1410161393027165,-1.03934657711509,-0.014627383524157267,0.004456007855457855,-0.043360792279578675,0.0,70.0,255.0,255.0,255.0
376,18.8,-7.991447798462611,-3.0682470301497498,-10.533723071374359,-0.3452808253748163,0.14123588475604798,-1.0415226717751658,-0.014840604456178852,0.004528420562355251,-0.04359369891915321,0.0,70.0,255.0,255.0,255.0
377,18.85,-8.008730467554733,-3.0611796749053686,-10.585853746484842,-0.3460242531135016,0.14146898135895203,-1.0437059470070054,-0.014801958354038192,0.004918463859082678,-0.043665240323242926,0.0,70.0,255.0,255.0,255.0
378,18.900000000000002,-8.02605022377396,-3.0541001320138546,-10.63809366607506,-0.3467610212102201,0.14172773114195625,-1.04588919580749,-0.014627688047141874,0.005483584954735221,-0.04360775819467477,0.0,70.0,255.0,255.0,255.0
379,18.95,-8.043406569675755,-3.047006901791173,-10.690442666065591,-0.3474870219182158,0.14201733985442555,-1.0480667228264728,-0.01442769969735025,0.0060798918231519394,-0.04345971883541466,0.0,70.0,255.0,255.0,255.0
380,19.0,-8.060798925965782,-3.039898398028412,-10.742900338357707,-0.34820379117995515,0.14233572032427144,-1.0502351676910315,-0.014321032910658005,0.006569811026446715,-0.04327690531731321,0.0,70.0,255.0,255.0,255.0
381,19.05,-8.07822694879375,-3.032773329758746,-10.795466182834694,-0.3489191252092816,0.14267432095707022,-1.0523944133582042,-0.014372095724546341,0.006873327067147272,-0.04309325936660002,0.0,70.0,255.0,255.0,255.0
382,19.1,-8.09569083848671,-3.025630965932705,-10.848139779693527,-0.3496410007524098,0.14302305303098617,-1.0545444936276915,-0.014525822652267095,0.006990909099080511,-0.04288264535503572,0.0,70.0,255.0,255.0,255.0
383,19.150000000000002,-8.113191048868991,-3.018471024455647,-10.900920632197463,-0.3503717074745083,0.14337341186697827,-1.0566826778937077,-0.014676217552711535,0.006949073104145498,-0.04260017857191656,0.0,70.0,255.0,255.0,255.0
384,19.200000000000003,-8.130728009234161,-3.011293624746007,-10.953808047482898,-0.35110862250768093,0.14371796034140072,-1.0588045114848832,-0.014729351378406363,0.006775815192350265,-0.042214028985299024,0.0,70.0,255.0,255.0,255.0
385,19.25,-8.14830191111976,-3.004099228421507,-11.006801083345952,-0.35184464261234893,0.1440509933862133,-1.0609040807922376,-0.014592540775559826,0.006508757362810869,-0.041679651719128685,0.0,70.0,255.0,255.0,255.0
386,19.3,-8.165912473495396,-2.996888525407386,-11.059898455562122,-0.3525678765852369,0.1443688360776818,-1.062972476656796,-0.014223926397605169,0.006177245527938524,-0.040986177365986975,0.0,70.0,255.0,255.0,255.0
387,19.35,-8.183558698778283,-2.989662344813739,-11.113098331011631,-0.35326703525210945,0.14466871793900715,-1.0650026985288363,-0.013696522598571903,0.005798738905360423,-0.04024324585714112,0.0,70.0,255.0,255.0,255.0
388,19.400000000000002,-8.201239177020607,-2.982421653613485,-11.166398725415005,-0.3539375288450941,0.14494870996821785,-1.0669968012425102,-0.013146509341943613,0.005400961789492342,-0.039633299079255835,0.0,70.0,255.0,255.0,255.0
389,19.450000000000003,-8.218952451662792,-2.975167473816917,-11.219798011135882,-0.3545816861863038,0.1452088141179564,-1.068966028436762,-0.012707668681954942,0.005022535052967569,-0.03933022582867096,0.0,70.0,255.0,255.0,255.0
390,19.5,-8.236697345639238,-2.9679007722016895,-11.273295328258682,-0.3552082957132896,0.1454509634735146,-1.0709298238253773,-0.012500785338964704,0.004691196818606969,-0.039500431862293794,0.0,70.0,255.0,255.0,255.0
391,19.55,-8.254473281234121,-2.9606223774695657,-11.32689099351842,-0.3558317647202003,0.14567793379981708,-1.0729160716229913,-0.012585998219805106,0.004424404108149815,-0.04021014305699566,0.0,70.0,255.0,255.0,255.0
392,19.6,-8.272280522111258,-2.9533329788217078,-11.38058693542098,-0.3564668955352701,0.1458934038843296,-1.0749508381310768,-0.012923611427417825,0.004251431316593113,-0.04129905653229571,0.0,70.0,255.0,255.0,255.0
393,19.650000000000002,-8.290119970787648,-2.9460330370811327,-11.434386077331528,-0.35712412586294207,0.1461030769314764,-1.0770459772762209,-0.01342138144266869,0.004209783700348524,-0.04246942231418416,0.0,70.0,255.0,255.0,255.0
394,19.700000000000003,-8.307992934697552,-2.93872267112856,-11.488291533148603,-0.357809033679537,0.14631438225436444,-1.0791977803624953,-0.013980486716391738,0.004327331308973115,-0.04341331944655025,0.0,70.0,255.0,255.0,255.0
395,19.75,-8.325900874155602,-2.9314015988556963,-11.542305855367777,-0.35852217453458124,0.1465358100623737,-1.081387309220876,-0.014516299219913265,0.004630418066842168,-0.04383862083070511,0.0,70.0,255.0,255.0,255.0
396,19.8,-8.34384515215101,-2.9240690901223227,-11.59643026407069,-0.3592606636015283,0.14677742406104866,-1.0835816424455658,-0.0149725935424172,0.005119450394097669,-0.043599450873088585,0.0,70.0,255.0,255.0,255.0
397,19.85,-8.361826940515755,-2.9167238564495914,-11.650664019612334,-0.36001943388882296,0.14704775510178347,-1.0857472543081848,-0.01529266805508911,0.005714696667480368,-0.042810411464166975,0.0,70.0,255.0,255.0,255.0
398,19.900000000000002,-8.379847095539892,-2.9093643146121444,-11.705004989501509,-0.3607899304070372,0.1473488937277967,-1.0878626835919825,-0.015403489364196332,0.00627906424810476,-0.04171996737483141,0.0,70.0,255.0,255.0,255.0
399,19.950000000000003,-8.397905933556459,-2.9019889670768118,-11.759450287971532,-0.3615597828252426,0.14767566152659395,-1.089919251045668,-0.015237610561236181,0.006669165352324313,-0.04058927027941195,0.0,70.0,255.0,255.0,255.0
400,20.0,-8.416003073822417,-2.894596748459485,-11.813996914606076,-0.36231369146316084,0.14801581026302912,-1.0919216106199237,-0.014730055076306314,0.006743121589991574,-0.039669094138261585,0.0,70.0,255.0,255.0,255.0
401,20.05,-8.434137302702775,-2.887187386050509,-11.868642449033524,-0.3630327883328732,0.1483499736855931,-1.093886160459494,-0.013868802434657823,0.006437281494475755,-0.03910431452069929,0.0,70.0,255.0,255.0,255.0
402,20.1,-8.452306352655704,-2.8797617510909257,-11.923385530652025,-0.3637005717066266,0.1486595384124767,-1.0958320420719936,-0.01278832707445332,0.005854257538073782,-0.03889202488487342,0.0,70.0,255.0,255.0,255.0
403,20.150000000000002,-8.470507359873437,-2.872321432209261,-11.978225653240724,-0.36431162104031856,0.14893539943940048,-1.0977753629479814,-0.011724567860582624,0.005190322943882109,-0.03897965923673752,0.0,70.0,255.0,255.0,255.0
404,20.200000000000003,-8.488737514759736,-2.8648682111469856,-12.033163066946823,-0.3648730284926849,0.1491785707068649,-1.0997300079956673,-0.01092081929101596,0.004648781174587668,-0.03931528708154275,0.0,70.0,255.0,255.0,255.0
405,20.25,-8.506994662722706,-2.8574035751385747,-12.08819865404029,-0.36540370296942015,0.14940027755685925,-1.1017068916561357,-0.010599471150918305,0.004433086248978313,-0.039849011939985246,0.0,70.0,255.0,255.0,255.0
406,20.3,-8.525277885056678,-2.8499281833912997,-12.143333756112437,-0.3659329756077767,0.14962187933176274,-1.1037149091896659,-0.010866509073004238,0.004644710340739877,-0.040531542791910624,0.0,70.0,255.0,255.0,255.0
407,20.35,-8.543587960283483,-2.8424413872053984,-12.198570144959257,-0.3664903538767206,0.14986474859093324,-1.1057600459353267,-0.01162507259806489,0.005182865255237701,-0.0412615822375173,0.0,70.0,255.0,255.0,255.0
408,20.400000000000002,-8.56192692044435,-2.8349417085322064,-12.25390976070597,-0.3670954828675832,0.1501401658572865,-1.1078410674134176,-0.012665511921383654,0.005845051902042542,-0.041878784955784454,0.0,70.0,255.0,255.0,255.0
409,20.450000000000003,-8.580297508570242,-2.8274273706196698,-12.309354251700599,-0.36775690506885894,0.1504492537811375,-1.1099479244309052,-0.013760137914964332,0.006429136522534407,-0.04221111985422965,0.0,70.0,255.0,255.0,255.0
410,20.5,-8.598702610951236,-2.8198967831540926,-12.36490455314906,-0.36847149665907963,0.15078307950953995,-1.1120621793988406,-0.014696023023574867,0.006740570710483951,-0.04209084877704328,0.0,70.0,255.0,255.0,255.0
411,20.55,-8.61714465823615,-2.8123490626687158,-12.420560469640483,-0.36922650737121643,0.1511233108521859,-1.1141570093086095,-0.015346186915010662,0.006677303715907357,-0.04144848867095874,0.0,70.0,255.0,255.0,255.0
412,20.6,-8.635625261688357,-2.804784452068874,-12.476320254079921,-0.3700061153505807,0.1514508098811307,-1.1162070282659364,-0.015678655260309426,0.006299689366029426,-0.04042789325175988,0.0,70.0,255.0,255.0,255.0
413,20.650000000000002,-8.654145269771208,-2.7972039816806027,-12.532181172467077,-0.37079437289724737,0.15175327978878883,-1.1181997986337855,-0.01568443340573822,0.005744061522339194,-0.03930063217705282,0.0,70.0,255.0,255.0,255.0
414,20.700000000000003,-8.672704698978082,-2.789609124089995,-12.5881402339433,-0.3715745586911545,0.1520252160333646,-1.1201370914836417,-0.015359654690705327,0.005147959448681405,-0.03835249457466716,0.0,70.0,255.0,255.0,255.0
415,20.75,-8.691302725640323,-2.7820014600772662,-12.64419488161544,-0.3723303383663179,0.15226807573365697,-1.1220350480912522,-0.014704455402103633,0.004640621585627613,-0.037867592949680784,0.0,70.0,255.0,255.0,255.0
416,20.8,-8.709937732814714,-2.7743823165166295,-12.700343738752425,-0.3730450042313649,0.15248927819192737,-1.1239238507786098,-0.013746691984550807,0.0042988486883555055,-0.03798778923638224,0.0,70.0,255.0,255.0,255.0
417,20.85,-8.72860722606346,-2.7667525322580735,-12.756587266693302,-0.373705007564773,0.15269796060249252,-1.1258338270148904,-0.01262198468250375,0.004134740916805768,-0.03857873286783331,0.0,70.0,255.0,255.0,255.0
418,20.900000000000002,-8.747308233571191,-2.7591125204563802,-12.812927121453914,-0.37430720269961526,0.15290275228360795,-1.1277817240653931,-0.011558432778357997,0.004143177533277864,-0.039366798225515254,0.0,70.0,255.0,255.0,255.0
419,20.950000000000003,-8.766037946333421,-2.7514622570297127,-12.869365439099841,-0.3748608508426088,0.1531122783558203,-1.129770506837442,-0.01079919204087787,0.00431851286211149,-0.040072328421913994,0.0,70.0,255.0,255.0,255.0
420,21.0,-8.784794318655452,-2.743801292620798,-12.925904172137658,-0.37538712190370305,0.1533346035698191,-1.1317889569075845,-0.010574174015332005,0.004652933623017219,-0.0404108073952969,0.0,70.0,255.0,255.0,255.0
421,21.05,-8.803576658523792,-2.736128796672731,-12.9825443347906,-0.375918268244142,0.15357757171812203,-1.1338115875769716,-0.010988070786588366,0.0051283271715441,-0.04023429377681964,0.0,70.0,255.0,255.0,255.0
422,21.1,-8.822386145479866,-2.728443535448986,-13.039285330895355,-0.3764859289823619,0.1538474362869735,-1.1358123862852665,-0.01190445496028758,0.005680507805738699,-0.039663515602050836,0.0,70.0,255.0,255.0,255.0
423,21.150000000000002,-8.841225251422028,-2.7207440530440334,-13.096125573419126,-0.37710871374017074,0.1541456224986959,-1.1377779391371767,-0.013049108209628457,0.0062023891841178624,-0.03894499543442009,0.0,70.0,255.0,255.0,255.0
424,21.200000000000003,-8.860097016853883,-2.7130289731991164,-13.153063124809073,-0.37779083980332473,0.1544676752053853,-1.1397068858287085,-0.01413131607357343,0.006579014743479661,-0.038318564700468016,0.0,70.0,255.0,255.0,255.0
425,21.25,-8.87900433540236,-2.705297285523495,-13.210096262001997,-0.3785218453475281,0.15480352397304387,-1.1416097956072235,-0.01487483921120969,0.006703634598137498,-0.038021112199793095,0.0,70.0,255.0,255.0,255.0
426,21.3,-8.897949201388636,-2.697548620801812,-13.267224104369795,-0.3792783237244457,0.15513803866519904,-1.1435089970486878,-0.015128250976381707,0.006527329805505744,-0.03817489579400757,0.0,70.0,255.0,255.0,255.0
427,21.35,-8.916932167774805,-2.689783481656975,-13.324447161706866,-0.38003467044516626,0.15545625695359444,-1.1454272851866243,-0.014929239764782665,0.006107703384561347,-0.038681796797668255,0.0,70.0,255.0,255.0,255.0
428,21.400000000000002,-8.935952668433153,-2.6820029951064526,-13.381766832888458,-0.38077124770092396,0.15574880900365518,-1.1473771767284546,-0.014395250933851855,0.005563629366456269,-0.03933862796383636,0.0,70.0,255.0,255.0,255.0
429,21.450000000000003,-8.955009292544897,-2.6742086007566095,-13.439184879379711,-0.38147419553855144,0.15601261989024007,-1.149361147983008,-0.01364934319934008,0.005024915343287972,-0.03994683935246712,0.0,70.0,255.0,255.0,255.0
430,21.5,-8.974100087987008,-2.6664017331174286,-13.496702947686758,-0.382136182020858,0.15625130053798397,-1.1513718606637013,-0.012806469138304521,0.00462054663254996,-0.040320781100611214,0.0,70.0,255.0,255.0,255.0
431,21.55,-8.993222910746983,-2.658583470702811,-13.554322065446081,-0.3827548424523819,0.15647467455349506,-1.153393226093069,-0.011950673559901759,0.004421840786195119,-0.040359549617718926,0.0,70.0,255.0,255.0,255.0
432,21.6,-9.012375572232246,-2.650754265662079,-13.612042270296065,-0.38333124937684815,0.15669348461660348,-1.1554078156254732,-0.011175788778849949,0.004405042292265904,-0.04009470513182123,0.0,70.0,255.0,255.0,255.0
433,21.650000000000002,-9.031556035684668,-2.6429141222411507,-13.669862847008629,-0.3838724213302669,0.15691517878272165,-1.1574026966062512,-0.010615202740460461,0.004507568874778656,-0.03961508478607101,0.0,70.0,255.0,255.0,255.0
434,21.700000000000003,-9.050762814365273,-2.635062747783807,-13.72778253995669,-0.3843927696508942,0.15714424150408135,-1.1593693241040803,-0.010409772668396045,0.00466752434946649,-0.03901407789221878,0.0,70.0,255.0,255.0,255.0
435,21.75,-9.069995312649757,-2.6271996980907426,-13.785799779419037,-0.3849133985971065,0.1573819312176683,-1.161304104395473,-0.01069928423529376,0.004822197519205318,-0.03838378204523707,0.0,70.0,255.0,255.0,255.0
436,21.8,-9.089254154224983,-2.61932455466204,-13.843912950396238,-0.38546269807442357,0.15762646125600188,-1.163207702308604,-0.011530593244302167,0.004932533157031571,-0.03778588009240025,0.0,70.0,255.0,255.0,255.0
437,21.85,-9.1085415824572,-2.6114370519651424,-13.902120549649897,-0.3860664579215367,0.15787518453337146,-1.165082692404713,-0.01272229043465245,0.004993059847580028,-0.03725751787388987,0.0,70.0,255.0,255.0,255.0
438,21.900000000000002,-9.127860800017137,-2.603537036208703,-13.960421219636709,-0.3867349271178888,0.15812576724075988,-1.166933454095993,-0.013946735307968083,0.005004323572777025,-0.03684457601433877,0.0,70.0,255.0,255.0,255.0
439,21.950000000000003,-9.147215075168988,-2.5956244752410664,-14.018813895059496,-0.3874611314523335,0.15837561689064916,-1.168767150006147,-0.014859817875034764,0.004958786792474967,-0.036595823437401975,0.0,70.0,255.0,255.0,255.0
440,22.0,-9.16660691316237,-2.587699474519638,-14.077297934637324,-0.3882209089053923,0.15862164592000738,-1.1705930364397332,-0.015116393919178961,0.0048386353185936315,-0.0365440907215131,0.0,70.0,255.0,255.0,255.0
441,22.05,-9.186037166059528,-2.5797623106490657,-14.13587319870347,-0.3889727708442514,0.15885948042250853,-1.1724215590782983,-0.014553153929242058,0.004641313299025285,-0.036697955654574343,0.0,70.0,255.0,255.0,255.0
442,22.1,-9.205504190246796,-2.571813526477387,-14.194540090545154,-0.3896762242983165,0.1590857772499099,-1.1742628320051907,-0.01338493293374654,0.00442271831730956,-0.03703168024653536,0.0,70.0,255.0,255.0,255.0
443,22.150000000000002,-9.22500478848936,-2.5638537329240747,-14.253299481903989,-0.39031126413762607,0.15930175225423948,-1.1761247271029518,-0.012028811739206446,0.004275136834053228,-0.03748847595677063,0.0,70.0,255.0,255.0,255.0
444,22.200000000000003,-9.244535316660558,-2.555883351251963,-14.312152563255449,-0.39087910547223714,0.15951329093331523,-1.1780116796008677,-0.010910303150168943,0.004290615193891512,-0.03799694071364712,0.0,70.0,255.0,255.0,255.0
445,22.25,-9.264092699036583,-2.547902403830743,-14.371100649864076,-0.39140229445264296,0.15973081377362863,-1.1799244211743165,-0.010455093466532617,0.004571233234651473,-0.038499808451142314,0.0,70.0,255.0,255.0,255.0
446,22.3,-9.283675546105822,-2.5399102698746003,-14.43014500537288,-0.3919246148188904,0.15997041425678038,-1.181861660445982,-0.010876651178648444,0.005156013180673824,-0.03895609682320611,0.0,70.0,255.0,255.0,255.0
447,22.35,-9.303285160518472,-2.531905362405065,-14.489286815908674,-0.3924899595705078,0.16024641509169602,-1.1838200308566371,-0.011967161980841468,0.005914295321218788,-0.03929939750069167,0.0,70.0,255.0,255.0,255.0
448,22.400000000000002,-9.322924542062873,-2.5238856283654307,-14.548527008458544,-0.39312133101697455,0.16056184378890226,-1.1857916001960511,-0.013308833585945479,0.006616061491993008,-0.03943704463313935,0.0,70.0,255.0,255.0,255.0
449,22.450000000000003,-9.34259729362017,-2.515849178026175,-14.607865975928279,-0.39382084292910235,0.16090802124089532,-1.187763735319951,-0.01448582266956322,0.007032691825870074,-0.03928363981771099,0.0,70.0,255.0,255.0,255.0
450,22.5,-9.362306626355783,-2.507794826241341,-14.66730338199054,-0.3945699132839309,0.16126511297148927,-1.1897199641778222,-0.015095306807033637,0.006936478362762344,-0.03875271276978509,0.0,70.0,255.0,255.0,255.0
451,22.55,-9.382054284948563,-2.499722666729026,-14.726837972346061,-0.3953303736098057,0.16160166907717155,-1.1916390065969296,-0.014927094504812999,0.006227034910777363,-0.03782283187643287,0.0,70.0,255.0,255.0,255.0
452,22.6,-9.401839663716764,-2.491634659333624,-14.786467282650232,-0.3960626227344122,0.161887816462567,-1.1935022473654655,-0.014117234993626937,0.00508634748412895,-0.03665334047440183,0.0,70.0,255.0,255.0,255.0
453,22.650000000000002,-9.421660547222004,-2.4835338850827693,-14.846188197082608,-0.3967420971091684,0.16211030382558445,-1.1953043406443697,-0.01296503806500482,0.003856048433314996,-0.03552325226934272,0.0,70.0,255.0,255.0,255.0
454,22.700000000000003,-9.441513873427681,-2.4754236289510656,-14.905997716714669,-0.39735912654091265,0.1622734213058985,-1.1970545725923998,-0.011772979598667632,0.00288416528810842,-0.03472024826720599,0.0,70.0,255.0,255.0,255.0
455,22.75,-9.461396459876095,-2.4673065429521794,-14.965893654341848,-0.3979193950690352,0.1623987203543953,-1.1987763654710903,-0.010835660658337076,0.002510825342572076,-0.034525331147250427,0.0,70.0,255.0,255.0,255.0
456,22.8,-9.481305812934584,-2.459183756915626,-15.025875353261778,-0.39844269260674636,0.1625245038401557,-1.2005071057071248,-0.010320518585871241,0.002902933423598597,-0.035066888024104514,0.0,70.0,255.0,255.0,255.0
457,22.85,-9.50124072913677,-2.451054092568164,-15.08594436491256,-0.3989514469276223,0.16268901369675515,-1.2022830542735008,-0.010196625316716279,0.0038904312920529094,-0.03615828955254585,0.0,70.0,255.0,255.0,255.0
458,22.900000000000002,-9.521200957627347,-2.4429148555459506,-15.146103658689128,-0.399462355138418,0.162913546969361,-1.2041229346623794,-0.010359965204820298,0.005128789063446604,-0.03743721901816599,0.0,70.0,255.0,255.0,255.0
459,22.950000000000003,-9.541186964650612,-2.4347627378712278,-15.206356658378798,-0.39998744344810433,0.1632018926030998,-1.2060267761753174,-0.010707946582222405,0.006264586415705153,-0.03852981932919164,0.0,70.0,255.0,255.0,255.0
460,23.0,-9.561199701972157,-2.4265946662856406,-15.26670633630666,-0.40053314979664023,0.16354000561093152,-1.2079759165952986,-0.011126059883359574,0.0069482389151609425,-0.03907398128877304,0.0,70.0,255.0,255.0,255.0
461,23.05,-9.581240279630276,-2.4184087373101346,-15.327154250038328,-0.4011000494364403,0.1638967164946159,-1.2099341743041947,-0.011539082897904507,0.006995170788615113,-0.0388830425981368,0.0,70.0,255.0,255.0,255.0
462,23.1,-9.601309706915801,-2.410204994636179,-15.38769975373708,-0.4016870580864307,0.16423952268979303,-1.2118642208551123,-0.011936356978381468,0.006520971636492234,-0.0380843171662093,0.0,70.0,255.0,255.0,255.0
463,23.150000000000002,-9.621408985438919,-2.4019847850411553,-15.44834067212384,-0.40229368513427843,0.16454881365826513,-1.2137426060208156,-0.012312490395416376,0.005778911863130176,-0.036957055808883865,0.0,70.0,255.0,255.0,255.0
464,23.200000000000003,-9.641539075429229,-2.3937501132703525,-15.509074014339161,-0.4029183071259723,0.16481741387610604,-1.2155599264360006,-0.012643345961826924,0.005024575296541656,-0.035787047843172104,0.0,70.0,255.0,255.0,255.0
465,23.25,-9.661700816151516,-2.3855030436535447,-15.56989666476744,-0.4035580197304611,0.1650512711879193,-1.2173213108051328,-0.01291203453881451,0.004524191024790625,-0.03485072504929576,0.0,70.0,255.0,255.0,255.0
466,23.3,-9.681894877402275,-2.3772449861515605,-15.630806145419674,-0.40420951057985377,0.1652698329785851,-1.2190449989409302,-0.013109723248660998,0.004421931206977092,-0.034306489368418625,0.0,70.0,255.0,255.0,255.0
467,23.35,-9.702121767209501,-2.368976060355686,-15.691801164661532,-0.4048689920553272,0.165493464308617,-1.2207519597419747,-0.013220650732925776,0.00462111339731841,-0.03413716905615871,0.0,70.0,255.0,255.0,255.0
468,23.400000000000002,-9.722381776607808,-2.360695639720699,-15.752881341393872,-0.40553157565314635,0.16573194431831695,-1.222458715846546,-0.013227369250934373,0.0049218105707460325,-0.034263508794829534,0.0,70.0,255.0,255.0,255.0
469,23.450000000000003,-9.742674924774816,-2.3524028659238545,-15.814047036246187,-0.40619172898042066,0.1659856453656916,-1.2241783106214577,-0.01312538285702658,0.005136226617619144,-0.03460767694196676,0.0,70.0,255.0,255.0,255.0
470,23.5,-9.76300094950585,-2.3440970751841297,-15.875299172456018,-0.406844113938849,0.16624556698007886,-1.2259194835407428,-0.01292183925727386,0.005067071577391502,-0.03508712783855117,0.0,70.0,255.0,255.0,255.0
471,23.55,-9.7833593361687,-2.3357783092258466,-15.936638984600261,-0.40748391290614805,0.16649235252343075,-1.2276870234053128,-0.012627711754120696,0.004617244243076968,-0.03563925167782145,0.0,70.0,255.0,255.0,255.0
472,23.6,-9.803749340796465,-2.3274478399317866,-15.998067874796549,-0.4081068851142611,0.16670729140438656,-1.229483408708525,-0.012261879251163066,0.003917278737075591,-0.03620709984915038,0.0,70.0,255.0,255.0,255.0
473,23.650000000000002,-9.824170024680127,-2.319107580085408,-16.059587325471114,-0.40871010083126436,0.1668840803971383,-1.2313077333902278,-0.01185887176085032,0.003211141891545921,-0.036706298288180506,0.0,70.0,255.0,255.0,255.0
474,23.700000000000003,-9.844620350879591,-2.310759431892073,-16.12119864813557,-0.4092927722903461,0.16702840559354115,-1.233154038537343,-0.011460810255492504,0.002730378373039244,-0.03703706956361685,0.0,70.0,255.0,255.0,255.0
475,23.75,-9.865099301909162,-2.302404739526054,-16.182902729324848,-0.4098561818568136,0.16715711823444224,-1.2350114403465895,-0.011096645728336796,0.0026954480734975306,-0.03710472630125139,0.0,70.0,255.0,255.0,255.0
476,23.8,-9.885605969065272,-2.2940437200686286,-16.24469979217023,-0.4104024368631798,0.1672979504008909,-1.236864511167468,-0.01078614302212344,0.0032099776012817216,-0.0368692778131674,0.0,70.0,255.0,255.0,255.0
477,23.85,-9.90613954559548,-2.2856749444859648,-16.306589180441595,-0.41093479615902595,0.1674781159945704,-1.2386983681279062,-0.010569128299131592,0.004143524568256396,-0.03639890707134441,0.0,70.0,255.0,255.0,255.0
478,23.900000000000002,-9.926699448681175,-2.2772959084691715,-16.36856962898302,-0.41145934969309295,0.16771230285771654,-1.2405044018746025,-0.010499847667055917,0.005238190627965267,-0.03582766168825913,0.0,70.0,255.0,255.0,255.0
479,23.950000000000003,-9.947285480564789,-2.268903714200193,-16.430639620629055,-0.41198478092573154,0.16800193505736694,-1.2422811342967321,-0.010624662834501919,0.006229998817630644,-0.035303531983643666,0.0,70.0,255.0,255.0,255.0
480,24.0,-9.967897926773748,-2.260495714963435,-16.492797742412694,-0.41252181597654314,0.1683353027394796,-1.244034755072967,-0.010995540533897952,0.0068711361286055705,-0.03498198560549781,0.0,70.0,255.0,255.0,255.0
481,24.05,-9.988537662162443,-2.252070183926245,-16.55504309613635,-0.41308433497912134,0.1686890486702275,-1.245779332857282,-0.011622028512370264,0.0070295586386048825,-0.03494312424656698,0.0,70.0,255.0,255.0,255.0
482,24.1,-10.00920636027166,-2.243626810096412,-16.617375675698423,-0.41368401882778016,0.1690382586033401,-1.2475290674976236,-0.012380768392361574,0.006756734877733095,-0.03511363550110502,0.0,70.0,255.0,255.0,255.0
483,24.150000000000002,-10.029906064045221,-2.235166358065911,-16.679796002886114,-0.4143224118183575,0.1693647221580008,-1.2492906964073924,-0.013060898409555932,0.006187983708860756,-0.03534753048484163,0.0,70.0,255.0,255.0,255.0
484,24.200000000000003,-10.050638601453496,-2.226690337880612,-16.742304745339162,-0.41499010866873576,0.16965705697422617,-1.2510638205461078,-0.013448277332628322,0.005469626356502388,-0.0355017162554816,0.0,70.0,255.0,255.0,255.0
485,24.25,-10.071405074912095,-2.2182006523684885,-16.804902384940725,-0.4156672395516203,0.16991168479365104,-1.2528408680329406,-0.013329210784007728,0.004752035383814857,-0.03542737789707928,0.0,70.0,255.0,255.0,255.0
486,24.3,-10.092205325408658,-2.209699169401247,-16.867588832142456,-0.41632302974713653,0.17013226051260766,-1.2546065583358157,-0.012611430575937277,0.0041302493828165865,-0.035051651772022296,0.0,70.0,255.0,255.0,255.0
487,24.35,-10.113037377886808,-2.2011874263172277,-16.930363040774306,-0.41692838260921405,0.1703247097319327,-1.2563460332101428,-0.01147404521883999,0.0036267387177435495,-0.03446925488610475,0.0,70.0,255.0,255.0,255.0
488,24.400000000000002,-10.13389816366958,-2.1926666984280536,-16.99322343546347,-0.41747043426902053,0.170494934384382,-1.2580534838244262,-0.010251989929166427,0.0032551892219956358,-0.03385951241057228,0.0,70.0,255.0,255.0,255.0
489,24.450000000000003,-10.15478442131371,-2.1841379328787895,-17.05616838915675,-0.4179535816021307,0.17065022865413226,-1.2597319844512,-0.009287775618105343,0.0030366705821016637,-0.03339617642481585,0.0,70.0,255.0,255.0,255.0
490,24.5,-10.175693521829793,-2.1756016755626404,-17.11919663390859,-0.41839921183083106,0.17079860144259218,-1.2613931014669078,-0.00891558835736106,0.0029727503078724737,-0.03324845618841721,0.0,70.0,255.0,255.0,255.0
491,24.55,-10.196624342496794,-2.1670580727345303,-17.18230769930344,-0.4188451404378668,0.1709475036849195,-1.2630568300700418,-0.009299335432721989,0.0030571827573044885,-0.03349735490907335,0.0,70.0,255.0,255.0,255.0
492,24.6,-10.21757803587358,-2.1585069251941484,-17.245502316915594,-0.41932914537410326,0.17110431971832263,-1.264742836957815,-0.010273167283969542,0.003292767127627272,-0.034044869426708146,0.0,70.0,255.0,255.0,255.0
493,24.650000000000002,-10.238557257034204,-2.149947640762698,-17.30878198299922,-0.41987245716626376,0.17127678039768224,-1.2664613170127126,-0.011500186162471948,0.003673124205372247,-0.034698056237303376,0.0,70.0,255.0,255.0,255.0
494,24.700000000000003,-10.259565281590206,-2.14137924715438,-17.372148448616866,-0.42047916399035046,0.17147163213885985,-1.2682126425815454,-0.012634559587887395,0.004171290383370163,-0.03526080415738875,0.0,70.0,255.0,255.0,255.0
495,24.75,-10.280605173433239,-2.132800477548812,-17.435603247257376,-0.4211359131250525,0.17169390943601925,-1.2699873974284515,-0.013336454434487166,0.004764888792507804,-0.03554280667295018,0.0,70.0,255.0,255.0,255.0
496,24.8,-10.301678872902711,-2.1242098562107783,-17.49914718835971,-0.4218128094337992,0.17194812101811063,-1.2717669232488404,-0.013425167086644763,0.005428618655001216,-0.035445641873010914,0.0,70.0,255.0,255.0,255.0
497,24.85,-10.322786454376619,-2.115605665447001,-17.56277993958226,-0.422478429833717,0.17223677130151938,-1.2735319616157526,-0.013002329933975432,0.006084057573341184,-0.03503667533308885,0.0,70.0,255.0,255.0,255.0
498,24.900000000000002,-10.343926715886083,-2.1069861790806264,-17.626500384521286,-0.4231130424271967,0.17255652677544475,-1.2752705907821493,-0.012297381971038135,0.006608770833249622,-0.034462854717887126,0.0,70.0,255.0,255.0,255.0
499,24.950000000000003,-10.365097758619338,-2.0983500127694565,-17.690306998660475,-0.4237081680308208,0.17289764838484434,-1.2769782470875413,-0.011541072279008802,0.006885906812703624,-0.03387389366018567,0.0,70.0,255.0,255.0,255.0
500,25.0,-10.386297532689165,-2.089696414242142,-17.75419820923004,-0.4242671496550976,0.17324511745671511,-1.278657980148168,-0.010966565933934191,0.006819722494189051,-0.033416307794809086,0.0,70.0,255.0,255.0,255.0
501,25.05,-10.407524473584848,-2.081025501023785,-17.81817279667529,-0.4248048246242142,0.17357962063426324,-1.2803198778670222,-0.010705544003819512,0.006373517447588739,-0.03317285148725091,0.0,70.0,255.0,255.0,255.0
502,25.1,-10.428778015151586,-2.0723384521787156,-17.882230197016742,-0.42533770405547955,0.173882469201474,-1.281975265296893,-0.010712944214397169,0.005616317264012238,-0.03312479287842507,0.0,70.0,255.0,255.0,255.0
503,25.150000000000002,-10.450058243990396,-2.0636372541036376,-17.94637032320498,-0.4258761190456539,0.17414125236066447,-1.2836323571548647,-0.010876533040971026,0.0046889952589612705,-0.033215000418707064,0.0,70.0,255.0,255.0,255.0
504,25.200000000000003,-10.471365627056151,-2.054924326942649,-18.01059343273223,-0.42642535735957665,0.17435136872737012,-1.2852967653387637,-0.011093552229901604,0.0037502571911929294,-0.033389821666673924,0.0,70.0,255.0,255.0,255.0
505,25.25,-10.492700779726354,-2.0462021172309006,-18.074899999738857,-0.4269854742686441,0.17451627807978376,-1.286971339321532,-0.01125732844968752,0.002940277174712236,-0.03359998079481841,0.0,70.0,255.0,255.0,255.0
506,25.3,-10.514064174483016,-2.0374726991346708,-18.139290566664382,-0.4275510902045454,0.17464539644484134,-1.2886567634182455,-0.011306596289450965,0.002343512020974714,-0.03381017828374411,0.0,70.0,255.0,255.0,255.0
507,25.35,-10.535455888746808,-2.0287375775864165,-18.203765676080682,-0.4281161338975892,0.17475062928188123,-1.2903523571499065,-0.01126682560919079,0.0020043330440255858,-0.033985085553922545,0.0,70.0,255.0,255.0,255.0
508,25.400000000000002,-10.556875787872775,-2.0199976362064826,-18.268325802379373,-0.4286777727654645,0.1748458297492439,-1.2920552719736378,-0.011194714305240439,0.001962427618096285,-0.034075372049358066,0.0,70.0,255.0,255.0,255.0
509,25.450000000000003,-10.578323666023355,-2.011252994611492,-18.332971203278046,-0.4292356053281132,0.17494687204369086,-1.2937598943548423,-0.011138518336295533,0.002245838315717563,-0.03402733249586731,0.0,70.0,255.0,255.0,255.0
510,25.5,-10.599799348405586,-2.0025029490021136,-18.397701791814857,-0.42979162459909404,0.17507041358081565,-1.2954580052232245,-0.011152092294608451,0.002879122186549843,-0.03378376902247737,0.0,70.0,255.0,255.0,255.0
511,25.55,-10.621302828483264,-1.9937459532534105,-18.462517003800368,-0.43035081455757407,0.17523478426234584,-1.29713827125709,-0.011261357549763318,0.0038477724637830946,-0.033325922554894305,0.0,70.0,255.0,255.0,255.0
512,25.6,-10.642834429861344,-1.984979470575879,-18.527415618940566,-0.43091776035407037,0.17545519082719396,-1.298790597478714,-0.011419753350772055,0.005004672238340113,-0.03273663646830016,0.0,70.0,255.0,255.0,255.0
513,25.650000000000002,-10.664394604518671,-1.9762004341706911,-18.59239606354824,-0.4314927898926513,0.17573525148617986,-1.30041193490392,-0.01154460973875615,0.006099615946908443,-0.032162578984085144,0.0,70.0,255.0,255.0,255.0
514,25.700000000000003,-10.685983708850609,-1.967405945427261,-18.657456812430958,-0.432072221327946,0.1760651524218848,-1.3020068553771225,-0.011559087709756,0.006868440828111666,-0.03175362224361322,0.0,70.0,255.0,255.0,255.0
515,25.75,-10.707601826651466,-1.9585939189285027,-18.72259674908595,-0.4326486986636269,0.17642209556899102,-1.3035872971282814,-0.011386330344365092,0.007055215430917805,-0.03165692446636115,0.0,70.0,255.0,255.0,255.0
516,25.8,-10.729248578716971,-1.949763735870362,-18.787815542143786,-0.4332108543623825,0.1767706739649766,-1.3051725478237586,-0.010994173976719424,0.006544372482886196,-0.03193993102890147,0.0,70.0,255.0,255.0,255.0
517,25.85,-10.750922912087704,-1.940916851532005,-18.853114003868328,-0.4337481160612988,0.17707653281727964,-1.3067812902311715,-0.01045593255000199,0.0055059290515524495,-0.032503893048740906,0.0,70.0,255.0,255.0,255.0
518,25.900000000000002,-10.772623390323101,-1.932056082588634,-18.918493671166903,-0.4342564476173827,0.17732126687013183,-1.3084229371286327,-0.00990591434053556,0.004271835866886953,-0.03315794837988051,0.0,70.0,255.0,255.0,255.0
519,25.950000000000003,-10.794348556849442,-1.9231847248449918,-18.98395629758119,-0.43473870749535237,0.17750371640396834,-1.3100970850691596,-0.009477904716881369,0.003192659444306578,-0.033705404636918956,0.0,70.0,255.0,255.0,255.0
520,26.0,-10.816097261072636,-1.914305710948237,-19.04950337967382,-0.4352042380890708,0.1776405328145625,-1.3117934775923246,-0.00929456767977399,0.002624025413799913,-0.03395254243443446,0.0,70.0,255.0,255.0,255.0
521,26.05,-10.83786898065835,-1.9054206715635356,-19.115135645340423,-0.43566816426332977,0.17776611894534833,-1.313492339312603,-0.009415746076868459,0.0027475114973141146,-0.03380106661552418,0.0,70.0,255.0,255.0,255.0
522,26.1,-10.85966407749897,-1.8965290990537023,-19.18085261360508,-0.4361458126967577,0.1779152839642939,-1.315173584253877,-0.009792040924061496,0.003402567266252987,-0.03333319926355216,0.0,70.0,255.0,255.0,255.0
523,26.150000000000002,-10.881483561928025,-1.8876291431671062,-19.24665300376581,-0.4366473683557359,0.17810637567197363,-1.3168256592389582,-0.010315369263835805,0.004262924035458582,-0.03272021957165805,0.0,70.0,255.0,255.0,255.0
524,26.200000000000003,-10.903328814334543,-1.878718461486505,-19.312535179528975,-0.43717734962314125,0.17834157636783976,-1.3184456062110428,-0.010869806244784286,0.005000548434686003,-0.03213804592299141,0.0,70.0,255.0,255.0,255.0
525,26.25,-10.92520129689034,-1.8697949855303222,-19.378497564386915,-0.43773434898021435,0.17860643051544223,-1.3200394638312574,-0.011347380288029285,0.00527273885786439,-0.031768896471362496,0.0,70.0,255.0,255.0,255.0
526,26.3,-10.947102249232564,-1.8608578184349607,-19.4445391259121,-0.4383120876519442,0.1788688502536262,-1.321622495858179,-0.011683354534852697,0.004906234208190696,-0.03170857639780422,0.0,70.0,255.0,255.0,255.0
527,26.35,-10.969032505655534,-1.8519081005049596,-19.510659813972733,-0.4389026844336996,0.1790970539362613,-1.3232103214710378,-0.01185954011653223,0.004090142209833836,-0.03187967353390775,0.0,70.0,255.0,255.0,255.0
528,26.400000000000002,-10.990992517675934,-1.8429481130413345,-19.576860158059205,-0.4394980416635974,0.17927786447460958,-1.3248104632115698,-0.011868133080383814,0.003189288504135135,-0.032125648861125455,0.0,70.0,255.0,255.0,255.0
529,26.450000000000003,-11.012982309821894,-1.8339803140574986,-19.64314086029389,-0.440089497741738,0.1794159827866748,-1.3264228863571503,-0.01170338312466157,0.0025588064907600128,-0.0322953254261904,0.0,70.0,255.0,255.0,255.0
530,26.5,-11.035001467450108,-1.825006514762667,-19.70950244669492,-0.44066837997606356,0.17953374512368558,-1.3280399957541889,-0.011359920492104436,0.002564925914816385,-0.03223191829917482,0.0,70.0,255.0,255.0,255.0
531,26.55,-11.0570491478195,-1.81602693954513,-19.77594485986931,-0.44122548979094844,0.17967247537815645,-1.3296460781870678,-0.010849810142765648,0.003381211343334023,-0.03185805436451972,0.0,70.0,255.0,255.0,255.0
532,26.6,-11.079124016429203,-1.8070392672248514,-19.842467054513627,-0.4417533609903401,0.179871866258019,-1.3312258011906408,-0.01025063776989299,0.004749684407001631,-0.03127081056248926,0.0,70.0,255.0,255.0,255.0
533,26.650000000000002,-11.101224483918534,-1.7980397529193282,-19.909067439988373,-0.44225055356793774,0.1801474438188566,-1.3327731592433167,-0.009692937576133431,0.0061862622743991125,-0.030654481021485935,0.0,70.0,255.0,255.0,255.0
534,26.700000000000003,-11.123349071785997,-1.7890245228429658,-19.97574437043796,-0.44272265474795347,0.1804904924854589,-1.3342912492927894,-0.009315635614726148,0.007211591569822318,-0.030187225802080775,0.0,70.0,255.0,255.0,255.0
535,26.75,-11.14549674939333,-1.7799907036707823,-20.042496564917652,-0.44318211712941036,0.18086860297583884,-1.3357918818235248,-0.009256947067903809,0.0073436413990046745,-0.030043383711131355,0.0,70.0,255.0,255.0,255.0
536,26.8,-11.167667283498938,-1.7709376625453819,-20.10932355862031,-0.44364834945474385,0.18122485662535937,-1.3372955876639026,-0.009577917716541151,0.00635474792416435,-0.030306292390491762,0.0,70.0,255.0,255.0,255.0
