idx,t,px,py,pz,vx,vy,vz,ax,ay,az,yaw,mode,ledr,ledg,ledb
0,0.0,4.500000000000001,4.500000000000002,5.2303880771237895e-19,0.0005425849271212257,0.0002708522222505394,0.0003751947700139383,-0.005217232847343212,0.0024609851848822473,-0.017967965133426262,0.0,70.0,255.0,255.0,255.0
1,0.05,4.500027129246357,4.500013542611114,1.8759738500697438e-05,0.00028172328475406516,0.00039390148149465176,-0.0005232034866573749,-0.007573695165241645,0.003783854629357819,-0.026905952058461104,0.0,70.0,255.0,255.0,255.0
2,0.1,4.500028172328476,4.500039390148151,-5.232034866573697e-05,-0.00021478458940293876,0.0006492376851863213,-0.0023154004358321724,-0.00942584927132728,0.0052914777776358335,-0.03575194770013938,0.0,70.0,255.0,255.0,255.0
3,0.15000000000000002,4.500005650787417,4.500078466379633,-0.00021278030508251983,-0.0006608616423786629,0.0009230492592582351,-0.004098398256671313,-0.008417232846458234,0.005660985185951262,-0.035567965133428185,0.0,70.0,255.0,255.0,255.0
4,0.2,4.499962086164238,4.500131695074077,-0.0004621601743328683,-0.0010565078740487621,0.0012153362037814475,-0.005872196949174991,-0.007400883210983977,0.006031531210481944,-0.03538012279258871,0.0,70.0,255.0,255.0,255.0
5,0.25,4.499900000000012,4.500200000000011,-0.0008000000000000189,-0.0014009499634770606,0.0015262023803064295,-0.0076364105359301845,-0.006340067610466349,0.006408049280626216,-0.03517008675051604,0.0,70.0,255.0,255.0,255.0
6,0.30000000000000004,4.499821991167891,4.500284315312108,-0.0012258012279258868,-0.001690514635095397,0.001856141131844069,-0.009389205624226595,-0.005222971411722455,0.006792126175270141,-0.034931960130078564,0.0,70.0,255.0,255.0,255.0
7,0.35000000000000003,4.499730948536502,4.5003856141131955,-0.0017389205624226784,-0.001923247104649306,0.0022054149978334436,-0.011129606548938041,-0.0041503411790877465,0.0071702310236787525,-0.03471602721087234,0.0,70.0,255.0,255.0,255.0
8,0.4,4.499629666457426,4.500504856811891,-0.002338761882819691,-0.0021055487530041717,0.0025731642342119443,-0.01286080834531383,-0.0032830706798492315,0.007520754821932485,-0.034602592737922266,0.0,70.0,255.0,255.0,255.0
9,0.45,4.499520393661202,4.500642930536617,-0.0030250013969540615,-0.002251554172634229,0.002957490480026692,-0.014589865822730268,-0.0027541264747910077,0.007828946106513968,-0.03466471208980451,0.0,70.0,255.0,255.0,255.0
10,0.5,4.499404511040162,4.500800605859894,-0.003797748465092718,-0.0023809614004832724,0.003356058844863341,-0.01632727955429428,-0.002660219255012919,0.008096573098281823,-0.034982430604309514,0.0,70.0,255.0,255.0,255.0
11,0.55,4.4992822975211535,4.500978536421103,-0.00465772935238349,-0.002517576098135521,0.0037671477898548744,-0.01808810888316122,-0.003033359267767821,0.008324083048449893,-0.03558194529349006,0.0,70.0,255.0,255.0,255.0
12,0.6000000000000001,4.499152753430349,4.501177320638879,-0.00560655935340884,-0.0026842973272600545,0.00418846714970833,-0.019885474083643287,-0.0037946197171123686,0.008481602287879753,-0.03633671233266127,0.0,70.0,255.0,255.0,255.0
13,0.65,4.4990138677884275,4.501397383136074,-0.0066462767607478185,-0.002897038069846758,0.00461530801864285,-0.021721780116427346,-0.004781788062935277,0.008526279335896447,-0.037026588660116384,0.0,70.0,255.0,255.0,255.0
14,0.7000000000000001,4.498863049623364,4.5016388514407435,-0.007778737365051575,-0.0031624761335535823,0.005041095083297975,-0.023588132949654925,-0.0058028234314555505,0.008428216886713358,-0.03743091093892901,0.0,70.0,255.0,255.0,255.0
15,0.75,4.498697620175072,4.501901492644404,-0.009005090055713311,-0.003477320412992313,0.0054581297073141855,-0.025464871210320247,-0.006679029739586895,0.008161772873904738,-0.03733032420280887,0.0,70.0,255.0,255.0,255.0
16,0.8,4.498515317582065,4.502184664411475,-0.0103252244860836,-0.0038303791075122717,0.005857272370688449,-0.027321165369935813,-0.007303457374252531,0.007724981179357826,-0.03662879985423407,0.0,70.0,255.0,255.0,255.0
17,0.8500000000000001,4.498314582264321,4.5024872198814725,-0.011737206592706892,-0.004207666150417566,0.006230627825249968,-0.029127751195743654,-0.007638452680591712,0.007184198986109891,-0.03550337054472989,0.0,70.0,255.0,255.0,255.0
18,0.9,4.498094550967023,4.502807727194,-0.013237999605657965,-0.004594224375571443,0.006575692269299438,-0.030871502424408802,-0.007660826019417755,0.006654966995434108,-0.03428648385704527,0.0,70.0,255.0,255.0,255.0
19,0.9500000000000001,4.497855159826764,4.503144789108402,-0.014824356835147772,-0.0049737487523593416,0.006896124524793379,-0.03255639958144818,-0.007355605439851587,0.006257160705924747,-0.03331719194002901,0.0,70.0,255.0,255.0,255.0
20,1.0,4.497597176091787,4.503497339646479,-0.016493639563802783,-0.005329784919556602,0.007201408339891913,-0.0342032216184117,-0.00671168043444581,0.006100344729542684,-0.03292424461242664,0.0,70.0,255.0,255.0,255.0
21,1.05,4.497322181334808,4.503864929942392,-0.018244678996988943,-0.005644916795803923,0.007506158997747647,-0.035848824042690845,-0.005750759953215834,0.006236505054157959,-0.033269941536659964,0.0,70.0,255.0,255.0,255.0
22,1.1,4.497032684412207,4.504247955546254,-0.020078521968071868,-0.005904860914878185,0.007825058845307709,-0.0375302157720777,-0.004613247882812033,0.006617126243746441,-0.03419992203853549,0.0,70.0,255.0,255.0,255.0
23,1.1500000000000001,4.49673169524332,4.504647435826922,-0.021997700574196713,-0.006106241584085126,0.008167871622122291,-0.039268816246544394,-0.0035365861814184996,0.007137489046282752,-0.035396520200747794,0.0,70.0,255.0,255.0,255.0
24,1.2000000000000002,4.496422060253798,4.505064742708466,-0.024005403592726307,-0.006258519533020035,0.008538807749935984,-0.04106986779215248,-0.0027727035262437028,0.007683653109946675,-0.036534260694897486,0.0,70.0,255.0,255.0,255.0
25,1.25,4.496105843290018,4.505501316601916,-0.02610468735341196,-0.006383511936709496,0.008936236933116959,-0.04292224231603414,-0.002562267170613808,0.008148829559839754,-0.037300715995503345,0.0,70.0,255.0,255.0,255.0
26,1.3,4.495783709060127,4.505958366401778,-0.02829762782432972,-0.006514746250081416,0.00935369070591996,-0.04479993939170281,-0.00301452845459238,0.00846951142428054,-0.03752537339306514,0.0,70.0,255.0,255.0,255.0
27,1.35,4.49545436866501,4.506436685672508,-0.030584681292582242,-0.006684964782168734,0.009783188075545013,-0.046674779655340656,-0.003979604738990616,0.008630932402642344,-0.037265985590171496,0.0,70.0,255.0,255.0,255.0
28,1.4000000000000001,4.4951152125819105,4.506936685209332,-0.03296510578986379,-0.006912706723980477,0.010216783946184194,-0.04852653795071996,-0.00516010198179373,0.008630601295145368,-0.03667755189007901,0.0,70.0,255.0,255.0,255.0
29,1.4500000000000002,4.494763097992612,4.507458364067126,-0.03543733508765424,-0.007200974980348107,0.01064624820505955,-0.05034253484434856,-0.006241319382827015,0.008468739674416526,-0.03591956481418419,0.0,70.0,255.0,255.0,255.0
30,1.5,4.494395115083876,4.508001310029838,-0.03799935927429864,-0.007536838662263179,0.011063657913625846,-0.05211849443213838,-0.006915241559557472,0.008148346355518754,-0.03515289140555919,0.0,70.0,255.0,255.0,255.0
31,1.55,4.494009414126386,4.508564729858489,-0.04064918453086808,-0.007892499136303854,0.011461082840611425,-0.05385782398490448,-0.007018352336274347,0.0076844236079232076,-0.03448031314282479,0.0,70.0,255.0,255.0,255.0
32,1.6,4.493605865170245,4.5091474183138995,-0.04338514167278909,-0.008238673895890614,0.011832100274418167,-0.05556652574642086,-0.006637377449614235,0.007139983306370112,-0.03393333839798521,0.0,70.0,255.0,255.0,255.0
33,1.6500000000000001,4.493185546736797,4.509747939885931,-0.04620583710551016,-0.008556236881265278,0.012175081171248436,-0.057251157824703,-0.005973122440661172,0.0066209449341769755,-0.033538586924254654,0.0,70.0,255.0,255.0,255.0
34,1.7000000000000002,4.492750241482119,4.510364926431024,-0.04911025745525939,-0.00883598613995673,0.012494194767835864,-0.05892038443884633,-0.005229105189918926,0.006240362551146461,-0.03333265487353923,0.0,70.0,255.0,255.0,255.0
35,1.75,4.492301948122801,4.510997359362714,-0.052097875549394795,-0.00907914740025717,0.012799117426363082,-0.06058442331205692,-0.004604738619118365,0.0061017943423280485,-0.03333974635428352,0.0,70.0,255.0,255.0,255.0
36,1.8,4.491842326742093,4.511644838173661,-0.05516869978646508,-0.009296460001868567,0.01310437420206867,-0.06225435907427468,-0.004217609986145732,0.006253306964598693,-0.03356111296337477,0.0,70.0,255.0,255.0,255.0
37,1.85,4.491372302122614,4.512307796782921,-0.05832331145682226,-0.009500908398871744,0.013424448122822952,-0.0639405346083944,-0.004066316698470018,0.006644658846965967,-0.033957117694349837,0.0,70.0,255.0,255.0,255.0
38,1.9000000000000001,4.490892235902206,4.512987282985943,-0.06156275324730452,-0.009703091671715569,0.013768840086765266,-0.06565007084370966,-0.0041136553411647014,0.00716925533179591,-0.03444996521477159,0.0,70.0,255.0,255.0,255.0
39,1.9500000000000002,4.490401992955443,4.513684680791598,-0.06488831854119323,-0.009912273932988214,0.014141373656002543,-0.06738553112987156,-0.004327947503224294,0.007710322941267833,-0.034944128045968914,0.0,70.0,255.0,255.0,255.0
40,2.0,4.489901008508907,4.514401420351543,-0.06830130636029168,-0.010135886422037998,0.01453987238089205,-0.06914448364830655,-0.0046738226119558135,0.008156457627261915,-0.03534807655725669,0.0,70.0,255.0,255.0,255.0
41,2.0500000000000003,4.489388404313239,4.515138668029687,-0.07180276690602388,-0.010379656194183795,0.014957019418728734,-0.07092033878559723,-0.005118946646831546,0.008442861354840403,-0.03560903453747738,0.0,70.0,255.0,255.0,255.0
42,2.1,4.488863042889489,4.515897122293416,-0.0753933402388514,-0.010647781086721153,0.01538415851637609,-0.07270538710205429,-0.005616516596518295,0.008565017669148745,-0.035721827188252286,0.0,70.0,255.0,255.0,255.0
43,2.15,4.488323626204567,4.516677083881325,-0.07907330561622931,-0.010941307853835625,0.01581352118564361,-0.07449252150442245,-0.006091417033893265,0.008537558214083418,-0.035697076692187135,0.0,70.0,255.0,255.0,255.0
44,2.2,4.487768912104105,4.5174784744119805,-0.08284259238929365,-0.01125692279011048,0.01623791433778443,-0.076275094771273,-0.006460130437702105,0.008378858504443087,-0.03555134576309488,0.0,70.0,255.0,255.0,255.0
45,2.25,4.487197933925556,4.518300875315103,-0.08670081509335661,-0.011587320897605835,0.016651407036087917,-0.07804765608073194,-0.006655961608892369,0.008116384472156568,-0.03531195674069676,0.0,70.0,255.0,255.0,255.0
46,2.3000000000000003,4.4866101800143445,4.519143615115589,-0.09064735799736684,-0.011922518950999716,0.01704955278500009,-0.07980629044534268,-0.006646090606121646,0.0077742219749765695,-0.03500172324569922,0.0,70.0,255.0,255.0,255.0
47,2.35,4.486005682030456,4.520005830593603,-0.09468144413789088,-0.012251929958218,0.017428829233585574,-0.08154782840530186,-0.006432092440000758,0.007376109637480255,-0.03463641271347767,0.0,70.0,255.0,255.0,255.0
48,2.4000000000000004,4.485384987018523,4.520886498038948,-0.09880214083789703,-0.012565728194999792,0.017787163748748114,-0.08326993171669045,-0.006037040159334595,0.006961350972645164,-0.03424256717731444,0.0,70.0,255.0,255.0,255.0
49,2.45,4.484749109210956,4.521784546968478,-0.10300843730955993,-0.01285563397415146,0.01812496433085009,-0.08497208512303331,-0.005497731212322776,0.006579930687156121,-0.03385617654734219,0.0,70.0,255.0,255.0,255.0
50,2.5,4.484099423621108,4.522698994472033,-0.10729934935020036,-0.01311550131623207,0.018445156817463726,-0.08665554937142467,-0.004842377572700229,0.006274041780418571,-0.03350013377600575,0.0,70.0,255.0,255.0,255.0
51,2.5500000000000003,4.4834375590793325,4.523629062650224,-0.1116739922467024,-0.013339871731421482,0.018752368508891948,-0.08832209850063388,-0.004102378574000198,0.006066964030893018,-0.033190785766450126,0.0,70.0,255.0,255.0,255.0
52,2.6,4.482765436447965,4.524574231322922,-0.11613155920026375,-0.01352573917363209,0.019051853220553028,-0.08997462794806968,-0.0033732488414983663,0.005967839817611065,-0.03296981799511822,0.0,70.0,255.0,255.0,255.0
53,2.6500000000000004,4.482084985161969,4.5255342479722795,-0.12067145504150936,-0.013677196615571319,0.019349152490653054,-0.0916190803001457,-0.002803965452446988,0.005979741858652687,-0.03289535856124265,0.0,70.0,255.0,255.0,255.0
54,2.7,4.481397716786408,4.526509146571987,-0.12529346723027832,-0.013806135718876789,0.019649827406418297,-0.09326416380419394,-0.002541205786155132,0.006094705461112682,-0.03301723476082652,0.0,70.0,255.0,255.0,255.0
55,2.75,4.480704371590082,4.527499230712921,-0.12999787142192876,-0.013931317194186832,0.019958623036764322,-0.09492080377622836,-0.0027225001281827588,0.006291411110570522,-0.0333914708592592,0.0,70.0,255.0,255.0,255.0
56,2.8000000000000003,4.48000458506699,4.528505008875664,-0.13478554760790115,-0.014078385731695064,0.02027896851747535,-0.09660331089011986,-0.0033992202713939434,0.006552234255163825,-0.03402944604281588,0.0,70.0,255.0,255.0,255.0
57,2.85,4.479296533016912,4.529527127564669,-0.13965820251094074,-0.014271239221326226,0.020613846462280705,-0.09832374838050995,-0.0044295975085262285,0.006871691930410151,-0.03480347614519819,0.0,70.0,255.0,255.0,255.0
58,2.9000000000000004,4.478577461144857,4.530566393521892,-0.14461792244595215,-0.014521345482547687,0.020966137710516364,-0.10008365850463968,-0.005549895234402413,0.007238842431789294,-0.0354951594168873,0.0,70.0,255.0,255.0,255.0
59,2.95,4.477844398468657,4.5316237413357205,-0.1496665683614047,-0.014826228744766468,0.021337730705459634,-0.10187326432219868,-0.0064789841052181885,0.007635559823082616,-0.035882623337091246,0.0,70.0,255.0,255.0,255.0
60,3.0,4.47709483827038,4.532700166592438,-0.154805248878172,-0.015169243893069506,0.021729693692824625,-0.10367192083834881,-0.006935593942358764,0.008064276481789534,-0.03574200143496298,0.0,70.0,255.0,255.0,255.0
61,3.0500000000000003,4.47632747407935,4.533796710705003,-0.1600337604452396,-0.015519788139002344,0.022144158353638588,-0.10544746446569497,-0.00678074034015097,0.00851738566174376,-0.0349771177079683,0.0,70.0,255.0,255.0,255.0
62,3.1,4.47554285945648,4.534914582427802,-0.1653499953247415,-0.015847317927084603,0.022581432258999,-0.10716963260914564,-0.0061564730122753986,0.008908096422999279,-0.03378252451031738,0.0,70.0,255.0,255.0,255.0
63,3.1500000000000004,4.474742742286642,4.536054853930903,-0.17075072370615416,-0.016135435440229884,0.023034967995938516,-0.10882571691672671,-0.005348341721767014,0.009102184451581508,-0.03251943500666987,0.0,70.0,255.0,255.0,255.0
64,3.2,4.473929315912457,4.5372180792273955,-0.17623256701641418,-0.016382152099261305,0.023491650704157152,-0.11042157610981262,-0.00464943121949446,0.008976481819900073,-0.0315578196763977,0.0,70.0,255.0,255.0,255.0
65,3.25,4.473104527076716,4.538404019001319,-0.18179288131713542,-0.01660037856217933,0.023932616177928523,-0.11198149888436648,-0.004363096130344246,0.008399548230286769,-0.031268495428832255,0.0,70.0,255.0,255.0,255.0
66,3.3000000000000003,4.472269278056239,4.539611340845188,-0.18743071690485083,-0.01681846171229573,0.02433160552718583,-0.11354842565269585,-0.0046438789744307485,0.007330111210102075,-0.031829169372354915,0.0,70.0,255.0,255.0,255.0
67,3.35,4.471422680905486,4.540837179554037,-0.193147723882405,-0.017064766459622405,0.02466562729893873,-0.11516441582160197,-0.005338170116253593,0.005978533099604277,-0.03301654236363971,0.0,70.0,255.0,255.0,255.0
68,3.4000000000000004,4.470562801410277,4.542077903575082,-0.19894715848701103,-0.01735227872392109,0.024929458837146257,-0.11685007988905982,-0.006143917366063789,0.0047123265219717325,-0.03439614484551934,0.0,70.0,255.0,255.0,255.0
69,3.45,4.469687453033094,4.543330125437752,-0.20483273187131099,-0.017679158196228784,0.025136859951135904,-0.11860403030615391,-0.00676963134242925,0.003903547862993406,-0.03552675063800692,0.0,70.0,255.0,255.0,255.0
70,3.5,4.468794885590654,4.544591589570196,-0.21080756151762642,-0.018029241858164013,0.025319813623445597,-0.12040275495286051,-0.006932114775626275,0.003921493300129697,-0.03596406346973169,0.0,70.0,255.0,255.0,255.0
71,3.5500000000000003,4.467884528847278,4.545862106800096,-0.21687300736659704,-0.01837236967379141,0.025529009281148873,-0.12220043665312708,-0.006490084089438852,0.004930281385728819,-0.035486344662721825,0.0,70.0,255.0,255.0,255.0
72,3.6,4.466957648623275,4.547144490498311,-0.22302760518293913,-0.0186782502671079,0.02581284176201848,-0.1239513894191327,-0.005578026010510939,0.0066470485685421465,-0.03432212188593242,0.0,70.0,255.0,255.0,255.0
73,3.6500000000000004,4.466016703820567,4.548443390976298,-0.2292681463085103,-0.018930172274842505,0.026193714138003088,-0.12563264884172032,-0.004469648486793432,0.00853671458873606,-0.03292516976045323,0.0,70.0,255.0,255.0,255.0
74,3.7,4.465064631395791,4.549763861912111,-0.23559087006711116,-0.019125215115787242,0.026666513220892085,-0.12724390639517802,-0.003438104016062482,0.010051005049938055,-0.03174832462475019,0.0,70.0,255.0,255.0,255.0
75,3.75,4.464104182308988,4.5511100422983874,-0.2419925369480281,-0.019273982676448753,0.027198814642996894,-0.12880748130419534,-0.0027364167953791707,0.010650515865240351,-0.031243176100179126,0.0,70.0,255.0,255.0,255.0
76,3.8000000000000003,4.463137233128146,4.552483743376411,-0.2484716181975307,-0.01939885679532516,0.02773156480741612,-0.13036822400519593,-0.0025023580949579127,0.010068390286210871,-0.03163859882988618,0.0,70.0,255.0,255.0,255.0
77,3.85,4.462164296629456,4.553883198779129,-0.2550293593485477,-0.019524218485944544,0.02820565367161798,-0.13197134118718395,-0.0027016139538815764,0.00856856400206496,-0.032724154241783876,0.0,70.0,255.0,255.0,255.0
78,3.9000000000000004,4.461184811279551,4.5553043087435725,-0.2616687523162491,-0.019669018190713317,0.028588421207622616,-0.13364063942937432,-0.0032256005744635274,0.006686362908681076,-0.03407399196347083,0.0,70.0,255.0,255.0,255.0
79,3.95,4.460197394810384,4.556742040899891,-0.26839342329148513,-0.019846778543390897,0.028874289962486088,-0.13537874038353104,-0.003957952592603675,0.004965065969120275,-0.035266804009864705,0.0,70.0,255.0,255.0,255.0
80,4.0,4.459200133425212,4.558191737739821,-0.2752066263546022,-0.020064813449973684,0.029084927804534644,-0.1371673198303608,-0.0047901900710911605,0.003932387295169093,-0.035895306721661635,0.0,70.0,255.0,255.0,255.0
81,4.05,4.458190913465387,4.559650533680345,-0.2821101552745212,-0.020325797550500013,0.029267528692002998,-0.1389682710556972,-0.005642021993068624,0.0038687915024482322,-0.03574611316457532,0.0,70.0,255.0,255.0,255.0
82,4.1000000000000005,4.457167553670162,4.561118490609021,-0.2891034534601719,-0.020629015649280547,0.029471806954779467,-0.14074193114681832,-0.006418315377043626,0.0046242432083509755,-0.034952076997712966,0.0,70.0,255.0,255.0,255.0
83,4.15,4.456128011900459,4.562597714375823,-0.29618434838920304,-0.020967629088204376,0.029729953012838095,-0.1424634787554685,-0.006982634529695275,0.005853125152111005,-0.033808046534850034,0.0,70.0,255.0,255.0,255.0
84,4.2,4.455070790761342,4.564091485910305,-0.30334980133571876,-0.021327279102250074,0.030057119469990567,-0.14412273580030333,-0.007191624074653902,0.007208358113608426,-0.03261103276239741,0.0,70.0,255.0,255.0,255.0
85,4.25,4.453995283990234,4.565603426322822,-0.3105966219692334,-0.021686791495669766,0.030450788824198938,-0.14572458203170824,-0.006902822920640261,0.008355972249685095,-0.03164757836519594,0.0,70.0,255.0,255.0,255.0
86,4.3,4.452902111611775,4.567136564792725,-0.3179222595388896,-0.0220175613943141,0.030892716694959077,-0.14728749363682292,-0.0060680154716052925,0.009098122025275046,-0.031082496297341056,0.0,70.0,255.0,255.0,255.0
87,4.3500000000000005,4.4517935278508025,4.568692697992318,-0.32532537133291567,-0.022293593042830295,0.03136060102672644,-0.14883283166144234,-0.0048704392231258,0.009422668292380365,-0.03090026504005139,0.0,70.0,255.0,255.0,255.0
88,4.4,4.450672752307492,4.570272624895398,-0.3328055427050338,-0.02250460531662668,0.031834983524197114,-0.15037752014082806,-0.0036410641037321057,0.009370413872566985,-0.031022772946098787,0.0,70.0,255.0,255.0,255.0
89,4.45,4.44954306731914,4.571876196344737,-0.3403631233469985,-0.022657699453203506,0.03229764241398314,-0.15193510895605222,-0.002727299359950308,0.008976326751941599,-0.031374752586255106,0.0,70.0,255.0,255.0,255.0
90,4.5,4.4484069823621715,4.573502389136796,-0.34799905360063904,-0.02277733525262171,0.03273261619939127,-0.15351499539945357,-0.0024785182462849775,0.008279714382020131,-0.03187838914152641,0.0,70.0,255.0,255.0,255.0
91,4.55,4.447265333793878,4.5751494579646765,-0.35571462288694383,-0.022905551277832004,0.033125613852185154,-0.15512294787020486,-0.0030597156547962356,0.007329955827639623,-0.03247215339428067,0.0,70.0,255.0,255.0,255.0
92,4.6000000000000005,4.446116427234388,4.576814950522015,-0.3635113483876595,-0.023083306818101335,0.033465611782155236,-0.15676221073888164,-0.00425004428032949,0.0062467619435402355,-0.03308695608222334,0.0,70.0,255.0,255.0,255.0
93,4.65,4.4449570031120675,4.578496019142892,-0.371390843960832,-0.023330555705864953,0.03375029004653918,-0.1584316434784272,-0.005622153344564396,0.005226897679033726,-0.03361825095818949,0.0,70.0,255.0,255.0,255.0
94,4.7,4.443783371663802,4.5801899795266685,-0.37935451273550225,-0.023645522152557774,0.03398830155005861,-0.16012403583470058,-0.0067398311664135235,0.00448428359653974,-0.0339447820674077,0.0,70.0,255.0,255.0,255.0
95,4.75,4.442592450896812,4.581894849297898,-0.38740324754430205,-0.024004538822506305,0.03419871840619315,-0.16182612168516797,-0.007163150713740407,0.004213188870760831,-0.03394282777263169,0.0,70.0,255.0,255.0,255.0
96,4.800000000000001,4.441382917781551,4.583609851367288,-0.39553712490401904,-0.024361837223931815,0.03440962043713469,-0.16351831861196375,-0.006673261769662986,0.004503080305706675,-0.03356166401827787,0.0,70.0,255.0,255.0,255.0
97,4.8500000000000005,4.440156267174419,4.585335811341611,-0.40375507940549843,-0.024671864999472604,0.03464902643676382,-0.16518228808699575,-0.005500199506691672,0.005261332883943481,-0.03291638615554593,0.0,70.0,255.0,255.0,255.0
98,4.9,4.438915731281604,4.587074754010964,-0.4120553537127186,-0.024911857174600982,0.03493575372552904,-0.16680995722751835,-0.00409950666711012,0.006289268138104376,-0.03222058685752871,0.0,70.0,255.0,255.0,255.0
99,4.95,4.4376650814569585,4.588829386714164,-0.42043607512825026,-0.025081815666183616,0.03527795325057426,-0.16840434677274863,-0.0029265228274510946,0.007367564502747115,-0.03169889303691331,0.0,70.0,255.0,255.0,255.0
100,5.0,4.4364075497149855,4.590602549336022,-0.4288957883899935,-0.02520450945734609,0.03567251017580375,-0.16997984653120968,-0.0024368043063383027,0.008291492839074266,-0.03158629044391348,0.0,70.0,255.0,255.0,255.0
101,5.050000000000001,4.435144630511224,4.592396637731745,-0.43743405978137123,-0.025325496096817446,0.03610710253448168,-0.17156297581713997,-0.002860384119873771,0.008938748590914258,-0.0319944772458336,0.0,70.0,255.0,255.0,255.0
102,5.1000000000000005,4.433875000105304,4.59421325958947,-0.4460520859717075,-0.02549054786933347,0.03656638503489518,-0.17317929425579304,-0.003978341842625355,0.009275179247758558,-0.032762091370175384,0.0,70.0,255.0,255.0,255.0
103,5.15,4.4325955757242905,4.596053276235234,-0.45475198920695054,-0.02572333028107998,0.03703462045925754,-0.1748391849541575,-0.005350635837686468,0.009287078719921738,-0.03358480953714049,0.0,70.0,255.0,255.0,255.0
104,5.2,4.431302667077196,4.5979167216353956,-0.46353600446712323,-0.026025611453102115,0.03749509290688735,-0.1765377752095071,-0.006540930670251299,0.008966484033567923,-0.03415978564514366,0.0,70.0,255.0,255.0,255.0
105,5.25,4.42999301457898,4.599802785525923,-0.47240576672790124,-0.02637742334810511,0.03793126886261433,-0.17825516351867188,-0.007121706653467896,0.00830885842049156,-0.03418007571975301,0.0,70.0,255.0,255.0,255.0
106,5.300000000000001,4.428664924742385,4.601709848521657,-0.4813615208189904,-0.026737782118448905,0.03832597874893651,-0.1799557827814824,-0.0068720548979328555,0.007339874048639672,-0.033500054037965965,0.0,70.0,255.0,255.0,255.0
107,5.3500000000000005,4.427319236367135,4.603635383400817,-0.4904013450060495,-0.027064628837898397,0.0386652562674783,-0.18160516892246847,-0.005957248972876528,0.0061996284467902285,-0.032322427850939306,0.0,70.0,255.0,255.0,255.0
108,5.4,4.425958461858595,4.605576374148405,-0.49952203771123727,-0.027333507015736558,0.03894594159361553,-0.18318802556657632,-0.004727134130799726,0.005124095304065435,-0.031033834667570925,0.0,70.0,255.0,255.0,255.0
109,5.45,4.424585885665562,4.607529977560178,-0.5087201475627071,-0.02753734225097837,0.03917766579788484,-0.18470855238922557,-0.003529614632036271,0.00436444808071812,-0.03002131170188882,0.0,70.0,255.0,255.0,255.0
110,5.5,4.423204727633498,4.609494140728193,-0.5179928929501598,-0.027686468478940185,0.03938238640168734,-0.1861901567367652,-0.0026963224602383207,0.004161092126686583,-0.029669350733041444,0.0,70.0,255.0,255.0,255.0
111,5.550000000000001,4.421817238817668,4.611468216200347,-0.5273391632363836,-0.0278069744970022,0.0395937750105535,-0.1876754874625297,-0.002410743607583754,0.00462278085588963,-0.030165679562665915,0.0,70.0,255.0,255.0,255.0
112,5.6000000000000005,4.420424030183797,4.613453518229249,-0.5367604416964128,-0.02792754283969856,0.039844664487276304,-0.1892067246930318,-0.0026236179766492285,0.005597355916098223,-0.031298313776173536,0.0,70.0,255.0,255.0,255.0
113,5.65,4.419024484533698,4.6154526826490745,-0.5462598357056868,-0.028069336294667124,0.04015351060216332,-0.19080531884014706,-0.003190711088052467,0.006783812791066879,-0.0326488960815885,0.0,70.0,255.0,255.0,255.0
114,5.7,4.417617096554331,4.617468869289465,-0.5558409735804275,-0.028246613948503807,0.04052304576638299,-0.19247161430119064,-0.003966811268085735,0.00786346257175552,-0.0337956202279277,0.0,70.0,255.0,255.0,255.0
115,5.75,4.4161998231388475,4.619504987225713,-0.5655069971358059,-0.028466017421475698,0.040939856859338875,-0.19418488086293983,-0.004813003506676239,0.008522763748608497,-0.034322567968159134,0.0,70.0,255.0,255.0,255.0
116,5.800000000000001,4.414770494812183,4.621562854975399,-0.5752594616667215,-0.02872791429917143,0.04137532214124384,-0.19590387109800655,-0.0056332224198207825,0.008596228634694114,-0.03401736757149276,0.0,70.0,255.0,255.0,255.0
117,5.8500000000000005,4.41332703170893,4.623642519439837,-0.5850973842456065,-0.029029339663457776,0.041799479722808286,-0.1975866176200891,-0.006351076322985705,0.008179992177925755,-0.033055132895210004,0.0,70.0,255.0,255.0,255.0
118,5.9,4.411867560845837,4.62574280294768,-0.5950181234287304,-0.02936302193147,0.04219332135903642,-0.19920938438752755,-0.0068647068308891335,0.007490770081641784,-0.03179976515532701,0.0,70.0,255.0,255.0,255.0
119,5.95,4.410390729515783,4.627861851575741,-0.6050183226843593,-0.02971581034654669,0.042548556730972464,-0.2007665941356218,-0.007064678757018328,0.006748787879740092,-0.03061606752617907,0.0,70.0,255.0,255.0,255.0
120,6.0,4.408895979811183,4.629997658620777,-0.6150947828422926,-0.030069489807171834,0.04286820014701043,-0.20227099114014546,-0.006851663513973705,0.006175824907028726,-0.029860330774234,0.0,70.0,255.0,255.0,255.0
121,6.050000000000001,4.407383780535066,4.632148671590442,-0.6252454217983738,-0.03040097669794406,0.04316613922167534,-0.2037526272130452,-0.006194828251882001,0.005897852390202019,-0.029724197470748503,0.0,70.0,255.0,255.0,255.0
122,6.1000000000000005,4.405855882141388,4.6343142725429445,-0.6354700455635971,-0.030688972632360034,0.04345798538603063,-0.2052434108872203,-0.005217391416678652,0.005878106607859479,-0.030112110354019173,0.0,70.0,255.0,255.0,255.0
123,6.15,4.40431488327183,4.636494470129045,-0.6457697628870959,-0.030922715839611925,0.043753949882461285,-0.20676383824844713,-0.004147664384923644,0.006019353968866881,-0.03080192674699278,0.0,70.0,255.0,255.0,255.0
124,6.2,4.402763610557427,4.638689667531191,-0.6561464293884418,-0.0311037390708524,0.04405992078291732,-0.2083236035619196,-0.003232935241825885,0.006233786841569611,-0.03157302342013946,0.0,70.0,255.0,255.0,255.0
125,6.25,4.401204509364745,4.640900462207337,-0.6666021232432878,-0.031246009363794514,0.044377328566618246,-0.20992114059046107,-0.0027123704103182433,0.006433983243248065,-0.032208136906930473,0.0,70.0,255.0,255.0,255.0
126,6.300000000000001,4.399639009621048,4.643127400387852,-0.6771385434474879,-0.03137497611188422,0.04470331910724212,-0.21154441725261264,-0.002707464572893059,0.006566301197796776,-0.032580294760065076,0.0,70.0,255.0,255.0,255.0
127,6.3500000000000005,4.3980670117535565,4.645370794118061,-0.6877565649685491,-0.03151675582108382,0.045033958686397924,-0.21317917006646758,-0.003131246121768072,0.006628513791806512,-0.03270099445333852,0.0,70.0,255.0,255.0,255.0
128,6.4,4.396487334038939,4.647630796256492,-0.6984564604541347,-0.03168810072406103,0.045366170486422774,-0.2148145166979465,-0.0037927475173837877,0.006630042481781118,-0.032626280770386984,0.0,70.0,255.0,255.0,255.0
129,6.45,4.39489820168115,4.649907411166703,-0.7092380166383437,-0.0318960305728222,0.045696962934576035,-0.21644179814350628,-0.004490293562309233,0.006569864287886418,-0.03240615114750156,0.0,70.0,255.0,255.0,255.0
130,6.5,4.393297730981657,4.65220049254995,-0.7201006402684853,-0.032137130080291954,0.046023156915211416,-0.21805513181269665,-0.005018854845406651,0.006436214147864661,-0.032099102950011726,0.0,70.0,255.0,255.0,255.0
131,6.550000000000001,4.391684488673121,4.654509726858224,-0.7310435298196134,-0.03239791605736286,0.0463405843493625,-0.21965170843850745,-0.005263052384751887,0.006230229531301035,-0.031746884561290045,0.0,70.0,255.0,255.0,255.0
132,6.6000000000000005,4.390057939375921,4.656834550984886,-0.742065811112336,-0.03266343531876714,0.04664617986834152,-0.22122982026882565,-0.005262192860122639,0.006007838224331152,-0.031364750993567725,0.0,70.0,255.0,255.0,255.0
133,6.65,4.3884181451412445,4.659174344845058,-0.753166511846496,-0.03292413534337513,0.04694136817179562,-0.22278818353786423,-0.005115098458574607,0.005860476104313506,-0.030973789332289225,0.0,70.0,255.0,255.0,255.0
134,6.7,4.386765525841583,4.661528687802066,-0.7643446294661225,-0.0331749451646246,0.04723222747877287,-0.22432719920205457,-0.004913489576541252,0.0058800427209071415,-0.030608059635539586,0.0,70.0,255.0,255.0,255.0
135,6.75,4.385100650624782,4.663897567592936,-0.7755992317667014,-0.03341548430102925,0.04752937244388633,-0.22584898950141818,-0.0047521635883285285,0.006169132193267757,-0.030291488589051507,0.0,70.0,255.0,255.0,255.0
136,6.800000000000001,4.38342397741148,4.666281625046454,-0.7869295284162643,-0.033650161523457456,0.047849140698099646,-0.22735634806095972,-0.004686386494867634,0.006766580210637585,-0.030038880281402225,0.0,70.0,255.0,255.0,255.0
137,6.8500000000000005,4.381735634472436,4.668682481662746,-0.7983348665727974,-0.033884122950516016,0.04820603046495009,-0.2288528775295584,-0.00469905003734894,0.007538361748959943,-0.029877297609659514,0.0,70.0,255.0,255.0,255.0
138,6.9,4.380035565116429,4.671102228092949,-0.8098148161692201,-0.03412006652719235,0.04860297687299564,-0.23034407782192567,-0.004748630209316929,0.008248985502135042,-0.029841265863250754,0.0,70.0,255.0,255.0,255.0
139,6.95,4.378323627819717,4.673542779350045,-0.82136927435499,-0.03435898597144771,0.049030929015163593,-0.23183700411588348,-0.004801948597332739,0.008663904222938612,-0.029954897023698468,0.0,70.0,255.0,255.0,255.0
140,7.0,4.376599666519284,4.676005320994466,-0.8329985165808085,-0.034600261386925624,0.0494693672952895,-0.23333956752429552,-0.004824518773371977,0.008547303698858144,-0.030238905397694804,0.0,70.0,255.0,255.0,255.0
141,7.050000000000001,4.3748636016810245,4.678489716079574,-0.8447032311074195,-0.034841437848784906,0.04988565938504941,-0.23486089465565296,-0.004798114922621721,0.007795850558611761,-0.03069190666737942,0.0,70.0,255.0,255.0,255.0
142,7.1000000000000005,4.373115522734405,4.680993886932971,-0.8564846060463738,-0.035080072879187796,0.05024895235115068,-0.23640875819103346,-0.0047416069914874015,0.0066049618657970655,-0.031245219406905722,0.0,70.0,255.0,255.0,255.0
143,7.15,4.371355594393106,4.683514611314689,-0.8683441069265229,-0.035315598547933647,0.050546155571629114,-0.23798541659634354,-0.0046903807038312095,0.005339013122007685,-0.03178030805387477,0.0,70.0,255.0,255.0,255.0
144,7.2,4.369583962879612,4.6860485024901335,-0.8802831477060081,-0.03554911094957092,0.050782853663351446,-0.23958678899642094,-0.004678716033357233,0.004369888173272329,-0.03217337791076025,0.0,70.0,255.0,255.0,255.0
145,7.25,4.367800683298149,4.688592896681024,-0.892302785826165,-0.03578347015126937,0.05098314438895635,-0.24120275438741956,-0.004749761318301182,0.004069625039715419,-0.032308880496145775,0.0,70.0,255.0,255.0,255.0
146,7.300000000000001,4.366005615864485,4.691146816929029,-0.9044034231447501,-0.036024087081401035,0.05118981616732299,-0.24281767704603552,-0.004921153814585466,0.004617103801862754,-0.032132980228605224,0.0,70.0,255.0,255.0,255.0
147,7.3500000000000005,4.3641982745900085,4.693711878297757,-0.9165845535307685,-0.036275585532727916,0.05144485476914262,-0.24441605241028008,-0.005134521996730257,0.005791907337648894,-0.03170630028722643,0.0,70.0,255.0,255.0,255.0
148,7.4,4.362378057311212,4.696291302405943,-0.9288450283857781,-0.03653753928107406,0.05176900690108788,-0.24598830707475816,-0.005289846974854129,0.007164006298943093,-0.03115386555755384,0.0,70.0,255.0,255.0,255.0
149,7.45,4.360544520661901,4.6988887789878655,-0.9411833842382443,-0.03680457023021333,0.05216125539903693,-0.24753143896603547,-0.005289900556260108,0.008297195764761511,-0.03061107851273226,0.0,70.0,255.0,255.0,255.0
150,7.5,4.358697600288191,4.701507427945847,-0.9535981722823816,-0.03706652933670007,0.05259872647756403,-0.2490494149260314,-0.00502846392658185,0.00875424276260972,-0.03021359126570422,0.0,70.0,255.0,255.0,255.0
151,7.550000000000001,4.356837867728231,4.704148651635622,-0.9660883257308475,-0.037307416622871514,0.053036679675297904,-0.2505527980926059,-0.00446347028466576,0.00831587409377832,-0.030035659597671405,0.0,70.0,255.0,255.0,255.0
152,7.6000000000000005,4.354966858625904,4.706811095913377,-0.9786534520916422,-0.03751287636516665,0.05343031388694186,-0.2520529808857985,-0.0037220765825907165,0.007198224633864214,-0.03004594308066988,0.0,70.0,255.0,255.0,255.0
153,7.65,4.3530865800917145,4.709491683024316,-0.9912936238194273,-0.037679624281130586,0.053756502138684326,-0.2535573924006729,-0.003029298996182206,0.005834145831951076,-0.030168705240374294,0.0,70.0,255.0,255.0,255.0
154,7.7,4.351198896197791,4.712186746127245,-1.0040091913317095,-0.03781580626478487,0.05401372847013697,-0.25506985140983596,-0.0026077423477488537,0.00465447562127963,-0.03032850850431812,0.0,70.0,255.0,255.0,255.0
155,7.75,4.349304999465236,4.71489305587133,-1.016800608960411,-0.03794039851590547,0.05422194970081229,-0.2565902432511047,-0.002676336355023068,0.00408132931735139,-0.030444773089011168,0.0,70.0,255.0,255.0,255.0
156,7.800000000000001,4.3474048563462,4.7176089410973265,-1.02966821565682,-0.038083439900287175,0.05442186140187211,-0.2581143287187371,-0.0033325641145331986,0.004332546675911431,-0.030471607488147257,0.0,70.0,255.0,255.0,255.0
157,7.8500000000000005,4.345496655475207,4.720335242011517,-1.0426120418322846,-0.03827365492735879,0.05465520436840343,-0.2596374039999194,-0.00441092458673964,0.005244378276003658,-0.030430859791152898,0.0,70.0,255.0,255.0,255.0
158,7.9,4.343577490853464,4.723074461534167,-1.055631956056812,-0.03852453235896114,0.05494629922947247,-0.26115741469785236,-0.005597525804912351,0.00647022622377591,-0.03036954191901753,0.0,70.0,255.0,255.0,255.0
159,7.95,4.341644202239311,4.725829871934464,-1.0687277833020699,-0.038833407507850026,0.05530222699078102,-0.26267435819182117,-0.006573582267321854,0.00766504161058279,-0.03032868700374447,0.0,70.0,255.0,255.0,255.0
160,8.0,4.339694150102679,4.728604684233245,-1.081899391875994,-0.039181890585693324,0.05571280339053075,-0.2641902833982268,-0.007038218625243786,0.008500486588136624,-0.030355288406225256,0.0,70.0,255.0,255.0,255.0
161,8.05,4.337726013180742,4.731401152273517,-1.0951468116418925,-0.039537229370374405,0.056152275649594685,-0.2657098870324437,-0.006839187010498904,0.008794591883010128,-0.030471197163106645,0.0,70.0,255.0,255.0,255.0
162,8.1,4.335740427165642,4.7342199117982044,-1.1084703805792384,-0.039865809286743215,0.056592262578831765,-0.2672374031145375,-0.006084108520454379,0.008593306551762936,-0.030630617754856537,0.0,70.0,255.0,255.0,255.0
163,8.15,4.3337394322520675,4.7370603785314005,-1.1218705519533463,-0.04014564022241984,0.05701160630477098,-0.26877294880792935,-0.005011553494504994,0.0080350658228312,-0.030753127083316123,0.0,70.0,255.0,255.0,255.0
164,8.200000000000001,4.3317258631434,4.7399210724286815,-1.1353476754600313,-0.040366964636193714,0.057395769161114885,-0.2703127158228691,-0.003870702475783361,0.007259157469441391,-0.030763456767379793,0.0,70.0,255.0,255.0,255.0
165,8.25,4.329702735788448,4.742799955447512,-1.1489018235356332,-0.04053271046999818,0.05773752205171512,-0.2718492944846673,-0.0028947984682226036,0.006396724330492987,-0.030586101258345266,0.0,70.0,255.0,255.0,255.0
166,8.3,4.3276725920964,4.745694824633853,-1.162532604908498,-0.040656444483015974,0.05803544159416418,-0.2733713259487036,-0.0022229489156977422,0.005540834044204246,-0.03018980432563101,0.0,70.0,255.0,255.0,255.0
167,8.35,4.3256370913401465,4.748603499606928,-1.1762389561305036,-0.04075500536156795,0.05829160545613554,-0.2748682749172304,-0.0018853686041708784,0.004779598314375022,-0.029648440751173233,0.0,70.0,255.0,255.0,255.0
168,8.4,4.323597091560243,4.751523985179467,-1.1900194324002211,-0.04084498134343306,0.058513401425601685,-0.27633617002382094,-0.0018852112657619102,0.00423482517017959,-0.029097017346657594,0.0,70.0,255.0,255.0,255.0
169,8.450000000000001,4.321552593205803,4.754454839749489,-1.2038725731328856,-0.040943526488144144,0.0587150879731535,-0.2777779766518962,-0.0022225821886934227,0.004036790049610772,-0.028670259819341126,0.0,70.0,255.0,255.0,255.0
170,8.5,4.319502738911429,4.757395493976782,-1.2177972300654107,-0.041067239562302404,0.05891708043056276,-0.27920319600575505,-0.002894568854561186,0.004312616089929833,-0.02849228791250713,0.0,70.0,255.0,255.0,255.0
171,8.55,4.317445869249573,4.760346547792545,-1.2317928927334612,-0.04123298337360026,0.059146349582146485,-0.2806272054431469,-0.003871068608241046,0.005103610401580028,-0.02862338506823825,0.0,70.0,255.0,255.0,255.0
172,8.6,4.315379440574069,4.763310128934997,-1.2458599506097254,-0.04145434642312651,0.059427441470720765,-0.2820655345125789,-0.005012738740273193,0.0062429855056223005,-0.029011143715917953,0.0,70.0,255.0,255.0,255.0
173,8.65,4.31330043460726,4.766289291939617,-1.259999446184719,-0.04173425724762758,0.059770648132708715,-0.2835283198147387,-0.006085923121190717,0.007428430700162636,-0.029542439893770478,0.0,70.0,255.0,255.0,255.0
174,8.700000000000001,4.311206014849306,4.7692871937482675,-1.2742127825911993,-0.04206293873524558,0.06017028454073703,-0.2850197785019559,-0.006841020051862046,0.00834193407959205,-0.030096016775837953,0.0,70.0,255.0,255.0,255.0
175,8.75,4.309094140733736,4.772306320393691,-1.2885014240349146,-0.042418359252813786,0.06060484154066792,-0.2865379214923225,-0.007038907465695132,0.008672811309029527,-0.03055672844356483,0.0,70.0,255.0,255.0,255.0
176,8.8,4.306964178924025,4.775347677902334,-1.3028665747404315,-0.042766829481815094,0.06103756567163998,-0.2880754513463124,-0.006571751010486793,0.008270924816500269,-0.030857168221820608,0.0,70.0,255.0,255.0,255.0
177,8.85,4.304817457785554,4.778410076960855,-1.3173089691695459,-0.043075534353862466,0.06143193402231795,-0.28962363831450455,-0.0055926274831641365,0.007298343113415484,-0.03099062074884973,0.0,70.0,255.0,255.0,255.0
178,8.9,4.3026566254886385,4.781490871304566,-1.331828938571882,-0.04332609223013151,0.06176739998298153,-0.2911745134211974,-0.004403823522203254,0.006082407739871343,-0.030968747553838938,0.0,70.0,255.0,255.0,255.0
179,8.950000000000001,4.300484848562541,4.784586816959153,-1.3464264205116656,-0.04351591670608279,0.06204017479630508,-0.29272051306988844,-0.0033255986762625867,0.004961534237502008,-0.03080618589772488,0.0,70.0,255.0,255.0,255.0
180,9.0,4.29830503381803,4.787694888784197,-1.3611009898788708,-0.043658652097757766,0.06226355340673173,-0.29425513201096987,-0.002673810606435012,0.004268120026118538,-0.030524807637255513,0.0,70.0,255.0,255.0,255.0
181,9.05,4.296118983352765,4.790813172299826,-1.3758519337127626,-0.04378329776672629,0.062466986798916935,-0.295772993833614,-0.002614701242542594,0.004178750938876874,-0.0301469164035284,0.0,70.0,255.0,255.0,255.0
182,9.1,4.293926704041358,4.793941587464088,-1.3906782892622322,-0.043920122222012026,0.06268142850061942,-0.2972698236513227,-0.0030477070382062266,0.004594597751506058,-0.029707212449570086,0.0,70.0,255.0,255.0,255.0
183,9.15,4.291726971130564,4.797081315149888,-1.4055789160778949,-0.044088068470546915,0.06292644657406754,-0.298743715078571,-0.0037486662406216453,0.005291821789921158,-0.02926340905169411,0.0,70.0,255.0,255.0,255.0
184,9.200000000000001,4.289517897194303,4.800234232121495,-1.4205526607700893,-0.04429498884607419,0.06321061067961153,-0.3001961645564921,-0.0044894989956745235,0.0060448427228187995,-0.02888492727892711,0.0,70.0,255.0,255.0,255.0
185,9.25,4.287297472245957,4.803402376217849,-1.435598532533544,-0.04453701837011437,0.06353093084634942,-0.3016322078064637,-0.005037878079861002,0.0066267365593120076,-0.028640078303499017,0.0,70.0,255.0,255.0,255.0
186,9.3,4.285064195357291,4.80658732520613,-1.4507158815507357,-0.04479877665406029,0.06387328433554273,-0.303060172386842,-0.005263896234097842,0.006908523642934483,-0.028561879450750283,0.0,70.0,255.0,255.0,255.0
187,9.35,4.282817594580551,4.809789704651403,-1.4659045497722283,-0.04506340799352415,0.06422178321064287,-0.30448839575153874,-0.00522111312895035,0.0069278346445322825,-0.028617825489973825,0.0,70.0,255.0,255.0,255.0
188,9.4,4.280557854557939,4.813009503527194,-1.4811647211258896,-0.045320887966955326,0.06456606779999596,-0.3059219549358394,-0.005035264429054109,0.006784058014464023,-0.028740320202014225,0.0,70.0,255.0,255.0,255.0
189,9.450000000000001,4.278285505783855,4.816246311431403,-1.4964967452658122,-0.04556693443642956,0.06490018901208927,-0.30736242777174017,-0.004824004408110483,0.006566693938570012,-0.028854104986808515,0.0,70.0,255.0,255.0,255.0
190,9.5,4.276001161114296,4.819499522428403,-1.5119009639030636,-0.045803288407766374,0.06522273719385296,-0.30880736543452025,-0.004714630454394353,0.006364887115850593,-0.028870869824859646,0.0,70.0,255.0,255.0,255.0
191,9.55,4.2737051769430785,4.822768585150788,-1.5273774818092642,-0.046038397481869,0.06553667772367433,-0.31024951475422613,-0.004775774427390189,0.006233215095452493,-0.02874607861380607,0.0,70.0,255.0,255.0,255.0
192,9.600000000000001,4.271397321366109,4.826053190200771,-1.5429259153784862,-0.04628086585050539,0.06584605870339821,-0.31168197329590086,-0.0049469080443564906,0.006173131269715526,-0.028542417991284097,0.0,70.0,255.0,255.0,255.0
193,9.65,4.269077090358028,4.829353191021128,-1.5585456791388543,-0.04653308828630465,0.06615399085064588,-0.31310375655335454,-0.005112047605138059,0.006173717714830218,-0.02837353857858549,0.0,70.0,255.0,255.0,255.0
194,9.700000000000001,4.266744012537479,4.832668589285835,-1.5742362910338217,-0.0467920706110192,0.06646343047488124,-0.3145193271537594,-0.005167397125216411,0.006234581989073007,-0.028345739021173877,0.0,70.0,255.0,255.0,255.0
195,9.75,4.264397883296926,4.835999534068616,-1.5899976118542303,-0.04704982799882629,0.06677744904955318,-0.3159383304554719,-0.005007656046451814,0.006365742948677422,-0.028572386452863086,0.0,70.0,255.0,255.0,255.0
196,9.8,4.262039029737596,4.8393463341907905,-1.6058301240793689,-0.04729283621566438,0.06710000476974898,-0.3173765657990457,-0.004585919809141359,0.006565329262198105,-0.02910089234098301,0.0,70.0,255.0,255.0,255.0
197,9.850000000000001,4.25966859967536,4.842709534545591,-1.6217352684341348,-0.047508419979740424,0.067433981975773,-0.31884841968957023,-0.003993026255511012,0.006779640276466381,-0.029810730983315104,0.0,70.0,255.0,255.0,255.0
198,9.9,4.257288187739622,4.846089732388368,-1.637714966048326,-0.04769213884121548,0.06777796879739562,-0.32035763889737723,-0.0033956127498235844,0.006921071126519962,-0.03048645788472637,0.0,70.0,255.0,255.0,255.0
199,9.950000000000001,4.254899385791238,4.849487331425331,-1.6537710323238726,-0.04784798125472278,0.06812608908842499,-0.32189706547804287,-0.0029591809837192784,0.0069016913925246115,-0.030916878322329033,0.0,70.0,255.0,255.0,255.0
200,10.0,4.25250338961415,4.85290234129721,-1.6699046725961302,-0.04798805693958741,0.06846813793664808,-0.32344932672961013,-0.002846726711691616,0.006624169061542062,-0.030899630983527437,0.0,70.0,255.0,255.0,255.0
201,10.05,4.250100580097279,4.856334145218995,-1.6861159649968336,-0.048132653925891944,0.0687885059945792,-0.3249870285763956,-0.0031343458696042603,0.006051668321660486,-0.03034275295470401,0.0,70.0,255.0,255.0,255.0
202,10.100000000000001,4.247690124221561,4.859781191896668,-1.7024033754537697,-0.048301491526547835,0.06907330476881413,-0.32648360202508053,-0.003716511408757839,0.00531007918569415,-0.029380905161779935,0.0,70.0,255.0,255.0,255.0
203,10.15,4.2452704309446245,4.863241475695877,-1.7187643251993416,-0.04850430506676773,0.06931951391314861,-0.3279251190925736,-0.0043891377595528525,0.004621065377374833,-0.028276061117971096,0.0,70.0,255.0,255.0,255.0
204,10.200000000000001,4.242839693714884,4.866713143287983,-1.735195887363027,-0.04874040530250312,0.06953541130655161,-0.32931120813687764,-0.004943105047328089,0.004204713046540576,-0.027299008761771937,0.0,70.0,255.0,255.0,255.0
205,10.25,4.240396390414374,4.870195016826532,-1.7516954460130294,-0.04899861557150054,0.06973998521780267,-0.3306550199687508,-0.005169446430652869,0.004277534186325482,-0.02670908961290852,0.0,70.0,255.0,255.0,255.0
206,10.3,4.237939832157734,4.873687141809763,-1.7682613893599022,-0.04925734994556841,0.06996316472518416,-0.3319821170981685,-0.004963409998559598,0.004935596518773622,-0.026641382553438397,0.0,70.0,255.0,255.0,255.0
207,10.350000000000001,4.235470655419817,4.87719133329905,-1.7848936577228462,-0.049494956571356497,0.07023354486968003,-0.33331915822409464,-0.004426336034857314,0.006013795894066476,-0.027017536481444004,0.0,70.0,255.0,255.0,255.0
208,10.4,4.232990336500598,4.880710496296731,-1.8015933051823116,-0.04969998354905414,0.0705645443145908,-0.3346838707463129,-0.0037624282875903248,0.007199236128485609,-0.027657409531545163,0.0,70.0,255.0,255.0,255.0
209,10.450000000000001,4.230500657064912,4.8842477877305095,-1.8183620447974775,-0.04987119940011553,0.07095346848252859,-0.33608489917724915,-0.003174972253816577,0.008173908635278337,-0.028373799917358333,0.0,70.0,255.0,255.0,255.0
210,10.5,4.2280032165605865,4.887805843144984,-1.8352017951000366,-0.050017480774435796,0.07138193517811864,-0.33752125073804873,-0.0028594502689216483,0.00863772216614933,-0.02898401056483646,0.0,70.0,255.0,255.0,255.0
211,10.55,4.225498908987468,4.891385981248321,-1.8521141698712824,-0.050157144427007694,0.07181724069914353,-0.3389833002337328,-0.0029185875621173807,0.008438859356107997,-0.029379455759381834,0.0,70.0,255.0,255.0,255.0
212,10.600000000000001,4.222987502117886,4.894987567214899,-1.8691001251234098,-0.050309339530647534,0.07222582111372944,-0.3404591963139869,-0.0032927365268164976,0.007684620687786747,-0.02955351767706116,0.0,70.0,255.0,255.0,255.0
213,10.65,4.220467975034404,4.898608563359694,-1.886160089502681,-0.050486418079689344,0.0725857027679222,-0.3419386520014389,-0.003846557016107255,0.006612945820183569,-0.029528053669403143,0.0,70.0,255.0,255.0,255.0
214,10.700000000000001,4.217938860309917,4.902246137491691,-1.9032939903235537,-0.05069399523225826,0.0728871156957478,-0.3434120016809272,-0.004443719224145326,0.005472426304642397,-0.029320103923002883,0.0,70.0,255.0,255.0,255.0
215,10.75,4.215398575511178,4.905897274929269,-1.9205012896707738,-0.050930790002103876,0.07313294539838644,-0.3448706623937392,-0.004956761817531685,0.004495586473396429,-0.028946849479938308,0.0,70.0,255.0,255.0,255.0
216,10.8,4.212845781309706,4.9095594320315294,-1.9377810565629277,-0.05118967141401143,0.07333667434308744,-0.34630668662892106,-0.005309465859859586,0.0038212271284088217,-0.02843305548152486,0.0,70.0,255.0,255.0,255.0
217,10.850000000000001,4.210279608369777,4.913230942363578,-1.955131958333666,-0.051461736588089835,0.07351506811122732,-0.3477139679418917,-0.005486354221506673,0.003480448627257715,-0.027849231970988875,0.0,70.0,255.0,255.0,255.0
218,10.9,4.2076996076508975,4.916910938842652,-1.9725524533571168,-0.051738306836162096,0.07368471920581321,-0.34909160982601994,-0.005486868124204847,0.0034779316409938588,-0.027311214951386553,0.0,70.0,255.0,255.0,255.0
219,10.950000000000001,4.2051057776861605,4.920599414284159,-1.990041119316268,-0.05201042340051032,0.07386286127532671,-0.35044508943703034,-0.005310663670243798,0.0038153605046886696,-0.026944758749669617,0.0,70.0,255.0,255.0,255.0
220,11.0,4.202498565310846,4.924297224970185,-2.00759696230082,-0.052269373203186476,0.07406625525628208,-0.3517860857009869,-0.004957511784375868,0.00449191329172649,-0.02687260083964471,0.0,70.0,255.0,255.0,255.0
221,11.05,4.199878840365842,4.928006039809787,-2.0252197278863666,-0.052506174578947906,0.07431205260449936,-0.3531323495209948,-0.004442523356829042,0.0054782834124189606,-0.02714883513517119,0.0,70.0,255.0,255.0,255.0
222,11.100000000000001,4.197247947852952,4.931728430230635,-2.0429101972529193,-0.05271362553886938,0.07461408359752397,-0.354500969214504,-0.0038426857479123555,0.006631906481135985,-0.027685078914263528,0.0,70.0,255.0,255.0,255.0
223,11.15,4.194607477811955,4.93546744816954,-2.060669824807817,-0.05289044315373914,0.07497524325261296,-0.35590085741242117,-0.0032868096489835352,0.00771364929414986,-0.02831072288835834,0.0,70.0,255.0,255.0,255.0
224,11.200000000000001,4.191958903537578,4.939225954555896,-2.0785002829941615,-0.05304230650376773,0.07538544852693896,-0.35733204150333986,-0.002912600453797154,0.008468182959031623,-0.028848087185728843,0.0,70.0,255.0,255.0,255.0
225,11.25,4.189303247161578,4.943005993022234,-2.096403028958151,-0.05318170319911886,0.07582206154851612,-0.35878566613099405,-0.0028572003675009228,0.008648741712313779,-0.02912675648572005,0.0,70.0,255.0,255.0,255.0
226,11.3,4.186640733217666,4.946808160710748,-2.114378849607261,-0.053328026540517826,0.07625032269817034,-0.36024471715191186,-0.0031809535334659245,0.008144613580807203,-0.02905831726445207,0.0,70.0,255.0,255.0,255.0
227,11.350000000000001,4.183970444507526,4.950631025292051,-2.132427500673342,-0.05349979855246545,0.07663652290659684,-0.36169149785743926,-0.003778427263156914,0.007120876496280459,-0.028695860297345277,0.0,70.0,255.0,255.0,255.0
228,11.4,4.181290753362419,4.954471813001407,-2.150547999393005,-0.05370586926683352,0.07696241034779838,-0.3631143031816464,-0.0044495296434021725,0.005900198455499606,-0.028160485569816984,0.0,70.0,255.0,255.0,255.0
229,11.450000000000001,4.178599857580843,4.9583272663268305,-2.168738930991507,-0.05394475151680567,0.0772265427521468,-0.36450754641442096,-0.004986160621456293,0.004824168731953904,-0.027576179220778485,0.0,70.0,255.0,255.0,255.0
230,11.5,4.175896278210739,4.962194467276622,-2.186998754034447,-0.054204485328979146,0.07744482722099377,-0.36587192110372424,-0.0051776960694915886,0.0042371291830711755,-0.027056363893418478,0.0,70.0,255.0,255.0,255.0
231,11.55,4.173179409047945,4.96607174904893,-2.2053261231018793,-0.054462521123754826,0.07765025567045392,-0.3672131828037628,-0.00492037579657989,0.004316036157359093,-0.02667066969945786,0.0,70.0,255.0,255.0,255.0
232,11.600000000000001,4.170450026098363,4.9699594928436674,-2.223720072314823,-0.054696522908637135,0.07787643083672968,-0.36853898807367,-0.0043290131255702136,0.004915543244088383,-0.026447843532784177,0.0,70.0,255.0,255.0,255.0
233,11.65,4.167709756757081,4.973859392132603,-2.2421800219092463,-0.05489542243631185,0.07814180999486275,-0.3698579671570412,-0.003629663851700826,0.0057354403335097,-0.026411810357318544,0.0,70.0,255.0,255.0,255.0
234,11.700000000000001,4.164960483854732,4.977773673843154,-2.2607058690305273,-0.05505948929380722,0.07844997487008065,-0.3711801691094019,-0.0030493304861600734,0.006474769153186344,-0.026586683110751963,0.0,70.0,255.0,255.0,255.0
235,11.75,4.162203807827701,4.981704389619611,-2.2792980388201864,-0.055200355484927854,0.07878928691018139,-0.3725166354681164,-0.0028159780580239158,0.006826797499215331,-0.0270037786163968,0.0,70.0,255.0,255.0,255.0
236,11.8,4.159440448306239,4.985652602534172,-2.297957532577339,-0.05534108709960961,0.07913265462000219,-0.37388054697104156,-0.003044116707329181,0.006631894470654487,-0.027660029578324696,0.0,70.0,255.0,255.0,255.0
237,11.850000000000001,4.15666969911774,4.989617655081611,-2.3166860935172906,-0.05550476715566077,0.07945247635724684,-0.3752826384259489,-0.003620112310276369,0.006023290853907071,-0.02843192641046599,0.0,70.0,255.0,255.0,255.0
238,11.9,4.153889971590673,4.9935978501698965,-2.335485796419934,-0.055703098330637246,0.07973498370539289,-0.37672373961208816,-0.004317222875283022,0.00527086072263927,-0.02911143384047854,0.0,70.0,255.0,255.0,255.0
239,11.950000000000001,4.151099389284676,4.99759115345215,-2.3543584674784994,-0.055936489443189075,0.07997956242951076,-0.37819378180999674,-0.004909944006747935,0.004637127615403358,-0.029484827264347757,0.0,70.0,255.0,255.0,255.0
240,12.0,4.148296322646354,5.001595806412848,-2.3733051746009335,-0.05619409273131204,0.08019869646693323,-0.37967222233852294,-0.005174428993992564,0.0043876155521260785,-0.02933654028893784,0.0,70.0,255.0,255.0,255.0
241,12.05,4.145479980011545,5.005611023098844,-2.3923256897123517,-0.05645393234258833,0.08041832398472337,-0.3811274358388905,-0.004996583947658451,0.0046562461003318845,-0.028574899632705097,0.0,70.0,255.0,255.0,255.0
242,12.100000000000001,4.1426509294120955,5.00963763881132,-2.4114179181848225,-0.056693751126077885,0.08066432107696642,-0.38252971230179345,-0.0044759455588128105,0.00530588541485244,-0.02739069791148907,0.0,70.0,255.0,255.0,255.0
243,12.15,4.139810604898937,5.01367745520654,-2.430578660942531,-0.05690152689846961,0.08094891252620862,-0.38386650563003943,-0.0038160367213713187,0.006066524700809595,-0.02613788551610874,0.0,70.0,255.0,255.0,255.0
244,12.200000000000001,4.1369607767222485,5.017732530063941,-2.4498045687478265,-0.05707535479821502,0.08127097354704738,-0.3851435008534043,-0.003217466913429945,0.0066701469588537066,-0.02517955561742724,0.0,70.0,255.0,255.0,255.0
245,12.25,4.134103069419115,5.021804552561245,-2.4690930110278715,-0.05722327358981261,0.08161592722209399,-0.38638446119178216,-0.002870268670385201,0.006838777588757949,-0.024878032255859495,0.0,70.0,255.0,255.0,255.0
246,12.3,4.131238449363267,5.02589412278615,-2.4884430148670047,-0.05736238166525354,0.08195485130592317,-0.38763130407899027,-0.0028761209295069534,0.006436547701493822,-0.025407458138104744,0.0,70.0,255.0,255.0,255.0
247,12.350000000000001,4.12836683125259,5.0300000376918375,-2.5078561414357705,-0.0575108856827633,0.08225958199224337,-0.38892520700559263,-0.0031906975288542583,0.005638575411825997,-0.026555398493988136,0.0,70.0,255.0,255.0,255.0
248,12.4,4.125487360794991,5.034120080985375,-2.527335535567564,-0.05768145141813896,0.08251870884710577,-0.3902868439283891,-0.0037040381634767527,0.004777632548780275,-0.027906068383787286,0.0,70.0,255.0,255.0,255.0
249,12.450000000000001,4.122598686110776,5.038251908576548,-2.5468848258286094,-0.05788128949911098,0.0827373452471214,-0.39171581384397136,-0.0043069016261831905,0.00418214468913547,-0.0290376029461914,0.0,70.0,255.0,255.0,255.0
250,12.5,4.11969923184508,5.042393815510087,-2.566507116951961,-0.05811214158075728,0.08293692331601932,-0.3931906042230082,-0.004908505648693051,0.004189208824367796,-0.02953137730781208,0.0,70.0,255.0,255.0,255.0
251,12.55,4.1167874719527005,5.04654560090815,-2.5862038862509102,-0.05837214006398028,0.08315626612955818,-0.39466895157475257,-0.005446158441824167,0.004957936054150736,-0.029175407675330334,0.0,70.0,255.0,255.0,255.0
252,12.600000000000001,4.113862017838682,5.0507094421230425,-2.6059740121094364,-0.0586567574249397,0.08343271692143439,-0.39610814499054126,-0.005844900689933041,0.006252633450642975,-0.02815852396347296,0.0,70.0,255.0,255.0,255.0
253,12.65,4.1109217962102065,5.054888872600293,-2.6258147007499644,-0.058956630132973586,0.08378152947462247,-0.39748480397109986,-0.006003335100146501,0.007629285430610366,-0.02686702509793193,0.0,70.0,255.0,255.0,255.0
254,12.700000000000001,4.107966354825384,5.059087595070505,-2.6457224925065463,-0.05925709093495435,0.08419564546449543,-0.39879484750033445,-0.005822152688494953,0.008648640252317819,-0.025689892737856823,0.0,70.0,255.0,255.0,255.0
255,12.75,4.104996087116711,5.063308437146743,-2.665694185499998,-0.05953884540182308,0.08464639349985426,-0.40005379324488555,-0.005191746030419608,0.00888047102911571,-0.025016411892542223,0.0,70.0,255.0,255.0,255.0
256,12.8,4.102012470285202,5.06755223442049,-2.685727871831035,-0.05977626553799631,0.085083692567407,-0.40129648868958867,-0.004084420128247501,0.008117535587892633,-0.025050258479586418,0.0,70.0,255.0,255.0,255.0
257,12.850000000000001,4.099018460562911,5.071816806403484,-2.7058238343689567,-0.05994728741464783,0.08545814705864352,-0.4025588190928442,-0.0027123104345605498,0.0066025457977403335,-0.025641461363345996,0.0,70.0,255.0,255.0,255.0
258,12.9,4.096017741543737,5.0760980491263545,-2.7259837537403193,-0.060047496581452364,0.08574394714718103,-0.40386063482592327,-0.0014425281964491887,0.004815249038525593,-0.026475714674667472,0.0,70.0,255.0,255.0,255.0
259,12.950000000000001,4.093013710904766,5.080391201118202,-2.746209897851549,-0.06009154023429275,0.08593967196249608,-0.40520639056031094,-0.0006495225848723862,0.003242128800273747,-0.02724245314182916,0.0,70.0,255.0,255.0,255.0
260,13.0,4.090008587520308,5.084692016322604,-2.7665043927963504,-0.0601124488399396,0.0860681600272084,-0.4065848801401062,-0.000708472933208526,0.002352869762756171,-0.027627031065513563,0.0,70.0,255.0,255.0,255.0
261,13.05,4.087002466020772,5.088998017120923,-2.7868683858655596,-0.0601623875276136,0.0861749589387717,-0.4079690936668623,-0.0017842729324257789,0.002391781734711884,-0.027464211087080415,0.0,70.0,255.0,255.0,255.0
262,13.100000000000001,4.083992348767547,5.093309512216481,-2.8073013021630366,-0.06029087613318218,0.0863073382006796,-0.4093313012488142,-0.0035751349612311856,0.0032036635454701923,-0.026881970910208608,0.0,70.0,255.0,255.0,255.0
263,13.15,4.080973378407454,5.0976287509409905,-2.827801515990441,-0.06051990102373672,0.08649532529331871,-0.41065729075788315,-0.005514757243307855,0.0044432382282799665,-0.02614293671614476,0.0,70.0,255.0,255.0,255.0
264,13.200000000000001,4.077940358665173,5.101959044745813,-2.848367031238825,-0.060842351857512966,0.08675166202350759,-0.4119455949204287,-0.0070214352939856894,0.005756271119583545,-0.0255006676546099,0.0,70.0,255.0,255.0,255.0
265,13.25,4.074889143221703,5.106303917143341,-2.868996075482484,-0.06122204455313529,0.08707095240527707,-0.41320735752334414,-0.007510399532595358,0.006792059243831972,-0.025207398577098417,0.0,70.0,255.0,255.0,255.0
266,13.3,4.0718181542098595,5.110666139986341,-2.8896877669911594,-0.0615933918107725,0.08743086794789079,-0.41446633477813855,-0.006698115181258402,0.007350302508779549,-0.025392757312348024,0.0,70.0,255.0,255.0,255.0
267,13.350000000000001,4.0687298040406255,5.11504700393813,-2.9104427089602978,-0.06189185607126113,0.08780598265615502,-0.41574663325457895,-0.004922441095533969,0.007471005148751431,-0.025945247071090805,0.0,70.0,255.0,255.0,255.0
268,13.4,4.065628968602733,5.119446738251956,-2.9312624303166173,-0.0620856359203259,0.08817796846276593,-0.4170608594852476,-0.0028439906158084227,0.007281075437504114,-0.026637946385710265,0.0,70.0,255.0,255.0,255.0
269,13.450000000000001,4.062521240448593,5.123864800784407,-2.9521487949088225,-0.06217625513284197,0.08853409019990544,-0.41841042789314997,-0.001130656985459666,0.0069008986098850755,-0.027248302812576952,0.0,70.0,255.0,255.0,255.0
270,13.5,4.059411343089449,5.128300147271947,-2.9731034731059323,-0.062198701618871866,0.08886805832375444,-0.4197856897665053,-0.00045384502058709586,0.006462855965505554,-0.02755941192247313,0.0,70.0,255.0,255.0,255.0
271,13.55,4.056301370286706,5.132751606616782,-2.994127363885473,-0.06222163963490068,0.08918037579645599,-0.4211663690853973,-0.0011496999086091364,0.0060520431947708175,-0.027458186237172555,0.0,70.0,255.0,255.0,255.0
272,13.600000000000001,4.053189179125959,5.1372181848515925,-3.015220110014472,-0.06231367160973278,0.08947326264323152,-0.4225315083902226,-0.00287887688017463,0.005672222619690359,-0.027022448731006676,0.0,70.0,255.0,255.0,255.0
273,13.65,4.050070003125732,5.141698932881106,-3.0363805147244953,-0.06250952732291815,0.08974759805842503,-0.42386861395849795,-0.004965504069875948,0.005315070744238426,-0.026419869815397234,0.0,70.0,255.0,255.0,255.0
274,13.700000000000001,4.046938226393667,5.146192944657435,-3.057606971410322,-0.06281022201672037,0.09000476971765536,-0.4251734953717623,-0.006736216484792834,0.004992022552841036,-0.02581940780799208,0.0,70.0,255.0,255.0,255.0
275,13.75,4.04378898092406,5.150699409852871,-3.0788978642616716,-0.06318314897139743,0.09024680031370913,-0.42645055473929716,-0.007522332273257604,0.004704582162151638,-0.02539094440923151,0.0,70.0,255.0,255.0,255.0
276,13.8,4.0406199114965275,5.155217624688806,-3.1002520268842515,-0.06356245524404613,0.09047522793387053,-0.42771258981268545,-0.006983364904300515,0.004454951285115527,-0.025227271631811377,0.0,70.0,255.0,255.0,255.0
277,13.850000000000001,4.037432735399656,5.159746932646258,-3.12166912324294,-0.06388148546182748,0.09069229544222068,-0.4289732819024783,-0.005418275159829733,0.004277400410046539,-0.02528132164143493,0.0,70.0,255.0,255.0,255.0
278,13.9,4.034231762950345,5.164286854233028,-3.1431493550744993,-0.06410428276002911,0.09090296797487518,-0.43024072197682894,-0.0034377693288512035,0.004221345548227617,-0.025447049877369565,0.0,70.0,255.0,255.0,255.0
279,13.950000000000001,4.031022307123653,5.168837229443746,-3.164693195440623,-0.0642252623947126,0.09111442999704344,-0.43151798689021525,-0.001650910641792791,0.004324297891855622,-0.025620266421144677,0.0,70.0,255.0,255.0,255.0
280,14.0,4.0278092367108735,5.173398297232732,-3.186301153763521,-0.06426937382420839,0.09133539776406074,-0.4328027486189434,-0.0006607419696713634,0.004622778090457302,-0.025684829088534755,0.0,70.0,255.0,255.0,255.0
281,14.05,4.024595369741232,5.177970769220152,-3.2079734703025173,-0.06429133659167974,0.09157670780608917,-0.43408646979906873,-0.000782761220197159,0.005122464018647577,-0.025579953343424222,0.0,70.0,255.0,255.0,255.0
282,14.100000000000001,4.021380103051706,5.182555968013341,-3.2297098007434277,-0.0643476499462281,0.0918476441659255,-0.43536074395328583,-0.001793570266528377,0.0057373365785373664,-0.02537319710427255,0.0,70.0,255.0,255.0,255.0
283,14.15,4.018160604746609,5.187155533636744,-3.251509544697846,-0.06447069361833258,0.09215044146394291,-0.436623789509496,-0.0032187099899161353,0.006318707902952525,-0.025190159113019917,0.0,70.0,255.0,255.0,255.0
284,14.200000000000001,4.014933033689872,5.191771012159736,-3.2733721796943773,-0.06466952094521972,0.09247951495622075,-0.4378797598645878,-0.004586481274060361,0.00671181152167577,-0.025146612754278763,0.0,70.0,255.0,255.0,255.0
285,14.25,4.011693652652087,5.196403485132366,-3.2952975206843047,-0.06492934174573861,0.09282162261611049,-0.43913845078492386,-0.005422765115703498,0.006760296151142597,-0.025365683292344343,0.0,70.0,255.0,255.0,255.0
286,14.3,4.0084400995152984,5.201053174421347,-3.3172860247728697,-0.06521179745679007,0.09315554457133501,-0.44041632819382226,-0.00547346900328094,0.006394679818910731,-0.025900001242140647,0.0,70.0,255.0,255.0,255.0
287,14.350000000000001,4.005172472906408,5.2057190395895,-3.339339153503687,-0.0654766886460667,0.09346109059800156,-0.4417284509091379,-0.004897420464722302,0.005737728800880859,-0.02662411838008083,0.0,70.0,255.0,255.0,255.0
288,14.4,4.001892430650692,5.210399283481147,-3.3614588698637835,-0.0657015395032623,0.0937293174514231,-0.44307874003183034,-0.004035735699492449,0.005020186477100452,-0.027313246070770347,0.0,70.0,255.0,255.0,255.0
289,14.450000000000001,3.998602318956082,5.215091971334642,-3.38364702750687,-0.06588026221601595,0.0939631092457116,-0.44445977551621496,-0.003217336755989564,0.004481229914077289,-0.02774722195537649,0.0,70.0,255.0,255.0,255.0
290,14.5,3.99530440442909,5.219795594405718,-3.405904847415405,-0.06602327317886125,0.09417744044283083,-0.445853462227368,-0.0027721136511171807,0.004372027980004134,-0.027712484362307777,0.0,70.0,255.0,255.0,255.0
291,14.55,3.991999991638196,5.224509715378925,-3.4282323737296068,-0.06615747358112767,0.09440031204371202,-0.44723102395244574,-0.0028759967992897373,0.004812103419116198,-0.027112442620680355,0.0,70.0,255.0,255.0,255.0
292,14.600000000000001,3.9886886570709774,5.229235625610089,-3.4506279498106496,-0.06631087285879023,0.09465865078474245,-0.448564706489436,-0.0034104075486318663,0.005626340293307663,-0.026096576461709375,0.0,70.0,255.0,255.0,255.0
293,14.65,3.985368904352317,5.2339755804573995,-3.4730888443785504,-0.06649851433599085,0.09496294607304279,-0.4498406815986167,-0.004125526699416682,0.00648595411396613,-0.02495228783909731,0.0,70.0,255.0,255.0,255.0
294,14.700000000000001,3.9820388056373783,5.238731920217393,-3.4956120179705112,-0.0667234255287319,0.09530724619613906,-0.45105993527334576,-0.004783798741803125,0.007063408682572714,-0.023976760496458027,0.0,70.0,255.0,255.0,255.0
295,14.75,3.9786965617994436,5.243506305077013,-3.518194837905885,-0.06697689421017117,0.09566928694130006,-0.4522383576482625,-0.0051568455475159425,0.00701965719658304,-0.023464379258530954,0.0,70.0,255.0,255.0,255.0
296,14.8,3.975341116216361,5.248298848911523,-3.5408358537353375,-0.06723911008348349,0.09600921191579737,-0.45340637319919885,-0.0051226836593532,0.006196533543256777,-0.02356351498868925,0.0,70.0,255.0,255.0,255.0
297,14.850000000000001,3.9719726507910953,5.253107226268593,-3.563535475225805,-0.06748916257610649,0.09628894029562574,-0.4545947091471314,-0.004746357266505186,0.004844089513067473,-0.02414146388520777,0.0,70.0,255.0,255.0,255.0
298,14.9,3.9685921999587506,5.257927742941086,-3.5862953246500506,-0.06771374581013401,0.09649362086710411,-0.45582051958771963,-0.00417674957780001,0.0034296567408276246,-0.024925714460932724,0.0,70.0,255.0,255.0,255.0
299,14.950000000000001,3.965201276210082,5.262756588355304,-3.609117527184577,-0.06790683753388649,0.0966319059697085,-0.4570872805932247,-0.003560754989884174,0.0024177693892291074,-0.025639162631874157,0.0,70.0,255.0,255.0,255.0
300,15.0,3.961801516205362,5.267590933538057,-3.632004052709373,-0.06806982130912242,0.09673539780602702,-0.45838443585090705,-0.0030364948344185905,0.002273259317941978,-0.026002026575211445,0.0,70.0,255.0,255.0,255.0
301,15.05,3.9583942940791697,5.272430128135906,-3.6549559707696675,-0.06821048701732835,0.0968592319015027,-0.4596874832507458,-0.0026860424561014895,0.0032159349009575067,-0.025867436818538536,0.0,70.0,255.0,255.0,255.0
302,15.100000000000001,3.954980467503629,5.277276856728207,-3.6779728010344477,-0.06833842555473257,0.09705699129612277,-0.4609711795327609,-0.002520527022031871,0.004945646642973145,-0.025343908324026998,0.0,70.0,255.0,255.0,255.0
303,15.15,3.9515604515236964,5.282135827265519,-3.7010530887229436,-0.06846253971953153,0.09735379656580001,-0.4622218740831485,-0.0025319505138732268,0.006885395612954426,-0.024657674830219634,0.0,70.0,255.0,255.0,255.0
304,15.200000000000001,3.948134213531676,5.287012236384787,-3.7241949884427625,-0.0685916206061199,0.09774553085741822,-0.46343694701578286,-0.002712668477800051,0.008453392547913552,-0.024026961936440827,0.0,70.0,255.0,255.0,255.0
305,15.25,3.9447012894630844,5.29191038035126,-3.747396783424522,-0.06873380656731154,0.09819913582059137,-0.4646245702767926,-0.00305316579032322,0.00907537079992693,-0.023659449172308555,0.0,70.0,255.0,255.0,255.0
306,15.3,3.9412608328749448,5.296832149966846,-3.770657445470442,-0.06889693718515222,0.09865306793741091,-0.4658028919330137,-0.003534172157237947,0.008466067179480063,-0.023666597876736972,0.0,70.0,255.0,255.0,255.0
307,15.350000000000001,3.937811595744569,5.3017756871450015,-3.7939770726178232,-0.06908722378303533,0.09904574253853937,-0.4669912300644663,-0.004090695485148288,0.0069086152904240805,-0.02399749489314651,0.0,70.0,255.0,255.0,255.0
308,15.4,3.9343521104966412,5.3067367242207,-3.8173565684768884,-0.06930600673366705,0.09934392946645332,-0.46820264142232837,-0.004614609206310405,0.004974308592764487,-0.024528994144024097,0.0,70.0,255.0,255.0,255.0
309,15.450000000000001,3.9308809950712025,5.311710080091647,-3.840797336760056,-0.06954868470366637,0.09954317339781582,-0.4694441294788687,-0.004989596740134772,0.0032412944512394404,-0.025139702909404704,0.0,70.0,255.0,255.0,255.0
310,15.5,3.9273972420262746,5.316691041560482,-3.8643009814247753,-0.06980496640768052,0.09966805891157726,-0.47071661171326884,-0.005106832679580009,0.002281201538334443,-0.02572418605923943,0.0,70.0,255.0,255.0,255.0
311,15.55,3.9239004984304344,5.3216768859828045,-3.887868997931383,-0.07005936797162438,0.09977129355164926,-0.47201654808479265,-0.004916756094086594,0.00239243041466608,-0.026213397781527092,0.0,70.0,255.0,255.0,255.0
312,15.600000000000001,3.920391305229112,5.326668170915647,-3.9115026362332546,-0.07029664201708918,0.09990730195304387,-0.47333795149142155,-0.004481166562175787,0.0033654399810068014,-0.026549748467186163,0.0,70.0,255.0,255.0,255.0
313,15.65,3.9168708342287255,5.331667616178109,-3.935202793080525,-0.07050748462784195,0.10010783754974995,-0.47467152293151127,-0.003925976297258771,0.00475266139012831,-0.02666187306967771,0.0,70.0,255.0,255.0,255.0
314,15.700000000000001,3.913340556766328,5.336678954670622,-3.9589697885264057,-0.07068923964681506,0.1003825680920567,-0.4760041387983893,-0.003388431741724318,0.006107769973695554,-0.026481452533078098,0.0,70.0,255.0,255.0,255.0
315,15.75,3.909801910264044,5.341705872987315,-3.982803206960364,-0.07084632780201439,0.1007186145471195,-0.4773196681848191,-0.0030075221391090423,0.006987888315634905,-0.025939843886035874,0.0,70.0,255.0,255.0,255.0
316,15.8,3.9062559239861265,5.346750816125334,-4.006701755344888,-0.07098999186072597,0.10108135692362019,-0.4785981231869929,-0.0028582906455021373,0.007152089949169493,-0.02502498582241941,0.0,70.0,255.0,255.0,255.0
317,15.850000000000001,3.9027029110779714,5.351814008679677,-4.030663019279063,-0.0711321568665646,0.10143382354203645,-0.479822166767061,-0.0029010019028330447,0.006719601475335679,-0.023886121960980944,0.0,70.0,255.0,255.0,255.0
318,15.9,3.89914270829947,5.356894198479537,-4.054683972021594,-0.07128009205100927,0.10175331707115376,-0.480986735383091,-0.0030459611288335964,0.005963390835095339,-0.02278342033736891,0.0,70.0,255.0,255.0,255.0
319,15.950000000000001,3.8955749018728705,5.361989340386792,-4.078761692817372,-0.07143675297944796,0.10203016262554598,-0.4821005088007979,-0.003202876759411666,0.005148511434960312,-0.021986235210125216,0.0,70.0,255.0,255.0,255.0
320,16.0,3.8919990330015253,5.367097214742092,-4.1028940229016735,-0.07160037972695044,0.10226816821464979,-0.4831853589041035,-0.0032710974122718284,0.004543189255201696,-0.021752429072119384,0.0,70.0,255.0,255.0,255.0
321,16.05,3.8884148639001754,5.372216157208257,-4.127080228707783,-0.07176386272067514,0.10248448155106615,-0.48427575170800985,-0.0031973074307689586,0.004298044286787928,-0.022200971283314885,0.0,70.0,255.0,255.0,255.0
322,16.1,3.8848226467294578,5.3773456628971985,-4.1513215980724745,-0.07192011047002733,0.10269797264332858,-0.485405456032435,-0.0030357582273321526,0.004351585353301601,-0.023176812640102185,0.0,70.0,255.0,255.0,255.0
323,16.150000000000002,3.8812228528531727,5.38248595447259,-4.175620774311026,-0.07206743854340836,0.10291964008639631,-0.48659343297202007,-0.0028884076257451596,0.004560022356070448,-0.0243717183081138,0.0,70.0,255.0,255.0,255.0
324,16.2,3.877615902875117,5.387637626905838,-4.1999809413696765,-0.07220895123260185,0.10315397487893563,-0.4878426278632464,-0.0028471474678770647,0.004790585218827914,-0.025461345554145254,0.0,70.0,255.0,255.0,255.0
325,16.25,3.8740019577299125,5.392801351960483,-4.224405037097351,-0.07235215329019606,0.1033986986082791,-0.4891395675274346,-0.0030040322676061493,0.0048994012839642664,-0.026126430501172138,0.0,70.0,255.0,255.0,255.0
326,16.3,3.8703806875460973,5.397977496766666,-4.24889489812242,-0.07250935445936246,0.10364391500733205,-0.4904552709133636,-0.003399565878314803,0.004809672297323431,-0.026198355151585417,0.0,70.0,255.0,255.0,255.0
327,16.35,3.8667510222839763,5.403165743461217,-4.273450564188687,-0.07269210987802754,0.10387966583801145,-0.49175940304259314,-0.003954193626043434,0.004594989512529679,-0.025775671767735986,0.0,70.0,255.0,255.0,255.0
328,16.400000000000002,3.8631114765582946,5.408365463350467,-4.298070838426679,-0.0729047738219668,0.10410341395858502,-0.4930328380901372,-0.00452134076915911,0.0043947481789707865,-0.025079822980877964,0.0,70.0,255.0,255.0,255.0
329,16.45,3.8594605449017796,5.413576084857075,-4.322753847997701,-0.07314424395494346,0.10431914065590853,-0.49426738534068093,-0.004955759476343857,0.004336233936719225,-0.02433546882087967,0.0,70.0,255.0,255.0,255.0
330,16.5,3.8557970521628,5.418797377416058,-4.347497576960747,-0.07340034976960119,0.10453703735225695,-0.49546638497222517,-0.005120792165458354,0.004555149665019798,-0.02376982095038116,0.0,70.0,255.0,255.0,255.0
331,16.55,3.8521205099248195,5.424029788592301,-4.3723004864949235,-0.07365632317148929,0.1047746556224105,-0.49664436743571905,-0.004950629522237904,0.005110352770554272,-0.023511155895050706,0.0,70.0,255.0,255.0,255.0
332,16.6,3.8484314198456513,5.429274842978299,-4.397162013704319,-0.07389541272182498,0.10504807262931237,-0.49781750056173024,-0.004511942793028467,0.00586668503528287,-0.023515931524631384,0.0,70.0,255.0,255.0,255.0
333,16.650000000000002,3.844730968652637,5.434534595855232,-4.422082236551097,-0.07410751745079214,0.1053613241259388,-0.4989959605881822,-0.003942592934214062,0.006581917328674081,-0.023675236855336124,0.0,70.0,255.0,255.0,255.0
334,16.7,3.841020668100572,5.439810975390893,-4.4470616097631375,-0.07428967201524639,0.10570626436217978,-0.5001850242472639,-0.003389301806011602,0.007018418427406914,-0.023889180094815998,0.0,70.0,255.0,255.0,255.0
335,16.75,3.8373020014511123,5.44510522229145,-4.472100738975823,-0.0744464476313933,0.10606316596867948,-0.5013848785976638,-0.0030008177183571405,0.006940046677073042,-0.024054332316758575,0.0,70.0,255.0,255.0,255.0
336,16.8,3.8335760233374327,5.450417291987761,-4.497200097622904,-0.0745897537870821,0.10640026902988708,-0.5025904574789397,-0.0028574032122197224,0.0062413175532682885,-0.024110960662326875,0.0,70.0,255.0,255.0,255.0
337,16.85,3.829843026072404,5.455745249194439,-4.522359784723717,-0.07473218795261527,0.10668729772400631,-0.5037959746638965,-0.002914398838349541,0.005104517432297229,-0.02408153453510309,0.0,70.0,255.0,255.0,255.0
338,16.900000000000002,3.826102804542171,5.461086021760162,-4.5475796950892935,-0.07488119367091706,0.10691072077311681,-0.50499861093245,-0.003072763018518998,0.00387301374118465,-0.02401745803570776,0.0,70.0,255.0,255.0,255.0
339,16.95,3.8223549067053124,5.46643632127175,-4.572859645816962,-0.07503946425446717,0.10707459909812478,-0.5061977204674672,-0.0032332337656093557,0.002895640138955713,-0.023961610333600447,0.0,70.0,255.0,255.0,255.0
340,17.0,3.8185988581167245,5.471793481669974,-4.59819946713604,-0.07520451704747799,0.10720028478701238,-0.5073947719658101,-0.0032839556091346367,0.0025126356556270935,-0.023960821810664612,0.0,70.0,255.0,255.0,255.0
341,17.05,3.8148344550005646,5.477156349750452,-4.623599123013543,-0.07536785981538063,0.10732586266368749,-0.5085938026485337,-0.003166983736058171,0.0028914632627774495,-0.024038288168348743,0.0,70.0,255.0,255.0,255.0
342,17.1,3.8110620721351864,5.482526067936343,-4.649058847400894,-0.07552121542108381,0.10748943111329012,-0.5097986007826449,-0.002951394254591122,0.0038653617850492594,-0.024157930335100275,0.0,70.0,255.0,255.0,255.0
343,17.150000000000002,3.8072823334584562,5.487905292861781,-4.674578983091807,-0.07566299924083975,0.10771239884219241,-0.5110095956820437,-0.002764583430048262,0.005095071996574774,-0.02425493100250975,0.0,70.0,255.0,255.0,255.0
344,17.2,3.8034957722111025,5.493297307820562,-4.700159806969098,-0.07579767376408864,0.1079989383129476,-0.5122240938828959,-0.002724849378354932,0.0062329604108235515,-0.024271091857386295,0.0,70.0,255.0,255.0,255.0
345,17.25,3.7997025660820474,5.498705186693075,-4.725801392480097,-0.07593548417867524,0.10833569488327477,-0.5134367048677824,-0.0029593039010844535,0.006937429348408131,-0.024154408412613293,0.0,70.0,255.0,255.0,255.0
346,17.3,3.795902223793235,5.5041308773088895,-4.751503477455876,-0.07609360415419708,0.10869268124778841,-0.5146395347241572,-0.0035217480911953203,0.007026768789497595,-0.023882087129845075,0.0,70.0,255.0,255.0,255.0
347,17.35,3.7920932056666277,5.509574454817854,-4.777265345952513,-0.07628765898779477,0.10903837176222453,-0.5158249135807669,-0.004278252581579878,0.006603079716249738,-0.02348851568587662,0.0,70.0,255.0,255.0,255.0
348,17.400000000000002,3.7882734578944555,5.515034714485112,-4.803085968813953,-0.07652142941235507,0.10935298921941339,-0.5169883862927449,-0.0049898356615951656,0.005896814823014296,-0.02304188555379838,0.0,70.0,255.0,255.0,255.0
349,17.45,3.784441062725392,5.520509753739796,-4.828964184581787,-0.07678664255395429,0.10962805324452596,-0.5181291021361467,-0.005421308114428314,0.005139604464776681,-0.02261350941630269,0.0,70.0,255.0,255.0,255.0
350,17.5,3.78059479363906,5.5259975198095646,-4.854898879027568,-0.0770635602237979,0.10986694966589106,-0.5192497372343752,-0.005338875406790677,0.0045656189778142675,-0.02226555386295459,0.0,70.0,255.0,255.0,255.0
351,17.55,3.7767347067030124,5.531496448706385,-4.880889158305225,-0.07732053009463336,0.11008461514230738,-0.5203556575224422,-0.004638424832048571,0.004307009365067671,-0.02203336331216832,0.0,70.0,255.0,255.0,255.0
352,17.6,3.7728627406295967,5.537005981323795,-4.906934444779812,-0.07752740270700276,0.11029765060239782,-0.521453073565592,-0.0035018425055266533,0.004317750586046998,-0.02192530295896944,0.0,70.0,255.0,255.0,255.0
353,17.650000000000002,3.768981966432312,5.5425262137666245,-4.933034465661784,-0.07767071434518602,0.11051639020091208,-0.5225481878183391,-0.00227150515899055,0.004483915797504068,-0.021940230745975953,0.0,70.0,255.0,255.0,255.0
354,17.7,3.765095669195078,5.5480576203438865,-4.959189263561646,-0.07775455322290181,0.11074604218214823,-0.5236470966401896,-0.0012954659492692144,0.004701022662256804,-0.02206815719061339,0.0,70.0,255.0,255.0,255.0
355,17.75,3.761206511110022,5.553600817984839,-4.985399175325803,-0.07780026094011294,0.11098649246713777,-0.5247550035374005,-0.0009131664995720712,0.00486014136011903,-0.022287338838289372,0.0,70.0,255.0,255.0,255.0
356,17.8,3.757315643101067,5.5591562695906,-5.011664763915386,-0.07784586987285902,0.11123205631816013,-0.5258758305240185,-0.0012916388276718038,0.004899133144409262,-0.022578771975645395,0.0,70.0,255.0,255.0,255.0
357,17.85,3.753421924122736,5.564724023616655,-5.037986758378205,-0.07792942482288012,0.11147640578157869,-0.527012880734965,-0.002264493946535495,0.004846850340989306,-0.02292943331854147,0.0,70.0,255.0,255.0,255.0
358,17.900000000000002,3.749522700618779,5.570303910168758,-5.064366051988882,-0.07807231926751257,0.11171674135225906,-0.5281687738558727,-0.003493187991665536,0.004765750425672621,-0.023316352301350207,0.0,70.0,255.0,255.0,255.0
359,17.95,3.7456146921959848,5.575895697751881,-5.090803635763792,-0.07827874362204668,0.11195298082414595,-0.5293445159651,-0.004630767482405318,0.004710104419292094,-0.023708174174963403,0.0,70.0,255.0,255.0,255.0
360,18.0,3.741694826256574,5.581499208251173,-5.117300503585392,-0.0785353960157531,0.11218775179418827,-0.530539591273369,-0.00533647724303421,0.004741787608963932,-0.024089053487497125,0.0,70.0,255.0,255.0,255.0
361,18.05,3.7377611525944094,5.5871144729313,-5.143857594891129,-0.0788123913463501,0.11242715958504235,-0.5317534213138497,-0.00542895925130793,0.00488974477139692,-0.024444835498993456,0.0,70.0,255.0,255.0,255.0
362,18.1,3.733813587121939,5.592741924209677,-5.170475845716777,-0.0790782919408839,0.11267672627132796,-0.5329840748232684,-0.005009225997065769,0.005094848050202216,-0.024719667730188633,0.0,70.0,255.0,255.0,255.0
363,18.150000000000002,3.729853323400321,5.598382145558433,-5.197156002373456,-0.07931331394605667,0.11293664439006257,-0.5342253880868686,-0.004305859424169611,0.005253082499656614,-0.024831656084955966,0.0,70.0,255.0,255.0,255.0
364,18.2,3.7258822557273334,5.604035588648683,-5.223898384525464,-0.07950887788330085,0.11320203452129363,-0.535467240431764,-0.0035485503683485575,0.00526527294635315,-0.02471257268270577,0.0,70.0,255.0,255.0,255.0
365,18.25,3.721902435611991,5.609702349010562,-5.250702726416632,-0.07966816898289153,0.11346317168469788,-0.5366966453551392,-0.00296889655664323,0.00502473617585153,-0.024304512480011198,0.0,70.0,255.0,255.0,255.0
366,18.3,3.7179154388290443,5.615381905817153,-5.277568049060978,-0.07980576753896518,0.11370450813887878,-0.5378976916797651,-0.0026980719526559227,0.004488088237231125,-0.02359377414062891,0.0,70.0,255.0,255.0,255.0
367,18.35,3.7139218588580944,5.62107279982445,-5.304492495584609,-0.07993797617815712,0.113911980508421,-0.5390560227692021,-0.002694033300398857,0.0037755290194674274,-0.022674506483610912,0.0,70.0,255.0,255.0,255.0
368,18.400000000000002,3.7099216412112286,5.626773103867995,-5.331473651337898,-0.08007517086900506,0.11408206104082552,-0.5401651423281262,-0.002849621397604807,0.0031009871751308538,-0.021716930118387268,0.0,70.0,255.0,255.0,255.0
369,18.45,3.705914341771194,5.632481005928533,-5.358509009817421,-0.0802229383179176,0.11422207922593408,-0.5412277157810408,-0.0030674319763779323,0.002674864402241184,-0.020899996633083617,0.0,70.0,255.0,255.0,255.0
370,18.5,3.701899347379437,5.6381953117905885,-5.385596422916002,-0.08038191406664286,0.11434954748104964,-0.5422551419914345,-0.0032479831507448154,0.0026992210667486916,-0.020380915240281183,0.0,70.0,255.0,255.0,255.0
371,18.55,3.6978761503645297,5.643915960676638,-5.412734524016565,-0.08054773663299208,0.11449200133260895,-0.5432658073050689,-0.003332692332280729,0.003265501346660926,-0.020240580758823512,0.0,70.0,255.0,255.0,255.0
372,18.6,3.6938445737161376,5.649644511923849,-5.439923003646509,-0.08071518329987093,0.11467609761571573,-0.5442792000673169,-0.0033355732023121476,0.004236788785672019,-0.020455126848606398,0.0,70.0,255.0,255.0,255.0
373,18.650000000000002,3.6898046320345426,5.655383570438209,-5.467162444023296,-0.0808812939532233,0.11491568021117615,-0.5453113199899295,-0.003293883423483024,0.005347537565114635,-0.020946963767531912,0.0,70.0,255.0,255.0,255.0
374,18.7,3.6857564443208153,5.661136079944967,-5.494454135645502,-0.08104457164221923,0.1152108513722272,-0.5463738964440701,-0.003235521259847829,0.0063230083732435105,-0.021621240318570045,0.0,70.0,255.0,255.0,255.0
375,18.75,3.6817001748703206,5.666904655575432,-5.521799833667703,-0.08120484607920808,0.1155479810485005,-0.5474734440217865,-0.0031871428685104064,0.006898379556030676,-0.022387770614518132,0.0,70.0,255.0,255.0,255.0
376,18.8,3.6776359597128945,5.672690878049817,-5.549201480047681,-0.08136328592907027,0.11590068932783026,-0.5486126735055219,-0.0031644454314694315,0.006936619661690457,-0.023178727998995896,0.0,70.0,255.0,255.0,255.0
377,18.85,3.6735638462774136,5.678494724508215,-5.576661101018256,-0.08152129062235502,0.11624164301466955,-0.5497913168216861,-0.003163673890460572,0.006525427726256083,-0.023907783325416432,0.0,70.0,255.0,255.0,255.0
378,18.900000000000002,3.669483830650659,5.684315042351284,-5.604180611729849,-0.08167965331811633,0.11655323210045587,-0.5510034518380635,-0.003174844908615526,0.005860750677477711,-0.0244499001263776,0.0,70.0,255.0,255.0,255.0
379,18.95,3.665395880945602,5.6901500477182605,-5.631761446202062,-0.08183877511321658,0.11682771808241732,-0.5522363068343239,-0.003190482984027909,0.005146388818833003,-0.024676580554228167,0.0,70.0,255.0,255.0,255.0
380,19.0,3.6612999531393373,5.695997814159526,-5.659404242413282,-0.08199870161651912,0.11706787098233917,-0.5534711098934864,-0.003203445375055125,0.004587260708088792,-0.024468002300714886,0.0,70.0,255.0,255.0,255.0
381,19.05,3.65719601078395,5.701856834816494,-5.687108557191411,-0.08215911965072209,0.1172864441532262,-0.5546831070643954,-0.003209525941816338,0.004300281077718182,-0.02378296878315922,0.0,70.0,255.0,255.0,255.0
382,19.1,3.653084041174265,5.707726458574848,-5.714872553119721,-0.08231965421070075,0.11749789909011099,-0.5558494067718023,-0.0032097312360424013,0.004256931544954767,-0.02275905453608118,0.0,70.0,255.0,255.0,255.0
383,19.150000000000002,3.64896404536288,5.7136066247255055,-5.742693497868591,-0.08248009277432633,0.11771213730772168,-0.5569590125180035,-0.0032067369424737535,0.004375706812265179,-0.02165063852466176,0.0,70.0,255.0,255.0,255.0
384,19.200000000000003,3.6448360318968325,5.719497672305621,-5.770568454371522,-0.08264032790494813,0.11793546977133751,-0.5580144706242685,-0.0032025468037044647,0.004583837284233283,-0.020730899002785463,0.0,70.0,255.0,255.0,255.0
385,19.25,3.640700012572385,5.725400171702639,-5.798494944931018,-0.08280034745469678,0.118170521036145,-0.559032102418282,-0.003199075630799797,0.004812624230954299,-0.020272248154018513,0.0,70.0,255.0,255.0,255.0
386,19.3,3.636555997151363,5.731314724409235,-5.82647166461335,-0.08296023546802811,0.11841673219443294,-0.5600416954396703,-0.003197450801506463,0.005016195420992631,-0.020409396868092955,0.0,70.0,255.0,255.0,255.0
387,19.35,3.6324039890255824,5.737241844922083,-5.854499114474985,-0.08312009253484742,0.11867214057824427,-0.5610730421050913,-0.003197401165699887,0.005167778495529518,-0.021007886642809837,0.0,70.0,255.0,255.0,255.0
388,19.400000000000002,3.628243987897878,5.7431819384670595,-5.882578968823859,-0.0832799755845981,0.11893351004398589,-0.5621424841039513,-0.003198207321863933,0.005234650512342398,-0.021795657662959655,0.0,70.0,255.0,255.0,255.0
389,19.450000000000003,3.6240759914671226,5.749135195926481,-5.91071336288538,-0.08343991326703382,0.11919560562947851,-0.5632526078713873,-0.0031993298009957982,0.005178774864234015,-0.02249325000782676,0.0,70.0,255.0,255.0,255.0
390,19.5,3.6198999965711747,5.755101499030007,-5.938904229610998,-0.08359990856469768,0.11945138753040929,-0.564391809104734,-0.003200252101187573,0.004962242367767544,-0.022815033055945122,0.0,70.0,255.0,255.0,255.0
391,19.55,3.615716000610653,5.761080334679522,-5.967152543795853,-0.08375993847715257,0.11969182986625526,-0.5655341111769818,-0.0032006708520881944,0.004574424418191114,-0.02261338313829242,0.0,70.0,255.0,255.0,255.0
392,19.6,3.6115240027234594,5.767070682016633,-5.995457640728696,-0.0839199756499065,0.1199088299722284,-0.5666531474185632,-0.0032006641013548887,0.0040737260347256665,-0.022015739218339547,0.0,70.0,255.0,255.0,255.0
393,19.650000000000002,3.607324003045662,5.773071217676745,-6.02381785853771,-0.08408000488728806,0.12009920246972783,-0.5677356850988158,-0.003200433769912081,0.0035647587371734346,-0.021279551336217395,0.0,70.0,255.0,255.0,255.0
394,19.700000000000003,3.6031160022347306,5.779080602263606,-6.0522312092385775,-0.0842400190268977,0.12026530584594575,-0.568781102552185,-0.003200133992375953,0.0031538371513484265,-0.020656473926816687,0.0,70.0,255.0,255.0,255.0
395,19.75,3.5989000011429724,5.7850977482613395,-6.080695968792928,-0.08440001828652566,0.12041458618486267,-0.5698013324914974,-0.0031999159648687936,0.0029303876500463844,-0.020399554354089133,0.0,70.0,255.0,255.0,255.0
396,19.8,3.594676000406078,5.791122060882092,-6.109211342487727,-0.08456001062338458,0.12055834461095039,-0.5708210579875939,-0.003199865789893508,0.002939906440158069,-0.02063693071834294,0.0,70.0,255.0,255.0,255.0
397,19.85,3.590444000080634,5.7971535827224345,-6.1377780745916874,-0.08472000486551501,0.12070857682887848,-0.5718650255633317,-0.00319994242850008,0.0031728418413479176,-0.021243748558763542,0.0,70.0,255.0,255.0,255.0
398,19.900000000000002,3.5862039999195265,5.80319291856498,-6.16639784504406,-0.08488000486623459,0.12087562879508518,-0.5729454328434702,-0.0032000575985957624,0.0035899509032155663,-0.021971544916876695,0.0,70.0,255.0,255.0,255.0
399,19.950000000000003,3.5819559995940105,5.809241145601943,-6.1950726178760345,-0.08504001062537458,0.12106757191920003,-0.5740621800550194,-0.0032001342299636804,0.004139676063630304,-0.022574280858389528,0.0,70.0,255.0,255.0,255.0
400,20.0,3.577699998856989,5.8152996757569,-6.223804063049562,-0.08520001828923096,0.12128959640144821,-0.5752028609293092,-0.0032000840392676366,0.0047761604108131905,-0.0228027868245384,0.0,70.0,255.0,255.0,255.0
401,20.05,3.5734359977650874,5.821370105242088,-6.252592903968965,-0.08536001902930135,0.12154518796028135,-0.5763424587374733,-0.00319986598777966,0.005460262175738251,-0.022532320561641228,0.0,70.0,255.0,255.0,255.0
402,20.1,3.569163996954059,5.827454194552928,-6.28143830892331,-0.08552000488800893,0.12183562261902203,-0.5774560929854733,-0.00319956618439754,0.006116771402542298,-0.02189467447148985,0.0,70.0,255.0,255.0,255.0
403,20.150000000000002,3.5648839972762865,5.83355366750399,-6.310338513267513,-0.0856799756477411,0.12215686510053558,-0.5785319261846222,-0.0031993358360349333,0.0066318945265209095,-0.021148861070763303,0.0,70.0,255.0,255.0,255.0
404,20.200000000000003,3.560595999389285,5.8396698810629815,-6.339291501541772,-0.08583993847161242,0.12249881207167412,-0.5795709790925496,-0.0031993290885878878,0.006895197521572527,-0.020552976066934292,0.0,70.0,255.0,255.0,255.0
405,20.25,3.5563000034291252,5.8458035487111575,-6.368295611176768,-0.08599990855659989,0.12284638485269284,-0.5805872237913157,-0.0031997478782130884,0.006816998677994235,-0.020373261050998792,0.0,70.0,255.0,255.0,255.0
406,20.3,3.551996008533625,5.851954519548251,-6.3973502239209035,-0.08615991325943373,0.12318051193947355,-0.5816083051976495,-0.003200670258296512,0.0063642196820978825,-0.020740360460980156,0.0,70.0,255.0,255.0,255.0
407,20.35,3.547684012103182,5.858121599905105,-6.426456441696533,-0.08631997558242954,0.12348280682090262,-0.5826612598374137,-0.0032017928333072376,0.005605387234641768,-0.02149214563038626,0.0,70.0,255.0,255.0,255.0
408,20.400000000000002,3.543364010975382,5.864302800230341,-6.455616349904645,-0.08648009254276445,0.12374105066293772,-0.5837575197606881,-0.0032025990576389773,0.004679673788032801,-0.022318418726285927,0.0,70.0,255.0,255.0,255.0
409,20.450000000000003,3.5390360028489054,5.870495704971399,-6.484832193672601,-0.08664023548819344,0.1239507741997059,-0.5848931017100423,-0.003202549416503331,0.003744708674791042,-0.022913954734349318,0.0,70.0,255.0,255.0,255.0
410,20.5,3.5346999874265626,5.876697877650312,-6.514105660075649,-0.08680034748441479,0.12411552153041683,-0.5860489152341231,-0.003200924447632758,0.002939900820830843,-0.022972234238327616,0.0,70.0,255.0,255.0,255.0
411,20.55,3.530355968100464,5.88290725712444,-6.543437085196014,-0.08696032793295672,0.12424476428178899,-0.587190325133875,-0.0031974529783429517,0.0023490595622455146,-0.022345864634054635,0.0,70.0,255.0,255.0,255.0
412,20.6,3.526003954633267,5.8891223540784905,-6.572824692589037,-0.08712009278224908,0.12435042748664138,-0.5882835016975285,-0.0031932624824815292,0.0020153393331945324,-0.021223922494861824,0.0,70.0,255.0,255.0,255.0
413,20.650000000000002,3.521643958822239,5.895342299873104,-6.602265435365767,-0.08727965418120487,0.12444629821510844,-0.5893127173833612,-0.0031902679336948125,0.0019765898085388756,-0.019971123698159232,0.0,70.0,255.0,255.0,255.0
414,20.700000000000003,3.5172759892151464,5.901566983900001,-6.631755964327373,-0.08743911957561856,0.12454808646749527,-0.5902806140673444,-0.0031904732455956264,0.0022587416713903963,-0.018950552314667135,0.0,70.0,255.0,255.0,255.0
415,20.75,3.512900046864677,5.907797108519854,-6.661293496772501,-0.08759870150576443,0.12467217238224748,-0.5912077726148279,-0.0031965543311418543,0.002883351419225022,-0.018513746050441426,0.0,70.0,255.0,255.0,255.0
416,20.8,3.50851611906457,5.914034201138226,-6.6908767415888555,-0.08775877500873275,0.12483642160941777,-0.5921319886723886,-0.003209517827729158,0.003834880064879087,-0.018836553963641478,0.0,70.0,255.0,255.0,255.0
417,20.85,3.504124169363804,5.920280750680796,-6.72050669563974,-0.08791965328853735,0.1250556603887354,-0.5930914280111921,-0.003225157237007892,0.004971577109724734,-0.01976228094076049,0.0,70.0,255.0,255.0,255.0
418,20.900000000000002,3.499724153735716,5.9265397671771,-6.750185884389975,-0.08808129073243354,0.12533357932039024,-0.5941082167664646,-0.0032363292079118366,0.006052288655844507,-0.020966130770538882,0.0,70.0,255.0,255.0,255.0
419,20.950000000000003,3.4953160402905605,5.932814108612835,-6.779917517316386,-0.08824328620932853,0.12566088925431984,-0.595188041088246,-0.0032355576009113207,0.006822375922332924,-0.022117775401753192,0.0,70.0,255.0,255.0,255.0
420,21.0,3.4908998251147834,5.939105856102532,-6.809704688498799,-0.08840484649252467,0.12601581691262354,-0.59631999430664,-0.0032128582279522533,0.0070386748541650945,-0.02290080020692642,0.0,70.0,255.0,255.0,255.0
421,21.05,3.486475555641308,5.945415690304097,-6.83954951674705,-0.08856457203212376,0.12636475673973635,-0.5974781211089386,-0.003164475710581982,0.006590394537298039,-0.023141858904374146,0.0,70.0,255.0,255.0,255.0
422,21.1,3.482043367911571,5.951742331776505,-6.869452500609693,-0.08872129406358287,0.12667485636635334,-0.5986341801970774,-0.0031061085694172874,0.005627303277133677,-0.02289599803164677,0.0,70.0,255.0,255.0,255.0
423,21.150000000000002,3.47760342623495,5.9580831759407324,-6.899412934766758,-0.08887518288906548,0.12692748706744972,-0.5997677209121033,-0.003064415234899087,0.0044469828406334955,-0.022314469770812195,0.0,70.0,255.0,255.0,255.0
424,21.200000000000003,3.4731558496226644,5.96443508048325,-6.9294292727009035,-0.08902773558707278,0.1271195546504167,-0.6008656271741586,-0.0030672963507782924,0.003364015711149193,-0.02155214561243568,0.0,70.0,255.0,255.0,255.0
425,21.25,3.4687006526762425,5.970795131405774,-6.959499497484174,-0.08918191252414331,0.12726388863856464,-0.6019229354733469,-0.0031520127569795164,0.002685958488424234,-0.02076305312064264,0.0,70.0,255.0,255.0,255.0
426,21.3,3.46423765837025,5.977161469347107,-6.989621566248238,-0.08934293686277073,0.1273881504992591,-0.6029419324862229,-0.0033325793298732975,0.0025763156788372044,-0.02004775867039399,0.0,70.0,255.0,255.0,255.0
427,21.35,3.4597663589899654,5.9835339464557,-7.019793690732796,-0.08951517045713064,0.12752152020644836,-0.6039277113403863,-0.0035504084853421602,0.0029501654925212506,-0.019450929730524535,0.0,70.0,255.0,255.0,255.0
428,21.400000000000002,3.455286141324537,5.9899136213677515,-7.050014337382277,-0.08969797771130494,0.12768316704851124,-0.6048870254592753,-0.0037060098524666074,0.0036096634315363474,-0.01902130483131259,0.0,70.0,255.0,255.0,255.0
429,21.450000000000003,3.450796561218835,5.996302263160551,-7.080282393278724,-0.0898857714423773,0.127882486549602,-0.6058298418235175,-0.0037019702831209145,0.004354474986101309,-0.01881881697300969,0.0,70.0,255.0,255.0,255.0
430,21.5,3.4462975641802993,6.002701870022712,-7.1105973215646285,-0.09006817473961704,0.12811861454712137,-0.6067689071565763,-0.003431118716212822,0.004989519164944056,-0.018899015282425324,0.0,70.0,255.0,255.0,255.0
431,21.55,3.4417897437448732,6.009114124615263,-7.140959283994381,-0.09022888331399859,0.1283814384660964,-0.60771974335176,-0.002851407435455755,0.005398794961752884,-0.01927484534309798,0.0,70.0,255.0,255.0,255.0
432,21.6,3.4372746758488995,6.015540013869321,-7.1713692958998045,-0.09035331548316261,0.12865849404329666,-0.6086963916908861,-0.002094029051047386,0.005576603516477263,-0.019856739922552435,0.0,70.0,255.0,255.0,255.0
433,21.650000000000002,3.432754412196557,6.021979974019593,-7.20182892316347,-0.09043828621910333,0.12893909881774412,-0.6097054173440153,-0.0013906129546992219,0.005548116346432153,-0.020482175704561456,0.0,70.0,255.0,255.0,255.0
434,21.700000000000003,3.428230847226989,6.028433923751096,-7.232339837634206,-0.09049237677863253,0.12921330567793987,-0.6107446092613422,-0.0009708831229193748,0.0053323966991314364,-0.020973612136998554,0.0,70.0,255.0,255.0,255.0
435,21.75,3.4237051745186937,6.034901304587387,-7.262903384089604,-0.09053537453139526,0.12947233848765727,-0.6118027785577151,-0.0010634657578112439,0.004947946205202669,-0.021152867101914552,0.0,70.0,255.0,255.0,255.0
436,21.8,3.4191773097738496,6.0413811575998615,-7.293520115489978,-0.09059872335441366,0.12970810029846014,-0.6128598959715337,-0.001769389995764925,0.00442076554669768,-0.020932859957323302,0.0,70.0,255.0,255.0,255.0
437,21.85,3.4146453021832524,6.047872114617233,-7.324189373686758,-0.09071231353097176,0.12991441504232704,-0.6138960645534475,-0.0029072282242470493,0.003824259600992974,-0.02040751850493905,0.0,70.0,255.0,255.0,255.0
438,21.900000000000002,3.4101060784207524,6.054372599104094,-7.354909721945322,-0.09088944617683836,0.13009052625855944,-0.6149006478220276,-0.00413610709313339,0.0032787103428688624,-0.019764584424830645,0.0,70.0,255.0,255.0,255.0
439,21.950000000000003,3.4055563575655685,6.060881167243089,-7.38567943846896,-0.0911259242402851,0.13024228607661392,-0.6158725229959305,-0.005108949439769361,0.002914912576912343,-0.01919330790540741,0.0,70.0,255.0,255.0,255.0
440,22.0,3.400993485996724,6.067396827711756,-7.416496974244915,-0.0914003411208153,0.13038201751625067,-0.6168199786125683,-0.005487046224761372,0.0028627053381136136,-0.018873479013681305,0.0,70.0,255.0,255.0,255.0
441,22.05,3.396416323453487,6.073919368994714,-7.447361436330217,-0.09167462886276123,0.13052855661042528,-0.6177598708972987,-0.005103946334505949,0.0031786556717428027,-0.01890028825428658,0.0,70.0,255.0,255.0,255.0
442,22.1,3.391826023110448,6.080449683372798,-7.478272961334645,-0.0919107357542659,0.13069988308342495,-0.618710007437997,-0.004126941501514381,0.0037618825555085778,-0.01922777813252452,0.0,70.0,255.0,255.0,255.0
443,22.150000000000002,3.3872252498780604,6.0869893573030565,-7.509232437074017,-0.09208732301291267,0.13090474486597614,-0.6196826487105511,-0.0028959143837603563,0.0044206786458111935,-0.01974489452178929,0.0,70.0,255.0,255.0,255.0
444,22.200000000000003,3.3826172908091565,6.093540157859396,-7.5402412262057,-0.09220032719264193,0.13114195094800607,-0.6206844968901759,-0.0017593797241755027,0.004955179100729623,-0.020339869528029908,0.0,70.0,255.0,255.0,255.0
445,22.25,3.378005217158796,6.100103552397857,-7.5713008867630345,-0.09226326098533022,0.1314002627760491,-0.6217166356633541,-0.0010603306948908653,0.00516524176594757,-0.02091722616670566,0.0,70.0,255.0,255.0,255.0
446,22.3,3.3733909647106235,6.106680184137001,-7.602412889772036,-0.09230636026213102,0.13165847512460083,-0.6227762195068465,-0.0009808852725612383,0.0049513250521826535,-0.021413213132159825,0.0,70.0,255.0,255.0,255.0
447,22.35,3.368774581132583,6.113269399910317,-7.633578508713719,-0.09236134951258634,0.13189539528126737,-0.6238579569765701,-0.0014159614805997478,0.0044136181034382105,-0.021765005328777676,0.0,70.0,255.0,255.0,255.0
448,22.400000000000002,3.364154829759365,6.119869723665127,-7.664798685469693,-0.09244795641019099,0.13209983693494465,-0.6249527200397242,-0.0021301188215971933,0.0037531671495116825,-0.02189136196477648,0.0,70.0,255.0,255.0,255.0
449,22.450000000000003,3.359529785491564,6.126479383603812,-7.6960737807176915,-0.09257436139474606,0.13227071199621854,-0.6260470931730477,-0.0028864454166832587,0.0031709444459515623,-0.021714440089848352,0.0,70.0,255.0,255.0,255.0
450,22.5,3.3548973936198903,6.133096794864749,-7.727403394786998,-0.09273660095185932,0.1324169313795398,-0.6271241640487091,-0.003443658967450247,0.002860290301054391,-0.021153653614724988,0.0,70.0,255.0,255.0,255.0
451,22.55,3.350256125396378,6.139721076741766,-7.7587861971225625,-0.09291872729149109,0.13255674102632398,-0.6281624585345202,-0.003666964789461602,0.0029226175461083415,-0.020192034042221252,0.0,70.0,255.0,255.0,255.0
452,22.6,3.345605520890741,6.146352468967382,-7.79021964064045,-0.09310329743080548,0.13270919313415064,-0.6291433674529312,-0.0036137813411496467,0.0032982371061862636,-0.01899481127471958,0.0,70.0,255.0,255.0,255.0
453,22.650000000000002,3.3409457956532975,6.152991996055181,-7.821700533867856,-0.09328010542560605,0.1328865647369426,-0.6300619396619922,-0.00341736324376285,0.0038520606817193936,-0.017849564379801564,0.0,70.0,255.0,255.0,255.0
454,22.700000000000003,3.3362775103481805,6.159641125441076,-7.853225834606649,-0.09344503375518176,0.13309439920232258,-0.6309283238909114,-0.0032024376763306606,0.004447756401848579,-0.017054118364701054,0.0,70.0,255.0,255.0,255.0
455,22.75,3.3316012922777793,6.166301435975413,-7.884793366256947,-0.09360034919323912,0.13333134037712746,-0.6317673514984623,-0.003104986815394284,0.004957606353883648,-0.016904150049512623,0.0,70.0,255.0,255.0,255.0
456,22.8,3.3269174754288566,6.172974259478789,-7.916402569756495,-0.09375553243672119,0.13359015983771094,-0.6326187388958626,-0.0031973161755072255,0.005305430870361505,-0.017532963053845663,0.0,70.0,255.0,255.0,255.0
457,22.85,3.3222257390341072,6.179660451959184,-7.948055240146533,-0.09392008081078984,0.1338618834641636,-0.6335206478038469,-0.003407980753866724,0.00547706983473617,-0.018726798522905597,0.0,70.0,255.0,255.0,255.0
458,22.900000000000002,3.3175254673477776,6.186360447825205,-7.97975463453688,-0.09409633051210786,0.13413786682118456,-0.6344914187481532,-0.003602199765362357,0.00547411459876912,-0.020077653242811522,0.0,70.0,255.0,255.0,255.0
459,22.950000000000003,3.3128161059828964,6.1930742386413025,-8.011504382021348,-0.09428030078732608,0.13440929492404052,-0.635528413128128,-0.0036567176306068205,0.005298542768183978,-0.021163538666701953,0.0,70.0,255.0,255.0,255.0
460,23.0,3.308097437269045,6.199801377317609,-8.043307475849693,-0.09446200227516854,0.13466772109800296,-0.6366077726148234,-0.0034404497152085156,0.004953293608345177,-0.021557764834767568,0.0,70.0,255.0,255.0,255.0
461,23.05,3.3033699057553796,6.206541010751103,-8.07516515928283,-0.09462434575884693,0.13490462428487504,-0.6376841896116048,-0.002896684261521898,0.004454633330919222,-0.02104954031594275,0.0,70.0,255.0,255.0,255.0
462,23.1,3.2986350026931603,6.213291839746097,-8.107075894810853,-0.09475167070132073,0.13511318443109488,-0.6387127266464177,-0.002156067205083545,0.003874322715358147,-0.019868810485235144,0.0,70.0,255.0,255.0,255.0
463,23.150000000000002,3.2938947386852475,6.220052329194212,-8.139036431947472,-0.09483995247935528,0.13529205655641086,-0.6396710706601283,-0.0014529052939860065,0.003332320084137308,-0.018469006798049747,0.0,70.0,255.0,255.0,255.0
464,23.200000000000003,3.289151007445225,6.226821045401738,-8.171043001876866,-0.09489696123071933,0.1354464164395086,-0.6405596273262226,-0.0010167524069348843,0.0029570468845108167,-0.017304873821366584,0.0,70.0,255.0,255.0,255.0
465,23.25,3.2844050425621756,6.233596970838163,-8.203092394680095,-0.09494162772004877,0.13558776124486194,-0.641401558042265,-0.001073167703546929,0.002873228537048078,-0.016832716017844973,0.0,70.0,255.0,255.0,255.0
466,23.3,3.27965684467322,6.240379821526224,-8.235183157681092,-0.09500427800107403,0.13573373929321342,-0.6422428989280071,-0.0017235458462216968,0.0031365486263368325,-0.017282022534637065,0.0,70.0,255.0,255.0,255.0
467,23.35,3.274904614762068,6.2471703447674845,-8.267316684572895,-0.09511398230467094,0.13590141610749562,-0.6431297602957287,-0.00280150333993312,0.0036611637790784357,-0.018427143686317038,0.0,70.0,255.0,255.0,255.0
468,23.400000000000002,3.270145446442753,6.253969963136973,-8.299496133710665,-0.09528442833506734,0.13609985567112126,-0.6440856132966388,-0.003990747823490182,0.004280241427867537,-0.019817135417277143,0.0,70.0,255.0,255.0,255.0
469,23.450000000000003,3.2653761719285614,6.260780330334597,-8.33172524590256,-0.09551305708701996,0.13632944025028237,-0.6451114738374564,-0.004970724955777328,0.004820495801194369,-0.02100381919554195,0.0,70.0,255.0,255.0,255.0
470,23.5,3.260594140734051,6.267602907162002,-8.36400728109441,-0.09578150083064507,0.1365819052512407,-0.646185995216193,-0.00543890744233444,0.005117801568221836,-0.021543445684635287,0.0,70.0,255.0,255.0,255.0
471,23.55,3.255798021845497,6.274438520859721,-8.396343845424179,-0.0960569478312534,0.13684122040710456,-0.6472658184059199,-0.005242046106435083,0.005085885449851446,-0.02120922269117642,0.0,70.0,255.0,255.0,255.0
472,23.6,3.2509884459509255,6.281287029202712,-8.428733862935003,-0.09630570544128858,0.13709049379622584,-0.6483069174853107,-0.004487802885622116,0.004766430093461338,-0.020193430620807362,0.0,70.0,255.0,255.0,255.0
473,23.650000000000002,3.246167451301368,6.288147570239343,-8.46117453717271,-0.09650572811981561,0.1373178634164507,-0.6492851614680006,-0.00341505912322404,0.004261306279218502,-0.01889163568318253,0.0,70.0,255.0,255.0,255.0
474,23.700000000000003,3.241337873138944,6.295018815544357,-8.493662379081803,-0.09664721135361098,0.1375166244241477,-0.6501960810536289,-0.0022731216619664707,0.0036742566239311714,-0.0176997095371334,0.0,70.0,255.0,255.0,255.0
475,23.75,3.236502730166007,6.301899232681758,-8.526194145278073,-0.09673304028601226,0.1376852890788438,-0.651055132421714,-0.001295211851104483,0.0030915558667743426,-0.017013454622372137,0.0,70.0,255.0,255.0,255.0
476,23.8,3.2316645691103427,6.3087873444522415,-8.558767892323974,-0.09677673253872143,0.13782578001082513,-0.6518974265158661,-0.0006205308005657884,0.002572683467505499,-0.01704043401886679,0.0,70.0,255.0,255.0,255.0
477,23.85,3.226825056912135,6.3156818106828405,-8.59138388792966,-0.09679509336606884,0.13794255742559436,-0.6527591758236007,-0.00028001239051889115,0.002189479482339607,-0.017630089542564065,0.0,70.0,255.0,255.0,255.0
478,23.900000000000002,3.221985059773736,6.322581600194801,-8.624043809906334,-0.09680473377777332,0.1380447279590591,-0.6536604354701225,-0.0002779667326979762,0.002039008978726997,-0.018466205300171623,0.0,70.0,255.0,255.0,255.0
479,23.950000000000003,3.2171445835343575,6.329486283478746,-8.656749931476671,-0.09682289003933864,0.13814645832346706,-0.6546057963536178,-0.0006157627549185918,0.002215251596648926,-0.0192369696948802,0.0,70.0,255.0,255.0,255.0
480,24.0,3.212302770769802,6.336396246027148,-8.689504389541696,-0.09686631005326518,0.13826625311872398,-0.6555841324396106,-0.0012922265053116888,0.0028199376699511447,-0.019626791770122054,0.0,70.0,255.0,255.0,255.0
481,24.05,3.207457952529031,6.343312908790619,-8.722308344720632,-0.09695211268986981,0.13842845209046217,-0.65656847553063,-0.002277881973578033,0.003878205855212258,-0.019469693913976016,0.0,70.0,255.0,255.0,255.0
482,24.1,3.202607559500815,6.350239091236194,-8.75516123709476,-0.09709409825062298,0.1386540737042452,-0.6575311018310082,-0.003430469230325528,0.005193041253104269,-0.01889255153546543,0.0,70.0,255.0,255.0,255.0
483,24.150000000000002,3.1977485427039687,6.357178316161043,-8.788061454903733,-0.09729515961290236,0.1389477562157726,-0.6584577306841766,-0.0045113956242293085,0.006422751045054298,-0.0181563636285631,0.0,70.0,255.0,255.0,255.0
484,24.200000000000003,3.1928780435395248,6.364133866857771,-8.821007010163177,-0.09754523781304592,0.13929634880875064,-0.6593467381938645,-0.005265878600679841,0.007219702025551555,-0.017512784643081147,0.0,70.0,255.0,255.0,255.0
485,24.25,3.187994018922664,6.371107951041918,-8.85399612872312,-0.09782174747297034,0.13966972641832776,-0.6602090091484847,-0.005447863479357551,0.007244730750688433,-0.017211313030429665,0.0,70.0,255.0,255.0,255.0
486,24.3,3.1830958687922277,6.378100839499604,-8.887027911078025,-0.09809002416098167,0.14002082188381948,-0.6610678694969074,-0.0049469156638171086,0.006346381223210074,-0.01738065046517079,0.0,70.0,255.0,255.0,255.0
487,24.35,3.178185016506566,6.3851100332303,-8.92010291567281,-0.09831643903935205,0.14030436454064876,-0.6619470741950018,-0.003927061737440951,0.004769078114552627,-0.017914296388710227,0.0,70.0,255.0,255.0,255.0
488,24.400000000000002,3.1732642248882925,6.392131275953669,-8.953222618497525,-0.09848273033472577,0.14049772969527474,-0.6628592991357785,-0.0027091780433696755,0.002981781712296794,-0.018593748111150887,0.0,70.0,255.0,255.0,255.0
489,24.450000000000003,3.1683367434730934,6.399159806199828,-8.986388845586388,-0.09858735684368902,0.14060254271187844,-0.6638064490061168,-0.0016329839144901825,0.0014709752671926424,-0.019205318306703134,0.0,70.0,255.0,255.0,255.0
490,24.5,3.1634054892039236,6.406191530224857,-9.019603263398137,-0.09864602872617478,0.140644827221994,-0.6647798309664488,-0.001040328900803189,0.0007171300045349938,-0.019543993404802507,0.0,70.0,255.0,255.0,255.0
491,24.55,3.158472140600476,6.413224288922027,-9.052866828683033,-0.09869138973376934,0.14067425571233194,-0.6657608483465971,-0.0011072292641411963,0.0009628426777652521,-0.019501130798538213,0.0,70.0,255.0,255.0,255.0
492,24.6,3.1535363502305467,6.42025895579609,-9.086179348232797,-0.0987567516525889,0.14074111148977053,-0.6667299440463026,-0.0016922395314811212,0.001997126473973765,-0.019135670834558027,0.0,70.0,255.0,255.0,255.0
493,24.650000000000002,3.148596465435217,6.427298400071004,-9.119539823087663,-0.09886061368691745,0.14087396835972932,-0.6676744154300529,-0.0025017756520639978,0.003383641918919267,-0.018583236002811532,0.0,70.0,255.0,255.0,255.0
494,24.700000000000003,3.143650288861855,6.434346352632063,-9.152946789775802,-0.0990069292177953,0.14107947568166246,-0.6685882676465837,-0.0032418127803524044,0.004676536766812234,-0.01797922884492209,0.0,70.0,255.0,255.0,255.0
495,24.75,3.1386957725134375,6.4414063476391705,-9.186398649852322,-0.0991847949649527,0.14134162203641054,-0.6694723383145451,-0.0036148768614907567,0.00542278652835293,-0.01744870402511367,0.0,70.0,255.0,255.0,255.0
496,24.8,3.1337318093653597,6.448480514835704,-9.219894023607257,-0.09936841690394438,0.14162175433449775,-0.6703331380490951,-0.0034648199611186925,0.0053834135659514,-0.017067600231435165,0.0,70.0,255.0,255.0,255.0
497,24.85,3.128758930823043,6.45556852307262,-9.253431963657231,-0.09953127696106456,0.14187996339300568,-0.6711790983376886,-0.0029103204629343793,0.004732392679063224,-0.01685938390902919,0.0,70.0,255.0,255.0,255.0
498,24.900000000000002,3.123778681669253,6.462668511175004,-9.287011933441025,-0.09965944895023782,0.14209499360240407,-0.672019076439998,-0.0021965398604884,0.003831995600300786,-0.016837783402756656,0.0,70.0,255.0,255.0,255.0
499,24.950000000000003,3.1187929859280192,6.469778022432861,-9.320633871301231,-0.0997509309471134,0.14226316295303576,-0.6728628766779643,-0.0015601379244056801,0.00303705016007072,-0.01701725349505523,0.0,70.0,255.0,255.0,255.0
500,25.0,3.113803588574542,6.476894827470308,-9.354298221108822,-0.09981546274267838,0.14239869861841115,-0.6737208017895036,-0.0012320983854063883,0.00271563996667723,-0.017417181170387153,0.0,70.0,255.0,255.0,255.0
501,25.05,3.1088114396537514,6.484017892294702,-9.388005951480181,-0.09987414078565404,0.14253472694970348,-0.674604594795003,-0.001333351031895802,0.0030561370904180762,-0.01802949391596087,0.0,70.0,255.0,255.0,255.0
502,25.1,3.1038161744959765,6.491148300165278,-9.421758680588322,-0.09994879784586796,0.14270431232745295,-0.6755237511810996,-0.0017810706912424479,0.0038669624836451533,-0.018745954368348805,0.0,70.0,255.0,255.0,255.0
503,25.150000000000002,3.0988165598691646,6.498288323527447,-9.455558326598291,-0.10005224785477829,0.142921423198068,-0.6764791902318379,-0.002397472830617531,0.004775555167579881,-0.01938479122340908,0.0,70.0,255.0,255.0,255.0
504,25.200000000000003,3.0938109497104986,6.505440442485085,-9.489406599611506,-0.10018854512892972,0.14318186784421094,-0.6774622303034405,-0.0030043488087994064,0.005421602918165291,-0.019759496103333163,0.0,70.0,255.0,255.0,255.0
505,25.25,3.0887977053562716,6.512606510311868,-9.523304549628635,-0.10035268273565823,0.14346358348988453,-0.6784551398421712,-0.0034207389209228722,0.005434746844557026,-0.019690589942911174,0.0,70.0,255.0,255.0,255.0
506,25.3,3.083775681436933,6.519786800834074,-9.557252113595723,-0.100530619021022,0.14372534252866664,-0.6794312892977317,-0.0035490020191542015,0.004638378399945964,-0.019100111751235715,0.0,70.0,255.0,255.0,255.0
507,25.35,3.0787446434541694,6.526979044564735,-9.591247678558409,-0.10070758293757365,0.14392742132987912,-0.6803651510172948,-0.003449033135805024,0.0032869368742360905,-0.018123045703610785,0.0,70.0,255.0,255.0,255.0
508,25.400000000000002,3.0737049231431754,6.5341795429670615,-9.625288628697453,-0.10087552233460251,0.14405403621609025,-0.6812435938680927,-0.0032490932918349813,0.0018594434024521433,-0.017018482937380952,0.0,70.0,255.0,255.0,255.0
509,25.450000000000003,3.068657091220709,6.541384448186344,-9.659372037945218,-0.10103249226675715,0.14411336567012434,-0.6820669993110329,-0.00307626637430225,0.0008291721992570444,-0.01605702316460622,0.0,70.0,255.0,255.0,255.0
510,25.5,3.0636016739164997,6.548590879534074,-9.693495328628556,-0.10118314897203273,0.14413695343601596,-0.6828492961845534,-0.0030769272827413374,0.0006692887387416135,-0.015500459057449234,0.0,70.0,255.0,255.0,255.0
511,25.55,3.058538776323506,6.5557981435299455,-9.727656967563673,-0.10134018499503128,0.1441802945439985,-0.6836170452167778,-0.0033234147845284667,0.0016045218044880016,-0.015483345791444947,0.0,70.0,255.0,255.0,255.0
512,25.6,3.0534676554169966,6.563008908988474,-9.761857033150234,-0.10151549045048558,0.14429740561646476,-0.6843976307636979,-0.0037018643648689675,0.0033336350083956745,-0.015913750930884873,0.0,70.0,255.0,255.0,255.0
513,25.650000000000002,3.0483872272784573,6.570227884091592,-9.796096730640043,-0.10171037143151818,0.14451365804483807,-0.6852084203098663,-0.00400792556338736,0.005276647912655363,-0.01658938891520023,0.0,70.0,255.0,255.0,255.0
514,25.700000000000003,3.043296618273845,6.577460274792958,-9.83037787518122,-0.10191628300682432,0.1448250704077303,-0.6860565696552179,-0.004050212733774927,0.006849587072110808,-0.017299124523617593,0.0,70.0,255.0,255.0,255.0
515,25.75,3.038195598977775,6.584710391132365,-9.864702387605565,-0.10211539270489567,0.14519861675204915,-0.686938332762228,-0.00362763586423398,0.007476163467767805,-0.017827573826068033,0.0,70.0,255.0,255.0,255.0
516,25.8,3.0330850790033552,6.5919801364681625,-9.899071708457443,-0.10227904659324771,0.14557268675450707,-0.6878393270378247,-0.0026564530619666016,0.00686987470848166,-0.01805424401126743,0.0,70.0,255.0,255.0,255.0
517,25.85,3.02796769431845,6.599267659807816,-9.933486320309347,-0.10238103801109233,0.1458856042228973,-0.6887437571633548,-0.0013470525284997592,0.005313814467822198,-0.018026519339819913,0.0,70.0,255.0,255.0,255.0
518,25.900000000000002,3.022846975202246,6.606568696890452,-9.967946084173779,-0.10241375184609769,0.1461040682012893,-0.6896419789718067,-7.73396525932668e-05,0.0033795127325930707,-0.017857714316349416,0.0,70.0,255.0,255.0,255.0
519,25.950000000000003,3.0177263191338404,6.613878066627945,-10.002450518206528,-0.10238877197635166,0.14622355549615662,-0.6905295285949897,0.0007782828106428497,0.0016451135453898758,-0.01765407780673911,0.0,70.0,255.0,255.0,255.0
520,26.0,3.012608098004611,6.621191052440068,-10.036999037033278,-0.1023359235650334,0.14626857955582828,-0.6914073867524806,0.0008555360081707875,0.0006820014464281599,-0.017529199015697827,0.0,70.0,255.0,255.0,255.0
521,26.05,3.007492726777337,6.6285049245835275,-10.071591256881776,-0.10230321837553458,0.14629175564079944,-0.6922824484965595,-1.2171568952723533e-05,0.0007886133929879691,-0.017545738770863295,0.0,70.0,255.0,255.0,255.0
522,26.1,3.0023777761670574,6.635820228004148,-10.106227281882934,-0.10233714072192868,0.14634744089512708,-0.6931619606295669,-0.001579202910928501,0.001756654905005206,-0.01765923931191793,0.0,70.0,255.0,255.0,255.0
523,26.150000000000002,2.997259012705144,6.64313966867304,-10.140907452944733,-0.10246113866662743,0.14646742113129996,-0.6940483724277513,-0.003370920954592904,0.0031405925335015183,-0.0177815253811886,0.0,70.0,255.0,255.0,255.0
524,26.200000000000003,2.9921316623003946,6.650466970117278,-10.175632119125709,-0.10267423281738797,0.14666150014847723,-0.6949401131676858,-0.00489788354340881,0.0044962990735086805,-0.017837478000437557,0.0,70.0,255.0,255.0,255.0
525,26.25,2.9869915894234054,6.657805818687888,-10.210401464261501,-0.10295092702096831,0.14691705103865083,-0.6958321202277951,-0.005678517492269108,0.005383896014521383,-0.017759686053864243,0.0,70.0,255.0,255.0,255.0
526,26.3,2.981836569598298,6.665158675221143,-10.245215331148488,-0.10324208456661488,0.14719988974992937,-0.6967160817730722,-0.0054682872358657875,0.005563550506693105,-0.017515714659488424,0.0,70.0,255.0,255.0,255.0
527,26.35,2.976667380966744,6.672525807662881,-10.280073072438809,-0.10349775574455489,0.14747340608932014,-0.6975836916937439,-0.004469655641115011,0.005149542601845525,-0.01713829497536068,0.0,70.0,255.0,255.0,255.0
528,26.400000000000002,2.9714867940238423,6.679906015830075,-10.314973700317863,-0.10368905013072638,0.14771484401011392,-0.6984299112706083,-0.0031054567154686907,0.004406462122918953,-0.016695251756537743,0.0,70.0,255.0,255.0,255.0
529,26.450000000000003,2.9662984759536712,6.687297292063892,-10.34991606356587,-0.10380830141610176,0.14791405230161203,-0.6992532168693977,-0.0018066087770218786,0.003590575940926044,-0.016255497370742944,0.0,70.0,255.0,255.0,255.0
530,26.5,2.961105963882232,6.694697421060236,-10.384899022004802,-0.10386971100842857,0.14807390160420653,-0.7000554610076826,-0.0010054287431948694,0.0029583585503978327,-0.015876066093589714,0.0,70.0,255.0,255.0,255.0
531,26.55,2.9559115048528284,6.702104682224313,-10.419921609666638,-0.10390884429042124,0.14820988815665181,-0.7008408234787566,-0.0009335139866895048,0.002656019079427807,-0.015591402591397241,0.0,70.0,255.0,255.0,255.0
532,26.6,2.95071507945319,6.709518409875901,-10.454983104352678,-0.10396306240709752,0.1483395035121493,-0.7016146012668223,-0.001452197834295177,0.002640605924053574,-0.015424876823999512,0.0,70.0,255.0,255.0,255.0
533,26.650000000000002,2.9455151986121186,6.716938632575528,-10.49008306979332,-0.10405406407385076,0.14847394874905717,-0.7023833111611566,-0.0022589071950740447,0.002799806062014909,-0.015400171554169617,0.0,70.0,255.0,255.0,255.0
534,26.700000000000003,2.940309673045805,6.724365804750807,-10.525221435468794,-0.10418895312660492,0.1486194841183508,-0.7031546184222393,-0.003061508854651507,0.003033798094254081,-0.015533819230384438,0.0,70.0,255.0,255.0,255.0
535,26.75,2.935096303299458,6.731800580987363,-10.560398531635544,-0.10436021495931591,0.14877732855848258,-0.703936693084195,-0.0035758514510320083,0.003242716402507284,-0.015840012277301696,0.0,70.0,255.0,255.0,255.0
