idx,t,px,py,pz,vx,vy,vz,ax,ay,az,yaw,mode,ledr,ledg,ledb
0,0.0,4.500000000000003,-1.5000000000000009,1.3075970192809473e-18,0.00028947594369554963,-0.0006411295375130521,0.00032940985567201465,-0.0053965062914329565,0.007740863583416413,-0.021396065704480098,0.0,70.0,255.0,255.0,255.0
1,0.05,4.500014473797187,-1.5000320564768765,1.647049278360204e-05,1.9650629123901808e-05,-0.0002540863583422315,-0.0007403934295519904,-0.008120196150684933,0.011343687427212146,-0.03221959034366014,0.0,70.0,255.0,255.0,255.0
2,0.1,4.500001965062915,-1.5000254086358351,-7.403934295519774e-05,-0.0005225436713729437,0.0004932392052081624,-0.0028925491786939996,-0.010894759437096724,0.014411295375160726,-0.04329409855672016,0.0,70.0,255.0,255.0,255.0
3,0.15000000000000002,4.49996221943005,-1.4999827325563557,-0.0002727844250857979,-0.0010698253145857706,0.0011870431791738412,-0.005069803285224006,-0.010996506290172903,0.013340863583111151,-0.04379606570448257,0.0,70.0,255.0,255.0,255.0
4,0.2,4.4998949825314565,-1.4999067043179177,-0.0005810196714775984,-0.001622194300390234,0.0018273255635192776,-0.007272155749142257,-0.011100387693829816,0.012261401753788093,-0.044301850344853504,0.0,70.0,255.0,255.0,255.0
5,0.25,4.499800000000011,-1.4998000000000038,-0.0010000000000000237,-0.002179864083968752,0.0024131833545526504,-0.009499988319709357,-0.011216542758862857,0.011130017209026732,-0.044829585567729015,0.0,70.0,255.0,255.0,255.0
6,0.30000000000000004,4.49967699612306,-1.4996653859824625,-0.001531018503448534,-0.0027438485762765197,0.002940327284421951,-0.011755114305915158,-0.011348232597541141,0.009932914056687281,-0.04538510365349465,0.0,70.0,255.0,255.0,255.0
7,0.35000000000000003,4.4995256151423835,-1.4995059672715616,-0.0021755114305915396,-0.0033146873437228663,0.0034064747602213785,-0.014038498685058822,-0.011467648776353201,0.008787733620119198,-0.04591867115675323,0.0,70.0,255.0,255.0,255.0
8,0.4,4.499345527388687,-1.4993247385064403,-0.0029348683719544163,-0.0038906134539118398,0.0038191006464338706,-0.01634698142159048,-0.011530380811475283,0.007882350848764652,-0.04635086302291296,0.0,70.0,255.0,255.0,255.0
9,0.45,4.499136553796992,-1.4991240572069182,-0.003810209572750588,-0.004467725424870395,0.004194709845097844,-0.01867358498735012,-0.011499027967243336,0.007376533372260852,-0.04661621097812173,0.0,70.0,255.0,255.0,255.0
10,0.5,4.4988987548462,-1.4989052675219305,-0.004802226870689428,-0.005040516250636173,0.004556753983659956,-0.021008602519402654,-0.011343576423605839,0.007404599833127357,-0.04666778396045547,0.0,70.0,255.0,255.0,255.0
11,0.55,4.498632502171929,-1.4986683818085522,-0.0059110698246908535,-0.0056020830672309785,0.004935169828410579,-0.023340363383395665,-0.011054122957698809,0.008010808278569037,-0.04649004069355169,0.0,70.0,255.0,255.0,255.0
12,0.6000000000000001,4.498338546539477,-1.4984117505390895,-0.007136263209028995,-0.006145928546406054,0.0053578348115168595,-0.025657606588757823,-0.010661557267521715,0.00904433012109962,-0.04611972151944369,0.0,70.0,255.0,255.0,255.0
13,0.65,4.498017909317288,-1.4981325983274005,-0.008476830483566636,-0.00666823879398315,0.005839602840520541,-0.027952335535340034,-0.010225193130608545,0.010222059828723928,-0.04563335426323711,0.0,70.0,255.0,255.0,255.0
14,0.7000000000000001,4.497671722660079,-1.4978277902550374,-0.009931496762562999,-0.007168447859466909,0.006380040794389252,-0.030220942015081534,-0.00980947335786908,0.011231148600199248,-0.045122129894087475,0.0,70.0,255.0,255.0,255.0
15,0.75,4.497301064531341,-1.4974945942479616,-0.01149892468507479,-0.007649186129770058,0.006962717700540466,-0.03246454852474878,-0.009469703629250148,0.011753535399616766,-0.0446689107782252,0.0,70.0,255.0,255.0,255.0
16,0.8,4.496906804047102,-1.4971315184849834,-0.013177951615037877,-0.008115418222391924,0.007555394334350929,-0.034687833092904054,-0.009237410121354372,0.011628622325643434,-0.04432475153110807,0.0,70.0,255.0,255.0,255.0
17,0.8500000000000001,4.496489522709102,-1.4967390548145265,-0.014967707994365195,-0.008572927141905495,0.00812557993310481,-0.03689702367785959,-0.00912341819105933,0.011003990184299539,-0.0441188064018376,0.0,70.0,255.0,255.0,255.0
18,0.9,4.496049511332911,-1.496318960491673,-0.016867653982823836,-0.009027760041497856,0.008655793352780883,-0.039099713733087814,-0.009131550629870588,0.010179526386355775,-0.0440801954486153,0.0,70.0,255.0,255.0,255.0
19,0.9500000000000001,4.495586746704952,-1.4958734754792484,-0.018877679367673976,-0.009486082204892554,0.009143532571740387,-0.04130504322272112,-0.009256365314325166,0.009459245187226628,-0.044234756625015706,0.0,70.0,255.0,255.0,255.0
20,1.0,4.495100903112422,-1.4954046072344989,-0.020998158305095948,-0.009953396572930373,0.009601717871503546,-0.043523189395589384,-0.00948157176319242,0.009157202624510141,-0.04461256360263448,0.0,70.0,255.0,255.0,255.0
21,1.05,4.494591407047659,-1.494913303692098,-0.023229998307232914,-0.010434239381211796,0.010059252834191401,-0.04576629958298457,-0.009790548911325914,0.009434049738477057,-0.04521197882304123,0.0,70.0,255.0,255.0,255.0
22,1.1,4.494057479174301,-1.4943986819510797,-0.025574788263394405,-0.010932451464062964,0.010545122845351251,-0.04804438727789351,-0.010163930807216559,0.010133368815257171,-0.045924213712369294,0.0,70.0,255.0,255.0,255.0
23,1.1500000000000001,4.493498161901253,-1.493858791407563,-0.028034437035022265,-0.011450632461933452,0.011072589715717118,-0.050358720954221496,-0.010567765189062328,0.010947014112905329,-0.04656502478146418,0.0,70.0,255.0,255.0,255.0
24,1.2000000000000002,4.4929124159281075,-1.493291422979508,-0.030610660358816554,-0.011989227982969197,0.011639824256641784,-0.052700889756039926,-0.010959377739361287,0.011578210977369885,-0.04694658253358991,0.0,70.0,255.0,255.0,255.0
25,1.25,4.492299239102956,-1.4926948089818988,-0.03330452601062626,-0.01254657023586958,0.012230410813454107,-0.05505337920758049,-0.011307972022134294,0.011737747342444038,-0.046888853459257224,0.0,70.0,255.0,255.0,255.0
26,1.3,4.491657758904521,-1.4920683818981626,-0.0361159982795746,-0.013120025185182627,0.012813598990886188,-0.05738977510196565,-0.011593680946475615,0.011281519046701938,-0.0463130208224128,0.0,70.0,255.0,255.0,255.0
27,1.35,4.490987236584438,-1.4914134490828101,-0.03904350352082282,-0.013705938330517142,0.0133585627181243,-0.05968468128982177,-0.011783562541989312,0.01034971404190177,-0.04535058583493359,0.0,70.0,255.0,255.0,255.0
28,1.4000000000000001,4.490287165071469,-1.4907325256263502,-0.04208446640855678,-0.014298381439381558,0.013848570395076365,-0.06192483368545901,-0.011834684651201854,0.009226076835711083,-0.044255136660960315,0.0,70.0,255.0,255.0,255.0
29,1.4500000000000002,4.4895573984405,-1.4900285920433025,-0.04523598688936872,-0.014889406795637328,0.014281170401695409,-0.0641101949559178,-0.011712837015842581,0.008193971509395936,-0.0432911743128879,0.0,70.0,255.0,255.0,255.0
30,1.5,4.488798224391905,-1.4893044085861806,-0.04849548590414856,-0.015469665140965816,0.014667967546015959,-0.0662539511167478,-0.011382577444152275,0.007519780033682366,-0.04271202256033932,0.0,70.0,255.0,255.0,255.0
31,1.55,4.488010431926403,-1.488561795288701,-0.0518613820010435,-0.016027664540052555,0.015033148405063645,-0.06838139721195173,-0.010840414948187771,0.007346447501221931,-0.042649224600589675,0.0,70.0,255.0,255.0,255.0
32,1.6,4.4871954579379,-1.4878010937456743,-0.05533362562534373,-0.016553706635784593,0.015402612296138152,-0.07051887357680676,-0.010182658185353688,0.007619663128966003,-0.043025331059782373,0.0,70.0,255.0,255.0,255.0
33,1.6500000000000001,4.486355061262825,-1.487021534059087,-0.05891326935872418,-0.017045930358587924,0.015795114717960246,-0.07268393031792997,-0.009574335366835385,0.008196790432157819,-0.04366254046281118,0.0,70.0,255.0,255.0,255.0
34,1.7000000000000002,4.485490864902041,-1.4862215822738782,-0.06260201865713673,-0.01751114017246813,0.016222291339353934,-0.07488512762308788,-0.009188248556935008,0.008925902984957546,-0.04437543350157558,0.0,70.0,255.0,255.0,255.0
35,1.75,4.484603947245578,-1.4853993049251517,-0.06640178212103297,-0.017964755214281425,0.016687705016456,-0.07712147366808753,-0.009205727525074536,0.009651104551133827,-0.04498305629937749,0.0,70.0,255.0,255.0,255.0
36,1.8,4.483694389380613,-1.4845528117722326,-0.07031416602394548,-0.018431712924975585,0.017187401794467316,-0.07938343325302563,-0.009705172080831659,0.010274229410245361,-0.04537781970296445,0.0,70.0,255.0,255.0,255.0
37,1.85,4.48276077595308,-1.483680564745705,-0.07434012544633553,-0.01893527242236459,0.017715127957480536,-0.08165925563838397,-0.010521329192592077,0.010774430644855393,-0.045552658690514725,0.0,70.0,255.0,255.0,255.0
38,1.9000000000000001,4.4818008621383765,-1.4827812989764846,-0.07848009158778388,-0.019483845844234793,0.018264844858952856,-0.0839386991220771,-0.011351610244858534,0.011141446749940442,-0.045528454401551344,0.0,70.0,255.0,255.0,255.0
39,1.9500000000000002,4.480812391368657,-1.4818540802598097,-0.08273399535854324,-0.020070433446850444,0.01882927263247458,-0.0862121010785391,-0.011888108149982202,0.01135724172567354,-0.04532140403511742,0.0,70.0,255.0,255.0,255.0
40,2.0,4.479793818793691,-1.4808983717132371,-0.08710130169563779,-0.020672656659233013,0.01940056903152021,-0.08847083952558885,-0.011810549752144794,0.011423773790153469,-0.04494773359412785,0.0,70.0,255.0,255.0,255.0
41,2.0500000000000003,4.4787451257027335,-1.4799140233566577,-0.09158107931110213,-0.021251488422064924,0.019971650011489928,-0.09070687443795189,-0.01097181048139717,0.011348895930018976,-0.04443175765982271,0.0,70.0,255.0,255.0,255.0
42,2.1,4.477668669951485,-1.4789012067120881,-0.09617198913943298,-0.02176983770737273,0.020535458624522107,-0.09291401529157112,-0.009619204531752246,0.011126157414942384,-0.043844873339006496,0.0,70.0,255.0,255.0,255.0
43,2.15,4.476568141931996,-1.4778604774942055,-0.10087248084025924,-0.022213408875240148,0.021084265752984166,-0.09509136177185254,-0.008212883327729514,0.010755557766217727,-0.043304481091818725,0.0,70.0,255.0,255.0,255.0
44,2.2,4.475447329063961,-1.4767927801367897,-0.10568112531661823,-0.02259112604014568,0.02161101440114388,-0.09724446340075299,-0.007211952874897065,0.01025753104491045,-0.04293792471691538,0.0,70.0,255.0,255.0,255.0
45,2.25,4.474309029327982,-1.475699376054091,-0.11059692718033454,-0.022934604162729855,0.02211001885747521,-0.09938515424354408,-0.007075989550209272,0.009645874880459537,-0.04287001864812234,0.0,70.0,255.0,255.0,255.0
46,2.3000000000000003,4.473153868647688,-1.4745817782510422,-0.11561964074097264,-0.02329872499516661,0.022575601889189834,-0.10153146526556522,-0.008021758488396813,0.00894258780190782,-0.043155662478273904,0.0,70.0,255.0,255.0,255.0
47,2.35,4.471979156828465,-1.473441815865172,-0.12075007370689106,-0.023736780011569536,0.023004277637665993,-0.10370072049137147,-0.009750197669244898,0.008239074893356957,-0.043703372428979814,0.0,70.0,255.0,255.0,255.0
48,2.4000000000000004,4.470780190646531,-1.4722813504872756,-0.1259897127901098,-0.0242737447620911,0.02339950937852553,-0.1059018025084632,-0.011686833133950358,0.007679865308785061,-0.044337257594806445,0.0,70.0,255.0,255.0,255.0
49,2.45,4.469551782352256,-1.4711018649273195,-0.13134025395773738,-0.024905463324964572,0.0237722641685445,-0.10813444625085211,-0.01325195913688404,0.007404895167040237,-0.04487412320444972,0.0,70.0,255.0,255.0,255.0
50,2.5,4.4682896443140345,-1.4699041240704211,-0.136803157415195,-0.025598940675779502,0.024139998895229553,-0.11038921482890818,-0.01387355731541362,0.007540698716068661,-0.04513620113739958,0.0,70.0,255.0,255.0,255.0
51,2.5500000000000003,4.466991888284678,-1.4686878650377966,-0.1423791754406282,-0.026292819056505934,0.024526334040151365,-0.11264806636459207,-0.013267495892232972,0.008135578036982949,-0.0450323057138019,0.0,70.0,255.0,255.0,255.0
52,2.6,4.465660362408384,-1.467451490666406,-0.1480679640516542,-0.0269256902650028,0.024953556698927848,-0.11489244540028837,-0.011715296166414646,0.009072228326179044,-0.044627044870459986,0.0,70.0,255.0,255.0,255.0
53,2.6500000000000004,4.464299319258178,-1.4661925093679038,-0.15386841998065703,-0.0274643486731474,0.02543355687276927,-0.11711077085163807,-0.009785331922262941,0.010127778201596271,-0.0440610806035413,0.0,70.0,255.0,255.0,255.0
54,2.7,4.462913927541069,-1.464908134979129,-0.159779041136818,-0.027904223457229094,0.025966334519087475,-0.1192985534606425,-0.008052844609629517,0.01106442674849717,-0.04347886917859256,0.0,70.0,255.0,255.0,255.0
55,2.75,4.461508896912455,-1.463595875915995,-0.16579827532672128,-0.02826963313411035,0.026539999547618986,-0.12145865776949732,-0.00708572524406037,0.011659302283195672,-0.04302116747828266,0.0,70.0,255.0,255.0,255.0
56,2.8000000000000003,4.460086964227658,-1.4622541350243672,-0.17192490691376774,-0.02861279598163513,0.027132264747407042,-0.12360067020847076,-0.00718089197588867,0.01179510005007156,-0.042767888559303024,0.0,70.0,255.0,255.0,255.0
57,2.85,4.458647617314291,-1.4608826494412543,-0.17815834234756836,-0.028987722331699217,0.027719509552626143,-0.12573544662542763,-0.008134165450091047,0.01152012369003419,-0.0427048117255191,0.0,70.0,255.0,255.0,255.0
58,2.9000000000000004,4.457188191994488,-1.4594821840691046,-0.1844984515763105,-0.029426212526644235,0.02828427711641046,-0.12787115138102267,-0.009507130552233178,0.010960909996882151,-0.04278289551548908,0.0,70.0,255.0,255.0,255.0
59,2.95,4.455704996061627,-1.4580542217296133,-0.19094545748567063,-0.029938435386922535,0.028815600552314358,-0.13001373617697654,-0.010863002751548834,0.010257397839041893,-0.04295660054740302,0.0,70.0,255.0,255.0,255.0
60,3.0,4.454194348455796,-1.4566006240138731,-0.19749982519400816,-0.03051251280179912,0.02931001690031465,-0.13216681143576298,-0.01177160697638513,0.009554120123111964,-0.0431871475974871,0.0,70.0,255.0,255.0,255.0
61,3.0500000000000003,4.452653744781447,-1.4551232200395818,-0.20416213862924693,-0.031115596084561048,0.029771012564625554,-0.13433245093672525,-0.011996814991999116,0.008942483301122017,-0.043443366156215024,0.0,70.0,255.0,255.0,255.0
62,3.1,4.45108278884734,-1.4536235227574106,-0.21093307028768069,-0.03171219430099903,0.030204265230426852,-0.13651114805138448,-0.011638018722948118,0.008444479711000596,-0.04367464062838833,0.0,70.0,255.0,255.0,255.0
63,3.1500000000000004,4.449482525351347,-1.4521027935165391,-0.21781325343438537,-0.03227939795685586,0.030615460535725614,-0.13869991499956408,-0.010934490856584489,0.008073896496219035,-0.04380556577273376,0.0,70.0,255.0,255.0,255.0
64,3.2,4.447854849051654,-1.450561976703838,-0.2248030617876371,-0.03280564338665748,0.031011654880048756,-0.14089170462865785,-0.0101160301650971,0.00785115672043979,-0.0437552414523229,0.0,70.0,255.0,255.0,255.0
65,3.25,4.446201961012681,-1.4490016280285343,-0.23190242389725116,-0.03329100097336557,0.03140057620776959,-0.14307543914479637,-0.009403790906148402,0.007776245196366993,-0.04343024213175617,0.0,70.0,255.0,255.0,255.0
66,3.3000000000000003,4.444525748954318,-1.447421919083061,-0.23911060570211673,-0.03374602247727232,0.031789279399685455,-0.14523472884183347,-0.008930682555785552,0.007842705673066774,-0.04279813399531429,0.0,70.0,255.0,255.0,255.0
67,3.35,4.442827358764954,-1.4458227000885657,-0.2464258967814345,-0.034184069228944125,0.03218484677507627,-0.1473552525443278,-0.008709190894240493,0.008058414342304587,-0.041998397322681735,0.0,70.0,255.0,255.0,255.0
68,3.4000000000000004,4.441107342031423,-1.4442034344055534,-0.2538461309565495,-0.03461694156669637,0.032595120833915914,-0.14943456857410164,-0.008721153106261426,0.008425368820175194,-0.0412739089926617,0.0,70.0,255.0,255.0,255.0
69,3.45,4.439365664608284,-1.4425631880051741,-0.26136935363884467,-0.03505618453957027,0.03302738365709379,-0.15148264344359397,-0.008958564233907396,0.008925574347040666,-0.040868494249396425,0.0,70.0,255.0,255.0,255.0
70,3.5,4.437601723577466,-1.440900696039844,-0.2689943953009089,-0.03551279799008711,0.03348767826861998,-0.1535214179990413,-0.009421248047747355,0.009548824499372444,-0.04103183725542858,0.0,70.0,255.0,255.0,255.0
71,3.5500000000000003,4.435814384809276,-1.4392144201783121,-0.2767214954387488,-0.035998309344345,0.033982266107031034,-0.15558582716913683,-0.010088193712576299,0.010274293073964103,-0.041871696930134705,0.0,70.0,255.0,255.0,255.0
72,3.6,4.434001892643032,-1.437502469429141,-0.2845529780178226,-0.03652161736134474,0.03451510757601639,-0.15770858769205476,-0.010844378539509592,0.011003727721581313,-0.04316552299463705,0.0,70.0,255.0,255.0,255.0
73,3.6500000000000004,4.432162223073141,-1.4357629094207105,-0.2924923542079543,-0.03708274719829596,0.035082638879189165,-0.15990237946860053,-0.011500057556723675,0.011581085099754418,-0.0445033670211592,0.0,70.0,255.0,255.0,255.0
74,3.7,4.430293617923202,-1.433994205541222,-0.30054321596468264,-0.037671623117017106,0.03567321608599183,-0.16215892439417068,-0.011857451827168575,0.011854284819201588,-0.04547194705126767,0.0,70.0,255.0,255.0,255.0
75,3.75,4.4283950607614395,-1.4321955878121113,-0.30870824664737134,-0.03826849238101282,0.036268067361109324,-0.1644495741737273,-0.011719235551854723,0.011680484778220368,-0.04566646479059466,0.0,70.0,255.0,255.0,255.0
76,3.8000000000000003,4.426466768685101,-1.430367398805111,-0.31698817338205537,-0.03884354667220258,0.03684126456381387,-0.16672557087323014,-0.011002230239043342,0.011005296856270164,-0.04489419250327531,0.0,70.0,255.0,255.0,255.0
77,3.85,4.424510706094219,-1.42851146135573,-0.32538080373469436,-0.039368715404917154,0.03736859704673634,-0.16893899342405483,-0.00987954203344188,0.009971989456492025,-0.043391165710432444,0.0,70.0,255.0,255.0,255.0
78,3.9000000000000004,4.422529897144609,-1.4266305391004375,-0.33388207272446085,-0.039831500875546766,0.03783846350946307,-0.1710646874442734,-0.008674047902523796,0.00884749357805692,-0.04162264623270295,0.0,70.0,255.0,255.0,255.0
79,3.95,4.420527556006665,-1.4247276150047836,-0.3424872724791217,-0.040236120195169534,0.03825334640454203,-0.17310125804732512,-0.007717176242838519,0.007915747914521987,-0.040062552044378696,0.0,70.0,255.0,255.0,255.0
80,4.0,4.418506285125092,-1.4228052044599833,-0.35119219852919337,-0.04060321849983062,0.03863003830091527,-0.17507094264871126,-0.00732978177229171,0.007461264359731601,-0.03916626628616138,0.0,70.0,255.0,255.0,255.0
81,4.05,4.4164672341566815,-1.420864611174692,-0.3599943667439928,-0.040969098372398705,0.03899947284051519,-0.17701788467594126,-0.007669971578572188,0.007624519501070459,-0.039171393196613113,0.0,70.0,255.0,255.0,255.0
82,4.1000000000000005,4.414409375287852,-1.4189052571759317,-0.3688939869967875,-0.04137021565768784,0.039392490251022316,-0.17898808196837257,-0.008587569877605006,0.008260202564147612,-0.03993629435010693,0.0,70.0,255.0,255.0,255.0
83,4.15,4.412330212590913,-1.4169253621495899,-0.3778931749408301,-0.041827855360159205,0.039825493096929954,-0.18101151411095195,-0.009772795122575673,0.009077052476169634,-0.04113956786155337,0.0,70.0,255.0,255.0,255.0
84,4.2,4.4102265897518365,-1.4149227078662387,-0.3869951384078827,-0.042347495169945404,0.04030019549863928,-0.1831020387545279,-0.010907782595204196,0.009776150096252323,-0.042451271344673414,0.0,70.0,255.0,255.0,255.0
85,4.25,4.408095463073918,-1.412895342599726,-0.39620337881628287,-0.042918633619679625,0.040803108106555186,-0.1852566412454193,-0.01168965600593097,0.010046485754933165,-0.04355247938873652,0.0,70.0,255.0,255.0,255.0
86,4.3,4.4059347263898685,-1.4108423970555832,-0.4055208025324246,-0.0435164607705385,0.041304844074132596,-0.18745728669340156,-0.011951822839950665,0.009730564533394492,-0.04425519974520786,0.0,70.0,255.0,255.0,255.0
87,4.3500000000000005,4.403743816996864,-1.4087648581923127,-0.414949107485623,-0.04411381590367469,0.041776164559894635,-0.18968216121994008,-0.011739222745976718,0.00899354061312252,-0.04455186201739458,0.0,70.0,255.0,255.0,255.0
88,4.4,4.401523344799501,-1.4066647805995938,-0.4244890186544186,-0.04469038304513617,0.04220419813544485,-0.19191247289514102,-0.01118488815796681,0.008157117030171968,-0.044488359710370684,0.0,70.0,255.0,255.0,255.0
89,4.45,4.399274778692351,-1.4045444383787682,-0.4341403547751371,-0.04523230471947137,0.04259187626291183,-0.19413099719097715,-0.010425492910037804,0.007533311374263718,-0.044107187751735166,0.0,70.0,255.0,255.0,255.0
90,4.5,4.397000114327554,-1.4024055929733026,-0.44390211837351634,-0.04573293233613995,0.04295752927287122,-0.19632319167031453,-0.009591594203595122,0.007432699380460761,-0.04345980683484463,0.0,70.0,255.0,255.0,255.0
91,4.55,4.394701485458737,-1.400248685451481,-0.4537726739421686,-0.046191464139830885,0.04333514620095791,-0.1984769778744616,-0.00877448531335645,0.008006882038746888,-0.042599043253810365,0.0,70.0,255.0,255.0,255.0
92,4.6000000000000005,4.392380967913571,-1.3980720783532068,-0.4637498161609625,-0.0466103808674756,0.04375821747674591,-0.20058309599569557,-0.008052741935937746,0.00907845549600328,-0.0416179359020552,0.0,70.0,255.0,255.0,255.0
93,4.65,4.390040447371989,-1.3958728637038065,-0.47383098354173814,-0.04699673833342466,0.044242991750558236,-0.20263877146466713,-0.007532966930590135,0.010300819729724964,-0.04066867161862664,0.0,70.0,255.0,255.0,255.0
94,4.7,4.387681294080228,-1.393647779178151,-0.4840136933074292,-0.04736367756053461,0.044788299449718405,-0.20464996315755823,-0.007328707303155824,0.011331257087521251,-0.039924639653038385,0.0,70.0,255.0,255.0,255.0
95,4.75,4.385304079615936,-1.3913940337588346,-0.49429597985749396,-0.04772960906374024,0.04537611745931036,-0.20663123542997097,-0.007543967179834965,0.011846772667389871,-0.03954833989190387,0.0,70.0,255.0,255.0,255.0
96,4.800000000000001,4.382908333173854,-1.38911016743222,-0.5046768168504263,-0.04811807427851811,0.04597297671645739,-0.20860479714674862,-0.008211774368316327,0.011681534351004608,-0.03961585334679163,0.0,70.0,255.0,255.0,255.0
97,4.8500000000000005,4.380492272188084,-1.386796736087189,-0.5151564595721688,-0.048550786500571874,0.04654427089441082,-0.21059282076465013,-0.009204494825354459,0.01094252085265257,-0.04004921488722779,0.0,70.0,255.0,255.0,255.0
98,4.9,4.378053254523797,-1.3844557403427789,-0.5257360989268913,-0.049038523761053554,0.04706722880172265,-0.2126097186354714,-0.010286041321982964,0.009870559762137354,-0.04068329414143035,0.0,70.0,255.0,255.0,255.0
99,4.95,4.3755884198119785,-1.3820900132070166,-0.536417431435716,-0.04957939063277017,0.04753132687062456,-0.21466115017879317,-0.011201216338907471,0.008714434168277663,-0.04133476645667988,0.0,70.0,255.0,255.0,255.0
100,5.0,4.37309531546052,-1.3797026076557164,-0.5472022139447706,-0.0501586453949443,0.047938672218550415,-0.2167431952811394,-0.011700509105505574,0.0077042192740295334,-0.04181480562548412,0.0,70.0,255.0,255.0,255.0
101,5.050000000000001,4.370572555272484,-1.3772961459851616,-0.5580917509638299,-0.05074944154332073,0.04830174879802751,-0.21884263074134158,-0.011658417213133987,0.0069792416295344495,-0.04201856900000189,0.0,70.0,255.0,255.0,255.0
102,5.1000000000000005,4.368020371306188,-1.3748724327759136,-0.5690864770189048,-0.0513244871162577,0.04863659638150386,-0.22094505218113958,-0.0111773906505519,0.00658418836607666,-0.04198977331366649,0.0,70.0,255.0,255.0,255.0
103,5.15,4.365440106560858,-1.3724324863470112,-0.5801862561819439,-0.05186718060837592,0.04896016763463518,-0.22304160807270823,-0.01047475589279756,0.0065458922707595235,-0.04183190472939469,0.0,70.0,255.0,255.0,255.0
104,5.2,4.36283365324535,-1.3699764160124501,-0.5913906378261756,-0.052371962705537456,0.04929118560857981,-0.22512824265407905,-0.009779714054491961,0.006889980598168144,-0.04164389358777276,0.0,70.0,255.0,255.0,255.0
105,5.25,4.360202910290305,-1.3675033677861532,-0.6026990804473518,-0.052845152013825114,0.04964916569445199,-0.2272059974314855,-0.009333996398996902,0.007648331588505641,-0.04153239098609873,0.0,70.0,255.0,255.0,255.0
106,5.300000000000001,4.357549138043968,-1.365011499443005,-0.6141112375693242,-0.053305362345437146,0.05005601876743038,-0.22928148175268892,-0.009266817851560916,0.008803550412905814,-0.04155593125935164,0.0,70.0,255.0,255.0,255.0
107,5.3500000000000005,4.354872374055761,-1.3624977659094102,-0.6256272286226207,-0.053771833798981206,0.05052952073574257,-0.23136159055742067,-0.009481373807229687,0.01015904736139106,-0.041670759457224094,0.0,70.0,255.0,255.0,255.0
108,5.4,4.35217195466407,-1.3599585473694307,-0.6372473966250662,-0.054253499726160115,0.05107192350356948,-0.23344855769841133,-0.009781182192547533,0.011384192833330253,-0.04179085850269937,0.0,70.0,255.0,255.0,255.0
109,5.45,4.349447024083145,-1.3573905735590532,-0.6489720843924618,-0.05474995201823596,0.0516679400190756,-0.2355406764076906,-0.00997904166286645,0.01213440800760246,-0.04184257294508331,0.0,70.0,255.0,255.0,255.0
110,5.5,4.346696959462246,-1.354791753367523,-0.6608014642658353,-0.05525140389244676,0.05228536430432973,-0.23763281499291966,-0.009875579891271968,0.01206646369589226,-0.041759686374232,0.0,70.0,255.0,255.0,255.0
111,5.550000000000001,4.3439218836939,-1.3521620371286203,-0.6727353658917538,-0.055737510007363156,0.052874586388664824,-0.2397166450451138,-0.009374451240162784,0.011031731544131063,-0.041510619715590114,0.0,70.0,255.0,255.0,255.0
112,5.6000000000000005,4.34112320846151,-1.3495042947286566,-0.6847731287703467,-0.05618884901646304,0.053388537458742835,-0.24178387696447867,-0.008619818082511443,0.009310344799051684,-0.04112896041919001,0.0,70.0,255.0,255.0,255.0
113,5.65,4.338302998792254,-1.346823183382746,-0.6969137535882016,-0.0565994918156143,0.05380562086856999,-0.2438295410870328,-0.007877811374878974,0.007429131267699951,-0.04068372885877025,0.0,70.0,255.0,255.0,255.0
114,5.7,4.3354632592799485,-1.3441237326417996,-0.70915608287905,-0.056976630153950936,0.05413145058551283,-0.2458522498503557,-0.007403979434705832,0.00593070904963966,-0.0402453018113369,0.0,70.0,255.0,255.0,255.0
115,5.75,4.332605335776859,-1.3414100383241947,-0.7214989785732372,-0.05733988975908488,0.05439869177353396,-0.2478540712681665,-0.007451609443354101,0.005349776332019829,-0.03987287284105134,0.0,70.0,255.0,255.0,255.0
116,5.800000000000001,4.32972927030404,-1.3386838634644462,-0.7339414900058666,-0.057721791098286346,0.05466642821871481,-0.24983953713446083,-0.00813626296816139,0.0059498963711268615,-0.03960158987824647,0.0,70.0,255.0,255.0,255.0
117,5.8500000000000005,4.32683315666703,-1.3359433955023232,-0.7464829322866833,-0.05815351605590102,0.054993681410646644,-0.25181423025599114,-0.009273106776497286,0.0074642820670156595,-0.03945069490334241,0.0,70.0,255.0,255.0,255.0
118,5.9,4.32391391869845,-1.3331844953233816,-0.7591229130314657,-0.058649101775936074,0.05541285642541638,-0.2537846066247951,-0.010512141072727132,0.009353734310257877,-0.03943693002498305,0.0,70.0,255.0,255.0,255.0
119,5.95,4.320968246489437,-1.3304021098597816,-0.7718613929491628,-0.059204730163173735,0.05592905484167243,-0.25575792325848945,-0.011499492812827583,0.011070121761158624,-0.03956950652275193,0.0,70.0,255.0,255.0,255.0
120,6.0,4.3179934456821325,-1.3275915898392143,-0.7846987053573147,-0.05979905105721883,0.05651986860153224,-0.25774155727707027,-0.011890010307258336,0.012078486920041875,-0.039852784965588306,0.0,70.0,255.0,255.0,255.0
121,6.050000000000001,4.314988341383715,-1.3247501229996284,-0.7976355486768698,-0.06039373119389957,0.05713690353367662,-0.2597432017550483,-0.011513410640340282,0.012096048938747828,-0.04027733312572668,0.0,70.0,255.0,255.0,255.0
122,6.1000000000000005,4.3119540725627425,-1.3218778994858467,-0.8106730255328195,-0.06095039212125286,0.057729473495407024,-0.26176929058964293,-0.010537638261265414,0.011286979147540066,-0.04078742080655395,0.0,70.0,255.0,255.0,255.0
123,6.15,4.308893302171589,-1.3189771756500877,-0.8238124777358341,-0.06144749502002611,0.058265601448430626,-0.2638219438357037,-0.009304580045199629,0.010020640116015223,-0.04128771188055547,0.0,70.0,255.0,255.0,255.0
124,6.2,4.30580932306074,-1.3160513393410036,-0.8370552199163899,-0.061880850125772824,0.05873153750700855,-0.2658980617776985,-0.008164109920016926,0.008669176865772066,-0.04167769773864016,0.0,70.0,255.0,255.0,255.0
125,6.25,4.302705217159012,-1.3131040218993868,-0.850402283913604,-0.0622639060120278,0.05913251913500783,-0.2679897136095677,-0.007460330679442961,0.007600238691773953,-0.04187197797260733,0.0,70.0,255.0,255.0,255.0
126,6.300000000000001,4.299582932459537,-1.3101380874275028,-0.8638541912773466,-0.06262688319371712,0.05949156137618594,-0.2700852595749592,-0.0073761550767770245,0.007024229552343719,-0.041828564798318535,0.0,70.0,255.0,255.0,255.0
127,6.3500000000000005,4.29644252883964,-1.3071548657617682,-0.8774108098710999,-0.0630015215197055,0.059834942090242205,-0.27217257008939955,-0.007807295888895283,0.006899596214626769,-0.041564097394908295,0.0,70.0,255.0,255.0,255.0
128,6.4,4.293282780307567,-1.3041545932184786,-0.8910714482862866,-0.06340761278260665,0.06018152099764862,-0.27424166931445004,-0.00851942219606272,0.007094427836373818,-0.041128586089267394,0.0,70.0,255.0,255.0,255.0
129,6.45,4.29010176756138,-1.3011367136620033,-0.9048349768025449,-0.06385346373931178,0.060544384873879586,-0.2762854286983263,-0.009276981260786243,0.00748505888750195,-0.04058590298884335,0.0,70.0,255.0,255.0,255.0
130,6.5,4.286897433933635,-1.2981001547310906,-0.9186999911561192,-0.06433531090868527,0.060930026886398814,-0.2783002596133344,-0.009840694947449435,0.007936595608981634,-0.03999934976396391,0.0,70.0,255.0,255.0,255.0
131,6.550000000000001,4.283668236470511,-1.2950437109733635,-0.9326650027638783,-0.06483753323405672,0.06133804443477775,-0.2802853636747227,-0.010076421266802527,0.008361997887007533,-0.03941409532661755,0.0,70.0,255.0,255.0,255.0
132,6.6000000000000005,4.28041368061023,-1.2919663502876129,-0.9467285275235915,-0.06534295303536553,0.06176622667509957,-0.28224166914599613,-0.01003774694732229,0.008754729234028424,-0.03887432481197717,0.0,70.0,255.0,255.0,255.0
133,6.65,4.277133941166975,-1.2888670883058535,-0.9608891696784779,-0.06584130792878895,0.06221351735818059,-0.2841727961559204,-0.009851484083966966,0.009119037815730202,-0.03844148688602056,0.0,70.0,255.0,255.0,255.0
134,6.7,4.273829549817351,-1.2857449985517948,-0.9751458071391835,-0.06632810144376222,0.06267813045667259,-0.2860858178345982,-0.00963556410420452,0.00943869947234166,-0.0381776646649401,0.0,70.0,255.0,255.0,255.0
135,6.75,4.270501131022598,-1.2825992752601862,-0.9894977514619377,-0.0668048643392094,0.06315738730541476,-0.2879905626224144,-0.009516842910706202,0.009705313604291277,-0.03813062297147729,0.0,70.0,255.0,255.0,255.0
136,6.800000000000001,4.26714906338343,-1.2794292598212533,-1.003944863401425,-0.06727978573483284,0.06364866181710171,-0.2898988801317459,-0.009564220462809914,0.009914352326223508,-0.038316079536226955,0.0,70.0,255.0,255.0,255.0
137,6.8500000000000005,4.263773152449115,-1.276234409078476,-1.0184876394751123,-0.0677612863854904,0.06414882253803711,-0.2918221705760371,-0.009720783921896015,0.010044190811986375,-0.03869506023380653,0.0,70.0,255.0,255.0,255.0
138,6.9,4.260372934744881,-1.2730143775674496,-1.0331270804590287,-0.06825186412702244,0.06465308089830035,-0.29376838615512657,-0.009876413029541453,0.010066716937884301,-0.039187331168544226,0.0,70.0,255.0,255.0,255.0
139,6.95,4.256947966036413,-1.269769100988646,-1.047864478090625,-0.06874892768844454,0.06515549423182554,-0.2957409036928915,-0.009933676074247444,0.009966856509957545,-0.03969775070551407,0.0,70.0,255.0,255.0,255.0
140,7.0,4.253498041976036,-1.266498828144267,-1.0627011708283178,-0.06924523173444719,0.0656497665492961,-0.297738161225678,-0.009795989353733603,0.009738187269947574,-0.0401381117300037,0.0,70.0,255.0,255.0,255.0
141,7.050000000000001,4.250023442862968,-1.2632041243337164,-1.0776382942131928,-0.0697285266238179,0.0661293129588203,-0.2997547148658919,-0.00941961063558594,0.009386280453571594,-0.04045538606229915,0.0,70.0,255.0,255.0,255.0
142,7.1000000000000005,4.246525189313655,-1.259885896848385,-1.092676642314907,-0.07018719279800578,0.06658839459465327,-0.3017836998319079,-0.00888088892692096,0.008949346678788217,-0.0406290706166379,0.0,70.0,255.0,255.0,255.0
143,7.15,4.243004723583168,-1.256545284874251,-1.1078166641963836,-0.07061661551651,0.06702424762669912,-0.3038176219275557,-0.008321931396348958,0.00849493359376119,-0.04064471291540528,0.0,70.0,255.0,255.0,255.0
144,7.2,4.239463527762004,-1.2531834720857151,-1.1230584045076626,-0.07101938593764068,0.06743788795402939,-0.3058481711234484,-0.00788250549161873,0.008099562133612181,-0.0404918453332348,0.0,70.0,255.0,255.0,255.0
145,7.25,4.2359027849894035,-1.2498014960788482,-1.1384014813087284,-0.07140486606567187,0.06783420384006034,-0.30786680646087916,-0.007691181026103777,0.007837974611879517,-0.04016093943244314,0.0,70.0,255.0,255.0,255.0
146,7.300000000000001,4.2323230411554364,-1.246400051701709,-1.1538450851537505,-0.07178850404025106,0.06822168541521734,-0.30986426506669273,-0.007811136528435014,0.007747239146116414,-0.03966135057371645,0.0,70.0,255.0,255.0,255.0
147,7.3500000000000005,4.228723934585378,-1.2429793275373264,-1.1693879078153977,-0.07218597971851537,0.06860892775467198,-0.3118329415182508,-0.008191184846406685,0.0077957185101507065,-0.039069496460619746,0.0,70.0,255.0,255.0,255.0
148,7.4,4.225104443183585,-1.239539158926242,-1.1850283793055756,-0.07260762252489172,0.06900125726623241,-0.3137712147127547,-0.00871949774889913,0.007916252649953215,-0.03851465633077922,0.0,70.0,255.0,255.0,255.0
149,7.45,4.221463172332889,-1.2360792018107032,-1.2007650292866732,-0.07305792949340528,0.0694005530196673,-0.3156844071513287,-0.009276814780179166,0.008034894955466498,-0.038133842320320355,0.0,70.0,255.0,255.0,255.0
150,7.5,4.217798650234244,-1.2325991036242752,-1.2165968200207085,-0.07353530400290964,0.06980474676177906,-0.31758459894478674,-0.009751267893154392,0.008065904958365344,-0.038062139863925815,0.0,70.0,255.0,255.0,255.0
151,7.550000000000001,4.214109641932598,-1.2290987271345253,-1.2325234891811518,-0.07403305628272072,0.07020714351550383,-0.3194906211377213,-0.010076356070776171,0.007965275782750858,-0.038359724463510325,0.0,70.0,255.0,255.0,255.0
152,7.6000000000000005,4.210395344605972,-1.2255783892727248,-1.2485458821344806,-0.07454293960998726,0.07060127434005414,-0.3214205713911378,-0.010238008052088077,0.0077887116816999225,-0.038928468016696804,0.0,70.0,255.0,255.0,255.0
153,7.65,4.2066553479716,-1.2220385997005199,-1.2646655463202656,-0.07505685708792953,0.07098601468367383,-0.323383467939391,-0.010235602083508155,0.007638284244371185,-0.03958029812503039,0.0,70.0,255.0,255.0,255.0
154,7.7,4.202889658897179,-1.2184797878043574,-1.2808842289284197,-0.07556649981833807,0.07136510276449126,-0.3253786012036408,-0.010070748208157454,0.0076079442914434026,-0.040120011492428276,0.0,70.0,255.0,255.0,255.0
155,7.75,4.199098697989766,-1.2149020894240707,-1.2972034064406297,-0.07606393190874527,0.07174680911281817,-0.3273954690886338,-0.009747756724998169,0.0077943496108900945,-0.04035451043578053,0.0,70.0,255.0,255.0,255.0
156,7.800000000000001,4.195283265706305,-1.2113051068930756,-1.313623775837283,-0.07654127549083789,0.07214453772558027,-0.32941405224721887,-0.009282413546607415,0.008238743970134799,-0.040186464859193194,0.0,70.0,255.0,255.0,255.0
157,7.8500000000000005,4.191444570440682,-1.2076876356515127,-1.3301448116653516,-0.07699217326340602,0.07257068350983165,-0.33141411557455314,-0.008737622106824716,0.008847663201128064,-0.039702039398292754,0.0,70.0,255.0,255.0,255.0
158,7.9,4.187584048379964,-1.2040480385420924,-1.3467651873947384,-0.07741503770152036,0.07302930404569308,-0.33338425618704814,-0.008218933078651958,0.009451542773186716,-0.03907874324358129,0.0,70.0,255.0,255.0,255.0
159,7.95,4.18370306667053,-1.2003847052469434,-1.3634832372840564,-0.07781406657127121,0.07351583778715032,-0.33532198989891127,-0.007839166745959858,0.00988055398587484,-0.038499398422997544,0.0,70.0,255.0,255.0,255.0
160,8.0,4.179802641722837,-1.1966964547633774,-1.3802973863846295,-0.07819895437611635,0.07401735944428056,-0.3372341960293479,-0.007701714530128356,0.009964715246413292,-0.03815580906902927,0.0,70.0,255.0,255.0,255.0
161,8.05,4.175883171232918,-1.1929829693025154,-1.3972066568869912,-0.07858423802428405,0.07451230931179165,-0.3391375708058142,-0.007854502562842924,0.009625948803138051,-0.03814718999257671,0.0,70.0,255.0,255.0,255.0
162,8.1,4.171944217920409,-1.1892452238321982,-1.414211143465211,-0.07898440463240064,0.07497995432459437,-0.34104891502860557,-0.00824702799651078,0.008985111038217752,-0.03837973802656158,0.0,70.0,255.0,255.0,255.0
163,8.15,4.167984730769678,-1.185484973870056,-1.4313115483898518,-0.07940894082393513,0.07541082041561342,-0.34297554460847035,-0.008772301965631613,0.008271908299106734,-0.03866920442496813,0.0,70.0,255.0,255.0,255.0
164,8.200000000000001,4.164003323838015,-1.1817041417906369,-1.448508697926058,-0.0798616348289638,0.07580714515450504,-0.3449158354711024,-0.00931309762863819,0.0077226136576680204,-0.038835308568341276,0.0,70.0,255.0,255.0,255.0
165,8.25,4.159998567286782,-1.1779042593546054,-1.465803131936962,-0.08034025058679894,0.07618308178138022,-0.3468590754653045,-0.009757366506768506,0.007582780079440354,-0.038682299908332496,0.0,70.0,255.0,255.0,255.0
166,8.3,4.155969298779335,-1.1740858336124989,-1.4831946054725884,-0.08083737147964065,0.07656542316244908,-0.34878406546193563,-0.010040089022211873,0.007970747530805511,-0.03811820174399738,0.0,70.0,255.0,255.0,255.0
167,8.35,4.151914830138818,-1.1702477170383605,-1.5006815384831556,-0.08134425948902013,0.07698015653446078,-0.3506708956397042,-0.010157902270169217,0.008726484720811278,-0.03730171245825975,0.0,70.0,255.0,255.0,255.0
168,8.4,4.147834872830433,-1.1663878179590528,-1.5182616950365588,-0.08185316170665757,0.0774380716345302,-0.3525142367077616,-0.010127383534541679,0.009546231955659401,-0.0365217350937419,0.0,70.0,255.0,255.0,255.0
169,8.450000000000001,4.143729513968152,-1.1625039098749075,-1.5359329621539317,-0.0823569978424743,0.07793477973002672,-0.3543230691490784,-0.009968955560513137,0.010129131243297174,-0.03605922744320811,0.0,70.0,255.0,255.0,255.0
170,8.5,4.139599173046186,-1.15859433998605,-1.5536940019514667,-0.08285005726270889,0.07845098475885992,-0.3561201594520824,-0.009712828767405313,0.010172229703830915,-0.036202916705718735,0.0,70.0,255.0,255.0,255.0
171,8.55,4.135444508241881,-1.1546588113990215,-1.57154497809914,-0.08332828071921483,0.0789520027004098,-0.3579433608196503,-0.009384115707344876,0.009530688113357222,-0.03708088881262395,0.0,70.0,255.0,255.0,255.0
172,8.6,4.131266344974264,-1.1506991397160091,-1.5894883380334317,-0.08378846883344337,0.07940405357019564,-0.3598282483333448,-0.00900220208279734,0.008396129565846344,-0.03844716505401191,0.0,70.0,255.0,255.0,255.0
173,8.65,4.127065661358537,-1.146718406042002,-1.6075278029324744,-0.08422850092749457,0.07979161565699444,-0.36178807732505147,-0.008599003057252474,0.007136823551978644,-0.0398484239643615,0.0,70.0,255.0,255.0,255.0
174,8.700000000000001,4.122843494881515,-1.1427199781503097,-1.6256671457659368,-0.08464836913916862,0.08011773592539351,-0.36381309072978096,-0.008216767775248712,0.006120208688420448,-0.040828947160065354,0.0,70.0,255.0,255.0,255.0
175,8.75,4.11860082444462,-1.1387066324494626,-1.6439091120054525,-0.08505017770501944,0.08040363652583649,-0.365870972041058,-0.007887355719571332,0.005704245161064492,-0.040930089213064846,0.0,70.0,255.0,255.0,255.0
176,8.8,4.114338477111013,-1.134679614497726,-1.6622542429700427,-0.08543710471112576,0.08068816044149996,-0.36790609965108745,-0.0076301614348572855,0.006066872976195903,-0.03993735722460645,0.0,70.0,255.0,255.0,255.0
177,8.85,4.110057113973507,-1.1306378164053126,-1.6806997219705613,-0.08581319384850516,0.08101032382345608,-0.36986470776351865,-0.007470585435243038,0.007039113566098543,-0.038161282337201285,0.0,70.0,255.0,255.0,255.0
178,8.9,4.1057571577261625,-1.1265785821153804,-1.6992407137463945,-0.08618416325465006,0.08139207179810981,-0.3717222278848076,-0.007439308199774786,0.008275518125522296,-0.036194592358818056,0.0,70.0,255.0,255.0,255.0
179,8.950000000000001,4.101438697648042,-1.1224986092255016,-1.717871944759042,-0.08655712466848264,0.0818378756360083,-0.37348416699940046,-0.007557260052060144,0.009423973396782692,-0.03463710512856544,0.0,70.0,255.0,255.0,255.0
180,9.0,4.097101445259314,-1.1183947945517796,-1.7365891304463346,-0.08693988925985607,0.08233446913778808,-0.3751859383976641,-0.007841711058187428,0.010138808299675617,-0.03408866117413645,0.0,70.0,255.0,255.0,255.0
181,9.05,4.092744708722057,-1.1142651623117228,-1.7553905385988084,-0.08734129577430139,0.08285175646597587,-0.3768930331168141,-0.008289550907569776,0.010235759375909481,-0.034843341962798036,0.0,70.0,255.0,255.0,255.0
182,9.1,4.088367315681884,-1.110109618905182,-1.774278433758016,-0.08776884435061305,0.08335804507537903,-0.3786702725939439,-0.008834617015018864,0.009816460459033394,-0.03657241422156954,0.0,70.0,255.0,255.0,255.0
183,9.15,4.0839678242869955,-1.1059293578041849,-1.7932575658582028,-0.08822475747580327,0.08383340251187921,-0.38055027453897106,-0.009362924983236098,0.009111220496116346,-0.0386276588147938,0.0,70.0,255.0,255.0,255.0
184,9.200000000000001,4.079544839934304,-1.101726278653994,-1.812333461211913,-0.08870513684893666,0.08426916712499066,-0.3825330384754233,-0.00975521765749221,0.008350983971450177,-0.04035671157989196,0.0,70.0,255.0,255.0,255.0
185,9.25,4.075097310602102,-1.0975024410916858,-1.8315108697057452,-0.0892002792415525,0.08466850090902422,-0.38458594569696025,-0.009901790723620962,0.007768493667970056,-0.04111135000650634,0.0,70.0,255.0,255.0,255.0
186,9.3,4.0706248120101485,-1.0932594285630917,-1.850792055781609,-0.08969531592129876,0.08504601649178767,-0.38664417347607394,-0.009751122114565192,0.00749563730579883,-0.04056284135780519,0.0,70.0,255.0,255.0,255.0
187,9.35,4.066127779009972,-1.088997839442507,-1.8701752870533526,-0.09017539145300901,0.08541806463960411,-0.38864222983274077,-0.00935542202862294,0.00749047583337159,-0.03900528455251795,0.0,70.0,255.0,255.0,255.0
188,9.4,4.061607272864848,-1.0847176220991313,-1.8896562787648832,-0.09063085812416105,0.08579506407512483,-0.39054470193132573,-0.008825355503905286,0.007645846976300774,-0.03703854860586109,0.0,70.0,255.0,255.0,255.0
189,9.450000000000001,4.057064693197556,-1.0804183330349946,-1.9092297572464851,-0.09105792700339954,0.08618264933723419,-0.3923460846933269,-0.008281356497885639,0.007864491649733907,-0.03526248211855876,0.0,70.0,255.0,255.0,255.0
190,9.5,4.052501480164508,-1.0760993571654078,-1.9288908872342159,-0.09145899377394962,0.08658151324009822,-0.3940709501431816,-0.007839144695331868,0.008047263648292002,-0.034269854883617334,0.0,70.0,255.0,255.0,255.0
191,9.55,4.047918793820161,-1.0717601817109847,-1.9486368522608033,-0.09184184147293273,0.08698737570206339,-0.3957730701816886,-0.007565447813195902,0.00813563079493651,-0.03437121335192472,0.0,70.0,255.0,255.0,255.0
192,9.600000000000001,4.043317296017214,-1.0674006195952015,-1.9684681942523847,-0.0922155385552692,0.08739507631959187,-0.3975080714783741,-0.007460058506136846,0.008142568608504597,-0.03535199535402711,0.0,70.0,255.0,255.0,255.0
193,9.65,4.038697239964634,-1.0630206740790256,-1.9883876594086407,-0.09258784732354641,0.08780163256291384,-0.3993082697170913,-0.007500128526238825,0.008103620036847836,-0.03675343813709375,0.0,70.0,255.0,255.0,255.0
194,9.700000000000001,4.03405851128486,-1.05862045633891,-2.008399021224094,-0.09296555140789309,0.08820543832327665,-0.40118341529208346,-0.007658843531199722,0.008044848963439932,-0.038119700272276624,0.0,70.0,255.0,255.0,255.0
195,9.75,4.029400684823845,-1.054200130246698,-2.028506000937849,-0.09335373167666638,0.08860611745925784,-0.403120239744319,-0.007897621170904756,0.007990423766712773,-0.0389972957268947,0.0,70.0,255.0,255.0,255.0
196,9.8,4.024723138117193,-1.0497598445929843,-2.0487110451985258,-0.09375531352498356,0.08900448069994793,-0.4050831448647729,-0.008188112273366244,0.007955126227687792,-0.03914018402224606,0.0,70.0,255.0,255.0,255.0
197,9.850000000000001,4.020025153471346,-1.045299682176703,-2.0690143154243263,-0.09417254290400301,0.08940163008202662,-0.4070342581465436,-0.008523504785351577,0.007939249732746845,-0.038676710721397,0.0,70.0,255.0,255.0,255.0
198,9.9,4.015305883826793,-1.0408196815847817,-2.08941447101318,-0.09460766400351872,0.08979840567322261,-0.4089508159369126,-0.00889329123028304,0.00793967287637809,-0.03789604383426237,0.0,70.0,255.0,255.0,255.0
199,9.950000000000001,4.010564387070994,-1.0363198416093808,-2.1099093970180176,-0.09506187202703131,0.09019559736966443,-0.41082386252996983,-0.00927758173236981,0.007956112496421142,-0.0370796025733533,0.0,70.0,255.0,255.0,255.0
200,10.0,4.00579969662409,-1.0318001218478152,-2.130496857266177,-0.0955354221767557,0.09059401692286473,-0.41265877619424796,-0.009674333325326856,0.007991041284616252,-0.036516906264472127,0.0,70.0,255.0,255.0,255.0
201,10.05,4.001010844853319,-1.0272604399170944,-2.1511752746374424,-0.096029305359564,0.09099470149812605,-0.41447555315641704,-0.010075389806551982,0.008043864294471348,-0.036366885057725895,0.0,70.0,255.0,255.0,255.0
202,10.100000000000001,3.9961967660881332,-1.0227006516980026,-2.171944412581819,-0.0965429611574109,0.09139840335231186,-0.41629546470002055,-0.010408626314406533,0.008100432460844686,-0.03653659299600598,0.0,70.0,255.0,255.0,255.0
203,10.15,3.9913565487375777,-1.0181205995818632,-2.1928048211074445,-0.09707016799100465,0.09180474474421052,-0.41812921245601764,-0.010564002589807941,0.008137688457621195,-0.0368286336121848,0.0,70.0,255.0,255.0,255.0
204,10.200000000000001,3.9864897492890328,-1.0135201772235816,-2.2137573338274206,-0.0975993614163917,0.09221217219807398,-0.419978328061239,-0.01044425611329558,0.008130701050701461,-0.03706100365330478,0.0,70.0,255.0,255.0,255.0
205,10.25,3.9815966125959386,-1.0088993823620558,-2.2348026539135684,-0.09811459360233421,0.09261781484928067,-0.4218353128213481,-0.009953110795812847,0.008045411094714794,-0.03704715380714596,0.0,70.0,255.0,255.0,255.0
206,10.3,3.9766782899287993,-1.0042583957386535,-2.2559408651095554,-0.09859467249597298,0.09301671330754546,-0.4236830434419536,-0.009062216612454321,0.00786941659461915,-0.03669241560695369,0.0,70.0,255.0,255.0,255.0
207,10.350000000000001,3.9717371453463413,-0.9995977110313012,-2.2771709582577637,-0.09902081526357964,0.09340475650874258,-0.4255045543820435,-0.00792460067930989,0.007659020424000129,-0.03609962125752375,0.0,70.0,255.0,255.0,255.0
208,10.4,3.9667762084024414,-0.9949179200877792,-2.2984913205477597,-0.09938713256390397,0.09378261534994548,-0.427293005567706,-0.006810605170137762,0.007509573292974192,-0.03546671775445098,0.0,70.0,255.0,255.0,255.0
209,10.450000000000001,3.961798432089951,-0.9902194494963067,-2.3199002588145343,-0.09970187578059342,0.09415571383804,-0.4290512261574886,-0.00599714206628299,0.007514370013927962,-0.03498295623969305,0.0,70.0,255.0,255.0,255.0
210,10.5,3.956806020824382,-0.9855023487039752,-2.3413964431635086,-0.09998684677053227,0.09453405235133827,-0.4307913011916753,-0.005749214167449779,0.007775286364453127,-0.03483443188665447,0.0,70.0,255.0,255.0,255.0
211,10.55,3.9517997474128976,-0.9807660442611729,-2.362979388933702,-0.1002767971973384,0.09493324247448531,-0.43253466934615403,-0.006190056098454022,0.008332268860966607,-0.035110538761840004,0.0,70.0,255.0,255.0,255.0
212,10.600000000000001,3.946778341104648,-0.9760090244565267,-2.384649910098124,-0.10060585238037767,0.09536727923743493,-0.4343023550678593,-0.00716401991911475,0.009061714281466404,-0.0357004464496935,0.0,70.0,255.0,255.0,255.0
213,10.65,3.94173916217486,-0.9712293163374294,-2.406409624440488,-0.10099319918924987,0.09583941390263195,-0.4361047139911234,-0.00836084945667892,0.009744950771273242,-0.036388131733700035,0.0,70.0,255.0,255.0,255.0
214,10.700000000000001,3.936679021185723,-0.9664250830662635,-2.4282603814972363,-0.10144193732604556,0.09634177431456226,-0.4379411682412293,-0.009454914549600346,0.010165758287461468,-0.03695439749518137,0.0,70.0,255.0,255.0,255.0
215,10.75,3.9315949684422553,-0.9615951389059731,-2.4502037412646107,-0.1019386906442099,0.0968559897313781,-0.4398001537406415,-0.010126023210021984,0.01011349006756479,-0.03717912796998846,0.0,70.0,255.0,255.0,255.0
216,10.8,3.9264851521213022,-0.9567394840931257,-2.4722403968713005,-0.10245453964704776,0.09735312332131874,-0.44165908103822815,-0.010204785101119995,0.009493908893964953,-0.0369521426324404,0.0,70.0,255.0,255.0,255.0
217,10.850000000000001,3.9213495144775505,-0.9518598265738413,-2.4943696493684335,-0.1029591691543219,0.0978053806207746,-0.44349536800388556,-0.009788363933438404,0.008460369536444912,-0.03638400086933835,0.0,70.0,255.0,255.0,255.0
218,10.9,3.91618923520587,-0.9469589460310482,-2.516589933671689,-0.1034333760403916,0.09819916027496323,-0.445297481125162,-0.009096113552953256,0.007306054857325606,-0.035695347385145126,0.0,70.0,255.0,255.0,255.0
219,10.950000000000001,3.9110061768735114,-0.942039910546345,-2.5388993974809497,-0.10386878050961723,0.09853598610650716,-0.44706490274240007,-0.008350285982761108,0.006334857908396607,-0.0351060272060888,0.0,70.0,255.0,255.0,255.0
220,11.0,3.9058023571549083,-0.9371053474203975,-2.561296423945929,-0.10426840463866771,0.09883264606580289,-0.44880808384577087,-0.007774665020310323,0.005850753365332917,-0.03483301893707491,0.0,70.0,255.0,255.0,255.0
221,11.05,3.9005793364096446,-0.9321566459397647,-2.583780205865527,-0.10464624701164826,0.09912106144304045,-0.45054820463610756,-0.007496351282343383,0.00600538227658598,-0.03498746413486131,0.0,70.0,255.0,255.0,255.0
222,11.100000000000001,3.8953377324537435,-0.9271932412760935,-2.60635124440954,-0.10501803976690205,0.09943318429346149,-0.452306830259257,-0.0074779555830684075,0.006648695684596806,-0.03547814214801548,0.0,70.0,255.0,255.0,255.0
223,11.15,3.8900775324329544,-0.9222133275104185,-2.6290108888914525,-0.1053940425699551,0.09978593101150013,-0.4540960188509091,-0.007620943417574466,0.00747894168744434,-0.036115886651044704,0.0,70.0,255.0,255.0,255.0
224,11.200000000000001,3.884798328196748,-0.9172146481749435,-2.6517608462946307,-0.1057801341086595,0.10018107846220592,-0.45591841892436147,-0.007836342451561507,0.008188236652495462,-0.0367149202535888,0.0,70.0,255.0,255.0,255.0
225,11.25,3.8794995190220884,-0.9121952196641979,-2.6746027307838887,-0.10617767681511125,0.10060475467674967,-0.457767510876268,-0.008035363328984246,0.008455524443162776,-0.03710483357801664,0.0,70.0,255.0,255.0,255.0
226,11.3,3.874180560515237,-0.9071541727072685,-2.6975375973822575,-0.10658367044155792,0.1010266309065222,-0.45962890228216313,-0.008163749163303535,0.008118501393472588,-0.03719142740163939,0.0,70.0,255.0,255.0,255.0
227,11.350000000000001,3.8688411519779327,-0.9020925565735457,-2.720565621012105,-0.10699405173144161,0.10141660481609693,-0.46148665361643193,-0.008220746135378931,0.0073511880514631756,-0.036988838463658524,0.0,70.0,255.0,255.0,255.0
228,11.4,3.8634811553420927,-0.8970125122256588,-2.7436862627439007,-0.10740574505509581,0.10176174971166851,-0.463327786128529,-0.008218341215249225,0.006490998905805956,-0.036555698085249944,0.0,70.0,255.0,255.0,255.0
229,11.450000000000001,3.858100577472423,-0.8919163816023788,-2.766898399624958,-0.10781588585296653,0.10206570470667753,-0.4651422234249569,-0.008158143744640967,0.005865855155395838,-0.03595429177978282,0.0,70.0,255.0,255.0,255.0
230,11.5,3.852699566756796,-0.8868059417549911,-2.7902004850863964,-0.10822155942955991,0.1023483352272081,-0.46692321530650727,-0.008031853691425894,0.005807055621898094,-0.03523566539915812,0.0,70.0,255.0,255.0,255.0
231,11.55,3.847278421529467,-0.881681548079658,-2.8135907211556086,-0.10861907122210912,0.10264641026886734,-0.46866578996487274,-0.007841938777808366,0.006474271823009303,-0.03444580061766622,0.0,70.0,255.0,255.0,255.0
232,11.600000000000001,3.841837659634585,-0.8765413007281043,-2.8370670640828837,-0.10900575330734075,0.10299576240950903,-0.4703677953682739,-0.007639059875685916,0.007659372622359495,-0.033684639195108446,0.0,70.0,255.0,255.0,255.0
233,11.65,3.836377846198733,-0.8713819718387071,-2.860627500692436,-0.10938297720967771,0.10341234753110329,-0.4720342538843836,-0.007505691721476637,0.00896340301573817,-0.03310486413137248,0.0,70.0,255.0,255.0,255.0
234,11.700000000000001,3.8308993619136174,-0.866200065974994,-2.884270489471322,-0.10975632247948841,0.10389210271108285,-0.47367828178141114,-0.007524369282929655,0.009988995406617907,-0.03286017369981131,0.0,70.0,255.0,255.0,255.0
235,11.75,3.825402213950784,-0.8609927615675989,-2.907995328870577,-0.11013541413797068,0.10441124707176508,-0.4753202712543647,-0.007785193932985379,0.010340309013356919,-0.03310047685318729,0.0,70.0,255.0,255.0,255.0
236,11.8,3.8198858204998203,-0.8557589412678175,-2.9318025165967585,-0.11053484187278695,0.10492613361241854,-0.47698832946672987,-0.008322295259377555,0.009824038354055986,-0.033880195302504745,0.0,70.0,255.0,255.0,255.0
237,11.850000000000001,3.8143487297635055,-0.850500148206357,-2.95569416181725,-0.11096764366390843,0.10539365090717068,-0.4787082907846152,-0.009021242800200113,0.008661204908977371,-0.0350272900707882,0.0,70.0,255.0,255.0,255.0
238,11.9,3.8087890561334294,-0.8452195761771004,-2.97967334567522,-0.11143696615280696,0.10579225410331627,-0.4804910584738087,-0.009679824299624329,0.007286344742218898,-0.036227642592034925,0.0,70.0,255.0,255.0,255.0
239,11.950000000000001,3.803205033148225,-0.8399209227960254,-3.003743267664631,-0.11193562609387087,0.10612228538139257,-0.4823310550438187,-0.010098318517615112,0.00613751053751832,-0.037153265169376226,0.0,70.0,255.0,255.0,255.0
240,12.0,3.7975954935240424,-0.8346073476389612,-3.027906451179602,-0.11244679800456847,0.1064060051570681,-0.4842063849907463,-0.010087417196569248,0.0056516617045976325,-0.03748242718777384,0.0,70.0,255.0,255.0,255.0
241,12.05,3.791960353347768,-0.8292803222803186,-3.0521639061637056,-0.11294436781352779,0.10668745155185233,-0.48607929776259606,-0.009561281117331788,0.006049434900545769,-0.037059618638402014,0.0,70.0,255.0,255.0,255.0
242,12.100000000000001,3.7863010567426896,-0.8239386024837759,-3.0765143809558615,-0.11340292611630165,0.10701094864712268,-0.4879123468545865,-0.008642216010423809,0.007124991891016563,-0.036056083971880426,0.0,70.0,255.0,255.0,255.0
243,12.15,3.7806200607361378,-0.8185792274156063,-3.1009551408491642,-0.11380858941457017,0.10739995074095399,-0.4896849061597841,-0.007570442315385506,0.008462033866207808,-0.034815521211184475,0.0,70.0,255.0,255.0,255.0
244,12.200000000000001,3.7749201978012326,-0.8131986074096805,-3.12548287157184,-0.1141599703478402,0.10785715203374346,-0.49139389897570496,-0.0065946177185693955,0.009647815590130282,-0.03369282622878167,0.0,70.0,255.0,255.0,255.0
245,12.25,3.7692040637013537,-0.807793512212232,-3.1500945307467347,-0.11446805118642711,0.10836473229996701,-0.4930541887826623,-0.005945137280249924,0.010285118760289258,-0.03304179574787902,0.0,70.0,255.0,255.0,255.0
246,12.3,3.76347339268259,-0.8023621341796838,-3.174788290450106,-0.11475448407586519,0.10888566390977239,-0.49469807855049286,-0.005745866984341319,0.010165075190604611,-0.033047390749940675,0.0,70.0,255.0,255.0,255.0
247,12.350000000000001,3.7577286152937672,-0.7969049458212547,-3.199564338601784,-0.11504263788486124,0.10938123981902748,-0.49635892785765634,-0.005961781270569233,0.009409643377866761,-0.033579329752830844,0.0,70.0,255.0,255.0,255.0
248,12.4,3.7519691288941037,-0.7914240101977811,-3.2244241832358718,-0.11535066220292212,0.10982662824755907,-0.49805601152577594,-0.006486518327086799,0.008294703942168802,-0.03436015601314679,0.0,70.0,255.0,255.0,255.0
249,12.450000000000001,3.746193549073475,-0.7859222829964988,-3.2493699397543616,-0.11569128971756992,0.11021071021324436,-0.499794943458971,-0.00720321060785345,0.007097800528510501,-0.03511505695463768,0.0,70.0,255.0,255.0,255.0
250,12.5,3.7403999999223467,-0.7804029391764566,-3.274403677581769,-0.11607098326370746,0.11053640830041012,-0.5015675172212397,-0.008000005710195879,0.006079844606066143,-0.03557444576487434,0.0,70.0,255.0,255.0,255.0
251,12.55,3.7345864507471043,-0.7748686421664578,-3.2995266914764856,-0.11649129028858951,0.11081869467385097,-0.5033523880354585,-0.008796789406817496,0.005395812122521715,-0.03559147104299498,0.0,70.0,255.0,255.0,255.0
252,12.600000000000001,3.728750870893488,-0.7693210697090715,-3.3247389163853147,-0.11695066220438921,0.11107598951266229,-0.5051266643255392,-0.009513456110443741,0.005069161870407957,-0.035232937342666304,0.0,70.0,255.0,255.0,255.0
253,12.65,3.7228913845266653,-0.7637610432151916,-3.3500393579090395,-0.11744263589963388,0.11132561086089177,-0.5068756817697251,-0.010038169690851362,0.005088101414207902,-0.034656675248800894,0.0,70.0,255.0,255.0,255.0
254,12.700000000000001,3.7170066073035244,-0.7581885086229824,-3.375426484562287,-0.11795447917347435,0.11158479965408308,-0.5085923318504193,-0.010254078311300319,0.005439956654729183,-0.03401403220029131,0.0,70.0,255.0,255.0,255.0
255,12.75,3.711095936609318,-0.7526025632497833,-3.4008985910940814,-0.11846804373076392,0.11186960652636468,-0.5102770849897542,-0.010054839879325428,0.006107484167228172,-0.03344438389683013,0.0,70.0,255.0,255.0,255.0
256,12.8,3.705159802930448,-0.7470015479703459,-3.4264541930612626,-0.11895996316140689,0.1121955480708059,-0.5119367702401023,-0.009405436926757105,0.007053727601380455,-0.03303278568380641,0.0,70.0,255.0,255.0,255.0
257,12.850000000000001,3.6991999402931772,-0.7413830084427027,-3.4520922681180917,-0.11940858742343963,0.11257497928650273,-0.5135803635581349,-0.008429708972590433,0.008152030818953104,-0.03280528451234943,0.0,70.0,255.0,255.0,255.0
258,12.9,3.693218944188104,-0.7357440500416956,-3.477812229417076,-0.11980293405866593,0.1130107511527012,-0.5152172986913373,-0.007358005706858961,0.009191212079318056,-0.03277761851618877,0.0,70.0,255.0,255.0,255.0
259,12.950000000000001,3.6872196468873106,-0.7300819333274325,-3.5036139979872254,-0.12014438799412552,0.11349410049443454,-0.5168581254097537,-0.006438937685571133,0.009944424134600283,-0.03296830142422991,0.0,70.0,255.0,255.0,255.0
260,13.0,3.6812045053886915,-0.7243946399922522,-3.5294980419580515,-0.12044682782722305,0.11400519356616123,-0.5185141288337602,-0.005912662744567143,0.010202200076925294,-0.03340400932385634,0.0,70.0,255.0,255.0,255.0
261,13.05,3.6751749641045883,-0.7186814139708164,-3.5554654108706014,-0.12073565426858224,0.11451432050212706,-0.5201985263421394,-0.005901462886326314,0.00986825183089124,-0.03407841186251481,0.0,70.0,255.0,255.0,255.0
262,13.100000000000001,3.6691309399618333,-0.7129432079420395,-3.5815178945922654,-0.12103697411585568,0.11499201874925036,-0.5219219700200117,-0.006319596111259429,0.009051665902826134,-0.03486508544705558,0.0,70.0,255.0,255.0,255.0
263,13.15,3.6630712666930028,-0.7071822120958914,-3.6076576078726026,-0.12136761387970818,0.11541948709240968,-0.5236850348868449,-0.006977919369743901,0.007979777541333721,-0.035552011525830096,0.0,70.0,255.0,255.0,255.0
264,13.200000000000001,3.6569941785738624,-0.7014012592327985,-3.63388639808095,-0.12173476605283007,0.11578999650338373,-0.5254771711725947,-0.007676884233021042,0.0069013211658641715,-0.03592050103047306,0.0,70.0,255.0,255.0,255.0
265,13.25,3.6508977900877198,-0.695603212445553,-3.660205324989862,-0.12213530230301028,0.1161096192089961,-0.5272770849898922,-0.008214509142145943,0.006059752821074849,-0.0357475974556376,0.0,70.0,255.0,255.0,255.0
266,13.3,3.6447806483435614,-0.6897902973118989,-3.686614106579939,-0.12255621696704466,0.11639597178549121,-0.5290519309181585,-0.00847645045554124,0.005592239433926949,-0.03493925451207858,0.0,70.0,255.0,255.0,255.0
267,13.350000000000001,3.6386421683910153,-0.6839636152670039,-3.713110518081678,-0.12298294734856441,0.11666884315238879,-0.5307710104411001,-0.008496475347330446,0.0054740328424340845,-0.03370062078564828,0.0,70.0,255.0,255.0,255.0
268,13.4,3.632482353608705,-0.67812341299666,-3.739691207624049,-0.1234058645017777,0.11694337506973462,-0.5324219929967233,-0.008364069728195034,0.005618628804471282,-0.03240976661560424,0.0,70.0,255.0,255.0,255.0
269,13.450000000000001,3.6263015819408375,-0.6722692777600304,-3.7663527173813502,-0.12381935432138391,0.11723070603283592,-0.5340119871026605,-0.008161124449967971,0.005935978847637635,-0.031455242239264436,0.0,70.0,255.0,255.0,255.0
270,13.5,3.6201004181765666,-0.6664003423933764,-3.793092406334315,-0.1242219769467745,0.11753697295449839,-0.5355675172206498,-0.00796925406643112,0.006322797962654558,-0.031233572881639304,0.0,70.0,255.0,255.0,255.0
271,13.55,3.61387938424616,-0.6605155804645806,-3.8199094691034152,-0.12461627972802702,0.11786298582910137,-0.5371353443908244,-0.007838795897319173,0.006711042181661853,-0.031931656336414704,0.0,70.0,255.0,255.0,255.0
272,13.600000000000001,3.607638790203764,-0.6546140438104663,-3.8468059407733977,-0.12500585653650642,0.11820807717266457,-0.5387606828542912,-0.007773570098823512,0.007092295967525697,-0.03328254796075569,0.0,70.0,255.0,255.0,255.0
273,13.65,3.6013787985925094,-0.6486947727473141,-3.8737855373888443,-0.12539363673790938,0.11857221542585394,-0.5404635991869,-0.007767573279160445,0.0074630965182453934,-0.03477796630071417,0.0,70.0,255.0,255.0,255.0
274,13.700000000000001,3.595099426529973,-0.6427568222678809,-3.9008523006920877,-0.12578261386442247,0.11895438682448911,-0.5422384794843627,-0.0078248184331553,0.007802875331741621,-0.03590589597948224,0.0,70.0,255.0,255.0,255.0
275,13.75,3.588800537206067,-0.6367993340648652,-3.9280093853372806,-0.1261761185812249,0.1193525029590281,-0.5440541887848482,-0.007960502564197114,0.008100990060166957,-0.0361501856100066,0.0,70.0,255.0,255.0,255.0
276,13.8,3.5824818146718505,-0.6308215719719781,-3.9552577195705725,-0.12657866412084218,0.1197644858305058,-0.5458534980453633,-0.008175079241823369,0.008350165265980092,-0.03526046046831155,0.0,70.0,255.0,255.0,255.0
277,13.850000000000001,3.576142670793983,-0.6248228854818146,-3.982594735141817,-0.12699362650540724,0.12018751948562612,-0.5475802348316794,-0.008409244257556736,0.00851948725009155,-0.03354177478396281,0.0,70.0,255.0,255.0,255.0
278,13.9,3.5697824520213097,-0.6188028200234155,-4.01001574305374,-0.12741958854659785,0.12061643455551496,-0.5492076755237596,-0.008565637155033556,0.008566281159794187,-0.031586619930212834,0.0,70.0,255.0,255.0,255.0
279,13.950000000000001,3.563400711939323,-0.6127612420262631,-4.037515502694193,-0.1278501902209106,0.12104414760160553,-0.5507388968247007,-0.008546315104185354,0.008459233112212416,-0.029987094588568297,0.0,70.0,255.0,255.0,255.0
280,14.0,3.5569974329992187,-0.6066984052632549,-4.0650896327362105,-0.12827422005701639,0.1214623578667362,-0.5522063849826164,-0.008240763649070004,0.008169279092817838,-0.029325591438666976,0.0,70.0,255.0,255.0,255.0
281,14.05,3.5505732899336215,-0.6006150062395895,-4.0927361411924545,-0.1286742665858176,0.12186107551088732,-0.5536714559685674,-0.007607087601257945,0.007693984400070075,-0.02989344817709849,0.0,70.0,255.0,255.0,255.0
282,14.100000000000001,3.544130006340637,-0.5945122977121662,-4.120456778333067,-0.12903492881714218,0.12223175630674321,-0.5551957298003263,-0.006791224432589615,0.007110594192871744,-0.03141506152788409,0.0,70.0,255.0,255.0,255.0
283,14.15,3.5376697970519073,-0.5883918306089152,-4.148255714172487,-0.12935338902907656,0.12257213493017449,-0.5568129621213558,-0.0060489456999768265,0.006552618003408117,-0.033330006193477146,0.0,70.0,255.0,255.0,255.0
284,14.200000000000001,3.5311946674377293,-0.5822550842191487,-4.176138074545203,-0.12963982338713986,0.12288701810708402,-0.558528730419674,-0.005635981756357822,0.006159166578445507,-0.03507309163301997,0.0,70.0,255.0,255.0,255.0
285,14.25,3.5247058147131933,-0.5761031287982068,-4.204108587214455,-0.12991698720471234,0.12318805158801904,-0.5603202712846578,-0.005816396219238129,0.0060659028926379754,-0.036091504579172096,0.0,70.0,255.0,255.0,255.0
286,14.3,3.518202968717258,-0.5699362790603468,-4.232170101673669,-0.13022146300906368,0.12349360839634782,-0.5621378808775912,-0.006704169420501671,0.006334409954178444,-0.03609311279140215,0.0,70.0,255.0,255.0,255.0
287,14.350000000000001,3.511683668412287,-0.563753767958572,-4.260322375302214,-0.1305874041467625,0.12382149258343689,-0.563929582563798,-0.008059610925847949,0.006873660453876607,-0.03525243131896616,0.0,70.0,255.0,255.0,255.0
288,14.4,3.5051442283025818,-0.5575541298020031,-4.288563059930048,-0.13102742410164847,0.12418097444173548,-0.5656631240094878,-0.009443148809795687,0.007506883190244729,-0.033958063920014325,0.0,70.0,255.0,255.0,255.0
289,14.450000000000001,3.498580926002122,-0.5513356705143985,-4.3168886877031625,-0.13153171902774208,0.12457218090246136,-0.5673253889557994,-0.010410923371928504,0.008051326681268733,-0.032600911839431035,0.0,70.0,255.0,255.0,255.0
290,14.5,3.4919910563998076,-0.545096911711757,-4.345295598825628,-0.13206851643884132,0.12498610710986235,-0.5689232151934309,-0.010517707417756483,0.00833111866067604,-0.03157235294892757,0.0,70.0,255.0,255.0,255.0
291,14.55,3.485374074358238,-0.5388370598034122,-4.373781009222506,-0.13258348976951773,0.12540529276852896,-0.5704826242506922,-0.009555348935519348,0.00825508906995287,-0.03109242233572118,0.0,70.0,255.0,255.0,255.0
292,14.600000000000001,3.478732707422856,-0.5325563824349041,-4.4023438612506975,-0.13302405133239326,0.12581161601685764,-0.572032457427003,-0.007821986875811149,0.007880171916962997,-0.03108700806793152,0.0,70.0,255.0,255.0,255.0
293,14.65,3.4720716692249987,-0.5262558982017265,-4.430984254965206,-0.13336568845709884,0.12619330996022526,-0.5735913250574853,-0.005888482371219084,0.007334441310136164,-0.03136846073719113,0.0,70.0,255.0,255.0,255.0
294,14.700000000000001,3.465396138577146,-0.5199370514388816,-4.459702993756446,-0.13361289956951516,0.12654506014787126,-0.5751693035007222,-0.0043324459683802274,0.00674881340979594,-0.031761862407986285,0.0,70.0,255.0,255.0,255.0
295,14.75,3.458710379268047,-0.5136013921869393,-4.488501185315278,-0.13379893305393686,0.12686819130120486,-0.576767511298284,-0.003724708841446045,0.006245613140698492,-0.03208714889337827,0.0,70.0,255.0,255.0,255.0
296,14.8,3.452016245271752,-0.5072502323087611,-4.5173797448862745,-0.13398537045365977,0.1271696214619411,-0.57837801839006,-0.004348094510664424,0.0058980076587999974,-0.03223836336641028,0.0,70.0,255.0,255.0,255.0
297,14.850000000000001,3.445311842222681,-0.5008844300407452,-4.546338987154284,-0.1342337425050033,0.12745799206708486,-0.579991347634925,-0.005917150195688947,0.005722015514653123,-0.032241401210875154,0.0,70.0,255.0,255.0,255.0
298,14.9,3.438592871021252,-0.4945044331020526,-4.575378879649767,-0.13457708547322866,0.12774182301340642,-0.5816021585111475,-0.007857373920128197,0.005719827093664254,-0.03216455000867313,0.0,70.0,255.0,255.0,255.0
299,14.950000000000001,3.4318541336753583,-0.4881102477394046,-4.604499203005399,-0.13501947989701613,0.12802997477645128,-0.5832078026357923,-0.009586658721749686,0.005892906858973035,-0.03205923759663776,0.0,70.0,255.0,255.0,255.0
300,15.0,3.4250909230315503,-0.4817014356244075,-4.633699659913346,-0.13553575134540363,0.12833111369930372,-0.5848080822708113,-0.010527513160241142,0.006242419452545667,-0.03197499553246885,0.0,70.0,255.0,255.0,255.0
301,15.05,3.418300558540818,-0.4752771363694742,-4.66298001123248,-0.13607223121304024,0.12865421672170585,-0.5864053021890392,-0.0103796389892441,0.0067539059358467934,-0.03194069762493257,0.0,70.0,255.0,255.0,255.0
302,15.100000000000001,3.4114836999102462,-0.4688360139522369,-4.69234019013225,-0.13657371524432804,0.1290065042928884,-0.5880021520333045,-0.009363864555966828,0.007350926863558538,-0.03194738708911515,0.0,70.0,255.0,255.0,255.0
303,15.15,3.404643187016385,-0.4623764859401854,-4.72178022643581,-0.13700861766863692,0.1293893094080617,-0.5896000408979507,-0.007946730572916394,0.007905411154451869,-0.031973339228486,0.0,70.0,255.0,255.0,255.0
304,15.200000000000001,3.3977828381433826,-0.4558970830114307,-4.751300194222045,-0.13736838830161968,0.1297970454083336,-0.5911994859561531,-0.0065945788180865605,0.00828058479534488,-0.03200118720503298,0.0,70.0,255.0,255.0,255.0
305,15.25,3.390906348186223,-0.449396781399352,-4.780900175031426,-0.13766807555044558,0.1302173678875962,-0.592800159618454,-0.0057771732497435835,0.00834069972506235,-0.03201286897596134,0.0,70.0,255.0,255.0,255.0
306,15.3,3.384016030588338,-0.4428753462226711,-4.810580210183891,-0.13794610562659404,0.13063111538083982,-0.5944007728537493,-0.005745470744811243,0.008025855777277213,-0.031998846134317915,0.0,70.0,255.0,255.0,255.0
307,15.350000000000001,3.3771117376235638,-0.43633366986126804,-4.840340252316801,-0.1382426226249267,0.1310199534653239,-0.5960000442318858,-0.0063374148902894945,0.007438752555605221,-0.0319690504331227,0.0,70.0,255.0,255.0,255.0
308,15.4,3.3701917683258453,-0.4297733508761387,-4.870180214607079,-0.138579847115623,0.13137499063640035,-0.5975976778970615,-0.007207358799821151,0.006774891924954396,-0.031942093077219624,0.0,70.0,255.0,255.0,255.0
309,15.450000000000001,3.3632537529120015,-0.423196170797628,-4.900100020106507,-0.13896335850490882,0.13169744265781935,-0.5991942535396078,-0.008020853512036297,0.006237527852415159,-0.031936013583244716,0.0,70.0,255.0,255.0,255.0
310,15.5,3.3562954324753544,-0.4166036066103568,-4.93009963996104,-0.13938193246682662,0.13199874342164186,-0.600791279255386,-0.008439877756627467,0.006030772323084577,-0.03197352856298963,0.0,70.0,255.0,255.0,255.0
311,15.55,3.349315559665319,-0.4099962964554638,-4.960179148032045,-0.13980734628057156,0.1323005198901278,-0.6023916063959067,-0.008285843998345754,0.006255957668332979,-0.032063917837721334,0.0,70.0,255.0,255.0,255.0
312,15.600000000000001,3.3423146978472973,-0.403373554621344,-4.990338800600631,-0.1402105168666612,0.13262433918847516,-0.6039976710391581,-0.007692816209203812,0.006808654988721408,-0.03217641117956305,0.0,70.0,255.0,255.0,255.0
313,15.65,3.3352945079786527,-0.3967338625366163,-5.020578915135961,-0.14057662790149195,0.13298138538899995,-0.605609247513863,-0.006936654741096504,0.007480429071182737,-0.03225828846256107,0.0,70.0,255.0,255.0,255.0
314,15.700000000000001,3.328257035057148,-0.390075416082444,-5.050899725352017,-0.14090418234077084,0.13337238209559343,-0.6072234998854142,-0.006282380094813078,0.008062730368407767,-0.032261471748284976,0.0,70.0,255.0,255.0,255.0
315,15.75,3.3212040897445756,-0.38339662432705696,-5.081301265124503,-0.14120486591097325,0.13378765842584073,-0.6088353946886915,-0.0059952504554150465,0.008352248278559182,-0.03214504474406965,0.0,70.0,255.0,255.0,255.0
316,15.8,3.3141365484660508,-0.37669665023985993,-5.111783264820886,-0.14150370738631235,0.13420760692344935,-0.6104380043598212,-0.006211013400525545,0.008243740122737542,-0.03189168298085576,0.0,70.0,255.0,255.0,255.0
317,15.850000000000001,3.3070537190059444,-0.369975863634712,-5.142345065560485,-0.1418259672510258,0.13461203243811448,-0.6120245629867771,-0.006805912347251919,0.007812035414950236,-0.031527076410409194,0.0,70.0,255.0,255.0,255.0
318,15.9,3.299953951740948,-0.3632354469960485,-5.172985721119564,-0.14218429862103754,0.13498881046494438,-0.6135907120008621,-0.007531430162011077,0.0072179838650376915,-0.031103820671241067,0.0,70.0,255.0,255.0,255.0
319,15.950000000000001,3.2928352891438406,-0.3564769825882176,-5.203704136760571,-0.14257911026722692,0.13533383082461825,-0.6151349450539012,-0.008143052682729746,0.006624837387253502,-0.030677586603111706,0.0,70.0,255.0,255.0,255.0
320,16.0,3.2856960407142255,-0.34970206391358666,-5.234499215624954,-0.14299860388931052,0.13565129420366973,-0.6166584706611733,-0.008395157717799862,0.006196225238574993,-0.030290301785296236,0.0,70.0,255.0,255.0,255.0
321,16.05,3.2785354287549096,-0.3429118531678506,-5.265369983826688,-0.1434186260390069,0.13595345334847575,-0.6181639752324308,-0.00816352897281547,0.006021855733434611,-0.029969350239156256,0.0,70.0,255.0,255.0,255.0
322,16.1,3.271354178110325,-0.3361067185787391,-5.296315613148197,-0.14381495678659206,0.1362534797770132,-0.6196554056850889,-0.007568942326807715,0.006059566987864917,-0.029752579215802655,0.0,70.0,255.0,255.0,255.0
323,16.150000000000002,3.2641539330762503,-0.3292865051901493,-5.327335524395197,-0.14417552027168767,0.13655941004726224,-0.6211392331540111,-0.0068522166852602595,0.006212110993242259,-0.029689132815224895,0.0,70.0,255.0,255.0,255.0
324,16.2,3.256936626083156,-0.32245077757401286,-5.358429536463598,-0.1445001784551181,0.1368746908763374,-0.6226243189666114,-0.006251982601090944,0.006384120548763583,-0.029821468552881925,0.0,70.0,255.0,255.0,255.0
325,16.25,3.2497039152307385,-0.31559903610251555,-5.389597956291858,-0.14480071853179677,0.1371978221021386,-0.6241213800092993,-0.006008081377473218,0.0064708694150816815,-0.03019771081849143,0.0,70.0,255.0,255.0,255.0
326,16.3,3.2424565542299764,-0.308730995363799,-5.420841674464528,-0.1451009865928654,0.13752177781784558,-0.6256440900484606,-0.006241444134724716,0.006416063050745935,-0.030825228416375694,0.0,70.0,255.0,255.0,255.0
327,16.35,3.235193816571452,-0.301846858320731,-5.452162365296704,-0.14542486294526924,0.1378394284072132,-0.6272039028509369,-0.0068329104202735635,0.006270629034588193,-0.03158176756539177,0.0,70.0,255.0,255.0,255.0
328,16.400000000000002,3.2279140679354494,-0.2949470525230777,-5.483562064749622,-0.14578427763489277,0.1381488407213044,-0.6288022668049997,-0.0075451110222779505,0.006131800600256421,-0.03225880890775912,0.0,70.0,255.0,255.0,255.0
329,16.45,3.2206153888079627,-0.28803197424860055,-5.515042591977204,-0.14617937404749703,0.13845260846723884,-0.6304297837417128,-0.008142443486036655,0.006085766664709613,-0.03264427811364712,0.0,70.0,255.0,255.0,255.0
330,16.5,3.2132961305306997,-0.2811017916763538,-5.546605043123793,-0.14659852198349643,0.13875741738777536,-0.6320666946163644,-0.008388554068305965,0.006216241157019908,-0.032526873587990224,0.0,70.0,255.0,255.0,255.0
331,16.55,3.205955536609613,-0.274156232509823,-5.578249261438841,-0.14701822945432763,0.13907423258294083,-0.6336824711005118,-0.008164121061504659,0.006560978310687915,-0.03181542374015578,0.0,70.0,255.0,255.0,255.0
332,16.6,3.198594307585267,-0.2671943684180597,-5.609973290233844,-0.1474149340896469,0.13941351521884415,-0.63524823699038,-0.0075848239178277765,0.007056145312056561,-0.030686597609008714,0.0,70.0,255.0,255.0,255.0
333,16.650000000000002,3.1912140432006484,-0.2602148809879386,-5.641774085137879,-0.1477767118461104,0.13977984711414648,-0.6367511308614127,-0.006881931300739552,0.007581619006694074,-0.02947106278980982,0.0,70.0,255.0,255.0,255.0
334,16.7,3.183816636400656,-0.25321638370664507,-5.673648403319985,-0.14810312721972085,0.14017167711951356,-0.638195343269361,-0.0062848168808304905,0.008020038899550497,-0.028506966778607534,0.0,70.0,255.0,255.0,255.0
335,16.75,3.1764037304786763,-0.24619771327598725,-5.705593619464815,-0.14840519353419346,0.14058185100410153,-0.6396018275392734,-0.006021665052813319,0.008272184604801724,-0.02812276685686399,0.0,70.0,255.0,255.0,255.0
336,16.8,3.1689761170472366,-0.2391581986062349,-5.737608586073913,-0.14870529372500219,0.14099889557999373,-0.6410076199550474,-0.006208645045902017,0.008286224172740497,-0.028480162869559678,0.0,70.0,255.0,255.0,255.0
337,16.85,3.161533201106176,-0.23209782371798787,-5.76969438146032,-0.14902605803878366,0.14141047342137558,-0.6424498438262294,-0.006742385983304899,0.00806926524175855,-0.029421958550024385,0.0,70.0,255.0,255.0,255.0
338,16.900000000000002,3.154073511243358,-0.22501715126409735,-5.801853570456536,-0.14937953232333268,0.1418058221041696,-0.6439498158100498,-0.007412571700626813,0.007658087009357328,-0.030625984222432123,0.0,70.0,255.0,255.0,255.0
339,16.95,3.146595247873843,-0.2179172415075709,-5.834089363041325,-0.14976731520884634,0.14217628212231131,-0.6455124422484726,-0.008011715564038013,0.007100278203200916,-0.031761794164442136,0.0,70.0,255.0,255.0,255.0
340,17.0,3.1390967797224736,-0.21079952305186622,-5.866404814681383,-0.15018070387973648,0.14251584992448968,-0.647125995226494,-0.008340823015995369,0.006435067043727982,-0.03251007763171998,0.0,70.0,255.0,255.0,255.0
341,17.05,3.131577177485869,-0.20366565651512195,-5.898801962563974,-0.15060139751044588,0.1428197888266841,-0.6487634500116446,-0.00829472532797304,0.0056998126440444,-0.032697864176078895,0.0,70.0,255.0,255.0,255.0
342,17.1,3.124036639971429,-0.1965175441691978,-5.931281159682547,-0.15101017641253378,0.14308583118889412,-0.650395781644102,-0.00793104007477119,0.004984928919191112,-0.03239461248183417,0.0,70.0,255.0,255.0,255.0
343,17.150000000000002,3.116476159844616,-0.18935707339623253,-5.963841540728384,-0.151394501517923,0.14331828171860322,-0.652002911259828,-0.007382373971909217,0.004429576079478803,-0.03177511687084689,0.0,70.0,255.0,255.0,255.0
344,17.2,3.1088971898196367,-0.1821857159973375,-5.99648145080853,-0.1517484138097247,0.143528788796842,-0.6535732933311866,-0.006781607576034077,0.004171109359785152,-0.031019656095576664,0.0,70.0,255.0,255.0,255.0
345,17.25,3.1013013184636433,-0.17500419451654833,-6.029198870061503,-0.1520726622755264,0.14373539265458174,-0.6551048768693857,-0.006251033558690722,0.004335519248171993,-0.03031692261572516,0.0,70.0,255.0,255.0,255.0
346,17.3,3.093689923592084,-0.16781217673187931,-6.061991938495469,-0.15237351716559377,0.1439623407216592,-0.6566049855927591,-0.0058652275350290495,0.004969350425929053,-0.029780128677980855,0.0,70.0,255.0,255.0,255.0
347,17.35,3.086063966747084,-0.1606079604443824,-6.094859368620779,-0.1526591850290293,0.14423232769717464,-0.6580828897371838,-0.0056498173545804775,0.005945704396256857,-0.02939679432056863,0.0,70.0,255.0,255.0,255.0
348,17.400000000000002,3.078424005089181,-0.15338894396216185,-6.127800227469187,-0.15293849890105182,0.14455691116128488,-0.659544665024816,-0.005622407936334284,0.007026405875559805,-0.029118862980670457,0.0,70.0,255.0,255.0,255.0
349,17.45,3.0707701168569788,-0.14615226932825393,-6.16081383512326,-0.15322142582266274,0.14493496828473063,-0.6609947760352508,-0.005801341310762709,0.007956822819124576,-0.028911469564629755,0.0,70.0,255.0,255.0,255.0
350,17.5,3.063101862506915,-0.1388954471336888,-6.193899705072712,-0.1535186330321281,0.14535259344319734,-0.662435811981279,-0.006211033424996515,0.008490827991521066,-0.028726287848712673,0.0,70.0,255.0,255.0,255.0
351,17.55,3.055418253553766,-0.1316170099839342,-6.227057416321388,-0.1538425291651624,0.14578405108388273,-0.6638674048201221,-0.006845390172971477,0.008502785652236833,-0.028535560505904556,0.0,70.0,255.0,255.0,255.0
352,17.6,3.0477176095903986,-0.12431704202530051,-6.2602864455547245,-0.15420317204942524,0.14620287200842103,-0.6652893680318694,-0.007588851346573833,0.008080365383940358,-0.028376438674015958,0.0,70.0,255.0,255.0,255.0
353,17.650000000000002,3.0399979363488234,-0.11699672278309209,-6.293586353124575,-0.15460141429981977,0.14659208762227677,-0.6667050486875237,-0.008247155122065308,0.007416688530220705,-0.028310363608152755,0.0,70.0,255.0,255.0,255.0
354,17.7,3.0322574681604166,-0.10965783326307284,-6.326956950423477,-0.15502788756163177,0.1469445408614431,-0.6681204043926847,-0.008620766108080602,0.006714886076951421,-0.02838155189301972,0.0,70.0,255.0,255.0,255.0
355,17.75,3.0244951475926602,-0.10230226869694778,-6.360398393563844,-0.15546349091062783,0.1472635762299719,-0.6695432038768256,-0.008512851389719245,0.006181168785687752,-0.028629860720563727,0.0,70.0,255.0,255.0,255.0
356,17.8,3.016711119069354,-0.09493147564007565,-6.393911270811159,-0.1558791727006037,0.14756265774001187,-0.6709833904647411,-0.007838899418866063,0.005931768037371887,-0.029065228366143003,0.0,70.0,255.0,255.0,255.0
357,17.85,3.0089072303226,-0.08754600292294659,-6.427496732610318,-0.15624738085251444,0.1478567530337091,-0.6724497267134399,-0.006761024344781319,0.005928265303484226,-0.029616611822547156,0.0,70.0,255.0,255.0,255.0
358,17.900000000000002,3.0010863809841024,-0.08014580033670474,-6.461156243482503,-0.15655527513508183,0.1481554842703603,-0.6739450516469958,-0.005584402810843159,0.006073087089879248,-0.030158843426164594,0.0,70.0,255.0,255.0,255.0
359,17.95,2.9932517028090917,-0.07273045449591056,-6.494891237775017,-0.15680582113359876,0.14846406174269702,-0.6754656110560564,-0.004621142042626758,0.006276033805414083,-0.030563348504308863,0.0,70.0,255.0,255.0,255.0
360,18.0,2.9854057988707425,-0.06529939416243503,-6.528702804588109,-0.1570173893393445,0.1487830876509017,-0.6770013864974267,-0.00416553304445344,0.006444543485691623,-0.030710259944477514,0.0,70.0,255.0,255.0,255.0
361,18.05,2.9775499638751572,-0.05785214573082039,-6.56259137642476,-0.1572223744380441,0.14910851609126619,-0.6785366370505042,-0.004366098398866924,0.006524081592202691,-0.030543013208905734,0.0,70.0,255.0,255.0,255.0
362,18.1,2.969683561426938,-0.050388542553308414,-6.5965564682931594,-0.1574539991792312,0.14943549581012197,-0.6800556878183173,-0.005117167824142399,0.006527505803148592,-0.030121589560661022,0.0,70.0,255.0,255.0,255.0
363,18.150000000000002,2.961804563957234,-0.042908596149808194,-6.630596945206592,-0.15773409122045834,0.14976126667158104,-0.6815487960065703,-0.006184277923360071,0.0064891915485698615,-0.029570626324204596,0.0,70.0,255.0,255.0,255.0
364,18.2,2.9539101523048923,-0.03541241588615031,-6.6647113478938165,-0.1580724269715672,0.15008441496497896,-0.6830127504507377,-0.007321891828659943,0.006434778235112348,-0.029024541268451998,0.0,70.0,255.0,255.0,255.0
365,18.25,2.9459973212600774,-0.027900154653310298,-6.698898220251666,-0.15846628040332433,0.15040474449509228,-0.6844512501334155,-0.008301007108313385,0.006388629299426685,-0.02861711814867718,0.0,70.0,255.0,255.0,255.0
366,18.3,2.93806352426456,-0.02037194143664108,-6.733156472907158,-0.15890252768239854,0.15072327789492163,-0.6858744622656054,-0.008984445913329253,0.00636519230710314,-0.028422205978806403,0.0,70.0,255.0,255.0,255.0
367,18.35,2.9301070684918376,-0.012827826863818136,-6.767485666478226,-0.15936472499465726,0.1510412637258026,-0.6872934707312961,-0.009337577086387938,0.006361711484007826,-0.028413393572712664,0.0,70.0,255.0,255.0,255.0
368,18.400000000000002,2.922127051765094,-0.005267815064060817,-6.801885819980288,-0.15983628539103734,0.1513594490433224,-0.6887158016228767,-0.009349534447000707,0.00637014671591829,-0.028523126801438536,0.0,70.0,255.0,255.0,255.0
369,18.45,2.914123439952734,0.0023081180405141078,-6.836357246640514,-0.16029967843935733,0.15167827839739442,-0.69014578341144,-0.009012316283385502,0.006384853254064182,-0.028684686886126798,0.0,70.0,255.0,255.0,255.0
370,18.5,2.9060970839211584,0.009900012775678625,-6.870900398321432,-0.1607375170193759,0.15199793436872883,-0.6915842703114894,-0.008318457169886884,0.006400939316510423,-0.028829286107434626,0.0,70.0,255.0,255.0,255.0
371,18.55,2.8980496882507962,0.017507911477386992,-6.905515673671663,-0.16113152415634602,0.15231837232904546,-0.6930287120221834,-0.007294066665908261,0.0064151491793865145,-0.028915388984440682,0.0,70.0,255.0,255.0,255.0
372,18.6,2.889983931505524,0.025131850008583173,-6.94020326952365,-0.1614669236859667,0.15263944928666748,-0.6944758092099335,-0.006094202152606698,0.006425648260907635,-0.02894576855130282,0.0,70.0,255.0,255.0,255.0
373,18.650000000000002,2.8819029958821996,0.03277185640605374,-6.974963254592656,-0.1617409443716067,0.15296093715513623,-0.6959232888773137,-0.004979262610360635,0.006430221587830354,-0.0289350949080891,0.0,70.0,255.0,255.0,255.0
374,18.7,2.873809837068363,0.0404279437240968,-7.009795598411381,-0.16196484994700278,0.1532824714454505,-0.6973693187007424,-0.004226791755401749,0.006425808748559414,-0.028890510719836726,0.0,70.0,255.0,255.0,255.0
375,18.75,2.8657065108874993,0.048100103550598794,-7.04470018646273,-0.16216362354714686,0.15360351802999217,-0.6988123399492974,-0.004113182860043807,0.006407613434442905,-0.028813709448805014,0.0,70.0,255.0,255.0,255.0
376,18.8,2.8575934747136484,0.055788295527096014,-7.079676832406311,-0.16237616823300716,0.1539232327888948,-0.7002506896456229,-0.004760313063822963,0.006374210975350902,-0.02870952479687716,0.0,70.0,255.0,255.0,255.0
377,18.85,2.8494688940641986,0.06349242682948827,-7.114725255427293,-0.16263965485352916,0.15424093912752726,-0.7016832924289851,-0.005956663254336192,0.006335695472442504,-0.028603532222692962,0.0,70.0,255.0,255.0,255.0
378,18.900000000000002,2.8413295092282955,0.07121238943984874,-7.14984516164921,-0.16297183455844078,0.15455680233613905,-0.7031110428678922,-0.007300687839073561,0.006308966932835336,-0.02853649356620025,0.0,70.0,255.0,255.0,255.0
379,18.95,2.8331717106083545,0.07894810706310218,-7.185036359714082,-0.16336972363743651,0.1548718358208108,-0.7045369417856051,-0.008374968909574676,0.006311911751646915,-0.02855327023443266,0.0,70.0,255.0,255.0,255.0
380,19.0,2.824992536864552,0.08669957302192982,-7.22029885582777,-0.16380933144939824,0.15518799351130375,-0.7059663698913354,-0.008756830037848218,0.006368606945635069,-0.028715876097162862,0.0,70.0,255.0,255.0,255.0
381,19.05,2.8167907774634147,0.09446690641423255,-7.255632996703215,-0.16424540664122134,0.1555086965153743,-0.7074085293953214,-0.008238107651736826,0.006488006919196099,-0.029046511827957033,0.0,70.0,255.0,255.0,255.0
382,19.1,2.8085679962004297,0.10225044267346725,-7.291039708767302,-0.16463314221457193,0.15583679420322336,-0.7088710210741311,-0.007049960681015932,0.006631569849380181,-0.02944010255792051,0.0,70.0,255.0,255.0,255.0
383,19.150000000000002,2.8003274632419575,0.11005058583455489,-7.3265200988106285,-0.16495040270932293,0.15617185350031232,-0.7103525396511134,-0.005647170182765393,0.0067339106809088944,-0.02971893082772681,0.0,70.0,255.0,255.0,255.0
384,19.200000000000003,2.7920729559294974,0.11786762802349848,-7.362074962732414,-0.16519785923284847,0.15651018527131424,-0.7118429141569038,-0.00448647945958669,0.006733257531574277,-0.02970983491676904,0.0,70.0,255.0,255.0,255.0
385,19.25,2.7838076773186726,0.12570160436168631,-7.397704390226319,-0.1653990506552816,0.15684517925346975,-0.7133235231427903,-0.004027422396557512,0.006569986754977053,-0.0292268421056896,0.0,70.0,255.0,255.0,255.0
386,19.3,2.7755330508639693,0.13355214594884546,-7.433407315046693,-0.16560060147250422,0.15716718394681195,-0.7147655983674728,-0.004500403182250423,0.0062199618140246216,-0.02819682882257979,0.0,70.0,255.0,255.0,255.0
387,19.35,2.767247617171422,0.1414183227563675,-7.469180950063066,-0.16584909097350664,0.1574671754348722,-0.7161432060250483,-0.005672678171153578,0.005739796691855981,-0.026839600669692487,0.0,70.0,255.0,255.0,255.0
388,19.400000000000002,2.7589481417666186,0.14929886349233268,-7.505021635649197,-0.16616786928961957,0.15774116361599755,-0.717449558434442,-0.007081447280654629,0.005234457942659976,-0.025545918322045225,0.0,70.0,255.0,255.0,255.0
389,19.450000000000003,2.7506308302424602,0.15719243911796726,-7.54092590590651,-0.1665572357015721,0.1579906212291382,-0.7186977978572529,-0.008265966398601776,0.004807832014822044,-0.02470622459753713,0.0,70.0,255.0,255.0,255.0
390,19.5,2.7422924181964614,0.1650979256152465,-7.576891415434923,-0.16699446592947975,0.15822194681747975,-0.7199201808941957,-0.008765554967782307,0.004543427386366483,-0.024708690210584194,0.0,70.0,255.0,255.0,255.0
391,19.55,2.7339313836495123,0.17301463379971524,-7.61291792399593,-0.16743379119835033,0.15844496396777485,-0.7211686668783113,-0.008347132766051146,0.004485945358442822,-0.025727571482558886,0.0,70.0,255.0,255.0,255.0
392,19.6,2.7255490390766264,0.18094242201202398,-7.649008282122754,-0.16782917920608487,0.15867054135332403,-0.7224929380424516,-0.007230142485337154,0.004644767858721921,-0.027470772153392886,0.0,70.0,255.0,255.0,255.0
393,19.650000000000002,2.717148465728904,0.18888168793504764,-7.685167217800175,-0.16815680544688405,0.15890944075364705,-0.7239157440936506,-0.005856224843858726,0.005011893912165721,-0.029385601012688056,0.0,70.0,255.0,255.0,255.0
394,19.700000000000003,2.708733358531938,0.1968333660873887,-7.721399856532119,-0.16841480169047074,0.1591717307445406,-0.7254314981437204,-0.0046628017995153925,0.005569213942993589,-0.03090694501528546,0.0,70.0,255.0,255.0,255.0
395,19.75,2.7003069855598567,0.2047988610095017,-7.757710367614547,-0.1686230856268356,0.1594663621479464,-0.7270064385951791,-0.004078283140040995,0.0063162570794556006,-0.03147443434734498,0.0,70.0,255.0,255.0,255.0
396,19.8,2.6918710499692544,0.21278000230218333,-7.794100500391637,-0.16882263000447484,0.15980335645248617,-0.7285789415784549,-0.0043242126060327735,0.007230569106433937,-0.03081251228591597,0.0,70.0,255.0,255.0,255.0
397,19.85,2.6834247225594092,0.22077919665475032,-7.830568261772393,-0.16905550688743887,0.1601894190585898,-0.7300876898237707,-0.005235936037006894,0.008162996675092904,-0.02921260209234333,0.0,70.0,255.0,255.0,255.0
398,19.900000000000002,2.6749654992805105,0.2287989442080423,-7.867109269374014,-0.16934622360817553,0.16061965611999546,-0.7315002017876893,-0.006464469195144318,0.008874423285235022,-0.027257225413723773,0.0,70.0,255.0,255.0,255.0
399,19.950000000000003,2.6664901001985917,0.23684116226674987,-7.9037182819511616,-0.1697019538069533,0.1610768613871133,-0.7328134123651431,-0.007662966263444204,0.009129764427756593,-0.025538629374644017,0.0,70.0,255.0,255.0,255.0
400,20.0,2.657995303899815,0.24490663034675364,-7.940390610610528,-0.17011252023451995,0.16153263256277112,-0.7340540647251537,-0.008501359092072391,0.00869560023979421,-0.024649516454822162,0.0,70.0,255.0,255.0,255.0
401,20.05,2.6494788481751397,0.252994425523027,-7.977123688423677,-0.17055208971616054,0.16194642141109272,-0.7352783640106253,-0.008796669490518383,0.007483153507095719,-0.024895013405501487,0.0,70.0,255.0,255.0,255.0
402,20.1,2.640940094928199,0.2611012724878629,-8.01391844701159,-0.1709921871835718,0.1622809479134807,-0.7365435660657038,-0.008595157655744146,0.00575033168794814,-0.026024367263133286,0.0,70.0,255.0,255.0,255.0
403,20.150000000000002,2.6323796294567825,0.26922252031437505,-8.050778045030247,-0.17141160548173495,0.16252145457988754,-0.7378808007369386,-0.008036014925361101,0.003966683343259447,-0.027520788708645938,0.0,70.0,255.0,255.0,255.0
404,20.200000000000003,2.6237989343800256,0.27735341794585167,-8.087706527085285,-0.1717957886761079,0.16267761624780663,-0.7392956449365684,-0.007259132680337288,0.0026162504906279693,-0.02887159110009918,0.0,70.0,255.0,255.0,255.0
405,20.25,2.6152000505891717,0.2854902819391557,-8.124707609523904,-0.17213751874976868,0.16278307962895033,-0.7407679598469485,-0.006396280491838269,0.0021733233132648078,-0.029567593072599152,0.0,70.0,255.0,255.0,255.0
406,20.3,2.606585182505049,0.2936317259087467,-8.16178332306998,-0.17243541672529172,0.16289494857913311,-0.7422524042438283,-0.005540857683650202,0.002864415932674058,-0.029341513344682824,0.0,70.0,255.0,255.0,255.0
407,20.35,2.5979565089166425,0.301779776797069,-8.198932849948287,-0.1726916045181337,0.16306952122221774,-0.7437021111814168,-0.004780636137136085,0.004421317598740648,-0.028381677106992242,0.0,70.0,255.0,255.0,255.0
408,20.400000000000002,2.5893160220532354,0.3099386780309685,-8.236153534188121,-0.17291348033900533,0.16333708033900718,-0.7450905719545275,-0.004236785788647168,0.006311523994501078,-0.02708703233995635,0.0,70.0,255.0,255.0,255.0
409,20.450000000000003,2.580665160882742,0.31811348483096974,-8.27344190714374,-0.17311528309699842,0.16370067362166785,-0.7464108144154125,-0.004038964553920721,0.007986399111020726,-0.025848665899275147,0.0,70.0,255.0,255.0,255.0
410,20.5,2.5720044937435356,0.32630874539313526,-8.310794615629662,-0.1733173767943974,0.16413572025010925,-0.7476754385444551,-0.004313518940612937,0.008903134479104624,-0.025048036662767004,0.0,70.0,255.0,255.0,255.0
411,20.55,2.5633334232033023,0.33452705685598066,-8.348209450998185,-0.1735466349910597,0.1645909870695783,-0.7489156180816892,-0.005101438236110312,0.00877983544272376,-0.02489156724738706,0.0,70.0,255.0,255.0,255.0
412,20.6,2.5546498302444296,0.3427678441000931,-8.385686177437831,-0.17382752061800844,0.16501370379438163,-0.7501645952691938,-0.006236983110596839,0.007818850131491306,-0.025279880020079304,0.0,70.0,255.0,255.0,255.0
413,20.650000000000002,2.5459506711415014,0.3510284272354188,-8.423225910525105,-0.1741703333021194,0.16537287208272744,-0.7514436060836971,-0.007419639122963062,0.0064519293035580905,-0.025980965382288446,0.0,70.0,255.0,255.0,255.0
414,20.700000000000003,2.5372327969142177,0.35930513130836583,-8.460830538046201,-0.17456948453030474,0.16565889672473744,-0.7527626918074226,-0.008333260852078084,0.005111812739105881,-0.02676665905507747,0.0,70.0,255.0,255.0,255.0
415,20.75,2.528493722688471,0.36759431690789257,-8.498502179705847,-0.1750036593873272,0.16588405335663803,-0.7541202719892048,-0.00866964374566237,0.00422607350215598,-0.027412288247852246,0.0,70.0,255.0,255.0,255.0
416,20.8,2.519732430975485,0.37589353664402964,-8.536242565245121,-0.17543644890487098,0.16608150407495303,-0.7555039206322078,-0.008279589838044998,0.004028363508401522,-0.02778666988003664,0.0,70.0,255.0,255.0,255.0
417,20.85,2.510950077797984,0.3842024673153879,-8.574052571769068,-0.1758316183711317,0.16628688970747818,-0.7568989389772085,-0.007321314870445406,0.004413305185341221,-0.02790337157723144,0.0,70.0,255.0,255.0,255.0
418,20.900000000000002,2.5021492691383718,0.39252222561477745,-8.611932459142842,-0.17616858039191552,0.16652283459348716,-0.758294257789931,-0.0061156134306905585,0.005132413803055069,-0.027822859044945858,0.0,70.0,255.0,255.0,255.0
419,20.950000000000003,2.4933332197587923,0.4008547507747366,-8.64988199754806,-0.17644317971420076,0.1668001310877837,-0.7596812248817031,-0.004994052643647606,0.005945464151752011,-0.02759901023505762,0.0,70.0,255.0,255.0,255.0
420,21.0,2.4845049511669517,0.4092022387235558,-8.687900581631013,-0.17666798565628028,0.16711738100866236,-0.7610541588134367,-0.004279887428504381,0.006616627456196289,-0.027294791698118104,0.0,70.0,255.0,255.0,255.0
421,21.05,2.4756664211931643,0.4175664888756028,-8.725987413429404,-0.1768711684570512,0.16746179383340332,-0.7624107040515149,-0.004146263018212082,0.00700787602468389,-0.026954014304614304,0.0,70.0,255.0,255.0,255.0
422,21.1,2.4668178343212466,0.42594841810689615,-8.764141652036164,-0.1770826119581015,0.16781816861113075,-0.7637495602438982,-0.004508713118589469,0.007132497891754186,-0.026587472831351988,0.0,70.0,255.0,255.0,255.0
423,21.150000000000002,2.457958159997354,0.4343483057367159,-8.802362369453794,-0.17732203976891014,0.16817504362257873,-0.7650694513346501,-0.005167790603843869,0.007052168398125058,-0.026208437598462808,0.0,70.0,255.0,255.0,255.0
424,21.200000000000003,2.4490856303443556,0.442765922469154,-8.84064859716963,-0.17759939101848587,0.16852338545094325,-0.7663704040037445,-0.005923442326327688,0.006820643008303984,-0.02584298765100357,0.0,70.0,255.0,255.0,255.0
425,21.25,2.4401982208955055,0.4512006442818102,-8.878999409854169,-0.1779143840015429,0.16885710792340913,-0.7676537500997505,-0.006582834512380842,0.006499398024972791,-0.02550458225645258,0.0,70.0,255.0,255.0,255.0
426,21.3,2.4312941919442013,0.45965163326149494,-8.917413972179604,-0.17825767446972396,0.16917332525344053,-0.7689208622293897,-0.007029810303693651,0.0061323934649415435,-0.02520398618734987,0.0,70.0,255.0,255.0,255.0
427,21.35,2.422372453448533,0.4681179768071543,-8.955891496077108,-0.17861736503191228,0.1694703472699033,-0.7701741487184854,-0.007248401419657213,0.005737542408440488,-0.024984033133357286,0.0,70.0,255.0,255.0,255.0
428,21.400000000000002,2.41343245544101,0.47659866798848527,-8.994431387051453,-0.17898251461168968,0.16974707949428458,-0.7714192655427254,-0.0072469770674654654,0.005339751765459644,-0.0249060945247237,0.0,70.0,255.0,255.0,255.0
429,21.450000000000003,2.404474201987364,0.48509268475658274,-9.03303342263138,-0.17934206273865883,0.17000432244644925,-0.7726647581709578,-0.00702649040560388,0.004977651460857935,-0.02502232587620057,0.0,70.0,255.0,255.0,255.0
430,21.5,2.395498249167144,0.4935991002331302,-9.071697862868549,-0.17968516365225007,0.17024484464037037,-0.7739214981303455,-0.006580755873919486,0.004681817739871086,-0.025390841980410528,0.0,70.0,255.0,255.0,255.0
431,21.55,2.386505685622139,0.5021171692206198,-9.110425572444415,-0.18000013832605077,0.17047250422043636,-0.7752038423689989,-0.005926756839169656,0.004469263402062662,-0.026024353298126357,0.0,70.0,255.0,255.0,255.0
432,21.6,2.377498235334539,0.5106463506551738,-9.149218247105448,-0.18027783933616703,0.17069177098057664,-0.7765239334601581,-0.005178520363768868,0.0043546285117213035,-0.026795555474024013,0.0,70.0,255.0,255.0,255.0
433,21.650000000000002,2.3684779016885225,0.5191863463186774,-9.18807796579043,-0.18051799036242766,0.1709079670716085,-0.7778833979164013,-0.004525140286970597,0.004351528502921642,-0.027486345142513358,0.0,70.0,255.0,255.0,255.0
434,21.700000000000003,2.3594464362982963,0.5277371473623347,-9.227006586897089,-0.1807303533648641,0.1711269238308688,-0.7792725679744095,-0.0041628571235907685,0.004462037861674428,-0.027875447770853157,0.0,70.0,255.0,255.0,255.0
435,21.75,2.350404866352036,0.5362990387017643,-9.266005222587872,-0.18093427607478674,0.17135417085777593,-0.7806709426934866,-0.004286123343932857,0.004677293719446141,-0.027740068470727408,0.0,70.0,255.0,255.0,255.0
436,21.8,2.3413530086908176,0.5448725644481123,-9.305073681166437,-0.18115896569925738,0.17159465320281342,-0.7820465748214822,-0.0049774746933906044,0.004984865280976969,-0.02698428826661825,0.0,70.0,255.0,255.0,255.0
437,21.85,2.3322889697821103,0.5534585040220457,-9.34420988007002,-0.1814320235441258,0.17185265738587363,-0.7833693715201484,-0.006071270039287313,0.00536310438383758,-0.025799992056541043,0.0,70.0,255.0,255.0,255.0
438,21.900000000000002,2.323209806336405,0.5620578301866996,-9.383410618318452,-0.1817660927031861,0.17213096364119718,-0.7846265740271363,-0.007257030550045229,0.005773295062139194,-0.02454395613984417,0.0,70.0,255.0,255.0,255.0
439,21.950000000000003,2.3141123605117917,0.5706716003861654,-9.422672537472733,-0.18215772659913032,0.17242998689208755,-0.7858237671341328,-0.008216533314486796,0.006168509446724535,-0.023581430825281302,0.0,70.0,255.0,255.0,255.0
440,22.0,2.304994033676492,0.5793008288759084,-9.461992995031865,-0.1825877460346348,0.17274781458586963,-0.7869847171096644,-0.008646778721654869,0.006512970086292036,-0.02327685616698716,0.0,70.0,255.0,255.0,255.0
441,22.05,2.295853585908328,0.5879463818447523,-9.5013710091837,-0.1830224044712958,0.17308128390071675,-0.7881514527508315,-0.008396258139775625,0.006784562187311938,-0.023805579883351413,0.0,70.0,255.0,255.0,255.0
442,22.1,2.2866917932293624,0.5966089572659801,-9.540808140306948,-0.18342737184861235,0.17342627080460082,-0.7893652750979996,-0.00758628292927277,0.006955657915597158,-0.02495459284777013,0.0,70.0,255.0,255.0,255.0
443,22.150000000000002,2.277510848723467,0.6052890089252124,-9.5803075366935,-0.18378103276422308,0.17377684969227647,-0.7906469120356086,-0.006477693224127279,0.00699258728584784,-0.026306874586801143,0.0,70.0,255.0,255.0,255.0
444,22.200000000000003,2.26831368995294,0.6139866422352077,-9.61987283151051,-0.18407514117102508,0.1741255295331856,-0.7919959625566797,-0.005343783511646549,0.006870637638145549,-0.02743948160954801,0.0,70.0,255.0,255.0,255.0
445,22.25,2.2591033346063645,0.622701561878531,-9.659507132949168,-0.18431541111538774,0.17446391345609102,-0.7933908601965634,-0.004450771093233996,0.006566863231460829,-0.027932553481768707,0.0,70.0,255.0,255.0,255.0
446,22.3,2.2498821488414014,0.6314330335808168,-9.699211917530166,-0.18452021828034848,0.1747822158563317,-0.7947892179048566,-0.003949753819298962,0.006082573615451281,-0.027573532059399497,0.0,70.0,255.0,255.0,255.0
447,22.35,2.2406513127783296,0.6401797834641642,-9.738986054739653,-0.18471038649731764,0.17507217081763615,-0.7961482134025033,-0.003816325516714514,0.005495103114483424,-0.026552452401062965,0.0,70.0,255.0,255.0,255.0
448,22.400000000000002,2.2314111101916696,0.6489402506625804,-9.778826738870416,-0.18490185083201993,0.17533172616778003,-0.7974444631449629,-0.003961147602327131,0.004937194955334512,-0.025257729663330508,0.0,70.0,255.0,255.0,255.0
449,22.450000000000003,2.2221611276951276,0.6577129560809422,-9.81873050105415,-0.18510650125755035,0.1755658903131696,-0.7986739863688364,-0.004294020284634215,0.0045479143597981775,-0.024080502879364474,0.0,70.0,255.0,255.0,255.0
450,22.5,2.2129004600659146,0.6664968396938974,-9.8586941375073,-0.18533125286048335,0.17578651760375985,-0.7998525134328993,-0.004714146229689575,0.004463586311842516,-0.02341288328491231,0.0,70.0,255.0,255.0,255.0
451,22.55,2.2036280024090793,0.6752916078413181,-9.89871575239744,-0.1855779158805193,0.17601224894435386,-0.8010152746973276,-0.00515297833092454,0.004745656171301071,-0.023459639196588,0.0,70.0,255.0,255.0,255.0
452,22.6,2.1943426684778626,0.6840980645883328,-9.938795664977032,-0.1858465506935758,0.17626108322088996,-0.8021984773525581,-0.005588508243814516,0.005299454101970191,-0.02406655325870588,0.0,70.0,255.0,255.0,255.0
453,22.650000000000002,2.1850433473397217,0.6929177161634071,-9.978935600132695,-0.18613676670490076,0.17654219435455087,-0.8034219300231982,-0.005995105644007737,0.0059422692565425095,-0.024912090210627014,0.0,70.0,255.0,255.0,255.0
454,22.700000000000003,2.1757289918073726,0.7017522840237879,-10.019137857979352,-0.18644606125797658,0.1768553101465442,-0.8046896863736208,-0.0063282472380965515,0.006484931030004137,-0.025678133913942247,0.0,70.0,255.0,255.0,255.0
455,22.75,2.166398741213924,0.7106032471780616,-10.059404568770058,-0.1867695914287104,0.1771906874575513,-0.8059897434145924,-0.006544578720113492,0.0067428008451386745,-0.026039969321800527,0.0,70.0,255.0,255.0,255.0
456,22.8,2.1570520326645015,0.719471352769543,-10.099736832320811,-0.18710051912998793,0.17752959023105808,-0.8072936833058009,-0.006624906283603238,0.006621514985927224,-0.025828563833663054,0.0,70.0,255.0,255.0,255.0
457,22.85,2.1476886893009253,0.7283562062011674,-10.140133937100638,-0.18743208205707074,0.177852838956144,-0.8085725997979587,-0.006592345470490812,0.006192488403022889,-0.02518767489139151,0.0,70.0,255.0,255.0,255.0
458,22.900000000000002,2.1383088244587944,0.7372566366651574,-10.180594092300607,-0.187759753677037,0.17814883907136037,-0.80981245079494,-0.006495725858535195,0.005608320093197783,-0.02440673000698723,0.0,70.0,255.0,255.0,255.0
459,22.950000000000003,2.1289127139332216,0.7461710901083034,-10.221115182180132,-0.18808165464292426,0.1784136709654638,-0.8110132727986574,-0.006392990763348649,0.005025648233503155,-0.023767334423752118,0.0,70.0,255.0,255.0,255.0
460,23.0,2.119500658994502,0.7550980037617038,-10.261695419580473,-0.18839905275337188,0.17865140389471068,-0.8121891842373152,-0.006351548213956448,0.004601200983489484,-0.023559174160681096,0.0,70.0,255.0,255.0,255.0
461,23.05,2.1100728086578844,0.7640362304977745,-10.302334100603863,-0.1887168094643199,0.17887379106381274,-0.8133691902147255,-0.006406883713871991,0.004421057777714843,-0.023925965609628008,0.0,70.0,255.0,255.0,255.0
462,23.1,2.10062897804807,0.772985382868085,-10.343032338601946,-0.18903974112475908,0.17909350967248217,-0.814581780798278,-0.00652117747348413,0.004446955922321472,-0.0246973392494354,0.0,70.0,255.0,255.0,255.0
463,23.150000000000002,2.0911688345454085,0.7819455814650227,-10.383792278683691,-0.18936892721166831,0.17931848665604488,-0.8158389241396691,-0.006623762483703999,0.004588925895254725,-0.02554639768792555,0.0,70.0,255.0,255.0,255.0
464,23.200000000000003,2.081692085326903,0.7909172315336895,-10.424616231015913,-0.18970211737312948,0.17955240226200764,-0.8171364205670706,-0.006652703461407228,0.004758676502325532,-0.026152668251633315,0.0,70.0,255.0,255.0,255.0
465,23.25,2.0721986228080955,0.7999008216912235,-10.465505920740398,-0.19003419755780904,0.17979435430627744,-0.8184541909648324,-0.00655328436769409,0.004860413868756908,-0.026191399302888385,0.0,70.0,255.0,255.0,255.0
466,23.3,2.0626886655711223,0.8088966669643173,-10.506461650112396,-0.19035744580989888,0.18003844364888333,-0.8197555604973594,-0.006300472613673946,0.004841480010242538,-0.025507200767371785,0.0,70.0,255.0,255.0,255.0
467,23.35,2.0531628782271056,0.8179046660561118,-10.547481476790134,-0.19066424481917643,0.1802785023073017,-0.8210049110415696,-0.005924716198135727,0.004740620308751886,-0.024310147596828813,0.0,70.0,255.0,255.0,255.0
468,23.400000000000002,2.0436222410892046,0.8269245171950474,-10.588562141216553,-0.19094991742971246,0.18051250567975852,-0.8221865752570423,-0.005488291805777479,0.0046342047641867445,-0.023001338916017744,0.0,70.0,255.0,255.0,255.0
469,23.450000000000003,2.0340678864841344,0.8359559166240876,-10.629700134315838,-0.19121307399975418,0.18074192278372037,-0.8233050449331714,-0.005055682569876652,0.004586732004330241,-0.021981339889443063,0.0,70.0,255.0,255.0,255.0
470,23.5,2.0245009336892292,0.8449987094734195,-10.67089264570987,-0.19145548568670012,0.18097117888019154,-0.8243847092459866,-0.004679323639322774,0.0046530875972505825,-0.02165117268244643,0.0,70.0,255.0,255.0,255.0
471,23.55,2.0149223379154644,0.8540530345121068,-10.712138605240437,-0.19168100636368646,0.18120723154344542,-0.825470162201416,-0.004391225831668066,0.004860108428161869,-0.0222056042820995,0.0,70.0,255.0,255.0,255.0
472,23.6,2.0053328330528606,0.863119432627764,-10.753439661930011,-0.19189460826986693,0.18145718972300773,-0.8266052696741966,-0.004217253771399143,0.005188791280974492,-0.02341218691377378,0.0,70.0,255.0,255.0,255.0
473,23.650000000000002,1.9957328770884777,0.8721987534844076,-10.794799132207856,-0.19210273174082637,0.18172611067154287,-0.8278113808927934,-0.004185774255827113,0.005595187449158878,-0.024817290937484415,0.0,70.0,255.0,255.0,255.0
474,23.700000000000003,1.986122559878778,0.8812920436949183,-10.83622080001929,-0.19231318569544964,0.18201670846792362,-0.829086998767945,-0.0043178529720577785,0.006034908300966979,-0.02596262487024603,0.0,70.0,255.0,255.0,255.0
475,23.75,1.9765015585189327,0.8904004243311999,-10.877707832084651,-0.19253451703803215,0.18232960150163957,-0.830407643379818,-0.004633383779117928,0.006483226418119159,-0.026383956585362967,0.0,70.0,255.0,255.0,255.0
476,23.8,1.9668691081749747,0.8995250038450823,-10.919261564357273,-0.19277652407336143,0.18266503110973553,-0.8317253944264813,-0.0051289364142448335,0.006918086276919144,-0.025850521966575002,0.0,70.0,255.0,255.0,255.0
477,23.85,1.9572239061115966,0.9086669274421735,-10.960880371527299,-0.19304741067945663,0.18302141012933149,-0.8329926955764755,-0.005725429555392125,0.007266918530091093,-0.0246119206012807,0.0,70.0,255.0,255.0,255.0
478,23.900000000000002,1.947564367107029,0.9178271448580154,-11.00256083391492,-0.19334906702890065,0.18339172296274464,-0.8341865864866094,-0.006287772010105108,0.007422341476626126,-0.023158681482371435,0.0,70.0,255.0,255.0,255.0
479,23.950000000000003,1.9378889994087065,0.9270060997384479,-11.04429903017596,-0.19367618788046714,0.1837636442769941,-0.8353085637247126,-0.006673931182876736,0.007287061365246483,-0.021981307480700707,0.0,70.0,255.0,255.0,255.0
480,24.0,1.9281967483189824,0.9362035092857148,-11.086091690287391,-0.19401646014718832,0.1841204290992693,-0.8363847172346794,-0.006743131920083911,0.006762071998256403,-0.02158092638229192,0.0,70.0,255.0,255.0,255.0
481,24.05,1.9184873533939877,0.9454181426483749,-11.127937501899428,-0.19435050107247553,0.18443985147681974,-0.8374666563629418,-0.006432515690746321,0.005819434575948801,-0.022205454705392924,0.0,70.0,255.0,255.0,255.0
482,24.1,1.9087616982117348,0.9546474944333968,-11.169838355923686,-0.19465971171626295,0.18470237255686417,-0.8386052627052187,-0.005845503531487495,0.004626145321307007,-0.023569314831384247,0.0,70.0,255.0,255.0,255.0
483,24.150000000000002,1.8990213822223614,0.9638883799040613,-11.21179802816995,-0.19493505142562428,0.18490246600895044,-0.8398235878460802,-0.005179501340424331,0.003475353404414072,-0.025118798984102853,0.0,70.0,255.0,255.0,255.0
484,24.200000000000003,1.8892681930691724,0.9731377410342918,-11.253820714708294,-0.19517766185030538,0.18504990789730558,-0.841117142603629,-0.004639196189248906,0.00266859448987411,-0.026305711640617346,0.0,70.0,255.0,255.0,255.0
485,24.25,1.8795036160373308,0.9823933706937918,-11.295909742430313,-0.19539897104454917,0.18516932545793785,-0.842454159010142,-0.004430079216244387,0.002504476264719724,-0.02657644044834484,0.0,70.0,255.0,255.0,255.0
486,24.3,1.8697282959647175,0.9916546735800856,-11.338066130609308,-0.19562066977192982,0.18530035552377755,-0.8437747866484635,-0.00465428753586572,0.0031184877734347083,-0.025660712824837617,0.0,70.0,255.0,255.0,255.0
487,24.35,1.8599415490601379,1.0009234062461696,-11.380287221095159,-0.19586439979813575,0.18548117423528132,-0.8450202302926257,-0.005207148393404637,0.004299549135799996,-0.023883407486735564,0.0,70.0,255.0,255.0,255.0
488,24.400000000000002,1.8501418559849039,1.0102027910036138,-11.42256815363857,-0.1961413846112703,0.18573031043735755,-0.8461631273971371,-0.0058796305539843274,0.005643517633091566,-0.021874374329655666,0.0,70.0,255.0,255.0,255.0
489,24.450000000000003,1.8403274105990108,1.0194964372899054,-11.464903533834873,-0.19645236285353418,0.18604552599859048,-0.8472076677255913,-0.006462710633514668,0.006733012889759138,-0.020261766704443573,0.0,70.0,255.0,255.0,255.0
490,24.5,1.8304966196995505,1.0288073436034728,-11.50728892041113,-0.19678765567462175,0.18640361172633346,-0.8481893040675814,-0.006752588510705593,0.007148041590854248,-0.019673218583626806,0.0,70.0,255.0,255.0,255.0
491,24.55,1.8206486450315487,1.0381367984625387,-11.549722464241631,-0.19712762170460474,0.1867603301576759,-0.849174989583954,-0.006643760739044602,0.006680040903495055,-0.02041864037973795,0.0,70.0,255.0,255.0,255.0
492,24.6,1.81078385752909,1.0474833766192404,-11.592206419369525,-0.1974520317485262,0.18707161581668297,-0.8502311681055552,-0.006211310820325444,0.0055464739862731705,-0.02216176384770563,0.0,70.0,255.0,255.0,255.0
493,24.650000000000002,1.800903441856696,1.056843960044207,-11.634745581052186,-0.19774875278663728,0.18731497755630322,-0.8513911659687246,-0.005616568518496123,0.004179760212519312,-0.0242381559131033,0.0,70.0,255.0,255.0,255.0
494,24.700000000000003,1.7910089822504263,1.0662148743748707,-11.677345535966397,-0.19801368860037583,0.1874895918379349,-0.8526549836968655,-0.0050232479899881,0.0030125008043890844,-0.025981300796651396,0.0,70.0,255.0,255.0,255.0
495,24.75,1.7811020729966585,1.0755929192280005,-11.720011079421873,-0.1982510775856361,0.18761622763674213,-0.8539892960483897,-0.00459555741672002,0.002471282779903383,-0.026726769132956463,0.0,70.0,255.0,255.0,255.0
496,24.8,1.7711838744918627,1.084976497138545,-11.762744465571236,-0.19847324434204783,0.18773672011592524,-0.8553276606101612,-0.004423443400591864,0.002774495465507343,-0.02613829208666374,0.0,70.0,255.0,255.0,255.0
497,24.85,1.7612547485624537,1.094366591239593,-11.80554384548289,-0.19869342192569528,0.18789367718329286,-0.8566031252570561,-0.004463971961610191,0.003743739068151619,-0.024525760898264082,0.0,70.0,255.0,255.0,255.0
498,24.900000000000002,1.7513145322992931,1.1037658648568742,-11.848404778096942,-0.19891964153820885,0.1881110940227404,-0.8577802366999876,-0.004618570896930407,0.005008257367733471,-0.02251677824371967,0.0,70.0,255.0,255.0,255.0
499,24.950000000000003,1.7413627844086328,1.113177700641867,-11.891321869152888,-0.19915527901538832,0.1883945029200662,-0.858854803081428,-0.004790497872897426,0.006197123752982314,-0.02073946367655566,0.0,70.0,255.0,255.0,255.0
500,25.0,1.7313990043977543,1.1226053151488808,-11.934290258405085,-0.1993986913254986,0.18873080639803863,-0.8598541830676432,-0.004873200470045802,0.006946873909718931,-0.019823620967507338,0.0,70.0,255.0,255.0,255.0
501,25.05,1.721422915276083,1.132050781281671,-11.977307287459652,-0.1996425990623929,0.1890891903110381,-0.8608371651781788,-0.0048096917656170746,0.007062629915077778,-0.02009411201715494,0.0,70.0,255.0,255.0,255.0
502,25.1,1.711434744491515,1.1415142341799847,-12.020373974922903,-0.1998796605020603,0.1894370693895464,-0.8618635942693587,-0.004653733734305554,0.006647614029997584,-0.021280740343954108,0.0,70.0,255.0,255.0,255.0
503,25.150000000000002,1.701434949225877,1.1509944882206256,-12.063493646886588,-0.20010797243582346,0.18975395171403786,-0.8629652392125742,-0.00450737633250764,0.005937326866600756,-0.022830022490261115,0.0,70.0,255.0,255.0,255.0
504,25.200000000000003,1.6914239472479327,1.1604896293513884,-12.10667049884416,-0.20033039813531106,0.19003080207620648,-0.8641465965183848,-0.0044618467654578,0.005166090430841486,-0.024193898113544776,0.0,70.0,255.0,255.0,255.0
505,25.25,1.6814019094123458,1.1699975684282462,-12.149908306538427,-0.20055415711236924,0.190270560757122,-0.8653846290239287,-0.00460758475862022,0.004569193609249567,-0.024818840234175354,0.0,70.0,255.0,255.0,255.0
506,25.3,1.6713685315366957,1.1795166854271006,-12.193208961746553,-0.20079115661117308,0.19048772143713144,-0.8666284805418023,-0.004984875784019849,0.004280532659728387,-0.02441933909587135,0.0,70.0,255.0,255.0,255.0
507,25.35,1.6613227937512285,1.1890463405719593,-12.236571154592607,-0.20105264469077122,0.19069861402309485,-0.8678265629335158,-0.005519321539493305,0.004261236047198302,-0.023243025978736398,0.0,70.0,255.0,255.0,255.0
508,25.400000000000002,1.6512632670676186,1.1985865468294101,-12.279991618039904,-0.2013430887651224,0.19091384504185127,-0.8689527831396759,-0.006072856174133001,0.004408682252110552,-0.021790544383826216,0.0,70.0,255.0,255.0,255.0
509,25.450000000000003,1.6411884848747162,1.2081377250761445,-12.323466432906574,-0.20165993030818452,0.1911394822483059,-0.8700056173718984,-0.006509341172522554,0.0046309154560386645,-0.020551890257536343,0.0,70.0,255.0,255.0,255.0
510,25.5,1.6310972740368002,1.2177004950542407,-12.366992179777094,-0.20199402288237467,0.19137693658745514,-0.8710079721654296,-0.006704479143415654,0.004836398273355691,-0.02001691552990792,0.0,70.0,255.0,255.0,255.0
511,25.55,1.6209890825864788,1.22727541873489,-12.410567230123117,-0.20233037822252609,0.19162312207564147,-0.8720073089248892,-0.006597005564379366,0.004969178840008581,-0.02043496516446197,0.0,70.0,255.0,255.0,255.0
512,25.6,1.6108642362145476,1.2368628072618049,-12.454192910669583,-0.2026537234388126,0.191873854471456,-0.8730514686818758,-0.006233455632154161,0.005028374182014517,-0.021576339891282714,0.0,70.0,255.0,255.0,255.0
513,25.650000000000002,1.6007237102425975,1.2464628041820356,-12.497872376991305,-0.2029537237857415,0.19212595949384292,-0.8741649429140175,-0.005717562607387983,0.005026172563349363,-0.02297861582540861,0.0,70.0,255.0,255.0,255.0
514,25.700000000000003,1.5905688638359734,1.2560754032111892,-12.541609404960985,-0.2032254796995514,0.19237647172779093,-0.8753493302644166,-0.005160275723925523,0.0049640472788992085,-0.024185394003950478,0.0,70.0,255.0,255.0,255.0
515,25.75,1.5804011622726424,1.2657004513548147,-12.585407310017747,-0.20346975135813405,0.19262236422173284,-0.8765834823144125,-0.004662517315789927,0.0048331853251371015,-0.02474557223770546,0.0,70.0,255.0,255.0,255.0
516,25.8,1.57022188870016,1.2753376396333624,-12.629267753192426,-0.2036917314311304,0.19285979026030464,-0.8778238874881872,-0.004286589137891816,0.00463603869345075,-0.024427653392145032,0.0,70.0,255.0,255.0,255.0
517,25.85,1.5600319891295293,1.2849864303808451,-12.673189698766565,-0.20389841027192324,0.19308596809107792,-0.879026247653627,-0.004063219568162246,0.004425267224639207,-0.023422430306752062,0.0,70.0,255.0,255.0,255.0
518,25.900000000000002,1.5498320476729677,1.2946462364424702,-12.717170377957789,-0.20409805338794662,0.19330231698276856,-0.8801661305188624,-0.004021368920903434,0.004286627494676232,-0.022124176464721756,0.0,70.0,255.0,255.0,255.0
519,25.950000000000003,1.5396221837907347,1.304316662079122,-12.761206311818452,-0.20430054716401358,0.19351463084054554,-0.8812386653000992,-0.004189043111413326,0.004306182141888826,-0.020926393869125093,0.0,70.0,255.0,255.0,255.0
520,26.0,1.5294019929565663,1.3139976995265248,-12.805294244487799,-0.20451695769908795,0.19373293519695745,-0.8822587699057749,-0.0046014422693030355,0.004578832453971948,-0.020220748898047702,0.0,70.0,255.0,255.0,255.0
521,26.05,1.5191704880208259,1.3236899555988177,-12.849432188809029,-0.20476069139094388,0.19397251408594274,-0.883260740189904,-0.005257663524860234,0.0051404659197729075,-0.020213768584120828,0.0,70.0,255.0,255.0,255.0
522,26.1,1.508925923817472,1.333394950935119,-12.89362031850679,-0.20504272405157398,0.19424698178893474,-0.884280146764187,-0.006032826934521118,0.00586878535751012,-0.020764894593128247,0.0,70.0,255.0,255.0,255.0
523,26.150000000000002,1.4986662156156685,1.3431146537777112,-12.937860203485448,-0.205363974084396,0.19455939262169375,-0.8853372296492168,-0.006716122548278136,0.0065482498591284966,-0.02157456176643535,0.0,70.0,255.0,255.0,255.0
524,26.200000000000003,1.4883895264090323,1.3528508901972884,-12.982154041471711,-0.2057143363064018,0.19490180677484759,-0.8864376029408305,-0.007091290758021174,0.006965163547856257,-0.02234865756101101,0.0,70.0,255.0,255.0,255.0
525,26.25,1.4780947819850283,1.362604834455196,-13.02650396377953,-0.2060731031601981,0.19525590897647938,-0.8875720954053179,-0.006939732255117903,0.00691153147882595,-0.022795488112947737,0.0,70.0,255.0,255.0,255.0
526,26.3,1.4677822160930125,1.3723764810949364,-13.070911251012243,-0.20640830953191358,0.19559295992273018,-0.8887171517521253,-0.0061684444083720535,0.00629449855948927,-0.022757924950411734,0.0,70.0,255.0,255.0,255.0
527,26.35,1.457453951031837,1.382164130447469,-13.115375678954743,-0.20668994760103532,0.1958853588324283,-0.8898478879003591,-0.004971719779756079,0.005265838431522951,-0.02232433164905956,0.0,70.0,255.0,255.0,255.0
528,26.400000000000002,1.447113221332909,1.3919650169781792,-13.159896039802279,-0.2069054815098892,0.19611954376588248,-0.8909495849170312,-0.003709572121590732,0.0041158043042610615,-0.021690396981810522,0.0,70.0,255.0,255.0,255.0
529,26.450000000000003,1.436763402880848,1.4017760848240572,-13.204470637446446,-0.2070609048131944,0.1962969392628544,-0.8920169275985401,-0.0027513416423596837,0.0031454247390705348,-0.021046062131802046,0.0,70.0,255.0,255.0,255.0
530,26.5,1.4264071308515895,1.4115947109044646,-13.249097732562133,-0.20718061567412516,0.19643408623978953,-0.8930541911302114,-0.002467600738031983,0.0026550416309056857,-0.02058126135509042,0.0,70.0,255.0,255.0,255.0
531,26.55,1.4160453413134355,1.4214194934480362,-13.293776056559468,-0.2073076648869976,0.19656244342594498,-0.8940750537340492,-0.0030356450885671293,0.0027948265554300633,-0.020400592222635794,0.0,70.0,255.0,255.0,255.0
532,26.6,1.4056763643628898,1.4312509552470591,-13.338505237935538,-0.20748418018298187,0.19671356889533254,-0.895094250352475,-0.004230410496508519,0.003419749028066299,-0.02045414244733479,0.0,70.0,255.0,255.0,255.0
533,26.650000000000002,1.3952969232951373,1.4410908503375695,-13.383285481594715,-0.20773070593664844,0.1969044183287516,-0.8961204679787826,-0.005614633254480417,0.004236644812083412,-0.020628325829186167,0.0,70.0,255.0,255.0,255.0
534,26.700000000000003,1.384903293769225,1.4509413970799343,-13.428117284733416,-0.2080456435084299,0.19713723337654088,-0.8971570829353936,-0.006743995353253318,0.004946564069552295,-0.02081329437579882,0.0,70.0,255.0,255.0,255.0
