idx,t,px,py,pz,vx,vy,vz,ax,ay,az,yaw,mode,ledr,ledg,ledb
0,0.0,-13.50000000000001,1.5000000000000009,1.5691164231371369e-18,-0.0003503962568629504,0.00032600621409972774,0.0008890139499567447,-0.01553069162092413,0.00209329190594687,-0.026460092999711665,0.0,70.0,255.0,255.0,255.0
1,0.05,-13.500017519812854,1.5000163003107059,4.4450697497838807e-05,-0.001126930837909157,0.00043067080939707125,-0.0004339907000288387,-0.02365470097860367,0.0032782763707217555,-0.03968262787460353,0.0,70.0,255.0,255.0,255.0
2,0.1,-13.500112693083802,1.5000430670809406,-4.33990700028823e-05,-0.0027158663547233175,0.0006538338511719033,-0.0030792488375036087,-0.03249603743107343,0.004739937858988519,-0.05289013949956749,0.0,70.0,255.0,255.0,255.0
3,0.15000000000000002,-13.500289106448326,1.500081683695823,-0.00026347418625252206,-0.0043765345810165,0.0009046645952959231,-0.005723004649985587,-0.03393069162385132,0.005293291906371955,-0.0528600929997144,0.0,70.0,255.0,255.0,255.0
4,0.2,-13.500550346541903,1.5001335335404702,-0.0006156995350014411,-0.006108935517108449,0.0011831630418090988,-0.008365258137475049,-0.03537530359363217,0.005851541492818413,-0.05282941615370848,0.0,70.0,255.0,255.0,255.0
5,0.25,-13.500900000000037,1.500200000000004,-0.001100000000000027,-0.007914064940379717,0.0014898187445777644,-0.011005946265356436,-0.03687717279348135,0.006437940430381595,-0.052795114817329805,0.0,70.0,255.0,255.0,255.0
6,0.30000000000000004,-13.501341753035941,1.500282515414928,-0.0017162941615370846,-0.009796652796456584,0.0018269570848472583,-0.01364476961920803,-0.038451512510917496,0.007059968016887019,-0.05275622596174653,0.0,70.0,255.0,255.0,255.0
7,0.35000000000000003,-13.501879665279683,1.5003826957084887,-0.00246447696192083,-0.011759216191471467,0.0021958155462664664,-0.01628156886153109,-0.039968594995265505,0.007653846251831631,-0.05272096159653329,0.0,70.0,255.0,255.0,255.0
8,0.4,-13.502517674655088,1.5005020969695546,-0.003344451047690194,-0.013793512295983135,0.0025923417100304214,-0.01891686577886136,-0.041221243091627,0.00811772071669381,-0.05270243642354514,0.0,70.0,255.0,255.0,255.0
9,0.45,-13.503259016509281,1.5006419298794917,-0.004356163539806966,-0.015881340500634167,0.0030075876179358474,-0.021551812503885603,-0.04203722911153562,0.008363843503289559,-0.052713677596568226,0.0,70.0,255.0,255.0,255.0
10,0.5,-13.504105808705152,1.5008028557313482,-0.005499632298078754,-0.017997235207136697,0.003428726060359377,-0.02418823353851818,-0.04228721798842372,0.008314020191457772,-0.052772965153976246,0.0,70.0,255.0,255.0,255.0
11,0.55,-13.505058740029995,1.5009848024855277,-0.006774986893658784,-0.02011006229947654,0.0038389896370816246,-0.026829109019283228,-0.04192844607313617,0.007942527951398937,-0.05288625236497084,0.0,70.0,255.0,255.0,255.0
12,0.6000000000000001,-13.5061168149351,1.5011867546950564,-0.008182543200007077,-0.022190079814450314,0.004222978855499271,-0.029476858775015265,-0.04107572091953671,0.007345878832931696,-0.0530185900374126,0.0,70.0,255.0,255.0,255.0
13,0.65,-13.50727774801144,1.5014071003710776,-0.00972267277116031,-0.02421763439143021,0.004573577520374794,-0.03213096802302449,-0.039958960626051976,0.006701098583139498,-0.0531112159023529,0.0,70.0,255.0,255.0,255.0
14,0.7000000000000001,-13.508538578374242,1.5016441124470938,-0.011395640002309526,-0.026185975877055512,0.004893088713813221,-0.034787980365250555,-0.038850214045993425,0.00619867282345421,-0.0531088592083407,0.0,70.0,255.0,255.0,255.0
15,0.75,-13.509896345599145,1.501896409242459,-0.013201470807685366,-0.028102655796029552,0.005193444802720215,-0.03744185394385856,-0.038027258580619616,0.006031937882133853,-0.052960167356124604,0.0,70.0,255.0,255.0,255.0
16,0.8,-13.511348843953845,1.5021634569273659,-0.015139825396695382,-0.029988701735117473,0.005496282502026606,-0.040083997100863016,-0.03764326237156723,0.00629481571687851,-0.052644334698417894,0.0,70.0,255.0,255.0,255.0
17,0.8500000000000001,-13.512895215772657,1.5024460374926616,-0.017209870517771668,-0.031866982033186275,0.005822926374408066,-0.04270628741370035,-0.037640316201148494,0.006877230491020292,-0.05220644981558803,0.0,70.0,255.0,255.0,255.0
18,0.9,-13.514535542157164,1.5027457495648067,-0.019410454138065417,-0.03375273335523232,0.006184005551128635,-0.04530464208242182,-0.03787363701661661,0.007563292876078265,-0.05173176756611192,0.0,70.0,255.0,255.0,255.0
19,0.9500000000000001,-13.51627048910818,1.5030644380477745,-0.02174033472601385,-0.035654345734847936,0.006579255662015893,-0.04787946417031154,-0.03820051610148312,0.008134891776290232,-0.0513103727495582,0.0,70.0,255.0,255.0,255.0
20,1.0,-13.518100976730649,1.5034036751310083,-0.02419840055509657,-0.037572784965380635,0.006997494728757658,-0.05043567935737764,-0.03847181295562052,0.008374265576005513,-0.051030374745536164,0.0,70.0,255.0,255.0,255.0
21,1.05,-13.520027767604718,1.5037641875206502,-0.026783902661751614,-0.03950152703040999,0.007416682219616444,-0.052982501644865156,-0.03859966994248509,0.008171635754483653,-0.05093640884135629,0.0,70.0,255.0,255.0,255.0
22,1.1,-13.52205112943369,1.50414534335297,-0.029496650719583087,-0.041432751959629144,0.007814658304206024,-0.05552932024151327,-0.03860487907854093,0.007630607128339406,-0.050992906737530944,0.0,70.0,255.0,255.0,255.0
23,1.1500000000000001,-13.524171042800681,1.5045456533510708,-0.03233683468590294,-0.04336201493826408,0.008179742932450385,-0.05808179231861825,-0.03854294818310677,0.006960321987281581,-0.05112441779590547,0.0,70.0,255.0,255.0,255.0
24,1.2000000000000002,-13.526387330927516,1.504963317646215,-0.03530482995144491,-0.04528704677793982,0.008510690502934182,-0.060641762021103815,-0.03845532061585999,0.006368333497985823,-0.051249649793428526,0.0,70.0,255.0,255.0,255.0
25,1.25,-13.528699747478475,1.5053967224013642,-0.03840101088801332,-0.04720754699985008,0.008816576282248967,-0.0632067572979611,-0.03838143365300084,0.006054962517842988,-0.05127432433772311,0.0,70.0,255.0,255.0,255.0
26,1.3,-13.531108085627501,1.5058449752744398,-0.04162550568124102,-0.049125190143239905,0.00911618675471848,-0.06576919445487613,-0.03834463128473686,0.006125214691676817,-0.051150542756670664,0.0,70.0,255.0,255.0,255.0
27,1.35,-13.5336122664928,1.506308341076836,-0.044977930333500935,-0.05104201012832377,0.009429097751416649,-0.06832181157362817,-0.03834016748474056,0.006514933070067563,-0.05094285563521997,0.0,70.0,255.0,255.0,255.0
28,1.4000000000000001,-13.536212286640334,1.5067878850495815,-0.04845768683860384,-0.05295920689171396,0.009767680061725237,-0.07086348001839812,-0.038354570249943265,0.007080827100369724,-0.050768789688496185,0.0,70.0,255.0,255.0,255.0
29,1.4500000000000002,-13.53890818718197,1.5072851090830086,-0.05206427833534075,-0.054877467153318094,0.010137180461453621,-0.07339869054247779,-0.038378201434596804,0.007678487518414379,-0.05073811432381517,0.0,70.0,255.0,255.0,255.0
30,1.5,-13.541700033355665,1.5078016030957269,-0.05579755589285162,-0.05679702703517364,0.010535528813566675,-0.07593729145077964,-0.03840245243296181,0.008169893676601703,-0.050968271959515865,0.0,70.0,255.0,255.0,255.0
31,1.55,-13.544587889885488,1.5083386619643653,-0.05965800748041871,-0.058717712396614274,0.010954169829113791,-0.07849551773842937,-0.03842180491897551,0.008474731586094464,-0.0515085063790513,0.0,70.0,255.0,255.0,255.0
32,1.6,-13.547571804595327,1.5088970200786382,-0.06364710766669456,-0.06063920752707119,0.011383001972176121,-0.08108814208868477,-0.03843445098290488,0.008593296954906293,-0.05223389915981688,0.0,70.0,255.0,255.0,255.0
33,1.6500000000000001,-13.550651810638195,1.509476962161583,-0.06776682168928719,-0.06256115749490476,0.01181349952460442,-0.08371890765441106,-0.03843877081752822,0.008551894086772371,-0.052921355851039825,0.0,70.0,255.0,255.0,255.0
34,1.7000000000000002,-13.553827920344817,1.5100783700310987,-0.07201899843213566,-0.06448308460882402,0.012238191380853358,-0.08638027767378875,-0.0384318736449174,0.008378229248928726,-0.05335183230525259,0.0,70.0,255.0,255.0,255.0
35,1.75,-13.557100119099077,1.5107007812996682,-0.07640484945666606,-0.0664043448593965,0.012651322449497293,-0.08905409088493632,-0.038408756615382345,0.008109472099748771,-0.053312634444263596,0.0,70.0,255.0,255.0,255.0
36,1.8,-13.560468354830757,1.5113435022760484,-0.0809244075206293,-0.06832396027036225,0.013049138590828235,-0.09171154111821511,-0.03836814904030206,0.00777483332297102,-0.052707832659522336,0.0,70.0,255.0,255.0,255.0
37,1.85,-13.563932515126114,1.512005695158751,-0.08557600356848757,-0.07024115976342671,0.013428805781794395,-0.09432487415088855,-0.038322028583159806,0.007392718271170828,-0.05168779481175001,0.0,70.0,255.0,255.0,255.0
38,1.9000000000000001,-13.5674924708071,1.5126863828542279,-0.09035689493571815,-0.07215616312867823,0.013788410417945318,-0.09688032059939011,-0.03829034647981899,0.006992435713271128,-0.05054121814278001,0.0,70.0,255.0,255.0,255.0
39,1.9500000000000002,-13.571148131438981,1.5133845362005456,-0.09526403562842659,-0.07407019441140861,0.014128049353121508,-0.09937899596516656,-0.03829430398507583,0.006614283131622933,-0.049566817527448015,0.0,70.0,255.0,255.0,255.0
40,2.0,-13.57489949024824,1.51409918778954,-0.1002947945322348,-0.07598559352718581,0.014449838731107612,-0.10183700235213491,-0.03836252110573923,0.006288255220487926,-0.04906119026342887,0.0,70.0,255.0,255.0,255.0
41,2.0500000000000003,-13.5787466907917,1.5148295200736563,-0.10544773586364008,-0.07790644652198253,0.0147568748751703,-0.10428511499150944,-0.038505598919869044,0.006032648408704766,-0.049173449696141014,0.0,70.0,255.0,255.0,255.0
42,2.1,-13.582690134900439,1.515574875277057,-0.11072330603138575,-0.07983615341917272,0.015053103571978088,-0.10675434732174902,-0.038677434683620504,0.005873125997735151,-0.04976680970506936,0.0,70.0,255.0,255.0,255.0
43,2.15,-13.586730306133617,1.5163348304308542,-0.11612317059581498,-0.08177418999034458,0.015344187474943816,-0.10926179596201638,-0.03879984326395913,0.005841067022815949,-0.05056188346595908,0.0,70.0,255.0,255.0,255.0
44,2.2,-13.590867553899473,1.5171092940245514,-0.12164948562758739,-0.08371613774556863,0.015637210274259683,-0.11181053566834492,-0.038797623700226325,0.005957924937982639,-0.05127432415839295,0.0,70.0,255.0,255.0,255.0
45,2.25,-13.595101919908174,1.5178985514582801,-0.12730422416264947,-0.08565395236036721,0.01593997996874208,-0.11438922837785567,-0.03859318693244518,0.0062414697222124005,-0.05161463247404241,0.0,70.0,255.0,255.0,255.0
46,2.3000000000000003,-13.59943294913551,1.5187032920214256,-0.13308840846537295,-0.08757545643881315,0.016261357246480923,-0.11697199891574916,-0.03815565574907254,0.006688885396388677,-0.05143230794984327,0.0,70.0,255.0,255.0,255.0
47,2.35,-13.603859465552055,1.5195246871829282,-0.1390014240542244,-0.08946951793527447,0.016608868508380947,-0.11953245917284,-0.0375700042468452,0.007233938577067001,-0.05085130669431337,0.0,70.0,255.0,255.0,255.0
48,2.4000000000000004,-13.608379900929037,1.5203641788722637,-0.14504165438265695,-0.09133245686349767,0.016984751104187623,-0.1220571295851805,-0.03698934806219967,0.007762457034576897,-0.050124068506218755,0.0,70.0,255.0,255.0,255.0
49,2.45,-13.612992711238405,1.521223162293347,-0.15120713701274244,-0.09316845274149443,0.017385114211838637,-0.12454486602346188,-0.03656797510274146,0.008155042757618247,-0.04949625879936692,0.0,70.0,255.0,255.0,255.0
50,2.5,-13.617696746203187,1.5221026902934476,-0.15749614098500314,-0.09498925437377181,0.017800255379949448,-0.1270067554651172,-0.03645671251639726,0.008301856566728105,-0.04921221457231395,0.0,70.0,255.0,255.0,255.0
51,2.5500000000000003,-13.622491636675782,1.523003187831342,-0.16390781255925416,-0.09681412399313416,0.018215299868511448,-0.12946608748069327,-0.036725577621155026,0.008151297185055029,-0.04939717864432536,0.0,70.0,255.0,255.0,255.0
52,2.6,-13.6273781586025,1.5239242202802987,-0.17044274973307247,-0.09866181213588732,0.01861538509845495,-0.13194647332954973,-0.03727807280498041,0.007755595218439382,-0.049942555592294435,0.0,70.0,255.0,255.0,255.0
53,2.6500000000000004,-13.632357817889371,1.5248647263411874,-0.17710245989220913,-0.1005419312736322,0.018990859390355386,-0.13446034303992271,-0.03792640084920862,0.007225468475335894,-0.05062725043459837,0.0,70.0,255.0,255.0,255.0
54,2.7,-13.637432351729863,1.5258233062193343,-0.18388878403706474,-0.10245445222080818,0.01933793194598854,-0.13700919837300957,-0.038477701994565905,0.006681391211071919,-0.05123406721755097,0.0,70.0,255.0,255.0,255.0
55,2.75,-13.642603263111452,1.5267985195357863,-0.1908033797295101,-0.10438970147308879,0.019658998511462578,-0.1395837497616778,-0.03874397232586091,0.006239122658868723,-0.05155254653272934,0.0,70.0,255.0,255.0,255.0
56,2.8000000000000003,-13.647871321877172,1.5277892060704805,-0.19784715901323252,-0.10632884945339427,0.019961844211875412,-0.1421644530262825,-0.038628747056002055,0.005965413042874346,-0.05147240404628217,0.0,70.0,255.0,255.0,255.0
57,2.85,-13.653236148056791,1.5287947039569738,-0.20501982503213834,-0.108252576178689,0.020255539815750012,-0.14473099016630603,-0.038203112459989086,0.005860044185324043,-0.05106387886191499,0.0,70.0,255.0,255.0,255.0
58,2.9000000000000004,-13.658696579495041,1.5298147600520555,-0.21232025802986312,-0.11014916069939318,0.020547848630407817,-0.147270840912474,-0.03761964061439471,0.005900144588455447,-0.050481521830000875,0.0,70.0,255.0,255.0,255.0
59,2.95,-13.66425106412673,1.5308494888200146,-0.21974690912338574,-0.11201454024012847,0.020845554274595557,-0.14977914234930612,-0.037034503631616644,0.0060588795779414895,-0.04988075904371336,0.0,70.0,255.0,255.0,255.0
60,3.0,-13.669898033519054,1.531899315479515,-0.22729817226479374,-0.11385261106255484,0.021153736588201966,-0.15225891681684534,-0.03660338885485004,0.006297643473929249,-0.04941358997273271,0.0,70.0,255.0,255.0,255.0
61,3.0500000000000003,-13.675636325232986,1.5329648624788348,-0.23497280080507027,-0.11567487912561347,0.021475318621988482,-0.1547205013465794,-0.036412208048020034,0.0065880762842862595,-0.04916597906333142,0.0,70.0,255.0,255.0,255.0
62,3.1,-13.681465521431615,1.534046847341714,-0.24277022239945167,-0.11749383186735685,0.02181254421663059,-0.15717551472317848,-0.036425840992748704,0.006923388879287451,-0.04911829259644229,0.0,70.0,255.0,255.0,255.0
63,3.1500000000000004,-13.687385708419722,1.5351461169004978,-0.2506903522773881,-0.11931746322488834,0.022167657509917227,-0.15963233060622362,-0.036559512216882695,0.007293114010042956,-0.04921113776987229,0.0,70.0,255.0,255.0,255.0
64,3.2,-13.693397267754104,1.5362636130927056,-0.25873345546007404,-0.12114978308904512,0.022541855617634887,-0.1620966285001657,-0.03673048394414735,0.007677402831651747,-0.049389097073765376,0.0,70.0,255.0,255.0,255.0
65,3.25,-13.699500686728626,1.5374003024622613,-0.2669000151274047,-0.12299051161930308,0.0229353977930824,-0.16457124031360015,-0.036850490903006516,0.008074266149460385,-0.04960111222435115,0.0,70.0,255.0,255.0,255.0
66,3.3000000000000003,-13.705696318916035,1.5385571528720139,-0.27519057949143405,-0.12483483217934577,0.023349282232580926,-0.16705673972260082,-0.03686964686107075,0.008475568533139466,-0.04981090580764569,0.0,70.0,255.0,255.0,255.0
67,3.35,-13.711984169946561,1.5397352306855194,-0.28360568909966477,-0.12667747630541015,0.023782954646396348,-0.16955233089436472,-0.03681445597081279,0.008809104260132372,-0.049983883153270625,0.0,70.0,255.0,255.0,255.0
68,3.4000000000000004,-13.718364066546576,1.5409354483366535,-0.2921458125808705,-0.12851627777642705,0.024230192658594163,-0.17205512803792788,-0.03674053895270646,0.008964695408675283,-0.05007215552869093,0.0,70.0,255.0,255.0,255.0
69,3.45,-13.724835797724204,1.5421582499513788,-0.30081120190345756,-0.1303515302006808,0.024679424187263876,-0.17455954644723382,-0.03669736012525959,0.008844935668883558,-0.05002336548169395,0.0,70.0,255.0,255.0,255.0
70,3.5,-13.731399219566644,1.54340339075538,-0.3096017672255939,-0.132186013788953,0.02511468622548252,-0.17705746458609728,-0.03674261956447822,0.008353357196466682,-0.04978196112991329,0.0,70.0,255.0,255.0,255.0
71,3.5500000000000003,-13.738054399103099,1.544669718573927,-0.3185169483620673,-0.13402579215712862,0.025514759906910545,-0.17953774256022514,-0.036902491220836,0.00746153769513036,-0.04932988488561829,0.0,70.0,255.0,255.0,255.0
72,3.6,-13.744801798782357,1.545954866746071,-0.3275555414816164,-0.1358762629110366,0.025860839994995555,-0.1819904530746591,-0.0371163351228887,0.0063228048025720796,-0.04874794635224,0.0,70.0,255.0,255.0,255.0
73,3.6500000000000004,-13.751642025394203,1.5472558025734267,-0.3367159936695332,-0.1377374256694175,0.026147040387167753,-0.18441253719544914,-0.03727833197011421,0.005208011115009903,-0.048179307714368846,0.0,70.0,255.0,255.0,255.0
74,3.7,-13.758575541349298,1.5485695707847877,-0.34599679520116133,-0.13960409610804803,0.026381641106496545,-0.186808383846096,-0.03728678884105108,0.004394602744639542,-0.04777021489219546,0.0,70.0,255.0,255.0,255.0
75,3.75,-13.765602435005007,1.5498939666840763,-0.3553968320541428,-0.1414661045535226,0.026586500661631707,-0.1891895586846687,-0.03703105881385227,0.004148295740780128,-0.047663024608063376,0.0,70.0,255.0,255.0,255.0
76,3.8000000000000003,-13.77272215180465,1.551228220850951,-0.3649157510696282,-0.14330720198943325,0.026796470680574558,-0.19157468630690233,-0.03646658872273889,0.004592593040664283,-0.04792335418372651,0.0,70.0,255.0,255.0,255.0
77,3.85,-13.77993315520395,1.5525736137521338,-0.37455430068483303,-0.1451127634257965,0.027045759965698135,-0.19398189410304134,-0.0357219750979354,0.005570725480508187,-0.04845985591323543,0.0,70.0,255.0,255.0,255.0
78,3.9000000000000004,-13.78723342814723,1.5539327968475207,-0.38431394047993234,-0.1468793994992268,0.027353543228625377,-0.19642067189822587,-0.03502520076423821,0.006770532858513256,-0.049094249977432725,0.0,70.0,255.0,255.0,255.0
79,3.95,-13.794621095153873,1.5553089680749963,-0.3941963678746556,-0.1486152835022203,0.02772281325154946,-0.1988913191007846,-0.03460154511660818,0.00786439228037672,-0.04964300105677055,0.0,70.0,255.0,255.0,255.0
80,4.0,-13.802094956497452,1.5567050781726757,-0.4042030723900108,-0.1503395540108876,0.02813998245666305,-0.20138497200390293,-0.03467309856084455,0.008529450516348014,-0.04992994976187326,0.0,70.0,255.0,255.0,255.0
81,4.05,-13.809655050554962,1.5581229663206626,-0.4143348650750459,-0.15208259335830476,0.028575758303184262,-0.20388431407697194,-0.03533875295715916,0.008595316249326856,-0.04986341166620667,0.0,70.0,255.0,255.0,255.0
82,4.1000000000000005,-13.817303215833283,1.559562654002994,-0.424591503797708,-0.15387342930660353,0.028999514081595734,-0.2063713131705236,-0.036429517400193845,0.008163337564548456,-0.04949803792022034,0.0,70.0,255.0,255.0,255.0
83,4.15,-13.825042393485623,1.5610229177288222,-0.43497199639209827,-0.15572554509832415,0.029392092059639108,-0.20883411786899397,-0.03762543373664329,0.007459974001156056,-0.048958284450478784,0.0,70.0,255.0,255.0,255.0
84,4.2,-13.832875770343115,1.562501863208958,-0.4454749155846074,-0.15763597268026786,0.02974551148171134,-0.21126714161557147,-0.03860148290559806,0.006714914380911985,-0.048371067594016326,0.0,70.0,255.0,255.0,255.0
85,4.25,-13.84080599075365,1.5639974688769933,-0.4560987105536554,-0.15958569338888395,0.030063583497730306,-0.2136712246283956,-0.03904857491452418,0.006161874221843888,-0.04785316702040632,0.0,70.0,255.0,255.0,255.0
86,4.3,-13.848834339682004,1.565508221558731,-0.46684203804744695,-0.16154083017172027,0.03036169890389573,-0.2160524583176121,-0.03881131320220277,0.005931689747540325,-0.047475773044225456,0.0,70.0,255.0,255.0,255.0
87,4.3500000000000005,-13.856960073770821,1.5670336387673829,-0.47770395638541663,-0.16346682470910423,0.03065675247248434,-0.21841880193281815,-0.03800983875166253,0.0059713554966478455,-0.047264356042314715,0.0,70.0,255.0,255.0,255.0
88,4.4,-13.865181022152914,1.5685738968059795,-0.48868391824072877,-0.16534181404688653,0.030958834453560513,-0.22077889392184358,-0.03690402000202653,0.006155818223207987,-0.047237087745133355,0.0,70.0,255.0,255.0,255.0
89,4.45,-13.87349425517551,1.570129522212739,-0.499781845777601,-0.16715722670930688,0.03127233429480514,-0.2231425107073315,-0.035765297153922404,0.006368351128438476,-0.0474122157466228,0.0,70.0,255.0,255.0,255.0
90,4.5,-13.881896744823845,1.57170113023546,-0.5109981693114619,-0.16891834376227877,0.03159566956640436,-0.22552011549650586,-0.034856611101830026,0.006483099216314514,-0.04781337283242815,0.0,70.0,255.0,255.0,255.0
91,4.55,-13.890386089551738,1.5732890891693794,-0.5223338573272516,-0.17064288781948989,0.03192064421643659,-0.2279238479905743,-0.03432825530698125,0.006431864154476941,-0.04843452179787988,0.0,70.0,255.0,255.0,255.0
92,4.6000000000000005,-13.898961033605794,1.5748931946571036,-0.5337905541105193,-0.1723511692929769,0.032238855981852055,-0.23036356767629385,-0.03416385486652018,0.006272172849719482,-0.04916369874974347,0.0,70.0,255.0,255.0,255.0
93,4.65,-13.907621206481036,1.5765129747675646,-0.545370214094881,-0.1740592733061419,0.03254786150140854,-0.23284021786554865,-0.034287437303071044,0.006114981544325104,-0.049812525408221564,0.0,70.0,255.0,255.0,255.0
94,4.7,-13.916366960936408,1.5781479808072445,-0.5570745758970742,-0.175779913023284,0.032850354136284565,-0.235344820217116,-0.03462301612557894,0.006058767352445926,-0.05018780834724623,0.0,70.0,255.0,255.0,255.0
95,4.75,-13.925199197783364,1.579798010181193,-0.5689046961165926,-0.1775215749186998,0.03315373823665313,-0.23785899870027327,-0.035088990001952425,0.006201672968630945,-0.0501013602978051,0.0,70.0,255.0,255.0,255.0
96,4.800000000000001,-13.934119118428278,1.5814633546309098,-0.5808604757671015,-0.17928881202347924,0.03347052143314766,-0.2403549562468965,-0.03562391731843917,0.006587939881508298,-0.04947182740988598,0.0,70.0,255.0,255.0,255.0
97,4.8500000000000005,-13.943128078985712,1.5831450623245078,-0.5929401917412822,-0.18108396665054372,0.03381253222480396,-0.24280618144126187,-0.03617483502313945,0.007138181542787336,-0.04844709604499009,0.0,70.0,255.0,255.0,255.0
98,4.9,-13.952227515093332,1.5848446078533902,-0.6051410939112277,-0.18290629552579318,0.03418433958742639,-0.24519966585139552,-0.036663620061894164,0.0077051880007728,-0.047308241857457745,0.0,70.0,255.0,255.0,255.0
99,4.95,-13.961418708538291,1.5865634962832504,-0.6174601583264218,-0.18475032865673313,0.03458305102488124,-0.24753700562700764,-0.03699746351752964,0.008143805569038598,-0.046348811936747225,0.0,70.0,255.0,255.0,255.0
100,5.0,-13.970702547959005,1.5883029129558783,-0.6298947944739285,-0.18660604187754615,0.03499872014433025,-0.24983454704507024,-0.03709139159422392,0.00831822755684719,-0.04586118597637023,0.0,70.0,255.0,255.0,255.0
101,5.050000000000001,-13.980079312726046,1.5900633682976835,-0.6424436130309288,-0.18845946781615552,0.03541487378056596,-0.25212312422464467,-0.03690884931373262,0.008162576785486486,-0.04599145527572901,0.0,70.0,255.0,255.0,255.0
102,5.1000000000000005,-13.989548494740621,1.591844400333935,-0.655107106896393,-0.1902969268089194,0.0358149778228789,-0.25443369257264314,-0.03650128056644775,0.007739576503751344,-0.046599805182145904,0.0,70.0,255.0,255.0,255.0
103,5.15,-13.999109005406938,1.5936448660799714,-0.6678869822881931,-0.1921095958728003,0.03618883143094109,-0.25678310474285926,-0.03597444608391953,0.0071806300892429675,-0.04740261905018528,0.0,70.0,255.0,255.0,255.0
104,5.2,-14.008759454327901,1.595463283477029,-0.6807854173706789,-0.19389437141731136,0.0365330408318032,-0.25917395447766167,-0.03544661698224871,0.0066254975509272285,-0.04811037047917077,0.0,70.0,255.0,255.0,255.0
105,5.25,-14.018498442548669,1.5972981701631517,-0.6938043777359593,-0.19565425757102517,0.036851381186033816,-0.26159414179077634,-0.03503346227002879,0.0062134354517739965,-0.048425923768669055,0.0,70.0,255.0,255.0,255.0
106,5.300000000000001,-14.028324880085004,1.5991484215956324,-0.7069448315497565,-0.19739771764431424,0.0371543843769806,-0.2640165468545286,-0.034800172607418745,0.006021240155784646,-0.048196290881141746,0.0,70.0,255.0,255.0,255.0
107,5.3500000000000005,-14.0382382143131,1.6010136086008497,-0.7202060324214121,-0.19913427483176704,0.03745350520161228,-0.2664137708788905,-0.03473640634776842,0.006019876078755537,-0.04756002355276179,0.0,70.0,255.0,255.0,255.0
108,5.4,-14.04823830756818,1.6028937721157936,-0.7335862086376456,-0.20087135827909108,0.03775637198485615,-0.26877254920980476,-0.03480307112688763,0.00613676716691991,-0.046794102454716935,0.0,70.0,255.0,255.0,255.0
109,5.45,-14.05832535014101,1.6047892457993354,-0.7470832873423926,-0.2026145819444558,0.03806718191830427,-0.2710931811243622,-0.034962269018556924,0.006300404693382333,-0.046170079106910844,0.0,70.0,255.0,255.0,255.0
110,5.5,-14.068499765762626,1.606700490307624,-0.7606955267500818,-0.20436758518094678,0.038386412454194385,-0.27338955712049584,-0.03518277797311953,0.006436049284075374,-0.04596705368080656,0.0,70.0,255.0,255.0,255.0
111,5.550000000000001,-14.078762108659104,1.6086278870447548,-0.7744222430544422,-0.20613285974176776,0.03871078684671181,-0.27568988649244286,-0.03543768636458111,0.006499688698524686,-0.04632324133965193,0.0,70.0,255.0,255.0,255.0
112,5.6000000000000005,-14.089113051736803,1.6105715689922953,-0.7882645153993261,-0.2079113538174049,0.039036381324046854,-0.27802188125446103,-0.03567402644417683,0.006501851582196849,-0.04707469268140363,0.0,70.0,255.0,255.0,255.0
113,5.65,-14.099553244040845,1.6125315251771595,-0.8022244311798883,-0.20970026238618544,0.039360972004931494,-0.2803973557605832,-0.03581149784661619,0.006470529681368298,-0.04790637905632833,0.0,70.0,255.0,255.0,255.0
114,5.7,-14.110083077975421,1.6145076661927884,-0.8163042509753844,-0.2114925036020665,0.039683434292183684,-0.28281251916009387,-0.03576481976370616,0.0064266832092485515,-0.04850945295331588,0.0,70.0,255.0,255.0,255.0
115,5.75,-14.120702494401051,1.6164998686063778,-0.8305056830958977,-0.21327674436255606,0.04000364032585635,-0.2852483010559148,-0.03543542583752668,0.006390339439876769,-0.048573926776174225,0.0,70.0,255.0,255.0,255.0
116,5.800000000000001,-14.131410752411677,1.618508030225374,-0.8448290810809759,-0.21503604618581917,0.04032246823617136,-0.2876699118377113,-0.034788569113075596,0.006373291763361877,-0.0479503707998985,0.0,70.0,255.0,255.0,255.0
117,5.8500000000000005,-14.142206099019633,1.620532115429995,-0.8592726742796688,-0.21675560127386362,0.04064096950219254,-0.29004333813590466,-0.033969259437860444,0.006372717592562083,-0.04682838520874144,0.0,70.0,255.0,255.0,255.0
118,5.9,-14.153086312539063,1.6225721271755933,-0.8738334148945663,-0.21843297212960522,0.04095973999542757,-0.29235275035858543,-0.03323000508554941,0.006381114107933961,-0.045574040993612286,0.0,70.0,255.0,255.0,255.0
119,5.95,-14.164049396232594,1.6246280894295377,-0.8885079493155273,-0.22007860178241856,0.04127908091298593,-0.2946007422352659,-0.032824512531526295,0.006392862469484228,-0.0445514563992111,0.0,70.0,255.0,255.0,255.0
120,6.0,-14.175094172717305,1.6267000352668919,-0.9032934891180929,-0.22171542338275785,0.04159902624237599,-0.29680789599850654,-0.03301547205776245,0.006402592955923048,-0.044113183270499956,0.0,70.0,255.0,255.0,255.0
121,6.050000000000001,-14.18622093857087,1.6287879920537753,-0.918188738915378,-0.2233801489881948,0.04191934020857824,-0.2990120605623159,-0.03391563625108063,0.006407144247932983,-0.04443564842114833,0.0,70.0,255.0,255.0,255.0
122,6.1000000000000005,-14.197432187616124,1.6308919692877497,-0.9331946951743245,-0.2251069870078659,0.04223974066716929,-0.3012514608406214,-0.0352826887180413,0.006407278047948495,-0.04536188303372324,0.0,70.0,255.0,255.0,255.0
123,6.15,-14.208731637271656,1.6330119661204923,-0.9483138849994401,-0.22690841785999893,0.04256006801337309,-0.3035482488656882,-0.03667305057692971,0.006405013887156308,-0.04656650125826056,0.0,70.0,255.0,255.0,255.0
124,6.2,-14.220123029402124,1.635147976089087,-0.9635495200608933,-0.22877429206555888,0.04288024205588492,-0.30590811096644743,-0.03763829561105325,0.00640186691276412,-0.047718660843676375,0.0,70.0,255.0,255.0,255.0
125,6.25,-14.231609066478212,1.6372999903260808,-0.9789046960960849,-0.23067224742110426,0.0432002547046495,-0.30832011495005585,-0.03772674187434433,0.006399288736247399,-0.048501358789843074,0.0,70.0,255.0,255.0,255.0
126,6.300000000000001,-14.243190254144235,1.639468001559552,-0.9943815315558989,-0.23254696625299331,0.04352017092950966,-0.31075824684543174,-0.03672800010185995,0.006398131244567118,-0.048740974909555757,0.0,70.0,255.0,255.0,255.0
127,6.3500000000000005,-14.254863763103511,1.6416520074190317,-1.009980520780628,-0.23434504743129025,0.04384006782910621,-0.3131942124410114,-0.03495164070184131,0.0063981702158155684,-0.04849312694544805,0.0,70.0,255.0,255.0,255.0
128,6.4,-14.266624758887364,1.6438520083424626,-1.0257009528,-0.23604213032317745,0.04415998795109122,-0.31560755953997655,-0.03298781591691835,0.0063988303437678695,-0.047910070523526915,0.0,70.0,255.0,255.0,255.0
129,6.45,-14.278467976135829,1.6460680062141408,-1.0415412767346257,-0.2376438290229821,0.044479950863483,-0.3179852194933641,-0.031434426235321666,0.00639966987943108,-0.047147699759775286,0.0,70.0,255.0,255.0,255.0
130,6.5,-14.290389141789662,1.648300003428811,-1.0574994747493365,-0.2391855729467096,0.044799954939034325,-0.3203223295159541,-0.030889495176111836,0.006400252098970327,-0.04636138157001479,0.0,70.0,255.0,255.0,255.0
131,6.550000000000001,-14.3023865334305,1.6505480017080443,-1.0735735096862211,-0.24073277854059327,0.04511997607338003,-0.3226213576503656,-0.031646023016485,0.006400330773659313,-0.04565220019248084,0.0,70.0,255.0,255.0,255.0
132,6.6000000000000005,-14.314462419643721,1.652812001036149,-1.089761610514373,-0.2423501752483581,0.04543998801640026,-0.32488754953520216,-0.03337545709918288,0.006400041088960862,-0.04506281198173312,0.0,70.0,255.0,255.0,255.0
133,6.65,-14.326621550955336,1.6550920005096843,-1.1060622646397413,-0.24407032425051156,0.045759980182276117,-0.3271276388485389,-0.03543013797049355,0.0063996647377218,-0.044638531332941156,0.0,70.0,255.0,255.0,255.0
134,6.7,-14.338869452068773,1.6573879990543765,-1.122474374399227,-0.24589318904540747,0.04607995449017244,-0.3293514026684963,-0.03715807870285914,0.006399453569416735,-0.044435714942303584,0.0,70.0,255.0,255.0,255.0
135,6.75,-14.351210869859877,1.6596999959587015,-1.138997404906591,-0.24778613212079748,0.04639992553921779,-0.33157121034276926,-0.03791136133575179,0.006399702868087331,-0.04450514290212926,0.0,70.0,255.0,255.0,255.0
136,6.800000000000001,-14.363648065280852,1.6620279916082983,-1.1556314954335039,-0.24968432517898265,0.04671992477698117,-0.3338019169587092,-0.037361474264052674,0.006400545660811829,-0.04485796324837921,0.0,70.0,255.0,255.0,255.0
137,6.8500000000000005,-14.376179302377775,1.6643719884363997,-1.1723775966024619,-0.25152227954720274,0.04703998010529897,-0.3360570066676072,-0.03580275467758298,0.006401665428157344,-0.04541208200405933,0.0,70.0,255.0,255.0,255.0
138,6.9,-14.388800293235573,1.6667319896188282,-1.1892371961002646,-0.25326460064674094,0.047360091319796904,-0.33834312515911513,-0.03383540842740729,0.006402510705094677,-0.0460176689465408,0.0,70.0,255.0,255.0,255.0
139,6.95,-14.401505762442449,1.6691079975683794,-1.2062119091183734,-0.25490582038994347,0.04768023117580844,-0.34065877356226126,-0.03205969252206842,0.006402515843006995,-0.04651046611192644,0.0,70.0,255.0,255.0,255.0
140,7.0,-14.414290875274567,1.671500012736409,-1.2233030734564907,-0.2564705698989478,0.048000342904097604,-0.3429941717703078,-0.031068975562043022,0.006400936428896387,-0.04673002817334737,0.0,70.0,255.0,255.0,255.0
141,7.050000000000001,-14.427152819432344,1.6739080318587891,-1.2405113262954042,-0.2580127179461478,0.04832032481869808,-0.345331776379596,-0.031174000670475266,0.006397486582976342,-0.04659594681413193,0.0,70.0,255.0,255.0,255.0
142,7.1000000000000005,-14.440092147069182,1.6763320452182788,-1.2578362510944503,-0.2595879699659953,0.04864009156239524,-0.34765376645172097,-0.032159071976778364,0.006393297198470371,-0.046174267927701074,0.0,70.0,255.0,255.0,255.0
143,7.15,-14.453111616428943,1.6787720410150286,-1.2752767029405763,-0.2612286251438256,0.048959654538545117,-0.3499492031723661,-0.033563519696500066,0.0063902924421155305,-0.04560538495543831,0.0,70.0,255.0,255.0,255.0
144,7.2,-14.466215009583564,1.6812280106721333,-1.292831171411687,-0.2629443219356453,0.04927912080660679,-0.3522143049472648,-0.03492949153720559,0.006390483058438257,-0.04503570732301565,0.0,70.0,255.0,255.0,255.0
145,7.25,-14.479406048622508,1.6836999530956893,-1.3104981334353027,-0.26472157429754617,0.04959870284438894,-0.3544527739046677,-0.03580080168319455,0.006396551416076868,-0.044610735080397035,0.0,70.0,255.0,255.0,255.0
146,7.300000000000001,-14.492687167013319,1.6861878809565722,-1.3282764488021537,-0.2665244021039648,0.04991877594821448,-0.3566753784553045,-0.03593040184011187,0.006409508007387821,-0.04441102338794689,0.0,70.0,255.0,255.0,255.0
147,7.3500000000000005,-14.506058488832904,1.6886918306905108,-1.3461656712808332,-0.26831461448155736,0.050239653645127724,-0.35889387624346236,-0.03545093410615152,0.006425145778155006,-0.04440720992171521,0.0,70.0,255.0,255.0,255.0
148,7.4,-14.519518628461475,1.691211846321085,-1.3641658364265,-0.2700694955145799,0.05056129052602998,-0.361116099447476,-0.03465885777433897,0.0064363195263039685,-0.04452526675617907,0.0,70.0,255.0,255.0,255.0
149,7.45,-14.533065438384362,1.6937479597431138,-1.3822772812255808,-0.27178050025899125,0.05088328559775812,-0.36334640291908027,-0.03384322710981991,0.006435551923278382,-0.044692905062082566,0.0,70.0,255.0,255.0,255.0
150,7.5,-14.546696678487374,1.6963001748808608,-1.400500476718408,-0.2734538182255619,0.051204845718357817,-0.3655853899536843,-0.03330376176311489,0.0064128579067679325,-0.04483505015311362,0.0,70.0,255.0,255.0,255.0
151,7.550000000000001,-14.560410820206918,1.6988684443149495,-1.4188358202209492,-0.27511087643530274,0.051524571388434914,-0.36782990793439163,-0.03320322646818141,0.006364481387355347,-0.04490718574141628,0.0,70.0,255.0,255.0,255.0
152,7.6000000000000005,-14.574207766130904,1.7014526320197043,-1.437283467511847,-0.27677414087238006,0.05184129385709335,-0.3700761085278259,-0.0334326228330184,0.0063061196890368265,-0.04491782478643902,0.0,70.0,255.0,255.0,255.0
153,7.65,-14.588088234294156,1.7040525737006589,-1.4558434310737318,-0.2784541387186046,0.0521551833573386,-0.37232169041303553,-0.033767296291742355,0.00626442945266259,-0.044891776457811616,0.0,70.0,255.0,255.0,255.0
154,7.7,-14.602053180002764,1.7066681503554382,-1.4745156365531507,-0.2801508705015543,0.05246773680235961,-0.37456528617360707,-0.03399671424215711,0.006267309248486619,-0.04484647196230096,0.0,70.0,255.0,255.0,255.0
155,7.75,-14.616103321344312,1.7092993473808948,-1.4932999596910925,-0.2818538101428203,0.05278191428218726,-0.37680633760926563,-0.03389622585618923,0.006352016956823192,-0.044797036335242346,0.0,70.0,255.0,255.0,255.0
156,7.800000000000001,-14.630238561017046,1.711946341783657,-1.5121962703140772,-0.2835404930871732,0.05310293849804193,-0.3790449898071313,-0.03335683214764629,0.006532566443051557,-0.04475352035979707,0.0,70.0,255.0,255.0,255.0
157,7.8500000000000005,-14.64445737065303,1.714609641230699,-1.5312044586718057,-0.2851894933575849,0.053435170926492415,-0.38128168964524534,-0.032541278525499706,0.006750375465824909,-0.044721490932686514,0.0,70.0,255.0,255.0,255.0
158,7.9,-14.658757510352805,1.7172898588763061,-1.5503244392786018,-0.2867946209397232,0.05377797604462442,-0.38351713890039996,-0.03174925309554766,0.006905962663239507,-0.0447076274123992,0.0,70.0,255.0,255.0,255.0
159,7.95,-14.673136832747002,1.7199874388351615,-1.5695561725618457,-0.2883644186671397,0.054125767192816365,-0.38575245238648526,-0.03126977606040526,0.0069019243695178645,-0.04472120708856053,0.0,70.0,255.0,255.0,255.0
160,8.0,-14.687593952219519,1.7227024355955878,-1.5888996845172503,-0.2899215985457637,0.05446816848157621,-0.387989259609256,-0.0313992602208657,0.006631102237775188,-0.0447768045060748,0.0,70.0,255.0,255.0,255.0
161,8.05,-14.702128992601578,1.725434255683319,-1.6083550985227713,-0.29150434468922626,0.054788877416593884,-0.39023013283709274,-0.03227033072246144,0.0060514533063882325,-0.044878732819508826,0.0,70.0,255.0,255.0,255.0
162,8.1,-14.716744386688442,1.7281813233372472,-1.6279226978009596,-0.29314863161800986,0.05507331381221503,-0.3924771328912069,-0.0336360159787219,0.005294150009449439,-0.044996211482817294,0.0,70.0,255.0,255.0,255.0
163,8.15,-14.731443855763379,1.7309415870645406,-1.647602811811892,-0.29486794628709845,0.05531829241753883,-0.39472975398537447,-0.03504026009188976,0.004590787493574666,-0.04507771389239412,0.0,70.0,255.0,255.0,255.0
164,8.200000000000001,-14.746231181317151,1.733713152579001,-1.667395673199497,-0.29665265762719883,0.0555323925615725,-0.3969849042804463,-0.036025347017876186,0.004171053879664655,-0.0450754129701636,0.0,70.0,255.0,255.0,255.0
165,8.25,-14.761109121526099,1.7364948263206978,-1.6873013022399366,-0.29847048098888607,0.05573539780550529,-0.3992372952823908,-0.036130789204058544,0.0042635274720481675,-0.04494777361270241,0.0,70.0,255.0,255.0,255.0
166,8.3,-14.77607822941604,1.7392866923595516,-1.707319402727736,-0.3002657365476047,0.05595874530877731,-0.40147968164171655,-0.03514095918024651,0.004969219398875957,-0.044677748828458874,0.0,70.0,255.0,255.0,255.0
167,8.35,-14.79113569518086,1.7420907008515756,-1.7274492704041082,-0.3019845769069107,0.05623231974539289,-0.4037050701652367,-0.03336631256960487,0.0061067774100420635,-0.04429543469770536,0.0,70.0,255.0,255.0,255.0
168,8.4,-14.806276687106731,1.7449099243340909,-1.7476899097442598,-0.3036023678045652,0.05656942304978152,-0.4059092251114871,-0.0313997298491131,0.007335456126988937,-0.0438605846168727,0.0,70.0,255.0,255.0,255.0
169,8.450000000000001,-14.821495931961316,1.7477476431565537,-1.768040192915257,-0.30512454989182203,0.05696586535809178,-0.408091128626924,-0.029840957082605257,0.008308312326477107,-0.043436628210247186,0.0,70.0,255.0,255.0,255.0
170,8.5,-14.836789142095913,1.7506065108699,-1.7884990226069521,-0.3065864635128257,0.05740025428242923,-0.4102528879325118,-0.029289517692632216,0.008686815846092877,-0.04307611036724612,0.0,70.0,255.0,255.0,255.0
171,8.55,-14.852154578312598,1.7534876685847967,-1.8090654817085081,-0.30805350166108525,0.05783454694270107,-0.4123987396636486,-0.0300394922273739,0.008304582850815478,-0.042810271866744465,0.0,70.0,255.0,255.0,255.0
172,8.6,-14.867594492262022,1.7563899655641702,-1.829738896573317,-0.3095904127355631,0.05823071256751078,-0.41453391511918625,-0.03176344236806017,0.007328623800351153,-0.042659345763573775,0.0,70.0,255.0,255.0,255.0
173,8.65,-14.883113619586155,1.7593107398415477,-1.8505188732204267,-0.31122984589789127,0.058567409322736186,-0.41666467424000597,-0.03381527272861007,0.006098343709592946,-0.042642651602831094,0.0,70.0,255.0,255.0,255.0
174,8.700000000000001,-14.898717476851811,1.7622467064964438,-1.8714053639973176,-0.3129719400084241,0.05884054693847007,-0.41879818027946936,-0.03554490390698106,0.004961757420463009,-0.042771360902205124,0.0,70.0,255.0,255.0,255.0
175,8.75,-14.914410813586997,1.7651947945353947,-1.8923986912483737,-0.3147843362885894,0.05906358506478249,-0.4209418103302265,-0.036307223939857636,0.004261190495391531,-0.04305174762211372,0.0,70.0,255.0,255.0,255.0
176,8.8,-14.93019591048067,1.768153065002922,-1.9134995450303403,-0.31660266240240986,0.059266665988009226,-0.42310335504168073,-0.03577463834130157,0.004178509803764996,-0.043475476058896234,0.0,70.0,255.0,255.0,255.0
177,8.85,-14.946071079827238,1.7711214611341957,-1.9347090267525417,-0.31836180012271953,0.059481436045158986,-0.4252893579361161,-0.03423614173527767,0.004609683099698891,-0.043986343087198954,0.0,70.0,255.0,255.0,255.0
178,8.9,-14.962032090492942,1.774101208607438,-1.9560284808239519,-0.32002627657593763,0.059727634297979115,-0.4275019893504006,-0.03228295546193749,0.005321052484807964,-0.044487969811135564,0.0,70.0,255.0,255.0,255.0
179,8.950000000000001,-14.978073707484832,1.7770942245639936,-1.9774592256875818,-0.3215900956689133,0.06001354129363978,-0.42973815491722966,-0.03050586085446838,0.006077571744378396,-0.04487895382214724,0.0,70.0,255.0,255.0,255.0
180,9.0,-14.994191100059833,1.780102562736802,-1.9990022963156748,-0.32307686266138447,0.060335391472416955,-0.43198988473261535,-0.029485502631665383,0.006640450144201893,-0.045072889819919304,0.0,70.0,255.0,255.0,255.0
181,9.05,-15.01038139375097,1.7831277637112353,-2.0206582141608433,-0.3245386459320798,0.06067758630805997,-0.4342454438992216,-0.029527875154578,0.006875830148911355,-0.04502731107713931,0.0,70.0,255.0,255.0,255.0
182,9.1,-15.026644964653041,1.786170321367608,-2.042426840705597,-0.32602965017684227,0.06102297448730809,-0.4364926158403293,-0.030437538476491,0.006837212565335982,-0.04475975741231597,0.0,70.0,255.0,255.0,255.0
183,9.15,-15.042984358768654,1.789230061159966,-2.0643074757448763,-0.3275823997797289,0.06136130756459357,-0.4387214196404532,-0.03178819679838796,0.00665119926461788,-0.04432183278884061,0.0,70.0,255.0,255.0,255.0
184,9.200000000000001,-15.059403204631014,1.7923064521240673,-2.0862989826696423,-0.32920846985668106,0.06168809441376988,-0.44092479911921334,-0.03315799300036559,0.006435554669770305,-0.043779024275503176,0.0,70.0,255.0,255.0,255.0
185,9.25,-15.075905205754323,1.795398870601343,-2.1083999556567976,-0.3308981990797655,0.0620048630315706,-0.4430993220680035,-0.034138830802454834,0.006316962307861829,-0.04319673971835414,0.0,70.0,255.0,255.0,255.0
186,9.3,-15.09249302453899,1.7985069384272243,-2.1306089148764427,-0.33262235293692655,0.06231979064455606,-0.44524447309104875,-0.03450173983079452,0.006364230206723498,-0.042620967278184096,0.0,70.0,255.0,255.0,255.0
187,9.35,-15.109167441048015,1.8016308496657987,-2.1529244029659025,-0.33434837306284493,0.06264128605224295,-0.4473614187958219,-0.03430368104844206,0.006520534237886011,-0.04209276246167626,0.0,70.0,255.0,255.0,255.0
188,9.4,-15.125927861845275,1.8047710670324486,-2.175345056756025,-0.33605272104177075,0.06297184406834466,-0.4494537493372164,-0.033712602330737695,0.00667592201826217,-0.04166824215676712,0.0,70.0,255.0,255.0,255.0
189,9.450000000000001,-15.142772713152192,1.8079280340726331,-2.197869777899624,-0.3377196332959187,0.06330887825406917,-0.45152824301149863,-0.0328897662116745,0.006733123329638602,-0.04140392343461308,0.0,70.0,255.0,255.0,255.0
190,9.5,-15.159699825174867,1.8111019548578555,-2.2204978810571747,-0.3393416976629382,0.06364515640130852,-0.4535941416806777,-0.03198714618726228,0.006595756568339439,-0.04134015130667912,0.0,70.0,255.0,255.0,255.0
191,9.55,-15.176706882918486,1.814292549712764,-2.243229192067692,-0.3409183479146449,0.06396845391090311,-0.45566225814216654,-0.03111020048827129,0.00622016277709303,-0.04148984545140344,0.0,70.0,255.0,255.0,255.0
192,9.600000000000001,-15.193791659966331,1.8174988002489458,-2.2660641068713914,-0.34245271771176533,0.06426717267901783,-0.45774312622581803,-0.030344940126525444,0.005682422045105717,-0.04182564961778823,0.0,70.0,255.0,255.0,255.0
193,9.65,-15.210952154689663,1.8207192669806658,-2.2890035046902737,-0.34395284192729747,0.06453669611541368,-0.45984482310394537,-0.02980670856178591,0.005124180261195654,-0.04228706338582633,0.0,70.0,255.0,255.0,255.0
194,9.700000000000001,-15.228186944159061,1.8239524698604872,-2.312048589181786,-0.3454333885679439,0.06477959070513739,-0.46197183256440066,-0.029621403692203785,0.004684725904469111,-0.042799594340126035,0.0,70.0,255.0,255.0,255.0
195,9.75,-15.245495493546457,1.8271972260511795,-2.3352006879467138,-0.34691498229651785,0.0650051687058606,-0.46412478253795797,-0.029912584449220958,0.004491992770860875,-0.043302608434636625,0.0,70.0,255.0,255.0,255.0
196,9.8,-15.262878442388713,1.8304529867310733,-2.3584610674355817,-0.348424647012866,0.06522878998222348,-0.4663020934078643,-0.030718996676881716,0.004608918218518276,-0.0437534504502235,0.0,70.0,255.0,255.0,255.0
197,9.850000000000001,-15.280337958247744,1.8337201050494019,-2.3818308972875,-0.349986881964206,0.06546606052771242,-0.4685001275829803,-0.03187124376076156,0.004985302057236574,-0.04408827543138649,0.0,70.0,255.0,255.0,255.0
198,9.9,-15.297877130585134,1.8369995927838445,-2.4053110801938797,-0.3516117713889422,0.06572732018794714,-0.470710920951003,-0.033063360624296934,0.005510993300750222,-0.04421902877527195,0.0,70.0,255.0,255.0,255.0
199,9.950000000000001,-15.315499135386638,1.8402928370681966,-2.4289019893826005,-0.3532932180266357,0.06601715985778744,-0.4729220304605075,-0.03397287076669642,0.006068485873056417,-0.04406492531163764,0.0,70.0,255.0,255.0,255.0
200,10.0,-15.333206452387797,1.8436013087696232,-2.4526032832399305,-0.3550090584656118,0.06633416877525278,-0.47511741348216674,-0.034282516016759246,0.006548253700167095,-0.043545452250670635,0.0,70.0,255.0,255.0,255.0
201,10.05,-15.351000041233199,1.8469262539457219,-2.476413730730817,-0.35672146962831164,0.06667198522780415,-0.4772765756855746,-0.033840013271024816,0.006884677169383124,-0.04264152757329498,0.0,70.0,255.0,255.0,255.0
202,10.100000000000001,-15.368878599350628,1.8502685072924037,-2.500330940808488,-0.3583930597927143,0.06702263649219109,-0.47938156623949624,-0.03281996828068401,0.007060006089476545,-0.04150385937951029,0.0,70.0,255.0,255.0,255.0
203,10.15,-15.38683934721247,1.853628517594941,-2.524351887354767,-0.36000346645638004,0.06737798583675181,-0.4814269616235256,-0.03157080465179263,0.007067371011304502,-0.04039672827271801,0.0,70.0,255.0,255.0,255.0
204,10.200000000000001,-15.404878945996266,1.8570063058760788,-2.5484736369708405,-0.36155014025789356,0.06772937359332154,-0.48342123906676804,-0.030453173847000414,0.006901843423889886,-0.039592452665004885,0.0,70.0,255.0,255.0,255.0
205,10.25,-15.42299436123826,1.8604014549542731,-2.5726940112614436,-0.3630487838410801,0.0680681701791408,-0.4853862068900261,-0.02982933283650624,0.006559001752504123,-0.039351573238466386,0.0,70.0,255.0,255.0,255.0
206,10.3,-15.441183824380374,1.863813122893993,-2.597012257659843,-0.3645330735415442,0.06838527376857195,-0.4873563963906147,-0.02988701084412071,0.006051347463165158,-0.03979475161122181,0.0,70.0,255.0,255.0,255.0
207,10.350000000000001,-15.459447668592414,1.8672399823311303,-2.621429650900505,-0.36603748492549215,0.06867330492545731,-0.4893656820511483,-0.030479838826913408,0.005455512745622393,-0.04076733600175686,0.0,70.0,255.0,255.0,255.0
208,10.4,-15.477787572872924,1.8706804533865387,-2.645948825864958,-0.3675810574242355,0.06893082504313419,-0.49143312999079036,-0.03130330421932115,0.004900361814619281,-0.04196133086065146,0.0,70.0,255.0,255.0,255.0
209,10.450000000000001,-15.496205774334838,1.8741330648354437,-2.670572963899584,-0.36916781534742427,0.06916334110691924,-0.4935618151372134,-0.03205406088557794,0.004523114790311311,-0.04305300295652792,0.0,70.0,255.0,255.0,255.0
210,10.5,-15.514704354407666,1.8775967874972306,-2.6953050073786793,-0.3707864635127933,0.06938313652216532,-0.49573843028644315,-0.032424208580650316,0.004459748613871994,-0.043724245471610246,0.0,70.0,255.0,255.0,255.0
211,10.55,-15.533284420686117,1.8810713784876603,-2.7201468069282284,-0.3724102362054893,0.06960931596830644,-0.49793423968437445,-0.03225259603159003,0.004770445798518708,-0.04380669208869925,0.0,70.0,255.0,255.0,255.0
212,10.600000000000001,-15.551945378028215,1.8845577190940612,-2.7450984313471167,-0.3740117231159523,0.0698601811020172,-0.5001190994953131,-0.031667016737912945,0.005353467403557133,-0.04339584090233828,0.0,70.0,255.0,255.0,255.0
213,10.65,-15.570685592997712,1.888057396597862,-2.7701587168777597,-0.3755769378792806,0.07014466270866215,-0.5022738237746083,-0.030928798985385697,0.006014818093880159,-0.042708064834817705,0.0,70.0,255.0,255.0,255.0
214,10.700000000000001,-15.589503071816143,1.8915721853649274,-2.7953258137245776,-0.3771046030144909,0.07046166291140521,-0.5043899059787949,-0.03029095557121053,0.006552923522096243,-0.0419626217563529,0.0,70.0,255.0,255.0,255.0
215,10.75,-15.608396053299161,1.8951035628890025,-2.820597707475639,-0.37860603343640165,0.07079995506087178,-0.5064700859502436,-0.03000576757195006,0.006766013116021874,-0.04137941690296465,0.0,70.0,255.0,255.0,255.0
216,10.8,-15.627363675159783,1.8986521808710146,-2.845972822319602,-0.3801051797716859,0.0711382642230074,-0.5085278476690913,-0.030202465170958703,0.006553582629287291,-0.04108402781941578,0.0,70.0,255.0,255.0,255.0
217,10.850000000000001,-15.64640657127633,1.9022173893113032,-2.8714504922425483,-0.3816262799534975,0.0714553133238005,-0.5105784887321851,-0.030766686295535806,0.0060160255654695405,-0.041044731624362285,0.0,70.0,255.0,255.0,255.0
218,10.9,-15.665526303155133,1.9057977122033947,-2.8970306711928204,-0.3831818484012395,0.07173986677955435,-0.5126323208315275,-0.031466907763189056,0.005354957884762257,-0.041172656886123704,0.0,70.0,255.0,255.0,255.0
219,10.950000000000001,-15.684724756116454,1.9093913759892587,-2.922713724325701,-0.3847729707298164,0.07199080911227673,-0.5146957544207975,-0.032075543403209394,0.0047717645480505055,-0.04138891095055719,0.0,70.0,255.0,255.0,255.0
220,11.0,-15.704003600228114,1.9129967931146223,-2.9485002466349,-0.3863894027415604,0.0722170432343594,-0.5167712119265833,-0.032368758427381294,0.004460161625852166,-0.041618133536580615,0.0,70.0,255.0,255.0,255.0
221,11.05,-15.72336369639061,1.9166130803126946,-2.9743908455183594,-0.38800984657255455,0.07243682527486195,-0.5188575677744556,-0.03223096986015861,0.00452179711079026,-0.04181113602750308,0.0,70.0,255.0,255.0,255.0
222,11.100000000000001,-15.74280458488537,1.9202404756421085,-3.0003860034123457,-0.3896124997275763,0.07266922294543843,-0.5209523255293336,-0.03175164600541791,0.004897022409222629,-0.041946165001549574,0.0,70.0,255.0,255.0,255.0
223,11.15,-15.762324946363368,1.9238800026072385,-3.0264860780712928,-0.39118501117309634,0.07292652751578421,-0.5230521842746105,-0.03111816203400508,0.005450758292524505,-0.04199953605907858,0.0,70.0,255.0,255.0,255.0
224,11.200000000000001,-15.78192308600268,1.927533128393687,-3.052691221839807,-0.3927243159309768,0.07321429877469088,-0.5251522791352414,-0.030520157529601022,0.006046731572362241,-0.041942247261372856,0.0,70.0,255.0,255.0,255.0
225,11.25,-15.801597377956465,1.9312014324847075,-3.079001305984817,-0.39423702692605644,0.07353120067302044,-0.5272464090007478,-0.030155189395664195,0.006557349704428006,-0.04174804895020756,0.0,70.0,255.0,255.0,255.0
226,11.3,-15.821346788695285,1.934886248460989,-3.1054158627398816,-0.3957398348705432,0.07387003374513368,-0.5293270840302622,-0.030126429280663558,0.006906455034760839,-0.04141091525058371,0.0,70.0,255.0,255.0,255.0
227,11.350000000000001,-15.84117136144352,1.938588435859221,-3.131934014387843,-0.3972496698541228,0.07422184617649652,-0.5313875005258062,-0.030343093318485614,0.007079521161501567,-0.040972379931902836,0.0,70.0,255.0,255.0,255.0
228,11.4,-15.861071755680697,1.9423084330786387,-3.158554612792462,-0.39877414420239177,0.07457798586128384,-0.5334243220234525,-0.030624919624955282,0.007077533420618565,-0.04050826647628014,0.0,70.0,255.0,255.0,255.0
229,11.450000000000001,-15.881048775863759,1.9460462344453493,-3.1852764465901884,-0.40031216181661833,0.07492959951855838,-0.5354383271734342,-0.03079674023158674,0.006901821982863154,-0.040101587182705956,0.0,70.0,255.0,255.0,255.0
230,11.5,-15.90110297186236,1.9498013930304945,-3.2120984455098056,-0.40185381822555044,0.07526816805957015,-0.5374344807417231,-0.030670530610876767,0.006554448880402575,-0.03983367998641185,0.0,70.0,255.0,255.0,255.0
231,11.55,-15.921234157686314,1.9535730512513063,-3.2390198946643607,-0.403379214877706,0.07558504440659863,-0.5394216951720754,-0.030156739590481152,0.006051357109182476,-0.03974520297091999,0.0,70.0,255.0,255.0,255.0
232,11.600000000000001,-15.94144089335013,1.9573598974711544,-3.266040615027013,-0.40486949218459856,0.0758733037704884,-0.5414090010388151,-0.02939868468327944,0.005465732105802701,-0.03980161130887616,0.0,70.0,255.0,255.0,255.0
233,11.65,-15.961721106904774,1.9611603816283552,-3.293160794768242,-0.40631908334603395,0.0761316176171789,-0.543401856302963,-0.02865945550354354,0.004919947185810791,-0.03993010199789815,0.0,70.0,255.0,255.0,255.0
234,11.700000000000001,-15.982072801684733,1.9649730592328722,-3.3203808006573095,-0.4077354377349529,0.07636529848906948,-0.5454020112386049,-0.028192741682531164,0.004544954855201233,-0.04005140400726859,0.0,70.0,255.0,255.0,255.0
235,11.75,-16.00249465067827,1.968796911477262,-3.3477009958921027,-0.40913835751428707,0.07658611310269903,-0.5474069967036899,-0.028250613569191785,0.004468864098039482,-0.04007322178041228,0.0,70.0,255.0,255.0,255.0
236,11.8,-16.022986637436162,1.9726316705431421,-3.3751215003276784,-0.4105604990918721,0.07681218489887343,-0.5494093334166461,-0.028947498140041716,0.004748629348916289,-0.039948785686405586,0.0,70.0,255.0,255.0,255.0
237,11.850000000000001,-16.043550700587456,1.9764781299671494,-3.4026419292337673,-0.41203310732829124,0.07706097603759066,-0.5514018752723304,-0.03009592086264945,0.005293074890766469,-0.039742107233653456,0.0,70.0,255.0,255.0,255.0
238,11.9,-16.06418994816899,1.9803377681469012,-3.4302616878549115,-0.41357009117813703,0.07734149238795007,-0.5533835441400115,-0.03134182712472011,0.00592631419973344,-0.0395695539701979,0.0,70.0,255.0,255.0,255.0
239,11.950000000000001,-16.08490770970527,1.9842122792059445,-3.4579802836477684,-0.41516729004076325,0.077653607457564,-0.5553588306693502,-0.03232674525008861,0.006465584703652105,-0.0395398830353777,0.0,70.0,255.0,255.0,255.0
240,12.0,-16.105706677173067,1.9881031288926576,-3.4857975709218465,-0.4168027657031459,0.07798805085831528,-0.5573375324435492,-0.032699043086026336,0.006734104051431267,-0.03976937694778471,0.0,70.0,255.0,255.0,255.0
241,12.05,-16.126587986275585,1.992011084291776,-3.5137140368921234,-0.4184371943493659,0.07832701786270713,-0.5593357683641287,-0.03228618160378005,0.006640838781746261,-0.04030674053012717,0.0,70.0,255.0,255.0,255.0
242,12.100000000000001,-16.147550396608004,1.9959358306789283,-3.5417311477582594,-0.4200313838635239,0.07865213473648991,-0.5613682064965619,-0.031267515314681305,0.006247376256629522,-0.04102818819511356,0.0,70.0,255.0,255.0,255.0
243,12.15,-16.168591124661937,1.999876297765425,-3.5698508575417796,-0.421563945880834,0.07895175548837008,-0.56343858718364,-0.030004191708243866,0.0056893880898911675,-0.041712614522237956,0.0,70.0,255.0,255.0,255.0
244,12.200000000000001,-16.189706791196087,2.0038310062277653,-3.5980750064766234,-0.4230318030343483,0.07922107354547903,-0.5655394679487857,-0.028866337921584773,0.005105993043375001,-0.0421430032447212,0.0,70.0,255.0,255.0,255.0
245,12.25,-16.21089430496537,2.007798405119973,-3.626404804336658,-0.4244505796729925,0.07946235479270758,-0.5676528875081122,-0.02822519543990154,0.0046307103721554554,-0.04210931704871079,0.0,70.0,255.0,255.0,255.0
246,12.3,-16.232151849163387,2.011777241707036,-3.6548402952274346,-0.42585432257833844,0.07968414458269457,-0.5697503996536568,-0.02827383605144007,0.004340789416978907,-0.0415166531258393,0.0,70.0,255.0,255.0,255.0
247,12.350000000000001,-16.253479737223206,2.0157668195782423,-3.683379844302024,-0.4272779632781365,0.07989643373440547,-0.5718045528206961,-0.028864973589293186,0.004233783719254092,-0.04051138707215074,0.0,70.0,255.0,255.0,255.0
248,12.4,-16.2748796454912,2.0197668850804766,-3.712020750509504,-0.42874081993726776,0.08010752295461998,-0.5738015383608719,-0.029691289493527506,0.004280608965245847,-0.03937541917600207,0.0,70.0,255.0,255.0,255.0
249,12.450000000000001,-16.296353819216932,2.0237775718737043,-3.740759998138111,-0.43024709222748925,0.08032449463093005,-0.5757420947382963,-0.030447530102151177,0.0044499303022416115,-0.0384003650578002,0.0,70.0,255.0,255.0,255.0
250,12.5,-16.31790435471395,2.0277993345435696,-3.769594959983334,-0.4317855729474829,0.08055251598484414,-0.5776415748666519,-0.030824231099302324,0.004699045135714286,-0.037873354857520525,0.0,70.0,255.0,255.0,255.0
251,12.55,-16.33953237651168,2.0318328234721887,-3.798524155624776,-0.4333295153374195,0.08079439914450148,-0.5795294302240483,-0.03065912687318928,0.004997029191189384,-0.03793993368024218,0.0,70.0,255.0,255.0,255.0
252,12.600000000000001,-16.36123730624769,2.03587877445802,-3.8275479030057387,-0.4348514856348018,0.08105221890396308,-0.5814355682346761,-0.030078930653942848,0.005336649705611762,-0.03847815162827395,0.0,70.0,255.0,255.0,255.0
253,12.65,-16.38301752507516,2.039938045362585,-3.856667712448244,-0.43633740840281376,0.08132806411506266,-0.5833772453868757,-0.029343470828990803,0.005707336888560732,-0.03923382066175485,0.0,70.0,255.0,255.0,255.0
254,12.700000000000001,-16.404871047087973,2.044011580869526,-3.8858856275444262,-0.4377858327177009,0.08162295259281915,-0.5853589503008516,-0.02870391462757027,0.0060885981018721225,-0.03994896309773566,0.0,70.0,255.0,255.0,255.0
255,12.75,-16.42679610834693,2.048100340621867,-3.915203607478329,-0.4392077998655708,0.08193692392524987,-0.5873721416966493,-0.02840981489455885,0.006477071788690836,-0.040369291492847736,0.0,70.0,255.0,255.0,255.0
256,12.8,-16.44879182707453,2.052205273262051,-3.944622841714091,-0.44062681420715677,0.08227065977168824,-0.5893958794501364,-0.02858951659909792,0.006864380531457215,-0.04035755154685461,0.0,70.0,255.0,255.0,255.0
257,12.850000000000001,-16.470858789767647,2.056327406599036,-3.9741431954233426,-0.4420667515254806,0.08262336197839559,-0.5914078968513348,-0.029133895870714355,0.007182321420895477,-0.03998234674122969,0.0,70.0,255.0,255.0,255.0
258,12.9,-16.492998502227078,2.0604676094598906,-4.003763631399225,-0.4435402037942282,0.08298889191377778,-0.5933941141242594,-0.029820235112865134,0.007327339518337084,-0.03940211868957988,0.0,70.0,255.0,255.0,255.0
259,12.950000000000001,-16.51521281014707,2.0646262957904136,-4.0334826068357685,-0.4450487750367671,0.0833560959302293,-0.5953481087202928,-0.03043023796003297,0.007209103864003197,-0.03877086879868763,0.0,70.0,255.0,255.0,255.0
260,13.0,-16.537503379730754,2.0688032190529135,-4.063298442271254,-0.4465832275902315,0.0837098023001781,-0.5972712010041281,-0.030752546620860244,0.006740732976906472,-0.03823344187532385,0.0,70.0,255.0,255.0,255.0
261,13.05,-16.559871132906093,2.0729972760204314,-4.093209726936181,-0.4481240296988531,0.08403016922791995,-0.5991714529078251,-0.030676233303594813,0.005897336794724595,-0.03787592073818402,0.0,70.0,255.0,255.0,255.0
262,13.100000000000001,-16.58231578270064,2.0772062359757055,-4.123215587562036,-0.449650850920591,0.08429953597965056,-0.6010587930779465,-0.03027089378875303,0.00481667533378527,-0.03770882504312567,0.0,70.0,255.0,255.0,255.0
263,13.15,-16.60483621799815,2.0814272296183964,-4.153315606243976,-0.4511511190777284,0.08451183676129848,-0.6029423354121377,-0.029690180793906507,0.0037432117983460245,-0.037722180104449166,0.0,70.0,255.0,255.0,255.0
264,13.200000000000001,-16.627430894608413,2.0856574196518354,-4.18350982110325,-0.45261986899998163,0.08467385715948517,-0.6048310110883914,-0.029088420243539304,0.002926734693975419,-0.03790704888704255,0.0,70.0,255.0,255.0,255.0
265,13.25,-16.65009820489815,2.089894615334345,-4.213798707352815,-0.45405996110208235,0.08480451023069602,-0.606733040300842,-0.028615989297975375,0.002595986979470055,-0.038252931681537206,0.0,70.0,255.0,255.0,255.0
266,13.3,-16.67283689071862,2.094137870674905,-4.244183125133334,-0.45548146792977917,0.08493345585743217,-0.6086563042565452,-0.02835832407939165,0.002860584643737951,-0.0387397911414844,0.0,70.0,255.0,255.0,255.0
267,13.350000000000001,-16.695646351691128,2.098387960920088,-4.27466433777847,-0.4568957935100215,0.08509056869506981,-0.6106070194149904,-0.028298892611644533,0.0036220261949715393,-0.03930151392594894,0.0,70.0,255.0,255.0,255.0
268,13.4,-16.718526470069623,2.102646927544412,-4.305243827074833,-0.4583113571909436,0.08529565847692933,-0.61258645564914,-0.028383517237173805,0.004667086015830435,-0.03982832173150541,0.0,70.0,255.0,255.0,255.0
269,13.450000000000001,-16.741477487410222,2.106917526767781,-4.335922983343384,-0.4597341452337389,0.08555727729665286,-0.614589851588141,-0.02856228153156337,0.005764983001199653,-0.040201961293551136,0.0,70.0,255.0,255.0,255.0
270,13.5,-16.764499884592997,2.1112026552740772,-4.3667028122336475,-0.46116758534409996,0.08587215677704929,-0.6166066517784952,-0.028791514833770293,0.006699281809074975,-0.04031082207429648,0.0,70.0,255.0,255.0,255.0
271,13.55,-16.787594245944632,2.115504742445486,-4.397583648521233,-0.46261329671711593,0.08622720547756035,-0.6186209337955706,-0.02903769648554544,0.007341350271117264,-0.04010440187576236,0.0,70.0,255.0,255.0,255.0
272,13.600000000000001,-16.81076121426471,2.1198253758218333,-4.428564905613205,-0.4640713549926545,0.08660629180416102,-0.6206170919660714,-0.029254468169170877,0.0076624926134361004,-0.03964959477826824,0.0,70.0,255.0,255.0,255.0
273,13.65,-16.834001381443898,2.124165371625902,-4.45964535771784,-0.465538743534033,0.08699345473890396,-0.6225858932733974,-0.02937397869757774,0.007659493089517966,-0.03908089660553671,0.0,70.0,255.0,255.0,255.0
274,13.700000000000001,-16.857315088618112,2.1285247212957237,-4.490823494940544,-0.4670087528624123,0.08737224111311281,-0.6245251816266251,-0.029322966447509202,0.0073343589423569,-0.038544593117606496,0.0,70.0,255.0,255.0,255.0
275,13.75,-16.88070225673014,2.1329025957372134,-4.522097875880503,-0.46847104017878394,0.08772689063313965,-0.6264403525851581,-0.029017951365162276,0.0066949044321251705,-0.03819179866972888,0.0,70.0,255.0,255.0,255.0
276,13.8,-16.90416219263599,2.1372974103590376,-4.55346753019906,-0.4699105479989285,0.08804173155632533,-0.628344361493598,-0.028430377158983333,0.005771962989609136,-0.03810208853520791,0.0,70.0,255.0,255.0,255.0
277,13.850000000000001,-16.92769331153003,2.141706768892846,-4.584932312029863,-0.47131407789468227,0.08830408693210057,-0.6302505614386789,-0.02768500627432502,0.004689681672997992,-0.038216470597163266,0.0,70.0,255.0,255.0,255.0
278,13.9,-16.95129360042546,2.1461278190522477,-4.616492586342928,-0.472679048626361,0.08851069972362513,-0.6321660085533143,-0.02699963557191154,0.003656619947633999,-0.038412567370915696,0.0,70.0,255.0,255.0,255.0
279,13.950000000000001,-16.974961216392668,2.1505578388652085,-4.648148912885194,-0.4740140414518734,0.08866974892686397,-0.6340918181757704,-0.026591913282913993,0.002895529947455344,-0.03857257998900465,0.0,70.0,255.0,255.0,255.0
280,14.0,-16.998695004570646,2.154994793944934,-4.679901768160505,-0.4753382399546524,0.08880025271837066,-0.6360232665522147,-0.026676633084576906,0.0026091191104971045,-0.03858202986695147,0.0,70.0,255.0,255.0,255.0
281,14.05,-17.022495040388133,2.1594378641370455,-4.7117512395404155,-0.4766817047603311,0.08893066083791368,-0.6379500211624656,-0.027348393947690397,0.0028918234113550767,-0.038380670556392715,0.0,70.0,255.0,255.0,255.0
282,14.100000000000001,-17.04636317504668,2.1638878600287255,-4.743696770276752,-0.47807307934942145,0.08908943505950617,-0.639861333607854,-0.028439259646972914,0.0036498296458908897,-0.038007226795233606,0.0,70.0,255.0,255.0,255.0
283,14.15,-17.070302348323075,2.168346807642996,-4.775737372901201,-0.4795256307250284,0.08929564380250277,-0.6417507438419889,-0.029632047778704873,0.004681299847186793,-0.037546129949017626,0.0,70.0,255.0,255.0,255.0
284,14.200000000000001,-17.09431573811918,2.1728174244089757,-4.8078718446609505,-0.48103628412729194,0.08955756504422485,-0.6436159466027558,-0.030603832635733852,0.005764546908970658,-0.03707837364030908,0.0,70.0,255.0,255.0,255.0
285,14.25,-17.118405976735804,2.1773025641474186,-4.8400989675614765,-0.4825860139886018,0.08987209849339983,-0.6454585812060198,-0.031047544269213745,0.0066925818299257145,-0.03667206321376071,0.0,70.0,255.0,255.0,255.0
286,14.3,-17.142574339518042,2.1818046342583157,-4.8724177027815525,-0.4841410385542133,0.09022682322721742,-0.6472831529241319,-0.030808960802275465,0.007341769005808629,-0.03636851595194557,0.0,70.0,255.0,255.0,255.0
287,14.350000000000001,-17.166820080591226,2.1863252464701404,-4.90482728285389,-0.48566691006882934,0.0906062753939807,-0.6490954328012144,-0.030007838584822366,0.007678272470990066,-0.03619191825903201,0.0,70.0,255.0,255.0,255.0
288,14.4,-17.191141030524925,2.190865261797714,-4.937327246061674,-0.48714182241269555,0.09099465047431643,-0.6509023447500351,-0.02890312902650294,0.007689229614893378,-0.03616561679606889,0.0,70.0,255.0,255.0,255.0
289,14.450000000000001,-17.215534262832495,2.195424711517572,-4.969917517328893,-0.48855722297147963,0.09137519835547003,-0.6527119944808213,-0.027765530069956412,0.0073673080574820915,-0.03630721216385524,0.0,70.0,255.0,255.0,255.0
290,14.5,-17.239996752822073,2.200002781633261,-5.002598445509756,-0.4899183754196912,0.09173138128006464,-0.6545330659664206,-0.026857199160801315,0.006708572217384301,-0.03663367998205658,0.0,70.0,255.0,255.0,255.0
291,14.55,-17.264526100374464,2.2045978496455785,-5.035370823925535,-0.49124294288755976,0.09204605557720846,-0.656375362479027,-0.026328023914246046,0.0057390492831821405,-0.037139577989808714,0.0,70.0,255.0,255.0,255.0
292,14.600000000000001,-17.28912104711083,2.2092073871909816,-5.068235981757659,-0.4925511778111158,0.09230528620838285,-0.6582470237654015,-0.02616211328607676,0.004598758792129232,-0.03774426100777717,0.0,70.0,255.0,255.0,255.0
293,14.65,-17.313781218155576,2.2138283782664168,-5.101195526302075,-0.49385915421616744,0.09250593145642139,-0.6601497885798047,-0.02628438716563153,0.0035234600155309437,-0.03831056370602326,0.0,70.0,255.0,255.0,255.0
294,14.700000000000001,-17.338506962532445,2.218457980336624,-5.134250960615639,-0.49517961652767895,0.09265763220993595,-0.6620780801360038,-0.02661973473152557,0.0027641695789615284,-0.038693803345069,0.0,70.0,255.0,255.0,255.0
295,14.75,-17.363299179808344,2.2230941414874104,-5.167403334315676,-0.49652112768932,0.09278234841431754,-0.6640191689143116,-0.027087668409109256,0.002561147947677256,-0.03874920753341726,0.0,70.0,255.0,255.0,255.0
296,14.8,-17.388159075301377,2.2277362151780555,-5.20065287750707,-0.49788838336858987,0.09291374700470367,-0.6659530008893455,-0.027627195288459916,0.0030230595022384676,-0.038412659268516336,0.0,70.0,255.0,255.0,255.0
297,14.850000000000001,-17.413088018145203,2.2323855161878807,-5.23399863440461,-0.499283847218166,0.09308465436454139,-0.6678604348411632,-0.028183801513037565,0.003997741311767555,-0.03779551323468411,0.0,70.0,255.0,255.0,255.0
298,14.9,-17.438087460023194,2.2370446806145097,-5.267438920991187,-0.5007067635198936,0.09331352113588043,-0.6697325522128139,-0.028676711589525894,0.005184203050667691,-0.037108492016546535,0.0,70.0,255.0,255.0,255.0
299,14.950000000000001,-17.463158694497192,2.2417168683014688,-5.300971889625892,-0.5021515183771186,0.09360307466960816,-0.6715712840428179,-0.029010356178460484,0.0062637525547248885,-0.03657034834869677,0.0,70.0,255.0,255.0,255.0
300,15.0,-17.488302611860906,2.2464049880814705,-5.3345960493954685,-0.5036077991377397,0.09393989639135292,-0.6733895870476836,-0.0290960899050674,0.006922826667610238,-0.03640548055958703,0.0,70.0,255.0,255.0,255.0
301,15.05,-17.513519474410966,2.251110857940604,-5.36831084833066,-0.5050611273676253,0.09429535733636918,-0.6752118320987766,-0.028895968824826923,0.006995938814835512,-0.03672307164936939,0.0,70.0,255.0,255.0,255.0
302,15.100000000000001,-17.53880872459767,2.2558345238151074,-5.402117232605346,-0.5064973960202224,0.09463949027283647,-0.6770618942126205,-0.02846715618680662,0.006579320249677778,-0.037388278128425156,0.0,70.0,255.0,255.0,255.0
303,15.15,-17.56416921401299,2.2605748069678877,-5.436017037751922,-0.507907842986306,0.09495328936133696,-0.6789506599116191,-0.027925130111583485,0.00588984433207429,-0.0381408761533919,0.0,70.0,255.0,255.0,255.0
304,15.200000000000001,-17.5895995088963,2.265329852751241,-5.470012298596508,-0.5092899090313807,0.0952284747060439,-0.6808759818279597,-0.027398327734573513,0.005147906449698425,-0.03872494312018304,0.0,70.0,255.0,255.0,255.0
305,15.25,-17.615098204916126,2.270097654438492,-5.504104635934718,-0.5106476757597633,0.0954680800063068,-0.6828231542236374,-0.02701599062007176,0.004575517409932672,-0.03889693549554707,0.0,70.0,255.0,255.0,255.0
306,15.3,-17.640664276472275,2.274876660751872,-5.538294614018872,-0.5119915080933879,0.09568602644703716,-0.6847656753775144,-0.026848416591462865,0.004298733023855306,-0.03853468117362979,0.0,70.0,255.0,255.0,255.0
307,15.350000000000001,-17.666297355725465,2.279666257083196,-5.5725812034724695,-0.5133325174189096,0.09589795330869233,-0.6866766223410004,-0.026863937376475633,0.004280408924506318,-0.03773855373969681,0.0,70.0,255.0,255.0,255.0
308,15.4,-17.691997528214166,2.284466456082741,-5.606962276252972,-0.5146779018310355,0.0961140673394878,-0.6885395307514841,-0.026987243488818535,0.004422666707215583,-0.03672166304422575,0.0,70.0,255.0,255.0,255.0
309,15.450000000000001,-17.71776514590857,2.2892776638171446,-5.641435156547618,-0.5160312417677915,0.09634021997941389,-0.6903487886454229,-0.027142533349433506,0.0046370225793346265,-0.03570265306258591,0.0,70.0,255.0,255.0,255.0
310,15.5,-17.743600652390946,2.2941004780806824,-5.675997155117514,-0.5173921551659788,0.09657776959742126,-0.6921097960577427,-0.027247966263743706,0.004835150312620939,-0.0348867774563999,0.0,70.0,255.0,255.0,255.0
311,15.55,-17.769504361425167,2.2989354407768867,-5.710646136153392,-0.5187560383941658,0.09682373501067598,-0.6938374663910629,-0.027257590915041874,0.0049630684837431716,-0.03439097754913689,0.0,70.0,255.0,255.0,255.0
312,15.600000000000001,-17.795476256230362,2.30378285158175,-5.74538090175662,-0.520117914257483,0.09707407644579558,-0.6955488938126564,-0.027198026707964118,0.005019976452969033,-0.03421116658799406,0.0,70.0,255.0,255.0,255.0
313,15.65,-17.821516152850915,2.3086428484214663,-5.780201025534658,-0.5214758410649623,0.09732573265597289,-0.6972585830498623,-0.027124124371979974,0.005017717276967204,-0.034299651157532196,0.0,70.0,255.0,255.0,255.0
314,15.700000000000001,-17.84762384033686,2.3135154248473473,-5.815106760061607,-0.522830326694681,0.0975758481734923,-0.6989788589284096,-0.027085338400567593,0.004957802767391328,-0.034603931808341315,0.0,70.0,255.0,255.0,255.0
315,15.75,-17.873799185520383,2.3184004332388155,-5.850098911427499,-0.524184374905019,0.09782151293271202,-0.7007189762306965,-0.027140116351986876,0.004831853367637251,-0.03506793602943148,0.0,70.0,255.0,255.0,255.0
316,15.8,-17.90004227782736,2.3232975761406185,-5.885178657684676,-0.5255443383298797,0.09805903351025602,-0.7024856525313528,-0.027314506460385246,0.004642279754296652,-0.03564294709148541,0.0,70.0,255.0,255.0,255.0
317,15.850000000000001,-17.92635361935337,2.328206336589841,-5.920347476680634,-0.5269158255510575,0.09828574090814168,-0.704283270939845,-0.027543955792808106,0.0044396852636463535,-0.03625687314965376,0.0,70.0,255.0,255.0,255.0
318,15.9,-17.952733860382466,2.3331261502314327,-5.955606984778661,-0.5282987339091605,0.09850300203662066,-0.7061113398463181,-0.02771625902440178,0.0043064641846779494,-0.0367971216031826,0.0,70.0,255.0,255.0,255.0
319,15.950000000000001,-17.979183492744287,2.338056636793503,-5.990958610665266,-0.5296874514534977,0.09871638732660948,-0.7079629831001633,-0.02772282633500822,0.00432505306440234,-0.03713644487870482,0.0,70.0,255.0,255.0,255.0
320,16.0,-18.005702605527816,2.3429977889640936,-6.026403283088677,-0.5310710165426613,0.09893550734306089,-0.7098249843341886,-0.027443596299647766,0.004585408244617284,-0.0371454411295602,0.0,70.0,255.0,255.0,255.0
321,16.05,-18.032290594398553,2.3479501875278093,-6.061941109098685,-0.5324318110834625,0.0991749281510712,-0.7116775272131193,-0.026830583708559175,0.005121612032921163,-0.03677000797726038,0.0,70.0,255.0,255.0,255.0
322,16.1,-18.058945786636162,2.3529152817792007,-6.097571035809989,-0.5337540749135172,0.09944766854635301,-0.7135019851319147,-0.026027921683180466,0.005819510931237559,-0.036125816338294925,0.0,70.0,255.0,255.0,255.0
323,16.150000000000002,-18.085666001889905,2.3578949543824446,-6.133291307611876,-0.5350346032517805,0.09975687924419496,-0.7152901088469488,-0.025289907129533162,0.006477358385348353,-0.03542822606599216,0.0,70.0,255.0,255.0,255.0
324,16.2,-18.11244924696134,2.3628909697036202,-6.169100046694684,-0.5362830656264705,0.10009540438488784,-0.7170448077385139,-0.02486941686612454,0.0068959243685995375,-0.03490306256956899,0.0,70.0,255.0,255.0,255.0
325,16.25,-18.139294308452552,2.3679044948209333,-6.204995788385728,-0.537521544938393,0.10044647168105492,-0.7187804151039057,-0.025025451829563394,0.006886560273589026,-0.03478629012887424,0.0,70.0,255.0,255.0,255.0
326,16.3,-18.16620140145518,2.3729356168717257,-6.2409780882050745,-0.5387856108094269,0.10078406041224675,-0.7205234367514013,-0.025870757770363184,0.00636367304642782,-0.03519030771244047,0.0,70.0,255.0,255.0,255.0
327,16.35,-18.193172869533495,2.377982900862158,-6.277048132060868,-0.5401086207154293,0.1010828389856977,-0.7222994458751497,-0.027178110390480015,0.00544851809811675,-0.03595445357174043,0.0,70.0,255.0,255.0,255.0
328,16.400000000000002,-18.220212263526722,2.3830439007702955,-6.3132080327925895,-0.5415034218484749,0.10132891222205842,-0.7241188821085753,-0.028528681225381547,0.004379533509757394,-0.03677538205861808,0.0,70.0,255.0,255.0,255.0
329,16.45,-18.247323211718342,2.388115792084364,-6.349460020271725,-0.5429614888379675,0.10152079233667344,-0.7259769840810115,-0.02950067169962267,0.0034035105333174442,-0.03735144470260465,0.0,70.0,255.0,255.0,255.0
330,16.5,-18.27450841241052,2.393195980003963,-6.385805731200691,-0.5444534890184372,0.10166926327539016,-0.7278540265788358,-0.029678652325060284,0.002748350660430887,-0.03737746362251215,0.0,70.0,255.0,255.0,255.0
331,16.55,-18.301768560620186,2.398282718411903,-6.422245422929609,-0.5459293540704735,0.10179562740271653,-0.7297147304432627,-0.028865499428931685,0.002536982494305562,-0.036708388213391174,0.0,70.0,255.0,255.0,255.0
332,16.6,-18.329101347817566,2.4033755427442345,-6.458777204245017,-0.5473400389613303,0.10192296152482072,-0.7315248654001749,-0.027311291766451973,0.0027383047886964107,-0.03554354886290412,0.0,70.0,255.0,255.0,255.0
333,16.650000000000002,-18.35650256451632,2.408475014564385,-6.495397909469626,-0.5486604832471187,0.10206945788158617,-0.7332690853295531,-0.025505391279523337,0.003252619464122475,-0.034263905372799996,0.0,70.0,255.0,255.0,255.0
334,16.7,-18.38396739614228,2.413582488532393,-6.532104112777972,-0.5498905780892827,0.10224822347123297,-0.7349512559374549,-0.023946730834367713,0.003970033497591174,-0.03325050593767642,0.0,70.0,255.0,255.0,255.0
335,16.75,-18.411491622325247,2.4186998369115082,-6.568893035063372,-0.5510551563305555,0.10246646123134528,-0.7365941359233208,-0.02312390157435118,0.004788009112255409,-0.03287979943626951,0.0,70.0,255.0,255.0,255.0
336,16.8,-18.439072911775334,2.4238291346555276,-6.605763526370304,-0.5522029682467178,0.10272702438245851,-0.7382392358810819,-0.0232871046527805,0.005629935437978517,-0.03333651239589841,0.0,70.0,255.0,255.0,255.0
337,16.85,-18.46671191914992,2.428972539349754,-6.64271695865148,-0.5533838667958335,0.10302945477514314,-0.7399277871629106,-0.024243202730644953,0.006401059950356114,-0.03442146752847819,0.0,70.0,255.0,255.0,255.0
338,16.900000000000002,-18.494411298454917,2.434132080133042,-6.679756305086595,-0.5546272885197823,0.10336713037749412,-0.7416813826339297,-0.025583273469820256,0.006964673948761657,-0.03573804073901954,0.0,70.0,255.0,255.0,255.0
339,16.95,-18.522174648001897,2.4393092523875035,-6.716885096914873,-0.5559421941428155,0.1037259221700193,-0.7435015912368126,-0.026892544821421893,0.007177893937315716,-0.03688718422578674,0.0,70.0,255.0,255.0,255.0
340,17.0,-18.5500055178692,2.444504672350044,-6.754106464210277,-0.5573165430019245,0.10408491977122569,-0.7453701010565084,-0.027761778675383653,0.006899612890221007,-0.03748338525175754,0.0,70.0,255.0,255.0,255.0
341,17.05,-18.57790630230209,2.449717744364626,-6.791422107020524,-0.5587183720103539,0.1044158834590414,-0.7472499297619883,-0.027967247460125577,0.00608173729270689,-0.037325702063917277,0.0,70.0,255.0,255.0,255.0
342,17.1,-18.605877355070234,2.454946260695948,-6.828831457186475,-0.560113267747937,0.10469309350049638,-0.7491026712629001,-0.02760587400096881,0.004902770095815967,-0.036541396874945065,0.0,70.0,255.0,255.0,255.0
343,17.150000000000002,-18.633917629076883,2.4601870537146757,-6.866332374146814,-0.5614789594104508,0.104906160468623,-0.7509040694494828,-0.026909859833423866,0.0036858875379408573,-0.035413115820315255,0.0,70.0,255.0,255.0,255.0
344,17.2,-18.66202525101128,2.4654368767428103,-6.903921864131424,-0.5628042537312794,0.10506168225429047,-0.7526439828449316,-0.02610397565874223,0.002770139004226735,-0.034227330584357674,0.0,70.0,255.0,255.0,255.0
345,17.25,-18.69019805445001,2.4706932219401048,-6.941596772431307,-0.564089356976325,0.10518317436904567,-0.7543268025079186,-0.025404927776762065,0.0024935393267533357,-0.0332586409084179,0.0,70.0,255.0,255.0,255.0
346,17.3,-18.71843418670891,2.475955194179715,-6.979354544382216,-0.5653447465089556,0.1053110361869658,-0.7559698469357734,-0.02494274000639507,0.003016914924991454,-0.032666227134914294,0.0,70.0,255.0,255.0,255.0
347,17.35,-18.746732529100907,2.4812243255588013,-7.017193757124884,-0.5665836309769645,0.10548486586154482,-0.75759342522141,-0.024728732504541995,0.0041379762169668766,-0.03244567224438555,0.0,70.0,255.0,255.0,255.0
348,17.400000000000002,-18.775092549806608,2.4865036807658694,-7.055113886904357,-0.5678176197594098,0.10572483380866249,-0.759214414160212,-0.024743534284965563,0.005460820188796234,-0.032538447029129,0.0,70.0,255.0,255.0,255.0
349,17.45,-18.803514291076848,2.4917968089396676,-7.0931151985409056,-0.5690579844054611,0.10603094788042444,-0.7608472699243229,-0.02497724018546421,0.0065822027255801885,-0.03288918108257377,0.0,70.0,255.0,255.0,255.0
350,17.5,-18.831998348247154,2.497106775553912,-7.131198613896789,-0.5703153437779562,0.10638305408122051,-0.7625033322684693,-0.02542652886212693,0.0071062764228191355,-0.033446060437825054,0.0,70.0,255.0,255.0,255.0
351,17.55,-18.860545825454643,2.5024351143477896,-7.1693655317677525,-0.5716006372916738,0.10674157552270636,-0.7641918759681054,-0.026069531442374227,0.006830742867736106,-0.03415764114489406,0.0,70.0,255.0,255.0,255.0
352,17.6,-18.88915841197632,2.5077809331061824,-7.207617801493599,-0.5729222969221937,0.10706612836799412,-0.7659190963829587,-0.026798356821799985,0.005916140887274324,-0.03491600738749767,0.0,70.0,255.0,255.0,255.0
353,17.650000000000002,-18.917838055146863,2.513141727184589,-7.245957441406048,-0.5742804729738538,0.10733318961143379,-0.7676834767068552,-0.0274351638683612,0.004700015856329287,-0.035550485340518634,0.0,70.0,255.0,255.0,255.0
354,17.7,-18.946586459273707,2.518514252067326,-7.284386149164285,-0.5756658133090298,0.10753612995362705,-0.7694741449170106,-0.02779480252712574,0.0035209102328792596,-0.035877483547253064,0.0,70.0,255.0,255.0,255.0
355,17.75,-18.975404636477766,2.5238953401799518,-7.322904855897749,-0.5770599532265663,0.10768528063472171,-0.7712712250615805,-0.027696975421065417,0.002701308361885424,-0.03571310801557814,0.0,70.0,255.0,255.0,255.0
356,17.8,-19.004292454596364,2.529282780130798,-7.361513271670443,-0.5784355108511363,0.10780626078981559,-0.7730454557185684,-0.027064821870226297,0.00241946092365275,-0.03498218264414987,0.0,70.0,255.0,255.0,255.0
357,17.85,-19.03324818756288,2.5346759662589333,-7.400209401469606,-0.579766435413589,0.10792722672708699,-0.7747694433259955,-0.026044087293541907,0.00262841594480534,-0.0338565452929096,0.0,70.0,255.0,255.0,255.0
358,17.900000000000002,-19.062269098137723,2.5400755028035067,-7.4389902160030426,-0.5810399195804905,0.10806910238429612,-0.7764311102478594,-0.024911241474967483,0.003188999835623818,-0.03265504284497567,0.0,70.0,255.0,255.0,255.0
359,17.95,-19.09135217952093,2.545482876497363,-7.477852512494392,-0.5822575595610857,0.10824612671064937,-0.7780349476104931,-0.023955810780407205,0.003960356809118437,-0.031706432513356475,0.0,70.0,255.0,255.0,255.0
360,18.0,-19.12049485409383,2.5509001154745716,-7.516793710764092,-0.5834355006585312,0.10846513806520797,-0.779601753499195,-0.023465569456604385,0.004808490129937226,-0.031329479527375526,0.0,70.0,255.0,255.0,255.0
361,18.05,-19.14969572958678,2.5563293903038837,-7.555812687844312,-0.5846041165067462,0.1087269757236431,-0.7811678955632306,-0.023584467788495544,0.005639665186008003,-0.03168071452517296,0.0,70.0,255.0,255.0,255.0
362,18.1,-19.178955265744506,2.561772813046936,-7.594910500320415,-0.5857939474373808,0.10902910458380877,-0.7827698249517123,-0.024177182113049867,0.006372992536141098,-0.03260792799109069,0.0,70.0,255.0,255.0,255.0
363,18.150000000000002,-19.20827512433052,2.5672323007622646,-7.634089670339483,-0.5870218347180511,0.1093642749772572,-0.7844286883623397,-0.02496798211844009,0.006898670115651484,-0.03379838756956133,0.0,70.0,255.0,255.0,255.0
364,18.2,-19.23765744921631,2.5727092405446617,-7.673353369156649,-0.5882907456492248,0.10971897159537392,-0.7861496637086685,-0.025675380924639057,0.007099200992355392,-0.03493072579274781,0.0,70.0,255.0,255.0,255.0
365,18.25,-19.267104198895442,2.578204197921802,-7.71270463671035,-0.589589372810515,0.11007419507649274,-0.7879217609416145,-0.026012774729267107,0.0068647311185277005,-0.03569699252290448,0.0,70.0,255.0,255.0,255.0
366,18.3,-19.296616386497362,2.583716660052311,-7.75214554525081,-0.5908920231221515,0.11040544470722669,-0.7897193629609589,-0.0258312463707,0.006160339870486808,-0.03592889864902915,0.0,70.0,255.0,255.0,255.0
367,18.35,-19.326193401207657,2.5892447423925247,-7.791676573006446,-0.592172497447585,0.11069022906354142,-0.7915146508065174,-0.025253524578161546,0.005124928596034195,-0.035680787030933914,0.0,70.0,255.0,255.0,255.0
368,18.400000000000002,-19.35583363624212,2.594785682958665,-7.831297010331462,-0.5934173755799677,0.1109179375668301,-0.7932874416640523,-0.024529650564275585,0.004013522499102251,-0.03510152342771633,0.0,70.0,255.0,255.0,255.0
369,18.45,-19.385535138765654,2.6003365361492077,-7.871005317172851,-0.5946254625040126,0.11109158131345165,-0.795024803149289,-0.023903038480455052,0.0031013007598001963,-0.034344463849933504,0.0,70.0,255.0,255.0,255.0
370,18.5,-19.415296182492522,2.6058948410900102,-7.910799490646391,-0.5958076794280132,0.11122806764281012,-0.7967218880490456,-0.023615266359655607,0.0026646133679530948,-0.03356255038067246,0.0,70.0,255.0,255.0,255.0
371,18.55,-19.445115906708455,2.6114593429134887,-7.9506775059777555,-0.5969869891399782,0.11135804265024696,-0.7983810581873563,-0.023790406870105585,0.002838975331886928,-0.03285543913049693,0.0,70.0,255.0,255.0,255.0
372,18.6,-19.47499488140652,2.617030645355035,-7.990637596465127,-0.5981867201150237,0.11151196517599882,-0.8000074319620953,-0.024323311647478363,0.003479181191679004,-0.032266126681879115,0.0,70.0,255.0,255.0,255.0
373,18.650000000000002,-19.504934578719958,2.6226105394310886,-8.030678249173965,-0.599419320304726,0.11170596076941486,-0.8016076708555442,-0.02499882354847216,0.0042953517762622795,-0.03184083340483923,0.0,70.0,255.0,255.0,255.0
374,18.7,-19.534936813436993,2.6282012414319764,-8.070798363550681,-0.6006866024698709,0.11194150035362505,-0.8031915153025793,-0.025605891727309427,0.0049890225418902645,-0.03163659363361049,0.0,70.0,255.0,255.0,255.0
375,18.75,-19.565003238966945,2.633804689466451,-8.110997400704223,-0.6019799094774569,0.11220486302360388,-0.8047713302189052,-0.025942197129324995,0.005248843381666646,-0.031704833926404774,0.0,70.0,255.0,255.0,255.0
376,18.8,-19.595134804384738,2.639421727734337,-8.151275496572572,-0.6032808221828034,0.11246638469179171,-0.8063619986952197,-0.025900552724067438,0.004917698195683329,-0.032057083756598104,0.0,70.0,255.0,255.0,255.0
377,18.85,-19.625331321185225,2.6450513279356302,-8.191633600573745,-0.6045699647498637,0.11269663284317222,-0.807977038594565,-0.025538636757360678,0.004164686963470388,-0.03261116311836787,0.0,70.0,255.0,255.0,255.0
378,18.900000000000002,-19.655591800859725,2.650691391018654,-8.232073200432028,-0.6058346858585395,0.11288285338813875,-0.8096231150070565,-0.024989647313589103,0.003317890908860477,-0.03321700775451575,0.0,70.0,255.0,255.0,255.0
379,18.95,-19.68591478977108,2.656339613274444,-8.27259591207445,-0.6070689294812226,0.11302842193405827,-0.8112987393700166,-0.024386681323562698,0.0026962687463605306,-0.033710187256197344,0.0,70.0,255.0,255.0,255.0
380,19.0,-19.716298693807847,2.66199423321206,-8.31320307436903,-0.6082733539908958,0.1131524802627748,-0.8129941337326763,-0.023851935800323076,0.002619919865320952,-0.03393009526497792,0.0,70.0,255.0,255.0,255.0
381,19.05,-19.74674212517017,2.6676548613007216,-8.353895325447718,-0.6094541230612549,0.11329041392059036,-0.8146917488965144,-0.023460156124244236,0.0032438915590571327,-0.03379622584365194,0.0,70.0,255.0,255.0,255.0
382,19.1,-19.777244106113972,2.673323274604119,-8.394672249258681,-0.6106193696033202,0.11347686941868051,-0.8163737563170415,-0.02323850496104285,0.004374891467362474,-0.033374628771021264,0.0,70.0,255.0,255.0,255.0
383,19.150000000000002,-19.8078040621305,2.6790025482425897,-8.435532701079422,-0.6117779735573592,0.11372790306732661,-0.8180292117736165,-0.02320706272413986,0.005639424914649638,-0.03280572765120837,0.0,70.0,255.0,255.0,255.0
384,19.200000000000003,-19.83842190346971,2.6846960649108516,-8.476475170436043,-0.6129400758757342,0.11404081191014548,-0.8196543290821623,-0.023386870153885297,0.006666555152978759,-0.03223594405454833,0.0,70.0,255.0,255.0,255.0
385,19.25,-19.869098069718074,2.690406629433604,-8.517498133987639,-0.6141166605727477,0.11439455858262448,-0.8212528061790714,-0.023806050343821994,0.0070955331011202105,-0.03181077568878976,0.0,70.0,255.0,255.0,255.0
386,19.3,-19.899833569526983,2.696135520769114,-8.55860045105395,-0.6153206809101164,0.1147503652202575,-0.8228354066510413,-0.024459848420477215,0.0067463626078012595,-0.03161078676150453,0.0,70.0,255.0,255.0,255.0
387,19.35,-19.930630137809086,2.70188166595563,-8.599781674652743,-0.6165626454147954,0.11506919484340461,-0.8244138848552218,-0.025226504239128644,0.005785630617127779,-0.03160668543529255,0.0,70.0,255.0,255.0,255.0
388,19.400000000000002,-19.961489834068463,2.7076424402534545,-8.641041839539472,-0.6178433313340292,0.11532892828197028,-0.8259960751945705,-0.02590126263086745,0.004555365143632528,-0.03172455716562439,0.0,70.0,255.0,255.0,255.0
389,19.450000000000003,-19.99241447094249,2.713414558783827,-8.6823812821722,-0.6191527716778822,0.11552473135776786,-0.8275863405717843,-0.026273576986923786,0.003403571247506676,-0.03189223699191501,0.0,70.0,255.0,255.0,255.0
390,19.5,-20.02340511123625,2.7191949133892312,-8.72380047359665,-0.6204706890327216,0.11566928540672095,-0.829185298893762,-0.02613188147257972,0.002669929082177447,-0.03203482062765772,0.0,70.0,255.0,255.0,255.0
391,19.55,-20.05446153984576,2.724981487324499,-8.765299812061576,-0.6217659598251402,0.11579172426598561,-0.83078982263455,-0.02538613784039967,0.0025367186155644816,-0.03210785321687837,0.0,70.0,255.0,255.0,255.0
392,19.6,-20.085581707218765,2.73077408581583,-8.806879455860106,-0.6230093028167616,0.1159229572682774,-0.8323960842154499,-0.024221725169226715,0.0029135417749515113,-0.03211956188877707,0.0,70.0,255.0,255.0,255.0
393,19.650000000000002,-20.116762470127437,2.736573783051327,-8.848539420483121,-0.6241881323420628,0.11608307844348076,-0.8340017788234277,-0.022983317987268492,0.0035889979610459477,-0.03209427212524929,0.0,70.0,255.0,255.0,255.0
394,19.700000000000003,-20.14800052045297,2.742382393660178,-8.890279633742448,-0.6253076346154884,0.11628185706438199,-0.8356055114279748,-0.02202436968232746,0.00435207361011436,-0.03204890751131728,0.0,70.0,255.0,255.0,255.0
395,19.75,-20.179293233588986,2.748201968757765,-8.932099971625918,-0.6263905693102956,0.1165182858044922,-0.8372066695745595,-0.021694395793403487,0.004996778542265545,-0.03199791382755279,0.0,70.0,255.0,255.0,255.0
396,19.8,-20.210639577384,2.754034222240627,-8.974000300699904,-0.6274770741948288,0.11678153491860854,-0.8388053028107301,-0.02216268646577646,0.005401215144251736,-0.03195108708418104,0.0,70.0,255.0,255.0,255.0
397,19.85,-20.24204094100847,2.759880122249626,-9.015980501906991,-0.6286068379568732,0.11705840731891737,-0.8404017782829776,-0.023236711637153462,0.005564771047694705,-0.03191506700979119,0.0,70.0,255.0,255.0,255.0
398,19.900000000000002,-20.273500261179688,2.765740062972519,-9.058040478528202,-0.6298007453585441,0.11733801202337801,-0.8419968095117092,-0.024534509708473706,0.0055223959260164435,-0.03189835433339283,0.0,70.0,255.0,255.0,255.0
399,19.950000000000003,-20.305021015544323,2.7716139234519637,-9.100180182858162,-0.6310602889277206,0.11761064691151901,-0.8435916137163169,-0.02566959696110871,0.0053024466661888425,-0.031912132963540785,0.0,70.0,255.0,255.0,255.0
400,20.0,-20.33660629007246,2.7775011276636707,-9.142399639899834,-0.632367705054655,0.1178682566899969,-0.8451880228080633,-0.026270581973975027,0.004934938100298325,-0.03197352406161258,0.0,70.0,255.0,255.0,255.0
401,20.05,-20.36825778604979,2.7834007491209634,-9.184698985138969,-0.6336873471251181,0.11810414072154884,-0.8467889661224781,-0.026143256159016914,0.00445068187970854,-0.032087798445523674,0.0,70.0,255.0,255.0,255.0
402,20.1,-20.399975024784972,2.7893115417358256,-9.227078536512082,-0.6349820306705567,0.11831332487796775,-0.8483968026526156,-0.025402244133942986,0.003908213196002208,-0.032220170073671284,0.0,70.0,255.0,255.0,255.0
403,20.150000000000002,-20.431755989116844,2.79523208160876,-9.26953866540423,-0.6362275715385124,0.11849496204114907,-0.8500109831298452,-0.02430782732609771,0.003402257495821459,-0.032312310541726674,0.0,70.0,255.0,255.0,255.0
404,20.200000000000003,-20.463597781938823,2.8011610379399405,-9.312079634825066,-0.6374128134031665,0.1186535506275499,-0.8516280337067883,-0.023123815900660816,0.0030371140835594446,-0.032309273919928216,0.0,70.0,255.0,255.0,255.0
405,20.25,-20.49549727045716,2.807097436671515,-9.354701468774909,-0.6385399531285785,0.11879867344950501,-0.8532419105218381,-0.022095257663679035,0.002907478380187456,-0.03216001789674294,0.0,70.0,255.0,255.0,255.0
406,20.3,-20.52745177725168,2.813040905284891,-9.39740382587725,-0.6396223391695344,0.11894429846556864,-0.8548440354964626,-0.021369836681017773,0.0030565701575113735,-0.03184391959951682,0.0,70.0,255.0,255.0,255.0
407,20.35,-20.559459504374114,2.818991866518072,-9.440185872324555,-0.6406769367966803,0.11910433046525615,-0.8564263024817897,-0.02098703909858557,0.003437900644387426,-0.031406024258906484,0.0,70.0,255.0,255.0,255.0
408,20.400000000000002,-20.59151947093135,2.8249513383314167,-9.483046456125429,-0.6417210430793929,0.11928808853000739,-0.8579846379223532,-0.020963132038076537,0.003952210454016836,-0.030931471099826524,0.0,70.0,255.0,255.0,255.0
409,20.450000000000003,-20.623631608682054,2.8309206753710727,-9.52598433611679,-0.6427732500004879,0.11949955151065783,-0.8595194495917724,-0.0213141137987094,0.004489609819735563,-0.030510258535798584,0.0,70.0,255.0,255.0,255.0
410,20.5,-20.655796795931398,2.8369012934824824,-9.568998401084606,-0.6438524544592639,0.11973704951198094,-0.8610356637759331,-0.022060368722875978,0.004947129731069921,-0.030230413674736667,0.0,70.0,255.0,255.0,255.0
411,20.55,-20.68801685412798,2.842894380322271,-9.612087902494384,-0.6449792868727755,0.11999426448376482,-0.8625424909592461,-0.02317944839624886,0.005263550310674603,-0.030136523155732675,0.0,70.0,255.0,255.0,255.0
412,20.6,-20.720294724618675,2.848900719930859,-9.65525265018053,-0.6461703992988888,0.1202634045430484,-0.8640493160915064,-0.02448792114968512,0.005423820590522155,-0.030193028929303978,0.0,70.0,255.0,255.0,255.0
413,20.650000000000002,-20.75263389405787,2.8549207207765757,-9.698492834103535,-0.647428078987744,0.12053664654281704,-0.8655617938521765,-0.025677966199566526,0.005424425163758073,-0.030324509023493817,0.0,70.0,255.0,255.0,255.0
414,20.700000000000003,-20.78503753251745,2.8609543845851406,-9.741808829565748,-0.6487381959188454,0.12080584705942421,-0.8670817669938558,-0.02642849347402887,0.005264959457740304,-0.03044969193570779,0.0,70.0,255.0,255.0,255.0
415,20.75,-20.817507713649753,2.867001305482518,-9.78520101080292,-0.6500709283351469,0.12106314248859107,-0.8686067630457472,-0.02642727677120149,0.004948012019445613,-0.030474318079320994,0.0,70.0,255.0,255.0,255.0
416,20.8,-20.850044625350964,2.8730606988339997,-9.828669505870323,-0.6513809235959656,0.12130064826136877,-0.8701291988017879,-0.025537544557963088,0.004488202958441434,-0.030350500598075314,0.0,70.0,255.0,255.0,255.0
417,20.85,-20.88264580600935,2.879131370308655,-9.872213930683099,-0.6526246827909432,0.12151196278443521,-0.8716418131055548,-0.023991998909167478,0.003947656154723589,-0.030142792424570075,0.0,70.0,255.0,255.0,255.0
418,20.900000000000002,-20.91530709363006,2.8852118951124432,-9.915833687180879,-0.6537801234868823,0.12169541387684113,-0.8731434780442449,-0.022236798035280003,0.003430928052194915,-0.029968721245055008,0.0,70.0,255.0,255.0,255.0
419,20.950000000000003,-20.94802381835804,2.891300911696339,-9.959528278487523,-0.6548483625944712,0.1218550555896547,-0.8746386852300603,-0.020736947273292117,0.003049526707910033,-0.02993805996744925,0.0,70.0,255.0,255.0,255.0
420,21.0,-20.980791929889506,2.8973974006714087,-10.003297555703885,-0.6558538182142115,0.12200036654763213,-0.8761372840409898,-0.019946514869317866,0.00290483151506038,-0.030168258063412168,0.0,70.0,255.0,255.0,255.0
421,21.05,-21.01360920017946,2.9035009483511023,-10.047142006891622,-0.656843014081403,0.12214553874116074,-0.8776555110364015,-0.020096946797920623,0.0030441506760237047,-0.030708560699466148,0.0,70.0,255.0,255.0,255.0
422,21.1,-21.046476231297646,2.909611954545525,-10.091063106807525,-0.6578635128940036,0.1223047816152345,-0.8792081401109364,-0.021010563398959903,0.0034210792661859557,-0.03143402981056198,0.0,70.0,255.0,255.0,255.0
423,21.150000000000002,-21.07939555146886,2.9157314265126257,-10.135062820902716,-0.658944070421299,0.12248764666777934,-0.8807989140174577,-0.022308361471701232,0.003935498991447517,-0.03212153839875498,0.0,70.0,255.0,255.0,255.0
424,21.200000000000003,-21.112370638339776,2.9218607192123027,-10.17914299820927,-0.6600943490411737,0.12269833151437926,-0.8824202939508119,-0.023603857294318686,0.004477446530870566,-0.032552007588648735,0.0,70.0,255.0,255.0,255.0
425,21.25,-21.145404986372977,2.9280012596640637,-10.223304850297797,-0.6613044561507309,0.1229353913208664,-0.8840541147763226,-0.024522701049178863,0.004944643272120075,-0.03251269628563591,0.0,70.0,255.0,255.0,255.0
426,21.3,-21.17850108395485,2.9341542583443894,-10.267548409686903,-0.6625466191460916,0.12319279584159126,-0.8856715635793755,-0.0248558337496263,0.005275707157981202,-0.03190765753604552,0.0,70.0,255.0,255.0,255.0
427,21.35,-21.211659648287586,2.940320539248223,-10.311872006655735,-0.6637900395256935,0.12346296203666451,-0.8872448805299271,-0.024655724183375582,0.005451663143984931,-0.03088733542071509,0.0,70.0,255.0,255.0,255.0
428,21.400000000000002,-21.24488008790742,2.946500554548056,-10.356272897739895,-0.6650121915644291,0.12373796215598976,-0.888760297121447,-0.02407810106852537,0.005462600457839528,-0.02974055639572981,0.0,70.0,255.0,255.0,255.0
429,21.450000000000003,-21.27816086744403,2.9526943354638218,-10.40074803636788,-0.666197849632546,0.12400922208244847,-0.8902189361695001,-0.023275222618934777,0.005301199989427019,-0.028766170749250364,0.0,70.0,255.0,255.0,255.0
430,21.5,-21.311499872870673,2.9589014767563007,-10.445294791356845,-0.6673397138263226,0.12426808215493246,-0.891636914196372,-0.022390652961945534,0.004960604720416484,-0.028260956794490255,0.0,70.0,255.0,255.0,255.0
431,21.55,-21.34489483882666,2.965121143679315,-10.489911727787517,-0.6684369149287406,0.12450528255449012,-0.8930450318489491,-0.02152475316599123,0.004451995050436253,-0.02837409586966544,0.0,70.0,255.0,255.0,255.0
432,21.6,-21.378343564363547,2.9713520050117497,-10.53459929454174,-0.6694921891429217,0.12471328165997608,-0.8944743237833386,-0.02076374266337666,0.0038531073184522313,-0.028968516618732565,0.0,70.0,255.0,255.0,255.0
433,21.650000000000002,-21.411844057740954,2.9775924718453126,-10.57935916016585,-0.6705132891950782,0.12489059328633534,-0.8959418835108224,-0.020224548944014487,0.003294938338704867,-0.02976434790671334,0.0,70.0,255.0,255.0,255.0
434,21.700000000000003,-21.445394893283055,2.983841064340383,-10.624193482892823,-0.6715146440373232,0.12504277549384657,-0.8974507585740099,-0.02003371376808616,0.0029167278705610755,-0.030476735985907055,0.0,70.0,255.0,255.0,255.0
435,21.75,-21.478995522144686,2.9900967493946973,-10.669104236023252,-0.6725166605718869,0.12518226607339145,-0.8989895571094131,-0.020314687098021977,0.0028569471702155624,-0.030815504507941682,0.0,70.0,255.0,255.0,255.0
436,21.8,-21.512646559340244,2.9963592909477224,-10.714092438603764,-0.6735461127471254,0.12532847021086813,-0.9005323090248041,-0.021106692047823117,0.00317682546078224,-0.030629898381384635,0.0,70.0,255.0,255.0,255.0
437,21.85,-21.5463501334194,3.002629596415784,-10.759157466925732,-0.6746273297766692,0.12549994861946967,-0.9020525469475515,-0.022243990482806453,0.0037714320572312943,-0.030044938431750268,0.0,70.0,255.0,255.0,255.0
438,21.900000000000002,-21.58010929231791,3.0089092858096693,-10.804297693298519,-0.675770511795406,0.12570561341659126,-0.9035368028679791,-0.023426500360557156,0.0044412825511930265,-0.029314872489827337,0.0,70.0,255.0,255.0,255.0
439,21.950000000000003,-21.61392718459894,3.015200157757443,-10.84951114721253,-0.6769699798127249,0.12594407687458897,-0.9049840341965343,-0.02433817405247396,0.004979114635972337,-0.028687258267012794,0.0,70.0,255.0,255.0,255.0
440,22.0,-21.647806290299183,3.021503693497128,-10.894796096718173,-0.6782043292006534,0.1262035248801885,-0.9064055286946804,-0.02467059864237342,0.0051756159226812315,-0.028408959903991615,0.0,70.0,255.0,255.0,255.0
441,22.05,-21.681747617519004,3.027820510245462,-10.940151700081998,-0.6794370396769622,0.1264616384668571,-0.9078249301869334,-0.024274679110902753,0.004927416393130102,-0.028606170744716053,0.0,70.0,255.0,255.0,255.0
442,22.1,-21.71574999426688,3.034149857343814,-10.985578589736866,-0.6806317971117437,0.1266962665195015,-0.909266145769152,-0.02331017886127995,0.004346572377622593,-0.02916632172986766,0.0,70.0,255.0,255.0,255.0
443,22.150000000000002,-21.74981079723018,3.040490136897412,-11.031078314658913,-0.6817680575630902,0.12689629570461936,-0.9107415623599202,-0.022100405324820827,0.0036545235311713498,-0.029861570059175335,0.0,70.0,255.0,255.0,255.0
444,22.200000000000003,-21.78392680002319,3.046839486914276,-11.076652745972858,-0.6828418376442258,0.12706171887261863,-0.9122523027750695,-0.020979650622621193,0.003073387012486606,-0.03046765752081626,0.0,70.0,255.0,255.0,255.0
445,22.25,-21.8180949809946,3.053196308784674,-11.12230354493642,-0.6838660226253523,0.12720363440586802,-0.9137883281120018,-0.02027489968305929,0.002824551842817158,-0.03076469317164765,0.0,70.0,255.0,255.0,255.0
446,22.3,-21.852313402285723,3.0595598503548627,-11.168031578784058,-0.6848693276125317,0.12734417405690035,-0.9153287720922343,-0.020160652116985034,0.0030200823931014753,-0.030638845211150567,0.0,70.0,255.0,255.0,255.0
447,22.35,-21.886581913755855,3.065930726190364,-11.213836422145643,-0.6858820878370508,0.12750564264517816,-0.9168522126331169,-0.02054624978491404,0.0035568705067046125,-0.03017518257362184,0.0,70.0,255.0,255.0,255.0
448,22.400000000000002,-21.92090161106943,3.0723104146193805,-11.25971680004737,-0.6869239525910231,0.1276998611075708,-0.9183462903495965,-0.02122176178787072,0.004226031249654483,-0.02955343934907262,0.0,70.0,255.0,255.0,255.0
449,22.450000000000003,-21.955274309014957,3.078700712301121,-11.305671051180603,-0.6880042640158379,0.1279282457701436,-0.9198075565680242,-0.021976137210089064,0.004820763887680712,-0.02895539836433869,0.0,70.0,255.0,255.0,255.0
450,22.5,-21.989702037471012,3.085103239196395,-11.351697555704172,-0.689121566312032,0.12818193749633888,-0.9212418301860303,-0.02260183059874521,0.0051422140020296325,-0.028568258084860076,0.0,70.0,255.0,255.0,255.0
451,22.55,-22.02418646564616,3.091518906050755,-11.397795234199206,-0.6902644470757124,0.12844246717034657,-0.9226643823765102,-0.02297716463246502,0.005085680608019061,-0.028491222302839958,0.0,70.0,255.0,255.0,255.0
452,22.6,-22.058728482178584,3.0979474859134295,-11.443963993941823,-0.6914192827752785,0.1286905055571408,-0.9240909524163143,-0.023109390762954263,0.004711353520736594,-0.028649311611950168,0.0,70.0,255.0,255.0,255.0
453,22.650000000000002,-22.093328393923688,3.104387956606469,-11.490204329440838,-0.6925753861520079,0.12891360252242023,-0.9255293135377052,-0.02304630043923339,0.00415594354494786,-0.02888914806966625,0.0,70.0,255.0,255.0,255.0
454,22.700000000000003,-22.127986020793784,3.1108388461656715,-11.536516925295594,-0.6937239128192019,0.12910609991163557,-0.926979867223281,-0.022830112894567378,0.003556844150409688,-0.02906366277475314,0.0,70.0,255.0,255.0,255.0
455,22.75,-22.162700785205608,3.1172985665976327,-11.582902316163166,-0.6948583974414646,0.1292692869374612,-0.9284356798151805,-0.02250975927466925,0.003042582824708262,-0.029022321108840288,0.0,70.0,255.0,255.0,255.0
456,22.8,-22.19747186053793,3.1237657748594176,-11.629360493277112,-0.6959748887466688,0.1294103581941064,-0.929882099334165,-0.022122950420211396,0.0026899690676263077,-0.028689692151928625,0.0,70.0,255.0,255.0,255.0
457,22.85,-22.232298274080275,3.1302396024170434,-11.675890526096582,-0.6970706924834857,0.12953828384422383,-0.9313046490303734,-0.02169702632599524,0.002514079046722628,-0.02815027494111888,0.0,70.0,255.0,255.0,255.0
458,22.900000000000002,-22.26717892978628,3.13671960324384,-11.722490958180149,-0.6981445913792683,0.12966176609877866,-0.9326971268282769,-0.021273875620408944,0.002514670094910798,-0.027567264409356085,0.0,70.0,255.0,255.0,255.0
459,22.950000000000003,-22.302112733218202,3.143205779026921,-11.76916023877941,-0.6991980800455266,0.1297897508537149,-0.934061375471309,-0.020909098855170782,0.0026913466902200867,-0.027096523963621166,0.0,70.0,255.0,255.0,255.0
460,23.0,-22.337098737790832,3.1496985783292115,-11.81589709572728,-0.7002355012647854,0.12993090076780067,-0.935406779224639,-0.020655169597105782,0.003043445375050524,-0.02688241085930798,0.0,70.0,255.0,255.0,255.0
461,23.05,-22.37213628334468,3.1561988691037013,-11.862700916701874,-0.7012635970052372,0.13009409539121997,-0.9367496165572398,-0.020537746971172055,0.0035554687624284043,-0.026997095336156463,0.0,70.0,255.0,255.0,255.0
462,23.1,-22.407225097491356,3.1627079878683335,-11.909572057383004,-0.7022892759619026,0.1302864476440435,-0.9381064887582546,-0.020539799969654382,0.004151491131487717,-0.027385113099143155,0.0,70.0,255.0,255.0,255.0
463,23.150000000000002,-22.44236521094087,3.1692275138681056,-11.9565115655777,-0.7033175770022027,0.13050924450436874,-0.9394881278671541,-0.020620901045376172,0.004704536914790225,-0.027925430655884043,0.0,70.0,255.0,255.0,255.0
464,23.200000000000003,-22.477556855191576,3.1757589123187704,-12.00352087016972,-0.7043513660664402,0.13075690133552254,-0.940899031823843,-0.020733491685476224,0.005078794729840297,-0.028490754190180212,0.0,70.0,255.0,255.0,255.0
465,23.25,-22.512800347547515,3.182303204001658,-12.050601468760084,-0.7053909261707503,0.13101712397735277,-0.9423372032861721,-0.020825553011150078,0.005139626350914028,-0.028960016805967825,0.0,70.0,255.0,255.0,255.0
466,23.3,-22.54809594780865,3.1888606247165057,-12.097754590498337,-0.7064339213675552,0.13127086397061394,-0.9437950335044398,-0.020866574514499803,0.004827643061933173,-0.029262439326593892,0.0,70.0,255.0,255.0,255.0
467,23.35,-22.58344373968427,3.1954302903987193,-12.144980972110528,-0.7074775836222003,0.13149988828354608,-0.9452634472188315,-0.020864706195666827,0.004244431951816452,-0.029392909026881853,0.0,70.0,255.0,255.0,255.0
468,23.400000000000002,-22.61884370617087,3.2020106135448603,-12.19228093522022,-0.7085203919871219,0.13169530716579558,-0.946734324407128,-0.020840748639727735,0.0035835458827904176,-0.029366537441077867,0.0,70.0,255.0,255.0,255.0
469,23.450000000000003,-22.654295778882982,3.208599821115299,-12.23965440455124,-0.709561658486173,0.13185824287182513,-0.9482001009629393,-0.02081073393824795,0.003046248283400388,-0.02920097209599959,0.0,70.0,255.0,255.0,255.0
470,23.5,-22.68979987201949,3.215196437832043,-12.287100945316514,-0.7106014653809467,0.13199993199413562,-0.949654421616728,-0.02079059038102571,0.0028340398968484948,-0.02892153124065544,0.0,70.0,255.0,255.0,255.0
471,23.55,-22.725355925421077,3.2217998143147124,-12.334619846712913,-0.7116407175242756,0.13214164686150998,-0.9510922540870048,-0.020789241684227022,0.0030472457025698674,-0.028552121717062562,0.0,70.0,255.0,255.0,255.0
472,23.6,-22.760963943771916,3.228410602518194,-12.382210170725214,-0.7126803895493694,0.1323046565643926,-0.9525096337884342,-0.020801375251267018,0.0035853731358059804,-0.028124089954140175,0.0,70.0,255.0,255.0,255.0
473,23.650000000000002,-22.796623964376014,3.2350302799711517,-12.429870810091757,-0.7137208550494023,0.13250018417509057,-0.9539046630824188,-0.02081610439539361,0.004246687480069511,-0.027689258739549416,0.0,70.0,255.0,255.0,255.0
474,23.700000000000003,-22.832336029276856,3.241660620935703,-12.477600637033456,-0.7147619999889088,0.13272932531239956,-0.9552785596623892,-0.020823572562278514,0.004829638710512896,-0.027311045072409,0.0,70.0,255.0,255.0,255.0
475,23.75,-22.868100164374905,3.2483032125023916,-12.525398666057995,-0.7158032123056302,0.13298314804614186,-0.9566357675896597,-0.02081208546407254,0.005140251357360626,-0.027049895527397894,0.0,70.0,255.0,255.0,255.0
476,23.8,-22.90391635050742,3.254958935740317,-12.573264213792422,-0.716843208535316,0.13324335044813562,-0.957983549215129,-0.020776458747207016,0.005076800700454243,-0.0269357870905651,0.0,70.0,255.0,255.0,255.0
477,23.85,-22.939784485228436,3.261627547547205,-12.621197020979508,-0.7178808581803509,0.1334908281161873,-0.9593293462987162,-0.02072979280036691,0.004699483430625762,-0.02694802719336309,0.0,70.0,255.0,255.0,255.0
478,23.900000000000002,-22.975704436325454,3.2683080185519358,-12.669197148422294,-0.7189161878153527,0.1337132987911982,-0.9606783519344653,-0.020694833779089095,0.0041442962721127685,-0.02703913156416604,0.0,70.0,255.0,255.0,255.0
479,23.950000000000003,-23.01167610400997,3.274998877426325,-12.717264856172955,-0.7199503415582598,0.13390525774339856,-0.9620332594551328,-0.02069497581089763,0.0035484835879007193,-0.027154847615484812,0.0,70.0,255.0,255.0,255.0
480,24.0,-23.04769947048128,3.2816985443262756,-12.765400474367807,-0.7209856853964425,0.13406814714998827,-0.9633938366960138,-0.020761067761654317,0.003040945349663815,-0.027234877325277296,0.0,70.0,255.0,255.0,255.0
481,24.05,-23.083774672549616,3.288405692141324,-12.813604239842556,-0.7220264483344252,0.13420935227836495,-0.9647567471876606,-0.020904923329112535,0.0026983253880619174,-0.02724524274011486,0.0,70.0,255.0,255.0,255.0
482,24.1,-23.119902115314723,3.295119479554112,-12.861876149086573,-0.7230761777293537,0.13433797968879446,-0.9661183609700252,-0.021079453545880256,0.002533056777798137,-0.027204733672903103,0.0,70.0,255.0,255.0,255.0
483,24.150000000000002,-23.15608229032255,3.3018394901102033,-12.910216075939559,-0.7241343936890132,0.13446265795614476,-0.9674772205549509,-0.02120456048650965,0.002540602956102589,-0.027152443443512198,0.0,70.0,255.0,255.0,255.0
484,24.200000000000003,-23.192315554683624,3.3085657453497266,-12.958623871142068,-0.7251966337780047,0.13459203998440472,-0.9688336053143765,-0.021203237484002102,0.0027159141175570056,-0.02712336400154669,0.0,70.0,255.0,255.0,255.0
485,24.25,-23.228601953700352,3.3152986941086438,-13.007099436470996,-0.7262547174374134,0.13473424936790046,-0.9701895569551056,-0.020995671460255494,0.003051957919986137,-0.027158567198526384,0.0,70.0,255.0,255.0,255.0
486,24.3,-23.264941026427366,3.3220391702865166,-13.055642826837579,-0.7272962009240302,0.13489723577640333,-0.9715494620342291,-0.020550048401801746,0.0035309233883840108,-0.027276528659569976,0.0,70.0,255.0,255.0,255.0
487,24.35,-23.301331573792755,3.328788417686284,-13.10425438267442,-0.7283097222775936,0.13508734170673886,-0.9729172098210626,-0.019954164579871758,0.004087450297207695,-0.02743303811456599,0.0,70.0,255.0,255.0,255.0
488,24.400000000000002,-23.337771998655125,3.3355479044571905,-13.152934547819685,-0.7292916173820174,0.1353059808061241,-0.9742927658456857,-0.0193659918721778,0.004612452742414064,-0.02755109466328065,0.0,70.0,255.0,255.0,255.0
489,24.450000000000003,-23.374260735530957,3.3423190157668965,-13.201683659258988,-0.7302463214648114,0.13554858698098027,-0.9756723192873906,-0.01894484814641828,0.004988885583090408,-0.02755840966663925,0.0,70.0,255.0,255.0,255.0
490,24.5,-23.410796630801606,3.3491027631552885,-13.250501779748424,-0.7311861021966592,0.13580486936443315,-0.9770486068123496,-0.018848227750467572,0.005107213646526887,-0.02738288185284432,0.0,70.0,255.0,255.0,255.0
491,24.55,-23.447379345750623,3.35589950270334,-13.299388519940223,-0.7321311442398581,0.13605930834563296,-0.978410607472675,-0.0191486825954712,0.004917468238030409,-0.026994843085859088,0.0,70.0,255.0,255.0,255.0
492,24.6,-23.484009745225592,3.362708693989852,-13.348342840495691,-0.7331009704562064,0.13629661618823619,-0.9797480911209355,-0.019739412610420004,0.004481617557683393,-0.026464885430677043,0.0,70.0,255.0,255.0,255.0
493,24.650000000000002,-23.520689442796243,3.3695291643221634,-13.397363329052316,-0.7341050855009001,0.1365074701014013,-0.9810570960157428,-0.02041510839028149,0.003925949710259502,-0.025922245504439445,0.0,70.0,255.0,255.0,255.0
494,24.700000000000003,-23.557420253775682,3.376359440999992,-13.446448550097266,-0.7351424812952345,0.13668921115926214,-0.9823403156713795,-0.020964596036421312,0.0033880307296563217,-0.025495771223660313,0.0,70.0,255.0,255.0,255.0
495,24.75,-23.594203690925767,3.3831980854380896,-13.495597360619454,-0.7362015451045423,0.13684627317436693,-0.9836066731381088,-0.021175426862285462,0.003007206142058294,-0.02530188674043643,0.0,70.0,255.0,255.0,255.0
496,24.8,-23.631040408286136,3.3900440683174287,-13.544809217411077,-0.7372600239814631,0.13698993177346797,-0.9848705043454231,-0.02094193450332682,0.0028586908389360843,-0.025397898531664964,0.0,70.0,255.0,255.0,255.0
497,24.85,-23.667929693323913,3.3968970786154364,-13.594084411053997,-0.738295738554875,0.13713214225826054,-0.9861464629912753,-0.020373592901634652,0.002902443108387942,-0.02574294463872917,0.0,70.0,255.0,255.0,255.0
498,24.900000000000002,-23.704869982141624,3.4037572825432547,-13.643423863710204,-0.7392973832716265,0.13728017608430676,-0.987444798809296,-0.019688166642950478,0.003048223941215511,-0.02624355968272596,0.0,70.0,255.0,255.0,255.0
499,24.950000000000003,-23.741859431651076,3.410625096223867,-13.692828890934926,-0.74026455521917,0.1374369646523821,-0.9887708189595479,-0.019103341135107144,0.003205191964505971,-0.026799018259104912,0.0,70.0,255.0,255.0,255.0
500,25.0,-23.77889643766354,3.417500979008493,-13.742300945606159,-0.7412077173851372,0.13760069528075736,-0.9901247006352065,-0.018834027503444872,0.003271980433128263,-0.0273215525364634,0.0,70.0,255.0,255.0,255.0
501,25.05,-23.81598020338959,3.424385165751943,-13.791841360998447,-0.7421479579695145,0.13776416269569491,-0.9915029742131942,-0.018990152819498007,0.0031949945133114,-0.02775407560910992,0.0,70.0,255.0,255.0,255.0
502,25.1,-23.853111233460492,3.4312773952780624,-13.841451243027478,-0.743106732667087,0.1379201947320885,-0.9929001081961175,-0.01948080785574291,0.003029542409649366,-0.028046972378525936,0.0,70.0,255.0,255.0,255.0
503,25.150000000000002,-23.890290876656298,3.4381771852251517,-13.891131371818059,-0.7440960387550888,0.13806711693665985,-0.9943076714510468,-0.020117632962524112,0.0028793829635276325,-0.02813904023870606,0.0,70.0,255.0,255.0,255.0
504,25.200000000000003,-23.927520837336,3.4450841069717284,-13.940882010172583,-0.7451184959633395,0.13820813302844126,-0.9957140122199881,-0.020715465999288085,0.0028382876596122486,-0.02797538184804438,0.0,70.0,255.0,255.0,255.0
505,25.25,-23.964802726252632,3.451997998527996,-13.990702773040057,-0.7461675853550176,0.13835094570262108,-0.9971052096358513,-0.021104500417834515,0.003000816180875887,-0.027507940410131937,0.0,70.0,255.0,255.0,255.0
506,25.3,-24.002137595871503,3.4589192015419905,-14.040592531136168,-0.7472289460051229,0.13850821464652885,-0.9984648062610013,-0.021190880792687494,0.003408417354666682,-0.02673097385574863,0.0,70.0,255.0,255.0,255.0
507,25.35,-24.039525620853144,3.4658488199926487,-14.090549253666158,-0.7482866734342863,0.13869178743808774,-0.9997783070214261,-0.020988583603198663,0.0039776156917969985,-0.02575177657089256,0.0,70.0,255.0,255.0,255.0
508,25.400000000000002,-24.07696626321493,3.4727883802857993,-14.14057036183831,-0.7493278043654428,0.13890597621570855,-1.0010399839180906,-0.020555893580365137,0.004555176605647304,-0.024760186122918526,0.0,70.0,255.0,255.0,255.0
509,25.450000000000003,-24.11445840128969,3.4797394176142196,-14.190653252057967,-0.7503422627923229,0.13914730509865247,-1.002254325633718,-0.0199547948682266,0.004988883503775909,-0.023957915886185788,0.0,70.0,255.0,255.0,255.0
510,25.5,-24.152000489494164,3.4867031107956645,-14.240795794401683,-0.7513232838522654,0.13940486456608614,-1.0034357755067091,-0.019235989472221604,0.005132773491256515,-0.0235347044705847,0.0,70.0,255.0,255.0,255.0
511,25.55,-24.189590729674915,3.493679904070828,-14.290996829608638,-0.752265861739545,0.13966058244777813,-1.0046077960807764,-0.018445298368519047,0.004917536534465583,-0.023582541788691458,0.0,70.0,255.0,255.0,255.0
512,25.6,-24.227227075668118,3.5006691690404423,-14.34125657400976,-0.7531678136891173,0.1398966182195327,-1.0057940296855783,-0.017682992930545538,0.0044244703479634495,-0.02401874185267161,0.0,70.0,255.0,255.0,255.0
513,25.650000000000002,-24.264907511043827,3.5076695658927814,-14.391576232577195,-0.7540341610325996,0.14010302948257447,-1.0070096702660436,-0.017102335835161853,0.0038162742501235414,-0.02466655559594244,0.0,70.0,255.0,255.0,255.0
514,25.700000000000003,-24.302630491771378,3.5146794719887,-14.441957541036365,-0.7548780472726335,0.14027824564454505,-1.0082606852451725,-0.01685761559926391,0.0032656655048146632,-0.02533346742463749,0.0,70.0,255.0,255.0,255.0
515,25.75,-24.34039531577109,3.521697390457236,-14.492402301101713,-0.755719922592526,0.14042959603305594,-1.0095430170085073,-0.017099513725682414,0.0029561085021612143,-0.0258212137339342,0.0,70.0,255.0,255.0,255.0
516,25.8,-24.37820248403063,3.5287224315920054,-14.542911842737215,-0.7565879986452018,0.14057385649476117,-1.010842806618566,-0.017882750908881917,0.0029809236865574462,-0.026019884633043944,0.0,70.0,255.0,255.0,255.0
517,25.85,-24.41605411563561,3.535754776106712,-14.59348658176357,-0.7575081976834142,0.14072768840171168,-1.0121450054718117,-0.0190341299870056,0.0032408665525007763,-0.025977824785172743,0.0,70.0,255.0,255.0,255.0
518,25.900000000000002,-24.453953303798972,3.5427952004321766,-14.644126343284396,-0.7584914116439023,0.14089794315001125,-1.0134405890970832,-0.02023756027931256,0.003544201918614931,-0.025807344404249477,0.0,70.0,255.0,255.0,255.0
519,25.950000000000003,-24.4919032568,3.549844570421713,-14.694830640673278,-0.7595319537113454,0.14108210859357317,-1.0147257399122367,-0.021162994484669184,0.0037013682303577156,-0.025615813482104954,0.0,70.0,255.0,255.0,255.0
520,26.0,-24.529906499170107,3.556903411291534,-14.74559891727562,-0.7606077110923692,0.14126807997304702,-1.0160021704452937,-0.021485955628008924,0.0035028391200508935,-0.025520393975497768,0.0,70.0,255.0,255.0,255.0
521,26.05,-24.567964027909238,3.563971378419018,-14.796430857717807,-0.7616805492741463,0.14143239250557826,-1.0172777793097865,-0.021049898463232353,0.002852195292346593,-0.025583980284515917,0.0,70.0,255.0,255.0,255.0
522,26.1,-24.60607455409752,3.5710466505420917,-14.847326695206599,-0.7627127009386925,0.14155329950228168,-1.0185605684737453,-0.02003037057143331,0.001934767404820903,-0.02574902660619216,0.0,70.0,255.0,255.0,255.0
523,26.150000000000002,-24.644235298003107,3.578126708369246,-14.898286914565182,-0.7636835863312896,0.14162586924606035,-1.0198526819704057,-0.01877837875703392,0.001084214113067361,-0.025905838350404053,0.0,70.0,255.0,255.0,255.0
524,26.200000000000003,-24.68244291273065,3.5852092374666977,-14.94931196340364,-0.7645905388143959,0.14166172091358842,-1.0211511523087857,-0.017656467067439507,0.0006220084268093728,-0.025956192400045097,0.0,70.0,255.0,255.0,255.0
525,26.25,-24.720694351884546,3.592292880460605,-15.00040202979606,-0.7654492330380336,0.1416880700887413,-1.0224483012104102,-0.017028645114436358,0.0008684324529273368,-0.025801266307290405,0.0,70.0,255.0,255.0,255.0
526,26.3,-24.758987836034454,3.599378044475572,-15.05155679352468,-0.7662934033258395,0.14174856415888115,-1.0237312789395148,-0.01708371584214774,0.0019649804587018593,-0.025397107980573708,0.0,70.0,255.0,255.0,255.0
527,26.35,-24.79732369221713,3.606467736876493,-15.102775157690012,-0.7671576046222484,0.14188456813461148,-1.0249880120084676,-0.017675343437417723,0.003652045180846386,-0.024827840351626662,0.0,70.0,255.0,255.0,255.0
528,26.400000000000002,-24.83570359649668,3.613566501289033,-15.154055594725527,-0.7680609376695813,0.1421137686769658,-1.0262140629746774,-0.018498808145039902,0.0054444427946886975,-0.024248369794754865,0.0,70.0,255.0,255.0,255.0
529,26.450000000000003,-24.87412978598409,3.6206791137441896,-15.20539656398748,-0.7690074854367523,0.14242901241408035,-1.027412848987943,-0.01925076428754835,0.0068522763837286504,-0.02381219081151187,0.0,70.0,255.0,255.0,255.0
530,26.5,-24.912604345040354,3.627809402530441,-15.256796879624321,-0.7699860140983361,0.14279899631533866,-1.0285952820558286,-0.01962351985902444,0.00740347768846128,-0.023666522145759927,0.0,70.0,255.0,255.0,255.0
531,26.55,-24.951128387393922,3.6349590133757235,-15.308256092193062,-0.7709698374226548,0.14316936018292648,-1.029779501202519,-0.019455890844710666,0.006866997091892202,-0.023881387325275227,0.0,70.0,255.0,255.0,255.0
532,26.6,-24.98970132878262,3.6421263385487337,-15.359774829744573,-0.7719316031828072,0.14348569602452788,-1.0309834207883561,-0.018874596003115585,0.005471410845725444,-0.02437513646214029,0.0,70.0,255.0,255.0,255.0
533,26.650000000000002,-25.028321547712203,3.6493075829781763,-15.411354434271898,-0.7728572970229663,0.14371650126749902,-1.032217014848733,-0.018139209178258398,0.0036853340560139003,-0.024984318834953,0.0,70.0,255.0,255.0,255.0
534,26.700000000000003,-25.066987058484916,3.6564979886754836,-15.462996531229447,-0.773745524100633,0.14385422943012927,-1.0334818526718514,-0.017500848746720976,0.001994433824403785,-0.025542270463496664,0.0,70.0,255.0,255.0,255.0
535,26.75,-25.105696100122266,3.663693005921189,-15.514702619539083,-0.7746073818976384,0.1439159446499394,-1.0347712418950827,-0.01720921018382171,0.0008776567927970547,-0.025896654433310573,0.0,70.0,255.0,255.0,255.0
536,26.8,-25.14444779667468,3.6708895831404775,-15.566473655418955,-0.7754664451190152,0.14394199510940897,-1.0360715181151825,-0.01739258091397744,0.0005925789585692343,-0.02596405600225893,0.0,70.0,255.0,255.0,255.0
