idx,t,px,py,pz,vx,vy,vz,ax,ay,az,yaw,mode,ledr,ledg,ledb
0,0.0,10.500000000000012,-7.5000000000000036,5.2303880771237895e-19,0.00019629110461494292,-0.0004459726927130703,0.0006070563858183395,0.012558059302492097,0.006439817951431337,-0.036847042572122214,0.0,70.0,255.0,255.0,255.0
1,0.05,10.500009814555243,-7.500022298634639,3.03528192909175e-05,0.0008241940697395478,-0.00012398179514150343,-0.0012352957427877714,0.019067331540689736,0.009554749683182706,-0.055364683536668055,0.0,70.0,255.0,255.0,255.0
2,0.1,10.500082419406986,-7.500012398179518,-0.00012352957427877662,0.0021030242586839165,0.0005095022756052003,-0.004929411967848466,0.026037088953323462,0.012459726927094295,-0.07407056385818334,0.0,70.0,255.0,255.0,255.0
3,0.15000000000000002,10.500220116981112,-7.499971348407079,-0.0004625883774939291,0.003427902965071894,0.001121990897567926,-0.008642352128606106,0.026958059304682536,0.012039817949993648,-0.0744470425721264,0.0,70.0,255.0,255.0,255.0
4,0.2,10.500425209703494,-7.499900199089761,-0.0009877647871393872,0.00479883018915217,0.001713484070604565,-0.012374116225061108,0.0278849241365009,0.011617812981867814,-0.0748247061541909,0.0,70.0,255.0,255.0,255.0
5,0.25,10.500700000000027,-7.499800000000018,-0.00170000000000004,0.006216395378721984,0.0022837721957547075,-0.016124822744025196,0.028845682239797554,0.011183756059640615,-0.07520918272796354,0.0,70.0,255.0,255.0,255.0
6,0.30000000000000004,10.501046849241366,-7.499671821870185,-0.002600247061541907,0.0076833984131319255,0.0028318596765686266,-0.019895034497857463,0.02984933908400933,0.010734444966686851,-0.07560228250864935,0.0,70.0,255.0,255.0,255.0
7,0.35000000000000003,10.50146833984134,-7.499516814032361,-0.0036895034497857865,0.009201329287122917,0.0033572166924233926,-0.02368505099489013,0.030819102654611186,0.010297185829521993,-0.07598856929762285,0.0,70.0,255.0,255.0,255.0
8,0.4,10.501966982170078,-7.499336100200943,-0.00496875216103092,0.010765308678593044,0.003861578259520826,-0.027493891427619748,0.031632334956377406,0.009915586939079901,-0.07634339125528448,0.0,70.0,255.0,255.0,255.0
9,0.45,10.5025448707092,-7.499130656206409,-0.006438892592547762,0.012364562782760657,0.004348775386331383,-0.03131939012041858,0.03218735653902627,0.00962625218496882,-0.07664897439377583,0.0,70.0,255.0,255.0,255.0
10,0.5,10.503203438448354,-7.49890122266231,-0.008100691173072778,0.013984044332495671,0.004824203478017708,-0.03515878886699733,0.03240889173596884,0.0094580772384667,-0.07690284564937165,0.0,70.0,255.0,255.0,255.0
11,0.55,10.503943275142449,-7.4986482358586075,-0.009954771479247495,0.015605451956357541,0.005294583110178053,-0.039009674685355746,0.032272039662295526,0.009420601173992793,-0.07710407101115216,0.0,70.0,255.0,255.0,255.0
12,0.6000000000000001,10.50476398364399,-7.498371764351292,-0.012001658641608353,0.017211248298725224,0.005766263595416987,-0.04286919596811255,0.03184123902233438,0.009485072059245425,-0.07723088562656584,0.0,70.0,255.0,255.0,255.0
13,0.65,10.505664399972321,-7.498071609499066,-0.01424169107605875,0.01878957585859098,0.006243090316102595,-0.04673276324801233,0.03124696562704088,0.009595770475279153,-0.07725407187555315,0.0,70.0,255.0,255.0,255.0
14,0.7000000000000001,10.506642941229849,-7.497747455319682,-0.016674934966409587,0.02033594486142931,0.0067258406429449025,-0.05059460315566786,0.03064590656016719,0.00968533175154107,-0.07715811381833942,0.0,70.0,255.0,255.0,255.0
15,0.75,10.507697994458464,-7.497399025434771,-0.019301151391625537,0.021854166514607698,0.007211623491256702,-0.05444857462984627,0.030200516972378466,0.009671653749432352,-0.0769366826705798,0.0,70.0,255.0,255.0,255.0
16,0.8,10.50882835788131,-7.497026292970556,-0.022119792429394214,0.023355996558667158,0.007693006017888138,-0.05828827142272584,0.03000079767900843,0.009514853879988294,-0.07659501924726538,0.0,70.0,255.0,255.0,255.0
17,0.8500000000000001,10.510033594114331,-7.4966297248329825,-0.02512997853389812,0.02485424628250854,0.008163108879255532,-0.06210807655457281,0.030011372490612587,0.009283458334952144,-0.07616872735695349,0.0,70.0,255.0,255.0,255.0
18,0.9,10.51131378250956,-7.496209982082631,-0.028330600084851495,0.026357133807728417,0.008621351851383352,-0.06590514415842119,0.030146049621748716,0.009099559598624296,-0.07572116040334136,0.0,70.0,255.0,255.0,255.0
19,0.9500000000000001,10.512669307495104,-7.495767589647844,-0.03172049294974024,0.027868851244683412,0.009073064839117961,-0.06968019259490695,0.030321418154244384,0.009079507055353986,-0.07532425797855721,0.0,70.0,255.0,255.0,255.0
20,1.0,10.514100667634029,-7.495302675598719,-0.03529861934434219,0.029389275623152855,0.00952930255691875,-0.07343756995627691,0.03044908699578741,0.00935125181884544,-0.07504646096435127,0.0,70.0,255.0,255.0,255.0
21,1.05,10.51560823505742,-7.494814659392152,-0.03906424994536793,0.030913759944262154,0.010008190021002505,-0.07718483869134207,0.030478709014225558,0.009967069553695751,-0.07492256528649904,0.0,70.0,255.0,255.0,255.0
22,1.1,10.517192043628455,-7.494301856596619,-0.0430171032134764,0.03243714652457541,0.010526009512288326,-0.08092982648492682,0.03043420341413139,0.010779323039944444,-0.0749315009829124,0.0,70.0,255.0,255.0,255.0
23,1.1500000000000001,10.518851949709877,-7.4937620584409235,-0.047157232593860614,0.03395718028567529,0.01108612232499695,-0.08467798878963331,0.030367064323755244,0.011526923530702504,-0.07502399047378747,0.0,70.0,255.0,255.0,255.0
24,1.2000000000000002,10.520587761657023,-7.493193244364119,-0.05148490209243973,0.035473852956950935,0.011678701865358576,-0.08843222553230556,0.030322220358591778,0.011950579420894059,-0.07514485426744003,0.0,70.0,255.0,255.0,255.0
25,1.25,10.522399335005572,-7.492594188254388,-0.05600045514709117,0.03698940232153447,0.012281180267086356,-0.09219247421637732,0.030351107074366723,0.011783385595087736,-0.07523346414800916,0.0,70.0,255.0,255.0,255.0
26,1.3,10.524286701889176,-7.49196512633741,-0.06070414951407746,0.03850896366438761,0.01285704042486735,-0.09595557194710648,0.030477652976301783,0.010909268837089314,-0.07525523242724527,0.0,70.0,255.0,255.0,255.0
27,1.35,10.52625023137201,-7.491308484211901,-0.06559601234180182,0.04003716761916465,0.013372107150795287,-0.09971799745910184,0.0306518138511791,0.009565496591967815,-0.07522620111232517,0.0,70.0,255.0,255.0,255.0
28,1.4000000000000001,10.528290418651093,-7.490627915622331,-0.07067594925998764,0.04157414504950552,0.013813590084064131,-0.103478192058339,0.03078569308314627,0.008188177514512063,-0.07518110613974754,0.0,70.0,255.0,255.0,255.0
29,1.4500000000000002,10.530407645876961,-7.4899271252034945,-0.07594383154763572,0.043115736927479276,0.014190924902246493,-0.1072361080730766,0.030796413699363256,0.007217009759852289,-0.0751501244854888,0.0,70.0,255.0,255.0,255.0
30,1.5,10.53260199234384,-7.489208823132106,-0.0813995600672953,0.04465378641944184,0.01453529106004936,-0.11099320450688788,0.030598512679347323,0.00709114985708581,-0.0751676544715793,0.0,70.0,255.0,255.0,255.0
31,1.55,10.534873024518905,-7.4884735960974895,-0.0870431519983245,0.04617558819541401,0.014900039887955074,-0.11475287352023453,0.0301568795475049,0.00801674087904658,-0.07524979171780466,0.0,70.0,255.0,255.0,255.0
32,1.6,10.537219551163382,-7.487718819143311,-0.09287484741931876,0.04766947437419233,0.015336965147954018,-0.11851818367866834,0.02956031274283788,0.009707035580142076,-0.07536369456778713,0.0,70.0,255.0,255.0,255.0
33,1.6500000000000001,10.539639971956325,-7.486939899582694,-0.09889497036619134,0.049131619469697796,0.015870743445969282,-0.12228924297701324,0.028969230940134594,0.011610343100887377,-0.0754515849672302,0.0,70.0,255.0,255.0,255.0
34,1.7000000000000002,10.542132713110352,-7.486131744798714,-0.10510377171702008,0.05056639746820579,0.016497999458042756,-0.12606334217539136,0.02854489873733712,0.013169260328105281,-0.0754613610773211,0.0,70.0,255.0,255.0,255.0
35,1.75,10.544696611703145,-7.48529009963689,-0.11150130458373048,0.05198610934343151,0.01718766947877981,-0.12983537908474535,0.02844682356162309,0.013840080244964525,-0.07534794593769267,0.0,70.0,255.0,255.0,255.0
36,1.8,10.547331324044695,-7.484412977850836,-0.11808730962549462,0.0534110798243681,0.01788200748253921,-0.13359813676916063,0.028748628367303297,0.01335010797269831,-0.0750918011677329,0.0,70.0,255.0,255.0,255.0
37,1.85,10.550037719685582,-7.483501898888636,-0.12486111826064654,0.05486097218016184,0.01852268027604964,-0.13734455920151864,0.029342459652603736,0.011941652462788,-0.07472079217830385,0.0,70.0,255.0,255.0,255.0
38,1.9000000000000001,10.552817421262711,-7.482560709823231,-0.13182176554564648,0.056345325789628475,0.01907617272881801,-0.14107021598699102,0.030021019518500225,0.010115997867377047,-0.07429162159040964,0.0,70.0,255.0,255.0,255.0
39,1.9500000000000002,10.555672252264545,-7.481594281615754,-0.13896813985934564,0.05786307413201186,0.019534280062787346,-0.1447737213605596,0.030571217458863487,0.008385296247048757,-0.07386391838471312,0.0,70.0,255.0,255.0,255.0
40,2.0,10.558603728675912,-7.480607281816952,-0.14629913768170244,0.059402447535514824,0.019914702353522884,-0.14845660782546233,0.03077820239951734,0.007256501190600062,-0.07348457110165907,0.0,70.0,255.0,255.0,255.0
41,2.0500000000000003,10.561612497018096,-7.479602811380402,-0.15381380064189187,0.060940894371963594,0.020259930181847352,-0.1521221784707255,0.030535320271063426,0.007001661728711639,-0.07318300361127128,0.0,70.0,255.0,255.0,255.0
42,2.1,10.564697818113109,-7.478581288798767,-0.161511355528775,0.06245597956262117,0.020614868526394048,-0.15577490818658946,0.02995525657105702,0.007473673916269519,-0.07299043275628414,0.0,70.0,255.0,255.0,255.0
43,2.15,10.567858094974358,-7.477541324527762,-0.16939129146055082,0.0639364200290693,0.021007297573474304,-0.15942122174635392,0.029261283058978904,0.008340024404329682,-0.07294463263383122,0.0,70.0,255.0,255.0,255.0
44,2.2,10.571091460116016,-7.47648055904142,-0.17745347770341038,0.06538210786851906,0.021448870966827016,-0.16306937144997258,0.028676804855187754,0.009268668903139599,-0.0730762520971262,0.0,70.0,255.0,255.0,255.0
45,2.25,10.57439630576121,-7.47539643743108,-0.18569822860554808,0.06680410051458807,0.021934164463788264,-0.16672884695606655,0.028424329544662896,0.00991396161209579,-0.07341773235963467,0.0,70.0,255.0,255.0,255.0
46,2.3000000000000003,10.577771870167474,-7.474287142595041,-0.19412636239901704,0.06822454082298535,0.022440267128036595,-0.17041114468593604,0.028616663974467826,0.010084923434305892,-0.07397049674149614,0.0,70.0,255.0,255.0,255.0
47,2.35,10.581218759843509,-7.473152410718276,-0.20273934307414168,0.06966576691203485,0.022942656807218853,-0.17412589663021616,0.029151106137170757,0.009889153037967446,-0.07463663763571382,0.0,70.0,255.0,255.0,255.0
48,2.4000000000000004,10.584738446858678,-7.471992876914319,-0.21153895206203865,0.07113965143670242,0.02342918243183334,-0.17787480844950743,0.029819256170604547,0.009555885867129632,-0.07524900871341833,0.0,70.0,255.0,255.0,255.0
49,2.45,10.588332724987179,-7.470809492475093,-0.22052682391909242,0.07264769252909531,0.023898245393931816,-0.181650797501558,0.03041498969462708,0.009294713454988113,-0.0756388121545215,0.0,70.0,255.0,255.0,255.0
50,2.5,10.592003216111587,-7.469603052374926,-0.22970403181219445,0.07418115040616513,0.02435865377733215,-0.18543868966495958,0.030740516717919775,0.00932354979665817,-0.07565251810782436,0.0,70.0,255.0,255.0,255.0
51,2.5500000000000003,10.595750840027796,-7.4683736270973595,-0.23907069288558838,0.07572174420088729,0.024830600373597633,-0.18921604931234043,0.030691450403885767,0.00975179138729132,-0.07522069706844825,0.0,70.0,255.0,255.0,255.0
52,2.6,10.599575390531676,-7.467119992337566,-0.2486256367434285,0.07725029544655371,0.025333832916061283,-0.1929607593718044,0.03032572680528034,0.010447009969016818,-0.0744292637870958,0.0,70.0,255.0,255.0,255.0
53,2.6500000000000004,10.603475869572451,-7.465840243805753,-0.2583667688227688,0.07875431688141532,0.025875301370499315,-0.19665897569105,0.029776284333316028,0.011159136090199695,-0.07345476374792936,0.0,70.0,255.0,255.0,255.0
54,2.7,10.607450822219818,-7.464532462200516,-0.2682915343125335,0.08022792387988531,0.026449746525081252,-0.20030623574659734,0.02917652308003227,0.011652617137691834,-0.07248747364378139,0.0,70.0,255.0,255.0,255.0
55,2.75,10.61149866196044,-7.463195269153245,-0.27839739239742856,0.08167196918941855,0.0270405630842685,-0.20390772305542815,0.02864959425981084,0.011703913793148502,-0.07170422318107383,0.0,70.0,255.0,255.0,255.0
56,2.8000000000000003,10.61561801913876,-7.461828405892089,-0.2886823066180763,0.0830928833058664,0.027620137904396103,-0.20747665806470472,0.02827030830196975,0.01120702523484951,-0.07120620216417572,0.0,70.0,255.0,255.0,255.0
57,2.85,10.619807950291026,-7.460433255362806,-0.29914505820389903,0.08449900001961552,0.02816126560775345,-0.21102834327184572,0.028062350278368342,0.010289054171330747,-0.07099996688958998,0.0,70.0,255.0,255.0,255.0
58,2.9000000000000004,10.624067919140721,-7.459012279331314,-0.3097851409452609,0.08589911833370323,0.028649043321529177,-0.21457665475366372,0.028040082022684487,0.009203001008017964,-0.07105911578210167,0.0,70.0,255.0,255.0,255.0
59,2.95,10.628397862124396,-7.457568351030653,-0.3206027236792654,0.08730300822188397,0.029081565708555246,-0.2181342548500559,0.028218405164004423,0.008207079067990009,-0.0713507804498359,0.0,70.0,255.0,255.0,255.0
60,3.0,10.63279821996291,-7.4561041227604585,-0.3315985664302665,0.08872095885010367,0.029469751228328178,-0.2217117327986473,0.028617096917926688,0.007540795030802627,-0.07184257051982001,0.0,70.0,255.0,255.0,255.0
61,3.0500000000000003,10.637269958009407,-7.45462137590782,-0.34277389695913013,0.09016471791367664,0.02983564521163551,-0.2253185119020379,0.029228342028986276,0.007333394385611314,-0.07249603273635774,0.0,70.0,255.0,255.0,255.0
62,3.1,10.641814691754277,-7.453120558239295,-0.35413041762047026,0.0916437930530023,0.03020309066688931,-0.22896133607228308,0.02994403291847192,0.007548661456890926,-0.0732109618946375,0.0,70.0,255.0,255.0,255.0
63,3.1500000000000004,10.646434337314707,-7.451601066841131,-0.36567003056635844,0.09315912120552383,0.0305905113573246,-0.23263960809150164,0.030582548416902,0.008076971765635932,-0.07382616240113604,0.0,70.0,255.0,255.0,255.0
64,3.2,10.65113060387483,-7.4500615071035625,-0.3773943784296204,0.0947020478946925,0.031010787843452903,-0.2363439523123967,0.03095759519347041,0.00879906659116969,-0.07417094301841454,0.0,70.0,255.0,255.0,255.0
65,3.25,10.655904542104176,-7.448499988056786,-0.3893044257975981,0.09625488072487087,0.03147041801644157,-0.2400567023933431,0.030890036715902625,0.009600878112081546,-0.07408148541555581,0.0,70.0,255.0,255.0,255.0
66,3.3000000000000003,10.660756091947317,-7.446914465301918,-0.40140004866895473,0.09779105156628276,0.03197087565466106,-0.24375210085395227,0.03030201122804499,0.010400935683563262,-0.07348864124938626,0.0,70.0,255.0,255.0,255.0
67,3.35,10.665683647260805,-7.44530290049132,-0.41367963588299334,0.09928508184767537,0.032510511584797896,-0.24740556651828172,0.029327765132158845,0.01111909720430404,-0.07252243261813285,0.0,70.0,255.0,255.0,255.0
68,3.4000000000000004,10.670684600132084,-7.443663414143439,-0.4261406053207829,0.10072382807949865,0.03308278537509146,-0.25100434411576555,0.028225155545591463,0.011643797244431653,-0.07143166584879235,0.0,70.0,255.0,255.0,255.0
69,3.45,10.675756030068754,-7.4419946219538105,-0.4387800702945699,0.10210759740223452,0.03367489130924106,-0.25454873310316095,0.02726347513721805,0.011858193028224662,-0.07047770854878288,0.0,70.0,255.0,255.0,255.0
70,3.5,10.680895359872308,-7.4402959250125145,-0.451595478631099,0.10345017559322045,0.03426860467791393,-0.25805211497064384,0.026702756216678836,0.011655692521195249,-0.06991148781793077,0.0,70.0,255.0,255.0,255.0
71,3.5500000000000003,10.686101047628076,-7.438567761486019,-0.4645852817916343,0.1047778730239024,0.03484046056136059,-0.26153988188495403,0.026676899769917384,0.011001324418646874,-0.06986268897933856,0.0,70.0,255.0,255.0,255.0
72,3.6,10.691373147174698,-7.436811878956378,-0.4777494668195944,0.10611786557021219,0.035368737119778615,-0.2650383838685777,0.027096794665837365,0.010020264410837143,-0.07025119574472494,0.0,70.0,255.0,255.0,255.0
73,3.6500000000000004,10.696712834185098,-7.435030887774041,-0.49108912017849204,0.10748755249048614,0.0358424870024443,-0.2685650014594265,0.027764941290264744,0.008945042053998264,-0.07089528609183215,0.0,70.0,255.0,255.0,255.0
74,3.7,10.702121902423746,-7.433227630256134,-0.5046059669655371,0.10889435969923866,0.03626324132517844,-0.2721279124777609,0.028475217544432496,0.008026622834567121,-0.07160493607319962,0.0,70.0,255.0,255.0,255.0
75,3.75,10.707602270155022,-7.431404563641523,-0.5183019114262681,0.11033507424492939,0.03664514928590101,-0.2757254950667465,0.02901893841542602,0.007508379775078566,-0.07219256331274515,0.0,70.0,255.0,255.0,255.0
76,3.8000000000000003,10.71315540984824,-7.429563115327544,-0.5321785164722117,0.11179625354078127,0.0370140793026863,-0.27934716880903543,0.029278128618770438,0.007513766641586983,-0.07254834176091407,0.0,70.0,255.0,255.0,255.0
77,3.85,10.7187818955091,-7.427703155711255,-0.5462366283071717,0.11326288710680643,0.03739652595005971,-0.2829803292428379,0.029289624970729733,0.00795173326482157,-0.07267735316748292,0.0,70.0,255.0,255.0,255.0
78,3.9000000000000004,10.72448169855892,-7.425823462732538,-0.5604765493964955,0.11472521603785424,0.037809252629168455,-0.2866149041257837,0.029148832208925057,0.00862414642792686,-0.0726209426977209,0.0,70.0,255.0,255.0,255.0
79,3.95,10.730254417112885,-7.423922230448338,-0.57489811871975,0.11617777032769894,0.0382589405928524,-0.29024242351261,0.028943253752089504,0.00932202891927858,-0.07241685951279164,0.0,70.0,255.0,255.0,255.0
80,4.0,10.73609947559169,-7.421997568673253,-0.5895007917477565,0.11761954141306319,0.03874145552109631,-0.2938565900770629,0.02876144350114629,0.009830788378106803,-0.07211024028305202,0.0,70.0,255.0,255.0,255.0
81,4.05,10.742016371254191,-7.420048084896228,-0.6042837777274563,0.11905391467781357,0.03924201943066308,-0.2974534475409152,0.02865664636058085,0.010031347943417757,-0.07173620504921097,0.0,70.0,255.0,255.0,255.0
82,4.1000000000000005,10.748004867059471,-7.418073366730186,-0.619246136501848,0.12048520604912127,0.03974459031543809,-0.301030210581984,0.02862377304992947,0.009977371295288862,-0.07132023074617466,0.0,70.0,255.0,255.0,255.0
83,4.15,10.754064891859104,-7.416073625864684,-0.6343867987856547,0.12191629198280651,0.040239756560191964,-0.30458547061553265,0.028641501437576267,0.009792125147889408,-0.07090178227828758,0.0,70.0,255.0,255.0,255.0
84,4.2,10.760196496257752,-7.414049391074167,-0.6497046835634013,0.1233493561928789,0.04072380283022703,-0.30812038880981274,0.028697967912982847,0.0095928605547968,-0.07053331352132597,0.0,70.0,255.0,255.0,255.0
85,4.25,10.766399827478391,-7.412001245581662,-0.665198837666636,0.1247860887741048,0.041199042615671644,-0.31163880196766525,0.028787315551248582,0.009508420092618763,-0.0702625128508938,0.0,70.0,255.0,255.0,255.0
86,4.3,10.772675105135162,-7.4099294868126,-0.6808685637601678,0.12622808774800376,0.041674644839488906,-0.3151466400949021,0.028901999226249586,0.009606902191627853,-0.07011355132893193,0.0,70.0,255.0,255.0,255.0
87,4.3500000000000005,10.779022636253192,-7.407833781097713,-0.6967135016761262,0.12767628869672976,0.04215973283483443,-0.31865015710055844,0.02901528282848176,0.009817849152682356,-0.07007901988520526,0.0,70.0,255.0,255.0,255.0
88,4.4,10.785442734004835,-7.4057135135291166,-0.7127335794702236,0.12912961603085193,0.04265642975475714,-0.32215454208342265,0.02908516204183087,0.010009124542076364,-0.07013463215191917,0.0,70.0,255.0,255.0,255.0
89,4.45,10.791935597856277,-7.403568138122237,-0.7289289558844685,0.13058480490091284,0.043160645289042066,-0.32566362031575036,0.029071587882967265,0.010059442614096525,-0.07024988640186303,0.0,70.0,255.0,255.0,255.0
90,4.5,10.798501214494927,-7.401397449000212,-0.7452999415017987,0.13203677481914866,0.043662374016166794,-0.32917953072360895,0.028941322263698055,0.00983958719551481,-0.07039569898920073,0.0,70.0,255.0,255.0,255.0
91,4.55,10.805139275338192,-7.3992019007206205,-0.7618469089568294,0.13347893712728265,0.044144604008593546,-0.33270319021467043,0.028681557202148156,0.009293957043343681,-0.07055010245560212,0.0,70.0,255.0,255.0,255.0
92,4.6000000000000005,10.811849108207655,-7.396982988599353,-0.7785702605232657,0.13490493053936348,0.04459176972050116,-0.33623454096916916,0.028316867198796558,0.008553003655542568,-0.0706846221140589,0.0,70.0,255.0,255.0,255.0
93,4.65,10.818629768392128,-7.39474272374857,-0.7954703630537463,0.1363106238471623,0.0449999043741478,-0.3397716524260763,0.027896917992720205,0.007850444283796776,-0.07075791755222216,0.0,70.0,255.0,255.0,255.0
94,4.7,10.825480170592371,-7.392482998161938,-0.8125474257658734,0.1376946223386355,0.04537681414888084,-0.3433103327243914,0.02747516773400349,0.007415429594992418,-0.07072765369174894,0.0,70.0,255.0,255.0,255.0
95,4.75,10.832399230625992,-7.390205042333682,-0.8298013963261854,0.13905814062056265,0.045741447333647045,-0.3468444177952512,0.027091404718149192,0.007473184503936636,-0.07055469119231494,0.0,70.0,255.0,255.0,255.0
96,4.800000000000001,10.839385984654427,-7.3879088534285735,-0.8472318675453985,0.14040376281045042,0.0461241325992745,-0.35036580184362287,0.026771771965705682,0.008124868701653298,-0.07022552602805598,0.0,70.0,255.0,255.0,255.0
97,4.8500000000000005,10.846439606907037,-7.385592629073755,-0.8648379765105477,0.14173531781713322,0.046553934203812375,-0.3538669703980568,0.02655454441349292,0.009203889139808297,-0.06978426322032938,0.0,70.0,255.0,255.0,255.0
98,4.9,10.85355951643614,-7.383253460008192,-0.8826185645852042,0.1430592172517997,0.04704452151325533,-0.3573442281656558,0.026489869950196976,0.010393667089036995,-0.06931276523833851,0.0,70.0,255.0,255.0,255.0
99,4.95,10.860745528632217,-7.380888176922429,-0.9005723993271133,0.14438430481215292,0.047593300912716074,-0.36079824692189066,0.02662102789425802,0.01137329121982944,-0.06889898601071254,0.0,70.0,255.0,255.0,255.0
100,5.0,10.867997946917356,-7.378494129916921,-0.9186983892773932,0.1457213200412255,0.04818185063523828,-0.36423412676672706,0.02699702156832018,0.01183970275970836,-0.06862954556556833,0.0,70.0,255.0,255.0,255.0
101,5.050000000000001,10.87531766063634,-7.376069991858905,-0.936995812003786,0.14708400696898494,0.04877727118868691,-0.3676612014784475,0.02762566728957694,0.011639481902747661,-0.06854779343208328,0.0,70.0,255.0,255.0,255.0
102,5.1000000000000005,10.882706347614254,-7.373616402798052,-0.955464509425238,0.1484838867701832,0.04934579882551304,-0.3710889061099354,0.028384115985424785,0.010881323235256701,-0.06861562104188978,0.0,70.0,255.0,255.0,255.0
103,5.15,10.890166049313358,-7.371135411976354,-0.9741047026147795,0.14992241856752742,0.04986540351221258,-0.3745227635826365,0.029062763046816542,0.009805843071841736,-0.0687537254572268,0.0,70.0,255.0,255.0,255.0
104,5.2,10.897698589471007,-7.368629862446831,-0.9929167857835016,0.15139016307486486,0.05032638313269722,-0.37796427865565807,0.0294484596174982,0.008664179418982343,-0.06887640226532765,0.0,70.0,255.0,255.0,255.0
105,5.25,10.905305065620844,-7.366102773663084,-1.0119011304803454,0.15286726452927724,0.050731821454110815,-0.38141040380916924,0.02932852765589189,0.007692013780680185,-0.0688831172212856,0.0,70.0,255.0,255.0,255.0
106,5.300000000000001,10.912985315923935,-7.36355668030142,-1.0310578261644185,0.15432301584045405,0.051095584510765235,-0.38485259037778663,0.02861124652131508,0.007029464758634418,-0.06872381306425313,0.0,70.0,255.0,255.0,255.0
107,5.3500000000000005,10.92073736720489,-7.360993215212008,-1.050386389518124,0.15572838918140874,0.05143476792997426,-0.38828278511559455,0.02747523873054547,0.0067035451914776445,-0.0684741850131676,0.0,70.0,255.0,255.0,255.0
108,5.4,10.928558154842076,-7.358413203508422,-1.069886104675978,0.1570705397135086,0.051765939029913,-0.3917000088791034,0.02625450909778948,0.006711911673917825,-0.06827056137095333,0.0,70.0,255.0,255.0,255.0
109,5.45,10.93644442117624,-7.355816621309017,-1.0895563904060344,0.1583538400911877,0.05210595909736604,-0.3951098412526899,0.025290681421274996,0.007048965463685164,-0.06824249117485248,0.0,70.0,255.0,255.0,255.0
110,5.5,10.944393538851195,-7.353202607598686,-1.109397088801247,0.1595996078556361,0.052470835576281516,-0.39852425799658864,0.024916839835853466,0.007704223468429916,-0.06853392960515237,0.0,70.0,255.0,255.0,255.0
111,5.550000000000001,10.952404381961804,-7.350569537751388,-1.1294088162056932,0.16084552407477304,0.05287638144420903,-0.4019632342132051,0.02529643287232375,0.008644710345073747,-0.06920404055821283,0.0,70.0,255.0,255.0,255.0
112,5.6000000000000005,10.960478091258672,-7.347914969454265,-1.1495934122225675,0.16212925114286847,0.05333530661078889,-0.4054446620524099,0.026265045642759333,0.00974281767742724,-0.07008586734369437,0.0,70.0,255.0,255.0,255.0
113,5.65,10.96861730707609,-7.3452360070903095,-1.1699532824109342,0.16347202863904897,0.053850663211951755,-0.40897182094757456,0.02748824485099277,0.010784831910637394,-0.07088496145974954,0.0,70.0,255.0,255.0,255.0
114,5.7,10.976825294122577,-7.3425299031330695,-1.190490594317325,0.16487807562796775,0.05441378980185263,-0.4125331581983849,0.028622754090612545,0.011542010007659087,-0.0713142857159621,0.0,70.0,255.0,255.0,255.0
115,5.75,10.985105114638888,-7.339794628110124,-1.2112065982307727,0.16633430404811023,0.05500486421271766,-0.41610324951917077,0.02933213164908466,0.011803073697702615,-0.07109323895033715,0.0,70.0,255.0,255.0,255.0
116,5.800000000000001,10.993458724527388,-7.337029416711798,-1.232100919269242,0.1678112887928762,0.05559409717162289,-0.4196424820934186,0.02943696138490992,0.011470668220958657,-0.0700986261015446,0.0,70.0,255.0,255.0,255.0
117,5.8500000000000005,11.001886243518175,-7.334235218392962,-1.2531708464401146,0.16927800018660122,0.05615193103481353,-0.42311311212932523,0.02903362298756207,0.010654135147625254,-0.06855036426010042,0.0,70.0,255.0,255.0,255.0
118,5.9,11.010386524546048,-7.331414223608316,-1.2744122304821746,0.17071465109163242,0.05665951068638542,-0.42649751851942863,0.02834262804718435,0.009581487956200618,-0.06686409162444118,0.0,70.0,255.0,255.0,255.0
119,5.95,11.018957708627338,-7.3285692673243235,-1.2958205982920574,0.17211226299131965,0.05711007983043359,-0.42979952129176935,0.027585388462547655,0.008501968864749188,-0.06546540092609021,0.0,70.0,255.0,255.0,255.0
120,6.0,11.02759775084518,-7.325703215625273,-1.3173921826113515,0.17347318993788718,0.057509707572860336,-0.43304405861203765,0.026982605595371467,0.007659519037161999,-0.06476509594550706,0.0,70.0,255.0,255.0,255.0
121,6.050000000000001,11.036305027621127,-7.322818296567037,-1.3391250041532612,0.1748105235508568,0.05787603173414979,-0.43627603088632005,0.026661269374095298,0.007191591129362962,-0.06496854128290597,0.0,70.0,255.0,255.0,255.0
122,6.1000000000000005,11.045078803200266,-7.319915612451858,-1.3610197856999835,0.17613931687529671,0.05822886668579663,-0.43954091274032825,0.026595893644021373,0.007073369004118035,-0.06590008820344107,0.0,70.0,255.0,255.0,255.0
123,6.15,11.053918959308657,-7.316995409898458,-1.383079095427294,0.17747011291525894,0.058583368634561594,-0.44286603970666416,0.026707490046007365,0.00721816731470426,-0.06719042029417199,0.0,70.0,255.0,255.0,255.0
124,6.2,11.062825814491791,-7.314057275588402,-1.40530638967065,0.17881006587989745,0.05895068341726706,-0.44625995476974545,0.026928092989919605,0.007535802179425843,-0.06845804997344107,0.0,70.0,255.0,255.0,255.0
125,6.25,11.071799965896647,-7.311100341556731,-1.4277050909042686,0.1801629222142509,0.05933694885250418,-0.44971184470400827,0.027197492589792205,0.00792285947746052,-0.06933038659151514,0.0,70.0,255.0,255.0,255.0
126,6.300000000000001,11.080842106713217,-7.3081235807031515,-1.4502775741410507,0.18152981513887667,0.05974296936501311,-0.45319299342889696,0.027471900514086656,0.008311219009193849,-0.06960166098135545,0.0,70.0,255.0,255.0,255.0
127,6.3500000000000005,11.089952947410534,-7.30512604462023,-1.4730243902471583,0.18291011226565956,0.060168070753423564,-0.4566720108021438,0.02770373483773625,0.00869248207537865,-0.06933925961627452,0.0,70.0,255.0,255.0,255.0
128,6.4,11.099133117939783,-7.302106773627809,-1.4959447752212651,0.1843001886226503,0.060612217572550975,-0.4601269193905244,0.027825640205314528,0.009063232063155624,-0.06872257218715205,0.0,70.0,255.0,255.0,255.0
129,6.45,11.1083829662728,-7.299064822862975,-1.5190370821862107,0.18569267628619102,0.061074393959739126,-0.463544268020859,0.027762752398352575,0.009402934306024235,-0.06792999824769552,0.0,70.0,255.0,255.0,255.0
130,6.5,11.117702385568402,-7.295999334231835,-1.542299202023351,0.18707646386248555,0.0615525110031534,-0.46691991921529397,0.027427424046599924,0.009700977785076503,-0.06714132971652464,0.0,70.0,255.0,255.0,255.0
131,6.550000000000001,11.127090612659048,-7.292909571762659,-1.56572907410774,0.188435418690851,0.062044491738246776,-0.4702584009925115,0.02679061574841768,0.009950106259815072,-0.06646984975675618,0.0,70.0,255.0,255.0,255.0
132,6.6000000000000005,11.136545927437487,-7.2897948850580105,-1.5893250421226022,0.18975552543732732,0.0625475216291349,-0.4735669041909696,0.025990938566344823,0.010119406656627916,-0.06594007612861219,0.0,70.0,255.0,255.0,255.0
133,6.65,11.14606616520278,-7.286654819599746,-1.613085764526837,0.1910345125474855,0.06305643240390957,-0.4768524086053727,0.02526901673256532,0.010166200470607123,-0.06556460564237643,0.0,70.0,255.0,255.0,255.0
134,6.7,11.155649378692235,-7.28348924181762,-1.6370102829831394,0.19228242711058385,0.06356414167619562,-0.4801233647552072,0.024866958023750385,0.01005917388274824,-0.06536713186096055,0.0,70.0,255.0,255.0,255.0
135,6.75,11.165294407913839,-7.280298405432126,-1.6610981010023578,0.19352120834986053,0.06406234979218439,-0.48338912179146876,0.025032764603771795,0.009769266677928101,-0.06535632251460921,0.0,70.0,255.0,255.0,255.0
136,6.800000000000001,11.175001499527221,-7.277083006838401,-1.6853491951622863,0.19478570357096103,0.06454106834398843,-0.48665899700666815,0.025873235558471208,0.009294043597307677,-0.06552667891936981,0.0,70.0,255.0,255.0,255.0
137,6.8500000000000005,11.184772978270935,-7.273844298597727,-1.7097640007030246,0.19610853190570765,0.06499175415191516,-0.48994178968340574,0.027166263808631186,0.008710730459160487,-0.06585689274556383,0.0,70.0,255.0,255.0,255.0
138,6.9,11.194612352717792,-7.27058383142321,-1.734343374130627,0.19750232995182415,0.06541214138990448,-0.49324468628122453,0.028502861630919085,0.008152805215999592,-0.06630087004515506,0.0,70.0,255.0,255.0,255.0
139,6.95,11.204523211266117,-7.267303084458737,-1.759088469331147,0.19895881806879956,0.06580703467351512,-0.49657187668792124,0.029470581010215824,0.007759344521929279,-0.06679578666306529,0.0,70.0,255.0,255.0,255.0
140,7.0,11.214508234524672,-7.264003127955858,-1.784000561799419,0.20044938805284573,0.0661880758420974,-0.49992426494753106,0.029665573481096885,0.0076659648264865154,-0.0672933336050674,0.0,70.0,255.0,255.0,255.0
141,7.050000000000001,11.224568150071402,-7.260684276874527,-1.8090808958259001,0.20192537541690925,0.06657363115616377,-0.503301210048428,0.02889555623522,0.00793423217118061,-0.06775723409924161,0.0,70.0,255.0,255.0,255.0
142,7.1000000000000005,11.234700772066363,-7.257345764840242,-1.8343306828042618,0.20333894367636773,0.06698149905921547,-0.5066999883574552,0.027395661210505295,0.008473195982627857,-0.06811598925264839,0.0,70.0,255.0,255.0,255.0
143,7.15,11.244902044439039,-7.253986126968606,-1.8597508946616457,0.20466494153795978,0.06742095075442656,-0.5101128089736928,0.025629560055762113,0.009106215029763831,-0.06826743865262497,0.0,70.0,255.0,255.0,255.0
144,7.2,11.255167266220159,-7.250603669764799,-1.885341963701631,0.20590189968194395,0.06789212056219185,-0.5135267322227177,0.024069552434724528,0.009650674137073878,-0.06811694759425446,0.0,70.0,255.0,255.0,255.0
145,7.25,11.265492234407233,-7.2471969149123865,-1.9111035678839174,0.20707189678143223,0.06838601816813394,-0.5169245037331183,0.023168904174397653,0.009930883339315244,-0.06756638036113927,0.0,70.0,255.0,255.0,255.0
146,7.300000000000001,11.275874455898302,-7.243765067947986,-1.937034414074943,0.2082187900993837,0.06888520889612337,-0.5202833702588316,0.023164399640407396,0.009855741004471952,-0.06658955950848977,0.0,70.0,255.0,255.0,255.0
147,7.3500000000000005,11.286314113417172,-7.240308394022774,-1.9631319049098006,0.20938833674547297,0.06937159226858114,-0.5235834596839672,0.023917571535392312,0.009481893536289476,-0.06536176096649804,0.0,70.0,255.0,255.0,255.0
148,7.4,11.29681328957285,-7.236827908721128,-1.9893927600433396,0.21061054725292294,0.06983339824975232,-0.5268195463554814,0.025112417959682887,0.00893692673953339,-0.06418928210445429,0.0,70.0,255.0,255.0,255.0
149,7.45,11.307375168142464,-7.233325054197799,-2.0158138595453488,0.21189957854144126,0.07026528494253448,-0.5300023878944127,0.02642463582507304,0.008351245643289928,-0.06338817121180895,0.0,70.0,255.0,255.0,255.0
150,7.5,11.318003247426994,-7.229801380226874,-2.042392998832781,0.21325301083543025,0.07066852281408131,-0.5331583634766623,0.02754281914540968,0.007846492491747625,-0.0632771356262607,0.0,70.0,255.0,255.0,255.0
151,7.550000000000001,11.328700469226007,-7.226258201916391,-2.069129695893015,0.21465386045598223,0.07104993419170924,-0.5363301014570387,0.02828181023861731,0.007495577703497958,-0.063998840220858,0.0,70.0,255.0,255.0,255.0
152,7.6000000000000005,11.339468633472592,-7.222696386807703,-2.096026008978485,0.21608119185929198,0.07141808058443111,-0.5395582474987481,0.028622257774912896,0.007315593509193974,-0.06530801583268797,0.0,70.0,255.0,255.0,255.0
153,7.65,11.350308588411936,-7.219116393857948,-2.12308552064289,0.21751608623347352,0.07178149354262864,-0.5428609030403075,0.02859004549371491,0.007310553535777586,-0.06674270565709683,0.0,70.0,255.0,255.0,255.0
154,7.7,11.36122024209594,-7.21551823745344,-2.1503120992825155,0.21894019640866347,0.07214913593800887,-0.5462325180644578,0.028206729440505285,0.007483830469112718,-0.06783153305933709,0.0,70.0,255.0,255.0,255.0
155,7.75,11.372202608052802,-7.211901480264147,-2.1777087724493356,0.22033675917752404,0.07252987658953991,-0.5496440563462412,0.027495809919919623,0.00783913737052444,-0.06810512375357014,0.0,70.0,255.0,255.0,255.0
156,7.800000000000001,11.383253918013692,-7.208265249794486,-2.2052765049171397,0.22168977740065543,0.07293304967506131,-0.5530430304398148,0.026499594837581242,0.008362973822872988,-0.06733470664790353,0.0,70.0,255.0,255.0,255.0
157,7.8500000000000005,11.394371585792868,-7.204608175296641,-2.233013075493317,0.22298671866128217,0.07336617397182721,-0.5563775270110316,0.0253550756875498,0.008974893266344708,-0.06577876311575359,0.0,70.0,255.0,255.0,255.0
158,7.9,11.40555258987982,-7.200928632397304,-2.260914257618243,0.2242252849694104,0.07383053900169578,-0.5596209067513902,0.02428907838503136,0.009540019955345258,-0.06394814701549123,0.0,70.0,255.0,255.0,255.0
159,7.95,11.416794114289809,-7.197225121396471,-2.288975166168456,0.2254156264997853,0.07432017596736173,-0.5627723417125807,0.023546395129514508,0.009914458119908431,-0.06235833058290119,0.0,70.0,255.0,255.0,255.0
160,8.0,11.428094152529798,-7.1934966148005675,-2.317191491789501,0.22657992448236186,0.07482198481368663,-0.5658567398096803,0.02336195982479694,0.00995294870334007,-0.0615143040910926,0.0,70.0,255.0,255.0,255.0
161,8.05,11.439452106738045,-7.189742922915102,-2.345560840149424,0.227751822482265,0.07531547083769574,-0.56892377212169,0.023840836054667136,0.009592014185866304,-0.06167548004101242,0.0,70.0,255.0,255.0,255.0
162,8.1,11.450869334778025,-7.185965067716798,-2.37408386900167,0.22896400808782857,0.07578118623227326,-0.5720242878137816,0.024828488425754358,0.008949308949457446,-0.06264341189115008,0.0,70.0,255.0,255.0,255.0
163,8.15,11.462348507546828,-7.182164804291875,-2.4027632689308023,0.23023467132484043,0.07621040173264149,-0.575188113310805,0.02602091369006132,0.008245730279021757,-0.06399822609455263,0.0,70.0,255.0,255.0,255.0
164,8.200000000000001,11.473892801910509,-7.178344027543534,-2.4316026803327504,0.2315660994568347,0.07660575926017543,-0.5784241104232368,0.02709542896948136,0.007711110943642296,-0.06531528446878099,0.0,70.0,255.0,255.0,255.0
165,8.25,11.485505117492512,-7.1745042283658575,-2.460605679973126,0.23294421422178857,0.07698151282700572,-0.5817196417576831,0.027732341458985843,0.007585058491343943,-0.06617369717769606,0.0,70.0,255.0,255.0,255.0
166,8.3,11.497187223332688,-7.170645876260833,-2.4897746445085187,0.2343393336027333,0.07736426510930983,-0.5850414801410064,0.027764287049691916,0.007982256147620603,-0.06634453868947787,0.0,70.0,255.0,255.0,255.0
167,8.35,11.508939050852785,-7.166767801854927,-2.5191098279872266,0.23572064292675776,0.07777973844176778,-0.5883540956266309,0.027300014897946312,0.008742463010946722,-0.06593756601018796,0.0,70.0,255.0,255.0,255.0
168,8.4,11.520759287625363,-7.162867902416656,-2.548610054071182,0.23706933509252792,0.0782385114104045,-0.5916352367420252,0.02657738340410276,0.009562466853463292,-0.06520729359467126,0.0,70.0,255.0,255.0,255.0
169,8.450000000000001,11.532645984362038,-7.158943950713886,-2.578273351661429,0.23837838126716804,0.0787359851271141,-0.594874824986098,0.025838975241043727,0.010141237965477501,-0.06440141732255711,0.0,70.0,255.0,255.0,255.0
170,8.5,11.54459712575208,-7.154994303903945,-2.6080975365697916,0.2396532326166323,0.07925263520695225,-0.5980753784742809,0.025336646368856464,0.010174882598956714,-0.06376685125388803,0.0,70.0,255.0,255.0,255.0
171,8.55,11.556611307623701,-7.151018687193191,-2.638080889508857,0.24091204590405368,0.07975347338700978,-0.6012515101114868,0.025207563530038612,0.009518588263635053,-0.06344519969978535,0.0,70.0,255.0,255.0,255.0
172,8.6,11.568688330342486,-7.147018956565244,-2.6682226875809403,0.24217398896963616,0.08020449403331575,-0.6044198984442595,0.02536688321725933,0.00836801849537494,-0.0634017553035715,0.0,70.0,255.0,255.0,255.0
173,8.65,11.580828706520665,-7.142998237789859,-2.698522879353283,0.24344873422577962,0.08059027523654727,-0.607591685641844,0.02563579978058783,0.007098061980048698,-0.06353884661320919,0.0,70.0,255.0,255.0,255.0
174,8.700000000000001,11.593033203765064,-7.138959929041589,-2.7289818561451247,0.24473756894769494,0.08091430023132062,-0.6107737831055804,0.025847784286803233,0.006083284512925502,-0.06377144717339966,0.0,70.0,255.0,255.0,255.0
175,8.75,11.605302463415434,-7.134906807766727,-2.759600257663841,0.24603351265445994,0.08119860368783982,-0.6139688303591839,0.025833147657650102,0.005691355169190615,-0.06401894442662481,0.0,70.0,255.0,255.0,255.0
176,8.8,11.61763655503051,-7.130840068672805,-2.790378739181043,0.24732088371345995,0.08148343574823969,-0.6171756775482429,0.02550559868765845,0.006103763758069647,-0.0642286019053806,0.0,70.0,255.0,255.0,255.0
177,8.85,11.63003455178678,-7.126758464191903,-2.8213178254186655,0.24858407252322579,0.08180898006364679,-0.620391690549722,0.0249551561957162,0.007135579558070759,-0.06437634517655333,0.0,70.0,255.0,255.0,255.0
178,8.9,11.642494962282832,-7.122659170666441,-2.8524179082360153,0.24981639933303157,0.08219699370404676,-0.6236133120658982,0.024356713511686223,0.008414329515282759,-0.06443554839066223,0.0,70.0,255.0,255.0,255.0
179,8.950000000000001,11.655016191720083,-7.118538764821499,-2.8836791566252553,0.2510197438743944,0.08265041301517506,-0.6268352453887882,0.02387646103922947,0.00955956337644892,-0.06437330680428843,0.0,70.0,255.0,255.0,255.0
180,9.0,11.667596936670272,-7.114394129364923,-2.915101432774894,0.2522040454369545,0.08315295004169165,-0.630050642746327,0.0236707163823624,0.010187715372289574,-0.0641573710397303,0.0,70.0,255.0,255.0,255.0
181,9.05,11.680236596263779,-7.1102234698173294,-2.946684220899888,0.25338681551263065,0.08366918455240402,-0.6332509824927612,0.02381712796335478,0.010100296098336514,-0.06377987985812794,0.0,70.0,255.0,255.0,255.0
182,9.1,11.692935618221535,-7.106027210909683,-2.97842653102417,0.25458575823329,0.0841629796515253,-0.6364286307321398,0.024248016474182066,0.009458707562082225,-0.06329463555192483,0.0,70.0,255.0,255.0,255.0
183,9.15,11.705695172087108,-7.101807171852177,-3.010327083973102,0.25581161716004885,0.08461505530861224,-0.6395804460479537,0.024820982538464875,0.008594736508715783,-0.06279802742357177,0.0,70.0,255.0,255.0,255.0
184,9.200000000000001,11.71851677993754,-7.0975657053788215,-3.0423845756289656,0.2570678564871365,0.08502245330239688,-0.642708433474497,0.025386884378342245,0.007838834941420458,-0.06239481278882408,0.0,70.0,255.0,255.0,255.0
185,9.25,11.731401957735821,-7.093304926521937,-3.0745979273205517,0.2583503055978831,0.08539893880275429,-0.6458199273268361,0.025795968166164585,0.007533727396680234,-0.06219558073827791,0.0,70.0,255.0,255.0,255.0
186,9.3,11.744351810497328,-7.089025811498546,-3.106966568361649,0.25964745330375294,0.0857758260420649,-0.6489279915483248,0.025966402276367262,0.007854399167772641,-0.062251878662067384,0.0,70.0,255.0,255.0,255.0
187,9.35,11.757366703066197,-7.084727343917731,-3.139490726475384,0.2609469458255198,0.08618437871953155,-0.6520451151930429,0.025936414270510966,0.008623249868211502,-0.062482408653430355,0.0,70.0,255.0,255.0,255.0
188,9.4,11.77044650507988,-7.080407373626593,-3.1721710798809535,0.26224109473080404,0.08663815102888606,-0.6551762324136678,0.02579488081035919,0.009493903937052295,-0.06273504587821499,0.0,70.0,255.0,255.0,255.0
189,9.450000000000001,11.783590812539277,-7.076063528814842,-3.205008349716751,0.2635264339065557,0.08713376911323678,-0.6583186197808644,0.025629800980375705,0.010131437183780179,-0.06285415532634175,0.0,70.0,255.0,255.0,255.0
190,9.5,11.796799148470535,-7.071693996715269,-3.23800294185904,0.2648040748288416,0.08765129474726407,-0.661461647946302,0.025537392308017104,0.010197468280459532,-0.06266832465504635,0.0,70.0,255.0,255.0,255.0
191,9.55,11.810071220022161,-7.067298399340116,-3.271154514511381,0.26608017313735743,0.08815351594128273,-0.664585452246369,0.02557003682390757,0.009528447557727304,-0.06209931878071728,0.0,70.0,255.0,255.0,255.0
192,9.600000000000001,11.823407165784271,-7.062878645121141,-3.304461487083677,0.26736107851123236,0.0886041395030368,-0.6676715798243738,0.025685394039953735,0.00833547245369104,-0.061298433797007945,0.0,70.0,255.0,255.0,255.0
193,9.65,11.836807327873284,-7.058437985389812,-3.3379216724938185,0.2686487125413528,0.08898706318665184,-0.6707152956260698,0.025801265780778238,0.007023307416176294,-0.060539085100908,0.0,70.0,255.0,255.0,255.0
194,9.700000000000001,11.850272037038406,-7.053979938802476,-3.371533016646284,0.2699412050893102,0.08930647024465443,-0.6737254883344646,0.02584682545361261,0.0059947636411372685,-0.06008842604527942,0.0,70.0,255.0,255.0,255.0
195,9.75,11.863801448382215,-7.049507338365347,-3.405294221327265,0.27123339508671407,0.08958653955076556,-0.6767241382305977,0.02575851854818012,0.005652343537221327,-0.060219046049603264,0.0,70.0,255.0,255.0,255.0
196,9.8,11.877395376547078,-7.045021284847399,-3.4392054304693436,0.2725170569441282,0.08987170459837657,-0.6797473929394249,0.025506364181637764,0.00619218356332496,-0.061051731996553116,0.0,70.0,255.0,255.0,255.0
197,9.850000000000001,11.891053154076628,-7.040520167905509,-3.4732689606212075,0.27378403150487785,0.09020575790709806,-0.682829311430253,0.02512378112999869,0.0073849768676303995,-0.06235760907187249,0.0,70.0,255.0,255.0,255.0
198,9.9,11.904773779697566,-7.036000709056689,-3.507488361612369,0.27502943505712807,0.09061020228513961,-0.6859831538466121,0.024679123664483882,0.008781910686384009,-0.06371318248232782,0.0,70.0,255.0,255.0,255.0
199,9.950000000000001,11.918556097582341,-7.031459147676995,-3.5418672760058687,0.27625194387132623,0.09108394897573646,-0.6892006296784858,0.024242384385608773,0.009930160931759247,-0.06469330599401246,0.0,70.0,255.0,255.0,255.0
200,10.0,11.932398974084698,-7.026892314159116,-3.5764084245802175,0.27745367349568895,0.09160321837831553,-0.6924524844460134,0.023872542825031928,0.010373204190727847,-0.06487954709055721,0.0,70.0,255.0,255.0,255.0
201,10.05,11.94630146493191,-7.022298825839163,-3.61111252445047,0.2786391981538294,0.09212126939480925,-0.6956885843875416,0.023604506448826612,0.009882958049622914,-0.06407286745249152,0.0,70.0,255.0,255.0,255.0
202,10.100000000000001,11.960262893900081,-7.017680187219635,-3.6459772830189716,0.2798141241405716,0.09259151418327782,-0.6988597711912625,0.023456777476660307,0.008695435926320272,-0.062522784927177,0.0,70.0,255.0,255.0,255.0
203,10.15,11.974282877345967,-7.013039674420836,-3.6809985015695963,0.28098487590149546,0.09299081298744127,-0.7019408628802593,0.02344494352328752,0.007278233987229044,-0.06071820827924235,0.0,70.0,255.0,255.0,255.0
204,10.200000000000001,11.98836138149023,-7.008381105920891,-3.7161713693069975,0.28215861849290036,0.09331933758200073,-0.7049315920191868,0.02357692371717235,0.006097739485699805,-0.05915718447768725,0.0,70.0,255.0,255.0,255.0
205,10.25,12.002498739195257,-7.003707740662636,-3.751491660771515,0.2833425682732127,0.09360058693601125,-0.707856581328028,0.02385527285788669,0.005622765108004302,-0.05832672829222396,0.0,70.0,255.0,255.0,255.0
206,10.3,12.016695638317552,-6.99902104722729,-3.7869570274398003,0.28454414577868903,0.09388161409280116,-0.7107642648484092,0.024269922376518593,0.006089131090725175,-0.0584766583333618,0.0,70.0,255.0,255.0,255.0
207,10.350000000000001,12.030953153773126,-6.9943195792533555,-3.822568087256356,0.28576956051086455,0.09420950004508377,-0.7137042471613642,0.02476826980082336,0.0072624635758522516,-0.05941773140585305,0.0,70.0,255.0,255.0,255.0
208,10.4,12.045272594368639,-6.989600097222781,-3.8583274521559368,0.28702097275877136,0.09460786045038638,-0.7167060379889945,0.025260263082316214,0.008675969215765633,-0.06074750421412034,0.0,70.0,255.0,255.0,255.0
209,10.450000000000001,12.059655251049003,-6.984858793208317,-3.8942386910552553,0.2882955868190962,0.09507709696666033,-0.7197789975827762,0.025650946387045792,0.009865734272995752,-0.06205809595529743,0.0,70.0,255.0,255.0,255.0
210,10.5,12.074102153050548,-6.980092387526115,-3.9303053519142144,0.28958606739747594,0.09559443387768596,-0.7229118475845242,0.025862356420169874,0.010367809969302755,-0.06294957703643078,0.0,70.0,255.0,255.0,255.0
211,10.55,12.08861385778875,-6.975299349820548,-3.9665298758137078,0.29088182246111316,0.09611387796359061,-0.7260739552864193,0.025855291223919608,0.009947370733698335,-0.06320166471569522,0.0,70.0,255.0,255.0,255.0
212,10.600000000000001,12.10319033529666,-6.970480999729756,-4.002912747442856,0.2921715965198679,0.09658917095105579,-0.7292320140560937,0.025634618842751422,0.00882552562124772,-0.06289626613962263,0.0,70.0,255.0,255.0,255.0
213,10.65,12.117831017440738,-6.965640432725443,-4.039453077219317,0.2934452843453883,0.09699643052571538,-0.7323635819003815,0.025230367784878638,0.007447073299093887,-0.06224011985245248,0.0,70.0,255.0,255.0,255.0
214,10.700000000000001,12.132534863731198,-6.960781356677185,-4.0761491056328945,0.29469463329835577,0.09733387828096518,-0.735456026041339,0.024685491201559273,0.006252470275303068,-0.061438030768457,0.0,70.0,255.0,255.0,255.0
215,10.75,12.147300480770573,-6.955907044897346,-4.112998679823451,0.29591383346554423,0.09762167755324569,-0.7385073849772272,0.024035348081241636,0.005673920422566425,-0.06070293558977369,0.0,70.0,255.0,255.0,255.0
216,10.8,12.162126247077753,-6.95101918892186,-4.149999844130617,0.29709816810647993,0.09790127032322182,-0.7415263196003163,0.023314600373680605,0.005934532827733818,-0.06016171776934698,0.0,70.0,255.0,255.0,255.0
217,10.850000000000001,12.177010297581221,-6.946116917865024,-4.187151311783483,0.2982452935029123,0.09821513083601907,-0.7445235567541619,0.022611390026305855,0.006864618088719965,-0.059794406833368896,0.0,70.0,255.0,255.0,255.0
218,10.9,12.191950776428044,-6.941197675838258,-4.224452199806033,0.2993593071091105,0.09858773213209382,-0.7475057602836532,0.02206180890222953,0.008106553438480546,-0.05953733106123238,0.0,70.0,255.0,255.0,255.0
219,10.950000000000001,12.206946228292132,-6.936258144651815,-4.261901887811848,0.30045147439313524,0.09902578617986713,-0.7504772898602852,0.02179934987900367,0.009304524485553856,-0.05934166908216909,0.0,70.0,255.0,255.0,255.0
220,11.0,12.221995923867357,-6.931295097220271,-4.299499928792062,0.3015392420970109,0.0995181845806492,-0.7534399271918701,0.021944223281344932,0.010116554960237778,-0.059142736548256636,0.0,70.0,255.0,255.0,255.0
221,11.05,12.237100152501833,-6.92630632619375,-4.337245880531035,0.30264589672126974,0.1000374416758909,-0.7563915635151108,0.022541132456233015,0.010355150635987798,-0.058905403601539064,0.0,70.0,255.0,255.0,255.0
222,11.100000000000001,12.252260513539484,-6.921291353052682,-4.375139085143573,0.3037933553426342,0.10055369964424798,-0.759330467552024,0.023474506367726633,0.010085046313257351,-0.05868433496525327,0.0,70.0,255.0,255.0,255.0
223,11.15,12.267479488036097,-6.916250956229325,-4.413178927286237,0.3049933473580424,0.10104594630721664,-0.7622599970116362,0.024525193809132873,0.009476829497323536,-0.05857148830266112,0.0,70.0,255.0,255.0,255.0
224,11.200000000000001,12.282759848275289,-6.911186758421961,-4.451365084844737,0.3062458747235475,0.10150138259398034,-0.7651876163822902,0.0254586477449692,0.008703231316342652,-0.05864237914980919,0.0,70.0,255.0,255.0,255.0
225,11.25,12.298104075508451,-6.906100817969927,-4.489697688924466,0.3075392121325393,0.1019162694388509,-0.7681242349266171,0.02605573082057333,0.00793985973635003,-0.05897805294985403,0.0,70.0,255.0,255.0,255.0
226,11.3,12.313513769488543,-6.9009951314780755,-4.528177508337398,0.3088514478056048,0.10229536856761534,-0.7710854216772756,0.02620086980069658,0.007296612880125508,-0.05960426689251008,0.0,70.0,255.0,255.0,255.0
227,11.350000000000001,12.328989220289012,-6.895871281113165,-4.566806231092194,0.310159299112609,0.10264593072686345,-0.7740846616158681,0.02593869639131441,0.006792399455246567,-0.060387414143825424,0.0,70.0,255.0,255.0,255.0
228,11.4,12.344529699399803,-6.890730538405389,-4.605585974498985,0.31144531744473625,0.10297460851314,-0.7771241630916581,0.02538930397264494,0.006431443257426395,-0.061095876566596985,0.0,70.0,255.0,255.0,255.0
229,11.450000000000001,12.360133752033486,-6.885573820261851,-4.64451864740136,0.31269822950987347,0.1032890750526061,-0.7801942492725278,0.024686059142098316,0.006227725074214874,-0.061496553247586405,0.0,70.0,255.0,255.0,255.0
230,11.5,12.37579952235079,-6.880401630900129,-4.683605399426238,0.3139139233589461,0.10359738102056149,-0.7832738184164167,0.023964881408211625,0.006176034066740499,-0.061353070301262136,0.0,70.0,255.0,255.0,255.0
231,11.55,12.39152514436938,-6.875214082159795,-4.7228460292430015,0.31509471765069463,0.10390667845928014,-0.786329556302654,0.02331384987730445,0.00626613677230381,-0.06056321647340823,0.0,70.0,255.0,255.0,255.0
232,11.600000000000001,12.40730899411586,-6.870010963054201,-4.762238355056503,0.3162453083466765,0.10422399469779187,-0.7893301400637576,0.022767910863841223,0.006501812741266377,-0.05933225554484167,0.0,70.0,255.0,255.0,255.0
233,11.65,12.423149675204048,-6.864791682690016,-4.801779043249377,0.31737150873707876,0.10455685973340678,-0.7922627818571382,0.022362904986827914,0.006879262274317455,-0.058040436666484396,0.0,70.0,255.0,255.0,255.0
234,11.700000000000001,12.439046144989568,-6.85955527708086,-4.841464633242217,0.3184815988453593,0.10491192092522361,-0.795134183730406,0.022142290513471607,0.007373467455273897,-0.05707695564609594,0.0,70.0,255.0,255.0,255.0
235,11.75,12.454997835088584,-6.854300490597494,-4.881292461622418,0.3195857377884259,0.10529420647893417,-0.7979704774217478,0.022136771519143394,0.007963929404120051,-0.05683763787320828,0.0,70.0,255.0,255.0,255.0
236,11.8,12.47100471876841,-6.8490258564329665,-4.921261680984392,0.32069527599727365,0.10570831386563562,-0.8008179475177268,0.022351469616488373,0.008626439097714211,-0.05750995346058829,0.0,70.0,255.0,255.0,255.0
237,11.850000000000001,12.487067362688311,-6.84372965921093,-4.9613742563741905,0.32182088475007475,0.10615685038870559,-0.8037214727678066,0.022746117029015522,0.009282214381656217,-0.058833680227277085,0.0,70.0,255.0,255.0,255.0
238,11.9,12.503186807243418,-6.838410171394096,-5.0016338282611725,0.3229698877001752,0.10663653530380124,-0.8067013155404545,0.023240940881308347,0.009807964522856594,-0.0603114210567135,0.0,70.0,255.0,255.0,255.0
239,11.950000000000001,12.519364351458329,-6.83306600568055,-5.042044387928236,0.3241449788382056,0.10713764684099125,-0.8097526148734779,0.02373909115931383,0.010086144032328548,-0.061442990134708,0.0,70.0,255.0,255.0,255.0
240,12.0,12.535601305127239,-6.827696406709997,-5.08260908974852,0.3253437968161066,0.1076451497070341,-0.8128456145539253,0.02414798589658318,0.0100202762872037,-0.061728452797726874,0.0,70.0,255.0,255.0,255.0
241,12.05,12.55189873113994,-6.8223014907098465,-5.1233289493836285,0.3265597774278639,0.10813967446971162,-0.8159254601532506,0.024414071189227116,0.009573281662600408,-0.060923310010529974,0.0,70.0,255.0,255.0,255.0
242,12.100000000000001,12.568257282870025,-6.816882439263026,-5.164201635763845,0.3277852039350293,0.10860247787329413,-0.8189379455549783,0.02453125738242079,0.008814644418198014,-0.05930561095883746,0.0,70.0,255.0,255.0,255.0
243,12.15,12.584677251533442,-6.811441242922517,-5.205222743939126,0.329012903166106,0.10902113891153142,-0.8218560212491344,0.024508855963034648,0.007886082431340924,-0.05742213085531134,0.0,70.0,255.0,255.0,255.0
244,12.200000000000001,12.601158573186636,-6.8059803253718725,-5.246387237888759,0.33023608953133277,0.10939108611642823,-0.8246801586405095,0.024361857671628684,0.006947131240231386,-0.055823717847314214,0.0,70.0,255.0,255.0,255.0
245,12.25,12.617700860486575,-6.800502134310874,-5.287690759803177,0.33144908893326885,0.10971585203555456,-0.8274383930338658,0.024115294220550254,0.006139021390971777,-0.05506048566736865,0.0,70.0,255.0,255.0,255.0
246,12.3,12.634303482079963,-6.795008740168317,-5.329131077192145,0.3326476189533878,0.1100049882555254,-0.8301862072072463,0.023791219983770873,0.0055466347188115606,-0.055409953350604724,0.0,70.0,255.0,255.0,255.0
247,12.350000000000001,12.650965622381914,-6.789501635485322,-5.370709380523902,0.33382821093164594,0.11027051550743572,-0.8329793883689263,0.02340969260021808,0.005212867618631378,-0.05661035612414267,0.0,70.0,255.0,255.0,255.0
248,12.4,12.667686303173127,-6.7839816886175734,-5.412429016029038,0.3349885882134096,0.11052627501738854,-0.8358472428196606,0.023004474428667265,0.005174885238812266,-0.058133575335794774,0.0,70.0,255.0,255.0,255.0
249,12.450000000000001,12.684464481203255,-6.778449007983583,-5.454294104805868,0.33612865837451267,0.11078800403131694,-0.8387927459025057,0.022619165800286112,0.0054581048997803805,-0.059448991623156644,0.0,70.0,255.0,255.0,255.0
250,12.5,12.701299169010579,-6.772902888214442,-5.496308290619289,0.3372505047934382,0.11107208550736658,-0.8417921419819763,0.02228687451761857,0.006083591528849297,-0.06001766980023859,0.0,70.0,255.0,255.0,255.0
251,12.55,12.718189531682599,-6.767341799432846,-5.538473319004066,0.3383573458262745,0.11139636318420187,-0.8447945128825296,0.022027762162935005,0.007035517458398033,-0.05956424255417758,0.0,70.0,255.0,255.0,255.0
252,12.600000000000001,12.735134903593206,-6.761763251896022,-5.580787741907542,0.3394532810097317,0.11177563725320638,-0.847748566237394,0.02186726825268437,0.008172206784973213,-0.058344712796642995,0.0,70.0,255.0,255.0,255.0
253,12.65,12.752134859783572,-6.756164235707526,-5.623248175627805,0.34054407265154296,0.1122135838626992,-0.8506289841621939,0.02183595028526497,0.0092526982908403,-0.05687098038871241,0.0,70.0,255.0,255.0,255.0
254,12.700000000000001,12.76918931085836,-6.750541893509752,-5.665850640323761,0.3416368760382582,0.11270090708229041,-0.8534356642762653,0.021954765841059043,0.010022500442907756,-0.055647262047742174,0.0,70.0,255.0,255.0,255.0
255,12.75,12.786298547387398,-6.7448941449992965,-5.7085917420554315,0.34273954923564887,0.11321583390698997,-0.8561937103669681,0.022241170412584665,0.010238593846167987,-0.055184732567337136,0.0,70.0,255.0,255.0,255.0
256,12.8,12.803463265781925,-6.739220310119053,-5.751470011360458,0.3438609930795167,0.11372476646690721,-0.858954137532999,0.022692043717853494,0.009790269806941865,-0.05573950999879784,0.0,70.0,255.0,255.0,255.0
257,12.850000000000001,12.82068464669535,-6.733521668352606,-5.794487155808731,0.3450087536074342,0.11419486088768416,-0.8617676613668479,0.023240395227652755,0.00882725628983394,-0.05703997683879081,0.0,70.0,255.0,255.0,255.0
258,12.9,12.837964141142669,-6.727800824030284,-5.837646777497143,0.34618503260228195,0.1146074920958906,-0.8646581352168781,0.02377088527136806,0.0076470488699520445,-0.058553318959475575,0.0,70.0,255.0,255.0,255.0
259,12.950000000000001,12.855303149955578,-6.722060919143017,-5.880952969330419,0.347385842134571,0.11495956577467936,-0.8676229932627955,0.024162796477966708,0.006564154400834354,-0.05975552662036421,0.0,70.0,255.0,255.0,255.0
260,13.0,12.872702725356126,-6.716304867452816,-5.924409076823422,0.3486013122500786,0.11526390753597404,-0.8706336878789145,0.024304434506206007,0.0058860424113404974,-0.060127502494999874,0.0,70.0,255.0,255.0,255.0
261,13.05,12.890163281180586,-6.710534528389419,-5.968016338118311,0.3498162855851916,0.11554817001581341,-0.8736357435122954,0.024143550143485015,0.005776177206762156,-0.0594107710629288,0.0,70.0,255.0,255.0,255.0
262,13.100000000000001,12.907684353914645,-6.704750050451235,-6.011772651174652,0.3510156672644271,0.11584152525665026,-0.8765747649852074,0.023735626361620632,0.006149723766224469,-0.05786796726079402,0.0,70.0,255.0,255.0,255.0
263,13.15,12.925264847907028,-6.698950375863754,-6.055673814616831,0.3521898482213537,0.11616314239243586,-0.8794225402383749,0.023196872266595392,0.006808989679907285,-0.05602399552184778,0.0,70.0,255.0,255.0,255.0
264,13.200000000000001,12.94290333873678,-6.693133736211991,-6.099714905198489,0.35333535449108666,0.11652242422464099,-0.8821771645373921,0.022653535427608062,0.0075537957066273975,-0.0544032655038329,0.0,70.0,255.0,255.0,255.0
265,13.25,12.960598383356137,-6.68729813344129,-6.143891531070571,0.3544552017641145,0.1169185219630986,-0.8848628667887581,0.02222911021014795,0.008189264480140679,-0.053517192184227014,0.0,70.0,255.0,255.0,255.0
266,13.3,12.978348858913192,-6.6814418840156815,-6.188201191877365,0.35555826551210146,0.11734135067265505,-0.8875288837558148,0.021993242886964026,0.008599473581227812,-0.05363055260207972,0.0,70.0,255.0,255.0,255.0
267,13.350000000000001,12.996154209907347,-6.675563998374025,-6.232644419446152,0.3566545260528109,0.11777846932122138,-0.8902259220489661,0.021933462962664407,0.008778417409960326,-0.054554634304793126,0.0,70.0,255.0,255.0,255.0
268,13.4,13.014014311518473,-6.669664037083559,-6.277223784082262,0.3577516118083679,0.11821919241365109,-0.8929843471862942,0.022006101185922944,0.008750745323293785,-0.05588421876669969,0.0,70.0,255.0,255.0,255.0
269,13.450000000000001,13.031929371088184,-6.66374207913266,-6.3219428541647815,0.3588551361714032,0.11865354385355076,-0.8958143439256361,0.022169262278382007,0.008534975126295308,-0.05721155122406785,0.0,70.0,255.0,255.0,255.0
270,13.5,13.049899825135613,-6.657798682698204,-6.366805218474825,0.3599685380362061,0.11907268992628062,-0.8987055023087009,0.02238714330147218,0.00814888101974276,-0.05813976606434679,0.0,70.0,255.0,255.0,255.0
271,13.55,13.067926224891805,-6.6518348101400315,-6.411813404395652,0.3610938505015504,0.11946843195552503,-0.9016283205320708,0.02263070441372861,0.007618189541158671,-0.05844818403000218,0.0,70.0,255.0,255.0,255.0
272,13.600000000000001,13.086009210185768,-6.645851839502652,-6.456968050528032,0.36223160847757896,0.11983450888039648,-0.9045503207117012,0.022851454189698472,0.007017445755863605,-0.0582034722097724,0.0,70.0,255.0,255.0,255.0
273,13.65,13.104149385739563,-6.639851359251992,-6.502268436466822,0.36337899592052025,0.1201701765311114,-0.907448667753048,0.022976951429498627,0.006468868187425869,-0.05758747439914558,0.0,70.0,255.0,255.0,255.0
274,13.700000000000001,13.12234710977782,-6.633834821849541,-6.547712917303337,0.3645293036205288,0.12048139569913907,-0.9103090681516157,0.022929928280390754,0.006105278145973614,-0.05677812866746734,0.0,70.0,255.0,255.0,255.0
275,13.75,13.140602316101615,-6.627803219682078,-6.593299343281983,0.36567198874855933,0.12078070434570876,-0.9131264806197947,0.02262231658356484,0.006059220765397555,-0.05595171558825385,0.0,70.0,255.0,255.0,255.0
276,13.8,13.158914308652676,-6.62175675141497,-6.6390255653653165,0.3667915352788853,0.12108731777567883,-0.9159042397104411,0.02202342663473189,0.00638828107542011,-0.05522174624346121,0.0,70.0,255.0,255.0,255.0
277,13.850000000000001,13.177281469629504,-6.61569448790451,-6.684889767253027,0.3678743314120325,0.12141953245325077,-0.9186486552441409,0.021262491840623454,0.006987324041585197,-0.05462867965144724,0.0,70.0,255.0,255.0,255.0
278,13.9,13.19570174179388,-6.609614798169645,-6.730890430889731,0.36891778446294765,0.12178605017983735,-0.9213671076755858,0.02056516069650627,0.007657418290207829,-0.054211198321230114,0.0,70.0,255.0,255.0,255.0
279,13.950000000000001,13.214173248075799,-6.603515882886526,-6.777026478020586,0.36993084748168314,0.12218527428227155,-0.9240697750762639,0.020157085207017644,0.008191138397251052,-0.05402110893246714,0.0,70.0,255.0,255.0,255.0
280,14.0,13.232694826542048,-6.5973962707414175,-6.823297408397357,0.3709334929836494,0.12260516401956245,-0.9267692185688325,0.02026354374375927,0.008378245243179094,-0.05410539955521543,0.0,70.0,255.0,255.0,255.0
281,14.05,13.251266597374164,-6.59125536648457,-6.869703399877469,0.37195720185605907,0.12302309880658946,-0.9294803150317854,0.020983188113632423,0.008115399443564542,-0.05447256992301419,0.0,70.0,255.0,255.0,255.0
282,14.100000000000001,13.269890546727654,-6.585093960860759,-6.9162454399005355,0.37303181179501266,0.1234167039639189,-0.932216475561134,0.02213233136263426,0.0075186660025927665,-0.055038266060858376,0.0,70.0,255.0,255.0,255.0
283,14.15,13.288569778553665,-6.578913696088178,-6.962925047433583,0.3741704349923225,0.12377496540684874,-0.9349841416378712,0.023366974549787756,0.006816050726410339,-0.05564959711854556,0.0,70.0,255.0,255.0,255.0
284,14.200000000000001,13.307307590226886,-6.572716464320074,-7.009743854064323,0.37536850924999143,0.12409830903655994,-0.9377814352729885,0.024336183105866382,0.006236741692156045,-0.05613846124354893,0.0,70.0,255.0,255.0,255.0
285,14.25,13.326106629478664,-6.566503865184522,-7.0567031909608815,0.37660405330290914,0.12439863957606434,-0.9405979877622261,0.024695536411556418,0.006011760966551094,-0.056338667542288334,0.0,70.0,255.0,255.0,255.0
286,14.3,13.344967995557177,-6.560276600362467,-7.103803652840545,0.3778380628911471,0.12469948513321505,-0.9434153020272174,0.024276734663253308,0.006256694576567412,-0.056167974064269544,0.0,70.0,255.0,255.0,255.0
287,14.350000000000001,13.363890435767779,-6.554033916671201,-7.151044721163603,0.37903172676923447,0.12502430903372108,-0.9462147851686531,0.023258066160991575,0.006852604021645448,-0.055703664030648525,0.0,70.0,255.0,255.0,255.0
288,14.4,13.3828711682341,-6.547774169459095,-7.198425131357411,0.38016386950724623,0.1253847455353796,-0.9489856684302822,0.021997896815939555,0.007563786729924971,-0.05510500528025375,0.0,70.0,255.0,255.0,255.0
289,14.450000000000001,13.401906822718503,-6.541495442117663,-7.2459432880066315,0.3812315164508284,0.12578068770671358,-0.9517252856966785,0.02086424297491618,0.008155321407965488,-0.054538332806686185,0.0,70.0,255.0,255.0,255.0
290,14.5,13.420994319879183,-6.535196100688424,-7.293597659927078,0.38225029380473785,0.12620027767617614,-0.9544395017109508,0.020226291960234732,0.008390748186482,-0.05417592095096069,0.0,70.0,255.0,255.0,255.0
291,14.55,13.440131852098977,-6.528875414350045,-7.3413872381777265,0.3832541456468519,0.12661976252536178,-0.9571428777917745,0.0202759338387537,0.008151248823917712,-0.05410830771239716,0.0,70.0,255.0,255.0,255.0
292,14.600000000000001,13.459319734443868,-6.522534124435888,-7.389311947706256,0.3842778871886132,0.1270154025585679,-0.9598503324821905,0.02086635970517392,0.007556325835711419,-0.05426344145176287,0.0,70.0,255.0,255.0,255.0
293,14.65,13.478559640817839,-6.516173874094188,-7.437372271425946,0.3853407816173693,0.12737539510893292,-0.9625692219369508,0.021691321637185013,0.006843394428734939,-0.054494857285014575,0.0,70.0,255.0,255.0,255.0
294,14.700000000000001,13.497853812605605,-6.509796584924994,-7.485568869899951,0.3864470193523317,0.1276997420014414,-0.965299818210692,0.02244647203486494,0.0062485461032046885,-0.05466112128429401,0.0,70.0,255.0,255.0,255.0
295,14.75,13.517204342753072,-6.503403899894044,-7.533902253247015,0.3875854288208558,0.1280002497192534,-0.9680353340653802,0.0228233516910592,0.006009208990409576,-0.05461769527475013,0.0,70.0,255.0,255.0,255.0
296,14.8,13.53661235548769,-6.496996559953069,-7.582372403306489,0.38872935452143764,0.12830066290048237,-0.970761587738167,0.02266018266219305,0.006244883554096248,-0.05429222165860281,0.0,70.0,255.0,255.0,255.0
297,14.850000000000001,13.556077278205215,-6.490573833603996,-7.6309784120208315,0.3898514470870751,0.12862473807466301,-0.9734645562312405,0.022082835344505725,0.006836684710354035,-0.05376527412366272,0.0,70.0,255.0,255.0,255.0
298,14.9,13.575597500196398,-6.484134086145603,-7.679718858929613,0.3909376380558882,0.12898433137151777,-0.9761381151505333,0.021349637147416445,0.007548043480642974,-0.053192861617201714,0.0,70.0,255.0,255.0,255.0
299,14.950000000000001,13.595171042010804,-6.477675400466844,-7.728592223535885,0.39198641080181673,0.1293795424227273,-0.9787838423929607,0.02071024184697734,0.00814392075332293,-0.052723755483974344,0.0,70.0,255.0,255.0,255.0
300,15.0,13.61479614127658,-6.47119613190333,-7.777597243168909,0.39300866224058595,0.12979872344685006,-0.9814104906989307,0.02041223600759423,0.008388453147833985,-0.05249325133025451,0.0,70.0,255.0,255.0,255.0
301,15.05,13.634471908234863,-6.464695528122159,-7.826733272605778,0.39402763440257615,0.1302183877375107,-0.9840331675259861,0.020583195652079667,0.008162643532916292,-0.052569891899434396,0.0,70.0,255.0,255.0,255.0
302,15.100000000000001,13.654198904716838,-6.458174293129579,-7.876000559921508,0.3950669818057939,0.1306149878001417,-0.9866674798888742,0.021116890992267656,0.007582343248291323,-0.05291098652859816,0.0,70.0,255.0,255.0,255.0
303,15.15,13.673978606415442,-6.451634029342145,-7.925400020594665,0.3961393235018029,0.13097662206233984,-0.989324266178846,0.021795537697499867,0.006879023723094235,-0.053417332609928536,0.0,70.0,255.0,255.0,255.0
304,15.200000000000001,13.693812837067018,-6.445076630923345,-7.974932986539392,0.3972465355755439,0.13130289017245111,-0.992009213149867,0.02240598714990938,0.006282344310193366,-0.05398436960160069,0.0,70.0,255.0,255.0,255.0
305,15.25,13.713703259972997,-6.4385037403249,-8.024600941909652,0.39837992221679386,0.13160485649335918,-0.994722703139006,0.02274374157540393,0.006020941121764878,-0.05452128075624785,0.0,70.0,255.0,255.0,255.0
306,15.3,13.733650829288697,-6.431916145274009,-8.074405256853293,0.3995209097330843,0.1319049842846276,-0.9974613412254918,0.02270046130341541,0.0062111157409283635,-0.05496872356269833,0.0,70.0,255.0,255.0,255.0
307,15.350000000000001,13.753655350946305,-6.425313241896437,-8.124347076032201,0.4006499683471354,0.13222596806745202,-1.0002195754952758,0.022335008610951945,0.006748534371858739,-0.055274416125605796,0.0,70.0,255.0,255.0,255.0
308,15.4,13.77371582612341,-6.418693548467264,-8.17442721440282,0.4017544105941795,0.13257983772181348,-1.0029887828380524,0.021782804135739298,0.007421269551777243,-0.055373332418895416,0.0,70.0,255.0,255.0,255.0
309,15.450000000000001,13.793830792005723,-6.412055258124256,-8.224645954316006,0.40282824876070933,0.13296809502262974,-1.0057569087371654,0.02117909626822012,0.008020128578944963,-0.05520599221782163,0.0,70.0,255.0,255.0,255.0
310,15.5,13.813998650999482,-6.405396738965001,-8.275002905276537,0.4038723202210015,0.13338185057970797,-1.0085093820598345,0.020648788368582416,0.00834381966114961,-0.05471766294125047,0.0,70.0,255.0,255.0,255.0
311,15.55,13.834218024027823,-6.398717073066285,-8.32549689252199,0.40489312759756757,0.1338024769887447,-1.0112286750312904,0.020267733026635426,0.00828632007650043,-0.05390038867361113,0.0,70.0,255.0,255.0,255.0
312,15.600000000000001,13.854487963759238,-6.392016491266126,-8.376125772779666,0.40589909352366504,0.13421048258735802,-1.0138994209271956,0.020059438198671842,0.007908927190047876,-0.0528739596921568,0.0,70.0,255.0,255.0,255.0
313,15.65,13.87480793338019,-6.385296024807549,-8.42688683461471,0.40689907141743475,0.1345933697077495,-1.0165160710005061,0.020037721281873644,0.007350490145086042,-0.05184924447458883,0.0,70.0,255.0,255.0,255.0
314,15.700000000000001,13.895177870900982,-6.378557154295351,-8.477777379879717,0.4079028656518524,0.13494553160186662,-1.0190843453746545,0.020217114958320792,0.006750428087620719,-0.0510501230651883,0.0,70.0,255.0,255.0,255.0
315,15.75,13.915598219945375,-6.3718014716473625,-8.528795269152175,0.40892078291326683,0.13526841251651156,-1.021621083307025,0.020617095628061577,0.006239770909033382,-0.05069608612817689,0.0,70.0,255.0,255.0,255.0
316,15.8,13.936069949192309,-6.3650303130437,-8.57993948821042,0.40996457521465857,0.13556950869276996,-1.0241539539874722,0.02122963223083474,0.005896377845626688,-0.05089023456203989,0.0,70.0,255.0,255.0,255.0
317,15.850000000000001,13.95659467746684,-6.3582445207780856,-8.631210664550922,0.4110437461363503,0.13585805030107423,-1.026710106763229,0.021946399433936392,0.005732120505008709,-0.05150256561758937,0.0,70.0,255.0,255.0,255.0
318,15.9,13.977174323805944,-6.351444508013593,-8.682610498886742,0.4121592151580522,0.13614272074327083,-1.0293042105492312,0.022585471574565474,0.005741245391899241,-0.052276030009679175,0.0,70.0,255.0,255.0,255.0
319,15.950000000000001,13.997810598982646,-6.3446302487037585,-8.734141085605845,0.41330229329380685,0.13643217484026415,-1.0319377097641969,0.02296018282503809,0.005917646249287145,-0.05294074162804918,0.0,70.0,255.0,255.0,255.0
320,16.0,14.018504553135324,-6.337801290529566,-8.785804269863162,0.414455233440556,0.13673448536819954,-1.034598284712036,0.02289084776769812,0.006253087379182176,-0.053217992547160975,0.0,70.0,255.0,255.0,255.0
321,16.05,14.039256122326702,-6.3309568001669385,-8.837600914077049,0.41559137807057667,0.13705748357818237,-1.037259509018913,0.02229942569744736,0.006729194182497622,-0.05296589918497574,0.0,70.0,255.0,255.0,255.0
322,16.1,14.060063690942382,-6.324095542171748,-8.889530220765053,0.41668517601030075,0.1374074047864493,-1.0398948746305336,0.021321211153058073,0.007281751629584221,-0.052322118163239395,0.0,70.0,255.0,255.0,255.0
323,16.150000000000002,14.080924639927732,-6.317216059688294,-8.941590401540102,0.4177234991858825,0.1377856587411408,-1.042491720835237,0.0202158236541905,0.007803689126273383,-0.051559456001548654,0.0,70.0,255.0,255.0,255.0
324,16.2,14.10183604086097,-6.310316976297634,-8.993779392848577,0.4187067583757198,0.13818777369907664,-1.0450508202306885,0.01925441481187562,0.008180012555403238,-0.050947283382107855,0.0,70.0,255.0,255.0,255.0
325,16.25,14.122795315765304,-6.303397282318386,-9.046095483563171,0.41964894066707004,0.13860365999668112,-1.0475864491734477,0.018699513301179138,0.008303870250347956,-0.05076387841285168,0.0,70.0,255.0,255.0,255.0
326,16.3,14.143800934927677,-6.296456610297966,-9.098538037765922,0.4205767097058377,0.13901816072411144,-1.0501272080719737,0.01868595169440823,0.008126332604074804,-0.05114602883811159,0.0,70.0,255.0,255.0,255.0
327,16.35,14.164852986735887,-6.289495466245975,-9.151108204370368,0.42151753583651086,0.1394162932570886,-1.0527010520572588,0.019120644065040437,0.007705348501207965,-0.05192355380554403,0.0,70.0,255.0,255.0,255.0
328,16.400000000000002,14.185952688511328,-6.282514980972257,-9.203808142971647,0.42248877411234176,0.13978869557423224,-1.055319563452528,0.019799345696647208,0.00716036173962209,-0.05277155391052446,0.0,70.0,255.0,255.0,255.0
329,16.45,14.207101864147122,-6.2755165966885516,-9.256640160715621,0.4234974704061756,0.1401323294310508,-1.0579782074483113,0.020508871215696445,0.006621790708383202,-0.053370264703112014,0.0,70.0,255.0,255.0,255.0
330,16.5,14.228302435551946,-6.268501748029152,-9.309605963716479,0.4245396612339114,0.14045087464507056,-1.0606565899228393,0.021031099026203037,0.006219450266886639,-0.05339455906874235,0.0,70.0,255.0,255.0,255.0
331,16.55,14.249555830270513,-6.2614715092240445,-9.362705819707905,0.4256005803087959,0.14075427445773947,-1.0633176633551855,0.021244506451623124,0.006024962580664095,-0.052689612501488625,0.0,70.0,255.0,255.0,255.0
332,16.6,14.270862493582825,-6.254426320583378,-9.415937730051997,0.4266641118790737,0.14105337090313697,-1.0659255511729882,0.021200781352348486,0.006013218002554055,-0.05147084610239716,0.0,70.0,255.0,255.0,255.0
333,16.650000000000002,14.29222224145842,-6.247366172133731,-9.469298374825204,0.42772065844403073,0.14135559625799488,-1.0684647479654252,0.021020546473948798,0.00611933943961418,-0.05014798803149034,0.0,70.0,255.0,255.0,255.0
334,16.7,14.313634559427229,-6.240290760957579,-9.52278420484854,0.4287661665264686,0.14166530484709838,-1.0709403499761372,0.020817699393305134,0.0062790250769495515,-0.049131005124181115,0.0,70.0,255.0,255.0,255.0
335,16.75,14.335098858111067,-6.233199641649021,-9.576392409822818,0.42980242838336125,0.14198349876568983,-1.0733778484778433,0.020716043972868192,0.006426347330545923,-0.04883382936835545,0.0,70.0,255.0,255.0,255.0
336,16.8,14.356614802265565,-6.22609241108101,-9.630121989696324,0.4308377709237554,0.14230793958015298,-1.0758237329129727,0.0207820831043648,0.006521043180462982,-0.04945589411580187,0.0,70.0,255.0,255.0,255.0
337,16.85,14.378182635203443,-6.218968847691006,-9.683974783114115,0.4318806366937977,0.14263560308373613,-1.0783234378894235,0.02095529812464747,0.00656271188965718,-0.050743178334577976,0.0,70.0,255.0,255.0,255.0
338,16.900000000000002,14.399802865934944,-6.211828850772636,-9.737954333485266,0.43293330073622016,0.1429642107691187,-1.0808980507464305,0.021120239969896204,0.0065605089398346195,-0.052205538254312955,0.0,70.0,255.0,255.0,255.0
339,16.95,14.421475965277065,-6.204672426614094,-9.792064588188758,0.43399266069078735,0.1432916539777196,-1.0835439917148548,0.021173244963357263,0.0065159085165689135,-0.0533530807668825,0.0,70.0,255.0,255.0,255.0
340,17.0,14.443202132004023,-6.197499685374864,-9.846308732656752,0.4350506252325559,0.14361580162077558,-1.0862333588231188,0.0210087810266657,0.006423132439703494,-0.05370219804916587,0.0,70.0,255.0,255.0,255.0
341,17.05,14.46498102780032,-6.190310846452016,-9.90068792407107,0.4360935387934539,0.14393396722168994,-1.0889142115197714,0.020580074885856448,0.006284151411950489,-0.053013151361014366,0.0,70.0,255.0,255.0,255.0
342,17.1,14.486811485883369,-6.183106288652695,-9.955200153808729,0.43710863272114153,0.14424421676197063,-1.0915346739592202,0.019979797709090974,0.006135934438677992,-0.05152902797131986,0.0,70.0,255.0,255.0,255.0
343,17.150000000000002,14.508691891072434,-6.175886424775819,-10.009841391466992,0.438091518564363,0.14454756066555774,-1.0940671143169034,0.019377561244837693,0.006038624800464021,-0.049738110701724736,0.0,70.0,255.0,255.0,255.0
344,17.2,14.530620637739805,-6.168651532586139,-10.06460686524042,0.4390463888456253,0.14484807924201704,-1.0965084850293927,0.018942094646590135,0.00605062756946495,-0.04812930584172648,0.0,70.0,255.0,255.0,255.0
345,17.25,14.552596529956997,-6.1614016168516175,-10.119492239969931,0.439985728029022,0.14515262342250423,-1.098880044901076,0.01884081327219178,0.006229094938703383,-0.047169313165085214,0.0,70.0,255.0,255.0,255.0
346,17.3,14.574619210542707,-6.154136270243889,-10.174494869730527,0.4409304701728445,0.14547098873588737,-1.1012254163459012,0.01915141688719757,0.006596150705995285,-0.04710464729242858,0.0,70.0,255.0,255.0,255.0
347,17.35,14.596689576974281,-6.146854517978029,-10.229614781604521,0.4419008697177418,0.14581223849310376,-1.103590509630319,0.01976103551299957,0.007091778793633097,-0.04780718996730826,0.0,70.0,255.0,255.0,255.0
348,17.400000000000002,14.618809297514481,-6.1395550463945785,-10.284853920693559,0.44290657372414444,0.14618016661525068,-1.106006135342632,0.020453151414123738,0.0076059242589465725,-0.048975538753026626,0.0,70.0,255.0,255.0,255.0
349,17.45,14.640980234346696,-6.132236501316504,-10.340215395138785,0.44394618485915416,0.14657283091899842,-1.1084880635056216,0.021005602559220904,0.008028807313031905,-0.05030312244045376,0.0,70.0,255.0,255.0,255.0
350,17.5,14.663203916000397,-6.124897763302679,-10.395702727044121,0.4450071339800665,0.14698304734655387,-1.1110364475866774,0.021191975208267877,0.008268506453479318,-0.05150455861446801,0.0,70.0,255.0,255.0,255.0
351,17.55,14.685480947744702,-6.117538196581848,-10.451319039897452,0.44606538237998095,0.14739968156434635,-1.1136385193670684,0.020900970851656098,0.008277446230486873,-0.052403224502484136,0.0,70.0,255.0,255.0,255.0
352,17.6,14.707810454238395,-6.110157795146244,-10.507066578980828,0.44709723106523214,0.14781079196960256,-1.1162767700369258,0.020261468163340624,0.00806142591169845,-0.052930417286845,0.0,70.0,255.0,255.0,255.0
353,17.650000000000002,14.730190670851226,-6.102757117384888,-10.562946716901145,0.448091529196315,0.1482058241555162,-1.1189315610957529,0.019524425173855775,0.007654041799032285,-0.053029011676031246,0.0,70.0,255.0,255.0,255.0
354,17.7,14.752619607158026,-6.095337212730692,-10.618959735090403,0.4490496735826177,0.1485761961495058,-1.121579671204529,0.018942068544092194,0.007100343644061979,-0.05263974285849571,0.0,70.0,255.0,255.0,255.0
355,17.75,14.775095638209487,-6.087899497769937,-10.675104684021598,0.4499857360507242,0.1489158585199224,-1.1241955353816024,0.018775248598501548,0.006436925868591459,-0.05170047102556197,0.0,70.0,255.0,255.0,255.0
356,17.8,14.797618180763099,-6.0804456268787,-10.731379288628563,0.45092719844246787,0.14921988873636494,-1.1267497183070851,0.019151273133033442,0.005699752018717419,-0.05021989059521559,0.0,70.0,255.0,255.0,255.0
357,17.85,14.820188358053734,-6.072977508896301,-10.787779655852306,0.45190086336402757,0.14948583372179414,-1.129217524441124,0.019907683906339457,0.004980652757957671,-0.04843459076795398,0.0,70.0,255.0,255.0,255.0
358,17.900000000000002,14.842808267099501,-6.065497043506521,-10.844301041072676,0.4529179668331018,0.1497179540121607,-1.1315931773838805,0.02073455581523831,0.00442145166736907,-0.04674916046329969,0.0,70.0,255.0,255.0,255.0
359,17.95,14.865480154737044,-6.058005713495085,-10.900938973590694,0.4539743189455514,0.14992797888853104,-1.133892440487454,0.021326263126830725,0.004162079182101763,-0.04558862873640379,0.0,70.0,255.0,255.0,255.0
360,18.0,14.888205698994057,-6.050504245617668,-10.957690285121421,0.4550505931457849,0.15013416193037088,-1.136152040257521,0.02137509566679796,0.004331762100306946,-0.045373557283667765,0.0,70.0,255.0,255.0,255.0
361,18.05,14.910985214051623,-6.042992297302048,-11.014554177616446,0.4561118285122312,0.15036115509856174,-1.1384297962158207,0.020733563654573572,0.004978370869945792,-0.046292038292961024,0.0,70.0,255.0,255.0,255.0
362,18.1,14.93381688184528,-6.0354681301078115,-11.071533264743003,0.45712394951124224,0.15063199901736546,-1.140781244086817,0.01959497569608004,0.005970648371711462,-0.048037793068012036,0.0,70.0,255.0,255.0,255.0
363,18.150000000000002,14.956697609002747,-6.027929097400311,-11.128632302025128,0.4580713260818392,0.15095821993573288,-1.143233575522622,0.018331011239425266,0.007062948734404273,-0.050025255559837944,0.0,70.0,255.0,255.0,255.0
364,18.2,14.979624014453464,-6.020372308114238,-11.185856622295265,0.45895705063518477,0.15133829389080589,-1.1457837696428008,0.01731222627068263,0.007992878088991517,-0.05164742051650961,0.0,70.0,255.0,255.0,255.0
365,18.25,15.002593314066266,-6.012795268011231,-11.243210678989408,0.45980254870890747,0.15175750774463204,-1.148398317574273,0.016900312790824046,0.00850399775780275,-0.05229732781266705,0.0,70.0,255.0,255.0,255.0
366,18.3,15.025604269324354,-6.005196557339775,-11.300696454052693,0.4606470819142672,0.15218869366658616,-1.1510135024240675,0.017274845206927125,0.008466764501235957,-0.0516720960943573,0.0,70.0,255.0,255.0,255.0
367,18.35,15.048658022257692,-5.997576398644572,-11.358312029231815,0.4615300332296002,0.15260418419475563,-1.1535655271837086,0.018262529858326104,0.007984865643173578,-0.05007046073703947,0.0,70.0,255.0,255.0,255.0
368,18.400000000000002,15.071757272647314,-5.989936138920299,-11.416053006771063,0.4624733349000998,0.15298718023090352,-1.1560205484977715,0.019510443517312126,0.007278641507646455,-0.04809359352027087,0.0,70.0,255.0,255.0,255.0
369,18.45,15.094905355747702,-5.982277680621482,-11.473914084081592,0.4634810775813314,0.15333204834552028,-1.1583748865357357,0.020658771185289027,0.006579695175013001,-0.04634812276211875,0.0,70.0,255.0,255.0,255.0
370,18.5,15.118105380405447,-5.974602934085747,-11.531890495424637,0.4645392120186287,0.15364514974840482,-1.1606553607739833,0.02135167181833708,0.006132246867363023,-0.04544104754913292,0.0,70.0,255.0,255.0,255.0
371,18.55,15.141359276949565,-5.966913165646641,-11.58997962015899,0.4656162447631651,0.15394527303225658,-1.162918991290649,0.02140099491239056,0.0060668321984813645,-0.04568549807739686,0.0,70.0,255.0,255.0,255.0
372,18.6,15.164667004881764,-5.959208406782522,-11.648182394553702,0.46667931150986774,0.15425183296825296,-1.165223910581723,0.02092394915997886,0.006285320291610219,-0.046825911772074846,0.0,70.0,255.0,255.0,255.0
373,18.650000000000002,15.188027208100552,-5.951487982349816,-11.706502011217163,0.467708639679163,0.1545738050614176,-1.1676015824678565,0.020177331239956686,0.006588732320622626,-0.04833566173250148,0.0,70.0,255.0,255.0,255.0
374,18.7,15.21143786884968,-5.94375102627638,-11.764942552800488,0.4686970446338634,0.15491070620031522,-1.1700574767549732,0.019419775233586734,0.006787455429346778,-0.049693142045370564,0.0,70.0,255.0,255.0,255.0
375,18.75,15.234896912563938,-5.935996911729784,-11.82350775889266,0.46965061720252166,0.15525255060435228,-1.1725708966723936,0.018920971963964917,0.006679089364336477,-0.05037857523149114,0.0,70.0,255.0,255.0,255.0
376,18.8,15.258402930569932,-5.928225771215945,-11.882199642467727,0.4705891418302599,0.15557861513674887,-1.1750953342781223,0.018826722930320727,0.006166046565514449,-0.05011999085020591,0.0,70.0,255.0,255.0,255.0
377,18.85,15.281955826746964,-5.9204390502161095,-11.941017292320472,0.47153328949555373,0.15586915526090372,-1.1775828957574141,0.01903710473829534,0.005396557153503068,-0.04911764042763167,0.0,70.0,255.0,255.0,255.0
378,18.900000000000002,15.305556259519488,-5.912638855689854,-11.999957932043468,0.47249285230408944,0.15611827085209917,-1.1800070983208855,0.019346478608639472,0.004643725247266417,-0.047791172138467175,0.0,70.0,255.0,255.0,255.0
379,18.95,15.329205111977373,-5.9048272231309,-12.05901800215256,0.4734679373564177,0.15633352778563037,-1.1823620129712609,0.0195612420981206,0.0041703432475337365,-0.04655296872950743,0.0,70.0,255.0,255.0,255.0
380,19.0,15.35290305325513,-5.897005502911291,-12.118194133340594,0.4744489765139015,0.15653530517685255,-1.1846623951938362,0.01947651491818192,0.004239321083421288,-0.04581257693185847,0.0,70.0,255.0,255.0,255.0
381,19.05,15.376650009628763,-5.889173692613214,-12.177484241671944,0.47541558884823587,0.1567574598939725,-1.1869432706644467,0.018992253227345657,0.004969867320170351,-0.04578717255316889,0.0,70.0,255.0,255.0,255.0
382,19.1,15.400444612139953,-5.881329756921894,-12.23688846040704,0.47634820183663606,0.15703229190886958,-1.189241112449153,0.01825033584861302,0.006162204007331695,-0.04633448222808312,0.0,70.0,255.0,255.0,255.0
383,19.150000000000002,15.424284829812427,-5.873470463422327,-12.29640835291686,0.4772406224330972,0.15737368029470566,-1.191576718887255,0.017514050361278066,0.007440935455083064,-0.04714953316593551,0.0,70.0,255.0,255.0,255.0
384,19.200000000000003,15.448168674383263,-5.8655923888924235,-12.356046132295765,0.47809960687276387,0.1577763854543779,-1.1939560657657466,0.017035116514918514,0.008425623795993431,-0.04793461007732702,0.0,70.0,255.0,255.0,255.0
385,19.25,15.472094790499703,-5.85769282487689,-12.415803959493434,0.478944134084589,0.158216242674305,-1.1963701798949877,0.017060893773468422,0.008735654274261151,-0.04839517298229623,0.0,70.0,255.0,255.0,255.0
386,19.3,15.496063087791722,-5.849770764624993,-12.475683150285263,0.4798056962501107,0.158649950881804,-1.1987955830639763,0.017705149940638876,0.00818739790604539,-0.04837197161773332,0.0,70.0,255.0,255.0,255.0
387,19.35,15.520075360124714,-5.841827829788709,-12.535683517799832,0.4807146490786529,0.15903498246490955,-1.201207377056761,0.01879530477868485,0.007004510265851138,-0.04795077098798117,0.0,70.0,255.0,255.0,255.0
388,19.400000000000002,15.544134552699587,-5.833867266378502,-12.59580388799094,0.4816852267279792,0.15935040190838912,-1.2035906601627744,0.020001888710297067,0.005623488643458074,-0.047323515710750996,0.0,70.0,255.0,255.0,255.0
389,19.450000000000003,15.568243882797512,-5.82589278959787,-12.65604258381611,0.4827148379496826,0.15959733132925535,-1.2059397286278362,0.020992744057934942,0.004486508889467444,-0.04667567720861854,0.0,70.0,255.0,255.0,255.0
390,19.5,15.592406036494555,-5.8179075332455765,-12.716397860853723,0.4837845011337727,0.15979905279733586,-1.2082582278836362,0.021451937961280976,0.004038015199991918,-0.046190693842085295,0.0,70.0,255.0,255.0,255.0
391,19.55,15.61662233291089,-5.809912884318137,-12.776868406604473,0.4848600317458107,0.16000113284925455,-1.2105587980120447,0.021220060762416892,0.004500401195173254,-0.04597100158179046,0.0,70.0,255.0,255.0,255.0
392,19.6,15.640892039669136,-5.801907419960651,-12.837453740654928,0.4859065072100144,0.1602490929168532,-1.2128553280418153,0.02041832848487246,0.0056489390775738,-0.04597879745666944,0.0,70.0,255.0,255.0,255.0
393,19.650000000000002,15.665212983631891,-5.793887975026451,-12.898153939408655,0.48690186459429796,0.16056602675701193,-1.2151566777577116,0.019309350509288947,0.0070359258211638576,-0.046120879514610635,0.0,70.0,255.0,255.0,255.0
394,19.700000000000003,15.689582226128566,-5.78585081728495,-12.958969408430699,0.4878374422609433,0.16095268549896957,-1.2174674159932763,0.018166681147491204,0.008215193793770226,-0.04630888155450208,0.0,70.0,255.0,255.0,255.0
395,19.75,15.713996727857985,-5.777792706476554,-13.019900681007982,0.4887185327090471,0.16138754613638895,-1.2197875659131618,0.01725536370695835,0.008744359517720568,-0.046450070298043045,0.0,70.0,255.0,255.0,255.0
396,19.8,15.738454079399471,-5.769712062671311,-13.080948165022015,0.4895629786316391,0.16182712145074163,-1.2221124230230807,0.01672686808156243,0.008397850460273304,-0.04649124816129557,0.0,70.0,255.0,255.0,255.0
397,19.85,15.76295302572115,-5.76160999433148,-13.14211192331029,0.4903912195172033,0.16222733118241628,-1.2244366907292914,0.01656410855233048,0.007370549275709237,-0.04645497158559664,0.0,70.0,255.0,255.0,255.0
398,19.900000000000002,15.787493201351191,-5.753489329553069,-13.203391834094944,0.49121938948687216,0.16256417637831255,-1.2267579201816403,0.016689660301594245,0.006061992220196544,-0.04639119467064745,0.0,70.0,255.0,255.0,255.0
399,19.950000000000003,15.812074964669836,-5.745353576693649,-13.264787715328454,0.49206018554736275,0.16283353040443593,-1.2290758101963561,0.017026218997884257,0.004872576074532731,-0.04634259610796221,0.0,70.0,255.0,255.0,255.0
400,20.0,15.836699219905928,-5.737205976512626,-13.32629941511458,0.4929220113866606,0.16305143398576583,-1.2313921797924365,0.01749061653626427,0.004204500109050713,-0.04635699699271356,0.0,70.0,255.0,255.0,255.0
401,20.05,15.861367165808502,-5.729048433295072,-13.387926933307698,0.4938092472009892,0.163253980415341,-1.2337115098956275,0.018020718659883528,0.004267544283376168,-0.04645729248498043,0.0,70.0,255.0,255.0,255.0
402,20.1,15.886080144626026,-5.720880578471092,-13.449670566104142,0.49472408325264894,0.16347818841410344,-1.2360379090409346,0.01856533054347409,0.004899819531178906,-0.04660131620077834,0.0,70.0,255.0,255.0,255.0
403,20.150000000000002,15.910839574133767,-5.712700614453662,-13.511530724211791,0.4956657802553366,0.1637439623684589,-1.2383716415157053,0.019049397562476145,0.005765988747707951,-0.04671434180494316,0.0,70.0,255.0,255.0,255.0
404,20.200000000000003,15.93564672265156,-5.704506182234246,-13.573507730255713,0.49662902300889655,0.16405478728887424,-1.240709343221429,0.01938326803756496,0.006534128947599527,-0.046727447302252756,0.0,70.0,255.0,255.0,255.0
405,20.25,15.960502476434657,-5.696295135724775,-13.635601658533934,0.4976041070590931,0.16439737526321885,-1.2430443862459306,0.01948613285094325,0.006861695990156846,-0.04657396970202399,0.0,70.0,255.0,255.0,255.0
406,20.3,15.98540713335747,-5.688066444707924,-13.697812168880306,0.4985776362939909,0.16474095688788992,-1.2453667401916313,0.01932303116998213,0.006572625086853634,-0.046225782362085965,0.0,70.0,255.0,255.0,255.0
407,20.35,16.010360240064056,-5.679821040035986,-13.760138332553097,0.4995364101760913,0.1650546377719042,-1.2476669644821392,0.018939044796972837,0.005836512925760928,-0.04574153517289403,0.0,70.0,255.0,255.0,255.0
408,20.400000000000002,16.03536077437508,-5.6715609809307335,-13.82257886532852,0.5004715407736882,0.16532460818046602,-1.2499408937089207,0.018429113085716153,0.00498687330159342,-0.045230505710947,0.0,70.0,255.0,255.0,255.0
409,20.450000000000003,16.060407394141425,-5.663288579217939,-13.88513242192399,0.5013793214846629,0.16555332510206355,-1.252190015053234,0.017900196034403848,0.004344567809511091,-0.04480710186314241,0.0,70.0,255.0,255.0,255.0
410,20.5,16.085498706523545,-5.655005648420527,-13.947797866833843,0.5022615603771285,0.16575906496141712,-1.254421603895235,0.01745287070775703,0.004228622690138906,-0.0445911335225091,0.0,70.0,255.0,255.0,255.0
411,20.55,16.110633550179138,-5.646712672721797,-14.010574582313513,0.5031246085554386,0.16597618737107744,-1.2566491284054848,0.017146643836341013,0.004795615041963686,-0.044639578066352215,0.0,70.0,255.0,255.0,255.0
412,20.6,16.13581116737909,-5.638408029683419,-14.073462779674392,0.5039762247607626,0.1662386264656135,-1.2588855617018702,0.016994853903895546,0.005866949278754419,-0.044869839144645596,0.0,70.0,255.0,255.0,255.0
413,20.650000000000002,16.161031172655214,-5.630088810075236,-14.1364631384837,0.5048240939458282,0.16656288229895289,-1.2611361123199494,0.016998625622477448,0.007092858372192978,-0.04512633931437193,0.0,70.0,255.0,255.0,255.0
414,20.700000000000003,16.18629357677367,-5.621751741453524,-14.199576390906387,0.5056760873230104,0.1669479123028328,-1.2633981956333074,0.017155435006088737,0.008128252495520627,-0.045250858531886706,0.0,70.0,255.0,255.0,255.0
415,20.75,16.211598781387515,-5.613394018844953,-14.26280295804703,0.506539637446437,0.16737570754850495,-1.265661198173138,0.017458374992429526,0.008647869193900704,-0.04506951485510058,0.0,70.0,255.0,255.0,255.0
416,20.8,16.236947540518315,-5.605014170698674,-14.3261425107237,0.5074219248222533,0.16781269922222286,-1.2679051471188174,0.017891419124538288,0.008484541783992938,-0.04450261865862615,0.0,70.0,255.0,255.0,255.0
417,20.85,16.26234097386974,-5.59661274892273,-14.389593472758913,0.5083287793588909,0.16822416172690424,-1.2701114600390007,0.01840070042540276,0.007745573408435291,-0.04370181221062808,0.0,70.0,255.0,255.0,255.0
418,20.900000000000002,16.287780418454204,-5.588191754525983,-14.4531536567276,0.5092619948647936,0.1685872565630664,-1.2722753283398802,0.018895545264996372,0.0066726489205137796,-0.04294143307053133,0.0,70.0,255.0,255.0,255.0
419,20.950000000000003,16.31326717335622,-5.579754023266424,-14.5168210055929,0.5102183338853905,0.16889142661895562,-1.2744056033460538,0.01927908958414548,0.005515196102479081,-0.04248932415098494,0.0,70.0,255.0,255.0,255.0
420,21.0,16.338802251842743,-5.571302611864088,-14.580594217062206,0.5111899038232082,0.1691387761733143,-1.2765242607549787,0.01946961999728103,0.0045039098594656934,-0.042618732463495235,0.0,70.0,255.0,255.0,255.0
421,21.05,16.36438616373854,-5.562840145649092,-14.644473431668398,0.5121652958851186,0.1693418176049022,-1.2786674765924033,0.01942716684411039,0.0037784788937678115,-0.04345083307804032,0.0,70.0,255.0,255.0,255.0
422,21.1,16.390018781431255,-5.554368430103597,-14.708460964721446,0.5131326205076192,0.16951662406269108,-1.2808693440627827,0.019166819919647082,0.0033834843591762365,-0.04475666492744779,0.0,70.0,255.0,255.0,255.0
423,21.150000000000002,16.415699425789303,-5.545888483242823,-14.772560366074677,0.5140819778770833,0.1696801660408198,-1.283143143085148,0.01873555695439677,0.0033454969939228363,-0.04611249717036969,0.0,70.0,255.0,255.0,255.0
424,21.200000000000003,16.441426979218964,-5.537400413499515,-14.836775279029961,0.5150061762030589,0.16985117376208336,-1.2854805937798197,0.018194407122251732,0.0036899374542542773,-0.04709301036474045,0.0,70.0,255.0,255.0,255.0
425,21.25,16.46720004340961,-5.528903365866615,-14.901108425452659,0.5159014185893085,0.17004915978624524,-1.2878524441216221,0.017603191637149962,0.00444847272094151,-0.04727961123354163,0.0,70.0,255.0,255.0,255.0
426,21.3,16.493017121077894,-5.520395497520891,-14.965560523442123,0.5167664953667739,0.1702960210341775,-1.2902085549031739,0.01700560114628047,0.005603593922653971,-0.04647316324799533,0.0,70.0,255.0,255.0,255.0
427,21.35,16.518876692946286,-5.511873763763197,-15.030129280942976,0.5176019787039365,0.17060951917851064,-1.2924997604464217,0.01645015509588177,0.006958810832724538,-0.04492318309168297,0.0,70.0,255.0,255.0,255.0
428,21.400000000000002,16.544777318948288,-5.50333454560304,-15.094810499486766,0.5184115108763621,0.17099190211744997,-1.2947008732123422,0.016005770039484446,0.008183684782192557,-0.04311860155929992,0.0,70.0,255.0,255.0,255.0
429,21.450000000000003,16.570717844033922,-5.494774573551452,-15.15959936826421,0.519202555707885,0.1714278876567299,-1.2968116206023517,0.01574225628431236,0.008933818649747849,-0.04155746888727663,0.0,70.0,255.0,255.0,255.0
430,21.5,16.596697574519077,-5.486191756837367,-15.224491661547,0.5199857365047933,0.17188528398242475,-1.2988566201010698,0.015717613455379364,0.008866208580382562,-0.04072678530615548,0.0,70.0,255.0,255.0,255.0
431,21.55,16.6227164176844,-5.47758604515321,-15.289485030274317,0.5207743170534229,0.17231450851476815,-1.3008842991329672,0.015951454213691818,0.007832320240908075,-0.040876374071707744,0.0,70.0,255.0,255.0,255.0
432,21.6,16.64877500622442,-5.46896030598589,-15.354580091460297,0.5215808819261625,0.17266851600651556,-1.3029442575082406,0.016389016572304627,0.006111994921287334,-0.04181708289134889,0.0,70.0,255.0,255.0,255.0
433,21.650000000000002,16.674874505877018,-5.460319193552558,-15.419779456025141,0.5224132187106534,0.17292570800689688,-1.305066007422102,0.01692322768818144,0.004231558748912789,-0.043146616406275484,0.0,70.0,255.0,255.0,255.0
434,21.700000000000003,16.701016328095484,-5.4516677351852,-15.485086692202508,0.5232732046949806,0.17309167188140684,-1.3072589191488682,0.017430880096114265,0.0027331096248417452,-0.044457253946461606,0.0,70.0,255.0,255.0,255.0
435,21.75,16.727201826346516,-5.443010026364417,-15.550505347940028,0.5241563067202648,0.17319901896938106,-1.3095117328167483,0.017786307921952016,0.002150655661026235,-0.04534928483721501,0.0,70.0,255.0,255.0,255.0
436,21.8,16.75343195876751,-5.434347833288262,-15.616037865484182,0.5250518354871758,0.17330673744750946,-1.3117938476325897,0.01792238153193182,0.002747498073851773,-0.04560250596767901,0.0,70.0,255.0,255.0,255.0
437,21.85,16.779707009895233,-5.4256793526196665,-15.681684732703287,0.525948544873458,0.17347376877676624,-1.3140719834135162,0.017877414978073602,0.004257918107342107,-0.045298462032228315,0.0,70.0,255.0,255.0,255.0
438,21.900000000000002,16.806026813254856,-5.417000456410586,-15.747445063825534,0.5268395769849832,0.17373252925824367,-1.3163236938358125,0.01773684368480133,0.006144532436813677,-0.04464327780215882,0.0,70.0,255.0,255.0,255.0
439,21.950000000000003,16.83239096759373,-5.408306099693842,-15.813317102086868,0.5277222292419381,0.1740882220204476,-1.318536311193732,0.017588022866377173,0.007861108818296714,-0.043841114394638225,0.0,70.0,255.0,255.0,255.0
440,22.0,16.85879903617905,-5.399591634208541,-15.879298694944907,0.5285983792716209,0.17451864014007334,-1.3207078052752763,0.017529136208338514,0.008875224719240293,-0.04310404737459805,0.0,70.0,255.0,255.0,255.0
441,22.05,16.885250805520894,-5.390854235679835,-15.945387882614396,0.529475142862772,0.17497574449237163,-1.3228467159311919,0.017611793548866217,0.008905053430474652,-0.04255863702393725,0.0,70.0,255.0,255.0,255.0
442,22.1,16.911746550465327,-5.382094059759304,-16.011583366538026,0.5303595586265075,0.1754091454831208,-1.32496366897767,0.017780391112154348,0.008110784863823994,-0.04218627177436929,0.0,70.0,255.0,255.0,255.0
443,22.150000000000002,16.938286761383544,-5.373313321131523,-16.077884249512163,0.5312531819739874,0.17578682297875403,-1.3270653431086288,0.017931169136886638,0.0068550201285155765,-0.04192558706908045,0.0,70.0,255.0,255.0,255.0
444,22.200000000000003,16.964871868662726,-5.364515377461428,-16.14428990084889,0.5321526755401962,0.17609464749597237,-1.329156227684578,0.017969942193829525,0.005502828062997622,-0.041730176588572476,0.0,70.0,255.0,255.0,255.0
445,22.25,16.991502028937564,-5.3557038563819255,-16.21079987228062,0.5330501761933704,0.1763371057850538,-1.331238360767486,0.017801203188128056,0.004412408166842852,-0.04153858160904633,0.0,70.0,255.0,255.0,255.0
446,22.3,17.018176886282063,-5.346881666882923,-16.277413736925638,0.533932795859009,0.17653588831265665,-1.3333100858454827,0.01738335802379254,0.003790609882337037,-0.04131688533099975,0.0,70.0,255.0,255.0,255.0
447,22.35,17.044895308523465,-5.33805026755066,-16.34413088086517,0.5347885119957496,0.1767161667732875,-1.335370049300586,0.01680279213225333,0.0036107373086124994,-0.041114679305920276,0.0,70.0,255.0,255.0,255.0
448,22.400000000000002,17.07165573748164,-5.329210050205594,-16.410950741855697,0.5356130750722343,0.1768969620435179,-1.3374215537760747,0.016217547366537133,0.003766109659508743,-0.041015306322478295,0.0,70.0,255.0,255.0,255.0
449,22.450000000000003,17.09845661603069,-5.320360571346308,-16.477873036242777,0.5364102667324033,0.17709277773923837,-1.3394715799328338,0.015784982254629654,0.004159467041731091,-0.04108526550261615,0.0,70.0,255.0,255.0,255.0
450,22.5,17.12529676415488,-5.31150077243167,-16.54489789984898,0.5371915732976973,0.177312908747691,-1.3415300803263364,0.01565803239280683,0.0046911799099547125,-0.041393560919544825,0.0,70.0,255.0,255.0,255.0
451,22.55,17.152175773360458,-5.302629280471539,-16.61202604427541,0.537976069971684,0.17756189573023384,-1.3436109360247883,0.01590857388791278,0.005287472075643507,-0.041961420715352915,0.0,70.0,255.0,255.0,255.0
452,22.6,17.179094371152047,-5.293744582858647,-16.67925899345146,0.5387824306864886,0.17784165595525536,-1.3457262223978717,0.01644396483264643,0.005886359141182851,-0.0426741718410284,0.0,70.0,255.0,255.0,255.0
453,22.650000000000002,17.206054016429107,-5.284845114876013,-16.746598666515197,0.5396204664549487,0.17815053164435213,-1.3478783532088912,0.01708227776049398,0.006397930510004812,-0.043332348485236594,0.0,70.0,255.0,255.0,255.0
454,22.700000000000003,17.233056417797542,-5.275929529694212,-16.814046828772348,0.540490658462538,0.17848144900625584,-1.3500594572463953,0.017637354897104274,0.006714128944906861,-0.04373650033251408,0.0,70.0,255.0,255.0,255.0
455,22.75,17.26010308227536,-5.266996969975388,-16.881604612239837,0.5413842019446591,0.17882194453884281,-1.3522520032421426,0.017930676566280113,0.006726834897552436,-0.043695193355119955,0.0,70.0,255.0,255.0,255.0
456,22.8,17.287194837992008,-5.258047335240327,-16.949272029096562,0.542283726119166,0.1791541324960111,-1.3544289765819073,0.01786905970888597,0.0063922757084888815,-0.043123119447940894,0.0,70.0,255.0,255.0,255.0
457,22.85,17.314331454887277,-5.249081556725787,-17.017047509898028,0.5431711079155477,0.1794611721096917,-1.3565643151869367,0.017506756461571626,0.005808301650844783,-0.04215488041978688,0.0,70.0,255.0,255.0,255.0
458,22.900000000000002,17.341511948783563,-5.240101218029358,-17.084928460615256,0.5440344017653231,0.17973496266109557,-1.358644464623886,0.016967933668254886,0.00515853193627791,-0.041050730976266436,0.0,70.0,255.0,255.0,255.0
459,22.950000000000003,17.36873489506381,-5.231108060459677,-17.152911956360416,0.5448679012823732,0.1799770253033195,-1.3606693882845633,0.01637888487024952,0.004636791071543911,-0.0400809942398439,0.0,70.0,255.0,255.0,255.0
460,23.0,17.3959987389118,-5.222103515499026,-17.220995399443712,0.5456722902523481,0.18019864176824996,-1.3626525640478704,0.01585525201548421,0.004437471176022001,-0.03950566565613656,0.0,70.0,255.0,255.0,255.0
461,23.05,17.423302124089044,-5.213088196282852,-17.289177212765203,0.5464534264839216,0.1804207724209217,-1.364619954850177,0.015467961169335354,0.004656711803896485,-0.03945938820457684,0.0,70.0,255.0,255.0,255.0
462,23.1,17.450644081560192,-5.204061438256934,-17.35745739492873,0.5472190863692816,0.1806643129486396,-1.366598502868328,0.015245372960137615,0.005195026329740671,-0.03985819459515483,0.0,70.0,255.0,255.0,255.0
463,23.150000000000002,17.478024032725973,-5.195021764987988,-17.425837063052036,0.5479779637799354,0.18094027505389576,-1.3686057743096924,0.015210463092074633,0.0058533496706481,-0.040512839498774156,0.0,70.0,255.0,255.0,255.0
464,23.200000000000003,17.505441877938186,-5.1859674107515445,-17.4943179723597,0.5487401326784891,0.18124964791570441,-1.3706497868182055,0.01538659280022614,0.0064321333429262495,-0.04122623599478459,0.0,70.0,255.0,255.0,255.0
465,23.25,17.53289804599382,-5.176896800196418,-17.562902041733857,0.549516623059958,0.18158348838818839,-1.372728397909171,0.015804306045552607,0.00673931769421543,-0.04180214401969806,0.0,70.0,255.0,255.0,255.0
466,23.3,17.56039354024418,-5.167809061912726,-17.631590812150616,0.5503205632830444,0.18192357968512596,-1.3748300012201753,0.016460121254624482,0.00667430364922339,-0.042127066659602974,0.0,70.0,255.0,255.0,255.0
467,23.35,17.587930102322126,-5.158704442227905,-17.700385041855874,0.5511626351854204,0.18225091875311072,-1.3769411045751312,0.01723091254000053,0.006297000954980092,-0.04221690996395466,0.0,70.0,255.0,255.0,255.0
468,23.400000000000002,17.615509803762723,-5.149583970037415,-17.76928492260813,0.5520436545370444,0.18255327978062397,-1.3790516922165708,0.017909374803792844,0.005742661455521159,-0.04213166394322343,0.0,70.0,255.0,255.0,255.0
469,23.450000000000003,17.64313446777583,-5.140449114249843,-17.83829021107753,0.5529535726657997,0.18282518489866284,-1.3811542709694535,0.01828248285384859,0.005147962271045969,-0.041928374137256696,0.0,70.0,255.0,255.0,255.0
470,23.5,17.670805161029303,-5.131301451547548,-17.907400349705075,0.5538719028224293,0.18306807600772856,-1.3832445296302964,0.018135542447339503,0.004641248723391556,-0.041677739616474696,0.0,70.0,255.0,255.0,255.0
471,23.55,17.698521658058073,-5.12214230664907,-17.97661466404056,0.5547671269105336,0.183289309771002,-1.385322044931101,0.017377241458049753,0.004298847490780133,-0.04142460622631461,0.0,70.0,255.0,255.0,255.0
472,23.6,17.726281873720357,-5.112972520570448,-18.045932554198185,0.5556096269682342,0.18349796075680658,-1.3873869902529279,0.0161972239681063,0.0041333334860560456,-0.041155004710446974,0.0,70.0,255.0,255.0,255.0
473,23.650000000000002,17.754082620754897,-5.103792510573389,-18.115353363065854,0.5563868493073443,0.1837026431196076,-1.3894375454021457,0.014947468929804586,0.004140480032699401,-0.04084134389295002,0.0,70.0,255.0,255.0,255.0
474,23.700000000000003,17.78192055865109,-5.094602256258487,-18.1848763087384,0.5571043738612147,0.18391200876007652,-1.391471124642223,0.013989023570459835,0.004315504753460431,-0.04047266838966834,0.0,70.0,255.0,255.0,255.0
475,23.75,17.809793058141018,-5.085401309697382,-18.254500475530076,0.5577857516643903,0.18413419359495364,-1.3934848122411125,0.013681496190898201,0.004651678088052336,-0.04003496277888985,0.0,70.0,255.0,255.0,255.0
476,23.8,17.83769913381753,-5.076188836898992,-18.32422478996251,0.5584725234803045,0.18437717656888175,-1.3954746209201119,0.014197999159293317,0.005131332027286106,-0.03952742218622518,0.0,70.0,255.0,255.0,255.0
477,23.85,17.86564031048905,-5.066963592040493,-18.394047937622087,0.5592055515803196,0.18464732679768225,-1.397437554459735,0.01533030813831715,0.005688825939564879,-0.039002138796462305,0.0,70.0,255.0,255.0,255.0
478,23.900000000000002,17.893619688975562,-5.057724104219224,-18.463968545408484,0.5600055542941362,0.18494605916283824,-1.399374834799758,0.016669793765800023,0.006214579253960295,-0.03854473204825126,0.0,70.0,255.0,255.0,255.0
479,23.950000000000003,17.921640865918462,-5.04846898612421,-18.533985421102063,0.5608725309568996,0.18526878472307828,-1.4012920276645602,0.017802075545603202,0.006591044356873965,-0.038233726196068574,0.0,70.0,255.0,255.0,255.0
480,24.0,17.949706942071252,-5.039197225746916,-18.60409774817494,0.5617857618486966,0.18560516359852564,-1.403198207419365,0.01831851940892193,0.00670802960023309,-0.038130381294720905,0.0,70.0,255.0,255.0,255.0
481,24.05,17.977819442103332,-5.029908469764357,-18.674305241844,0.5627043828977918,0.1859395876831016,-1.4051050657940323,0.018010901765208587,0.006515311578247918,-0.03826001737898821,0.0,70.0,255.0,255.0,255.0
482,24.1,18.00597738036103,-5.020603266978606,-18.744608254754343,0.5635868520252174,0.18625669475635043,-1.4070242091572638,0.017052359331160005,0.006075838279073764,-0.038592896980915725,0.0,70.0,255.0,255.0,255.0
483,24.150000000000002,18.034178127305854,-5.011282800288722,-18.815007662759726,0.5644096188309078,0.18654717151100897,-1.4089643554921238,0.015802540155362976,0.00551756658895286,-0.03906159272020204,0.0,70.0,255.0,255.0,255.0
484,24.200000000000003,18.062418342244122,-5.001948549827505,-18.885504690303556,0.5651671060407537,0.1868084514152457,-1.410930368429284,0.014622534384400865,0.004979804999649673,-0.039586739179853225,0.0,70.0,255.0,255.0,255.0
485,24.25,18.09069483790993,-4.992601955147197,-18.956100699602654,0.5658718722693479,0.18704515201097394,-1.4129230294101092,0.013864379553041317,0.004604222158732796,-0.040103465421026385,0.0,70.0,255.0,255.0,255.0
486,24.3,18.119005529471057,-4.9832440346264075,-19.026796993244567,0.5665535439960578,0.187268873631119,-1.4149407149713866,0.013717741101260117,0.004466908838551831,-0.04056630783146886,0.0,70.0,255.0,255.0,255.0
487,24.35,18.147350192309535,-4.9738750677840855,-19.097594771099793,0.5672436463794739,0.18749184289482912,-1.416979660193256,0.014091210250199993,0.004524184579857149,-0.04090990964158436,0.0,70.0,255.0,255.0,255.0
488,24.400000000000002,18.175729894109004,-4.964494850336925,-19.168494959263892,0.5679626650210778,0.1877212920891047,-1.419031705935545,0.014769929063263021,0.0046796299155715815,-0.0410444215464878,0.0,70.0,255.0,255.0,255.0
489,24.450000000000003,18.204146458811643,-4.955102938575175,-19.239497941693347,0.5687206392858002,0.18795980588638628,-1.4210841023479048,0.015540700667315832,0.004835936111735606,-0.040886543194673663,0.0,70.0,255.0,255.0,255.0
490,24.5,18.232601958037584,-4.945698869748286,-19.310603369498683,0.5695167350878094,0.18820488570027827,-1.4231203602550124,0.016195990349388012,0.0048831004125560185,-0.040351794319093415,0.0,70.0,255.0,255.0,255.0
491,24.55,18.261098132320424,-4.936282450005147,-19.38180997771885,0.570340238320739,0.18844811592764188,-1.4251192817798142,0.016612586044928435,0.004764279174285235,-0.0394199261204875,0.0,70.0,255.0,255.0,255.0
492,24.6,18.289635981869658,-4.926854058155522,-19.453115297676664,0.5711779936923023,0.1886813136177068,-1.4270623528670612,0.016787368432247263,0.0045483558021253145,-0.038250075171930575,0.0,70.0,255.0,255.0,255.0
493,24.650000000000002,18.318215931689654,-4.9174143186433765,-19.524516213005555,0.5720189751639637,0.1889029515078544,-1.4289442892970072,0.016751496507794172,0.004362142187464002,-0.03712062785226067,0.0,70.0,255.0,255.0,255.0
494,24.700000000000003,18.346837879386054,-4.907963763004736,-19.596009726606365,0.5728531433430817,0.1891175278364532,-1.4307744156522872,0.01652897530384223,0.004323536800665551,-0.03631883629537924,0.0,70.0,255.0,255.0,255.0
495,24.75,18.375501246023962,-4.898502565859731,-19.667593654570783,0.5736718726943479,0.18933530518792097,-1.4325761729265452,0.016143640396393266,0.0045593202467664184,-0.03612534797774458,0.0,70.0,255.0,255.0,255.0
496,24.8,18.40420506665549,-4.889030232485944,-19.73926734389902,0.574467507382721,0.18957345986112983,-1.4343869504500617,0.015624175787110062,0.005123060711298422,-0.03666830003972166,0.0,70.0,255.0,255.0,255.0
497,24.85,18.432947996762234,-4.879545219873618,-19.81103234961579,0.575234290273059,0.1898476112590508,-1.4362430029305173,0.015040155184564696,0.005880620649723056,-0.03776083862305768,0.0,70.0,255.0,255.0,255.0
498,24.900000000000002,18.461728495682795,-4.870045471360039,-19.88289164419207,0.5759715229011775,0.19016152192610214,-1.4381630343123675,0.014504924068958758,0.006592733735732992,-0.03904033977448762,0.0,70.0,255.0,255.0,255.0
499,24.950000000000003,18.490545149052352,-4.860529067681008,-19.954848653047026,0.5766847826799548,0.1905068846326241,-1.440147036907966,0.014142372477365939,0.007023856079069191,-0.04013256383892383,0.0,70.0,255.0,255.0,255.0
500,25.0,18.51939697395079,-4.850994782896777,-20.026906347882868,0.5773857601489141,0.19086390753400906,-1.4421762906962599,0.014073457386132304,0.00693966522051781,-0.04067483241492198,0.0,70.0,255.0,255.0,255.0
501,25.05,18.548283725067243,-4.841442676927607,-20.099066282116652,0.578092128418568,0.1912008511546759,-1.4442145201494583,0.014351223626363208,0.006235878913596338,-0.04048030029295546,0.0,70.0,255.0,255.0,255.0
502,25.1,18.577206186792647,-4.831874697781309,-20.171327799897814,0.5788208825115504,0.1914874954253687,-1.4462243207255554,0.014887535307295252,0.005095408684852032,-0.0396773861869093,0.0,70.0,255.0,255.0,255.0
503,25.150000000000002,18.6061658133184,-4.82229392738507,-20.243688714189208,0.5795808819492976,0.1917103920231611,-1.4481822587681492,0.015512443580334434,0.0038623541050775145,-0.038547197199179095,0.0,70.0,255.0,255.0,255.0
504,25.200000000000003,18.635164274987577,-4.812703658578993,-20.31614602577463,0.5803721268695838,0.19187373083587644,-1.4500790404454733,0.016048760895515102,0.0028865866683602803,-0.037377481779188315,0.0,70.0,255.0,255.0,255.0
505,25.25,18.664203026005357,-4.803106554301483,-20.388696618233755,0.5811857580388491,0.19199905068999712,-1.451920006946068,0.016326539380884242,0.002509990898946768,-0.036447303714481905,0.0,70.0,255.0,255.0,255.0
506,25.3,18.693282850791462,-4.793503753509993,-20.461338026469235,0.5820047808076723,0.19212472992577112,-1.4537237708169215,0.016257642992556498,0.002900509881698099,-0.035916046569184346,0.0,70.0,255.0,255.0,255.0
507,25.35,18.722403504086124,-4.7838940813089055,-20.534068995315447,0.5828115223381047,0.19228910167816693,-1.4555116116029865,0.015895111512875815,0.003887861160567496,-0.035762343900458404,0.0,70.0,255.0,255.0,255.0
508,25.400000000000002,18.751564003025273,-4.774274843342177,-20.606889187629534,0.5835942919589598,0.19251351604182787,-1.4573000052069673,0.015359893684774306,0.005126894133233861,-0.03589982247866885,0.0,70.0,255.0,255.0,255.0
509,25.450000000000003,18.78076293328202,-4.764642729704723,-20.679798995836144,0.5843475117065822,0.19280179109149032,-1.4591015938508534,0.014775870653949141,0.006263736641631823,-0.036243196695551205,0.0,70.0,255.0,255.0,255.0
510,25.5,18.80999875419593,-4.754994664233028,-20.75279934701462,0.5850718790243548,0.19313988970599105,-1.4609243248765225,0.014256375763466167,0.006948389831595847,-0.036699962051756074,0.0,70.0,255.0,255.0,255.0
511,25.55,18.839270121184455,-4.745328740734124,-20.825891428323796,0.5857731492829288,0.1934966300746499,-1.462771590056029,0.013870978297703118,0.006996020953753401,-0.03720376517364343,0.0,70.0,255.0,255.0,255.0
512,25.6,18.868576069124224,-4.735645001225563,-20.899076506020222,0.5864589768541251,0.1938394918013664,-1.4646447013938868,0.013648382280706528,0.0065221909616219875,-0.037713331451527665,0.0,70.0,255.0,255.0,255.0
513,25.650000000000002,18.897916018869868,-4.725944791553987,-20.972355898463185,0.5871379875109994,0.1941488491708121,-1.4665429232011817,0.013612457202683004,0.005780185911952174,-0.03817090216244878,0.0,70.0,255.0,255.0,255.0
514,25.700000000000003,18.927289867875324,-4.716230116308481,-21.04573079834034,0.5878202225743934,0.1944175103925616,-1.4684617916101317,0.013787243665674964,0.005025553012583117,-0.0385045566154929,0.0,70.0,255.0,255.0,255.0
515,25.75,18.956698041127307,-4.706503040514731,-21.119202077624198,0.5885167118775669,0.1946514044720704,-1.470393378862731,0.014203948241231501,0.00452442180289836,-0.038656810785653306,0.0,70.0,255.0,255.0,255.0
516,25.8,18.98614153906308,-4.696764975861274,-21.192770136226613,0.5892406173985165,0.19486995257285145,-1.472327472688697,0.014859469462180641,0.004420954088679707,-0.038601666628679254,0.0,70.0,255.0,255.0,255.0
517,25.85,19.01562210286716,-4.687016045257446,-21.266434824893068,0.590002658823785,0.19509349988093838,-1.474253545525599,0.015630520207210452,0.004618806228151584,-0.038348805815857645,0.0,70.0,255.0,255.0,255.0
518,25.900000000000002,19.04514180494546,-4.6772556258731806,-21.340195490779173,0.5908036694192376,0.1953318331956666,-1.4761623532702828,0.016309438339590088,0.0049186093051822866,-0.037932932504602945,0.0,70.0,255.0,255.0,255.0
519,25.950000000000003,19.074702469809083,-4.667482861937879,-21.414051060220096,0.591633602657744,0.1955853608114566,-1.4780468387760592,0.016682893607367077,0.00513316552748222,-0.03740477730964642,0.0,70.0,255.0,255.0,255.0
520,26.0,19.104305165211233,-4.657697089792035,-21.48800017465678,0.5924719587799743,0.19584514974841483,-1.4799028310012474,0.016535849919918633,0.005065997548925338,-0.03681284142764696,0.0,70.0,255.0,255.0,255.0
521,26.05,19.13394966568708,-4.6478983469630375,-21.56204134332022,0.5932871876497359,0.19609196056634914,-1.481728122918824,0.015776831500602384,0.004620302550861766,-0.03619525595830453,0.0,70.0,255.0,255.0,255.0
522,26.1,19.163633883976207,-4.6380878937354,-21.63617298694866,0.5940496419300345,0.196307180003501,-1.4835223565970779,0.014595783978066379,0.003925288088524326,-0.03560958048325347,0.0,70.0,255.0,255.0,255.0
523,26.150000000000002,19.193354629880083,-4.628267628962687,-21.71039357897993,0.5947467660475425,0.19648448937520158,-1.4852890809671493,0.01334522067217847,0.0032226729054229963,-0.035140910940612,0.0,70.0,255.0,255.0,255.0
524,26.200000000000003,19.22310856058096,-4.61843944479788,-21.784701895045377,0.5953841639972524,0.1966294472940433,-1.487036447691139,0.012386729691016285,0.0027416450170569817,-0.03487530850385667,0.0,70.0,255.0,255.0,255.0
525,26.25,19.25289304627981,-4.608604684233283,-21.859097223749043,0.5959854390166441,0.19675865387690727,-1.488776611817535,0.012080624109955806,0.0026995134091656325,-0.03489182350442377,0.0,70.0,255.0,255.0,255.0
526,26.3,19.282707104482625,-4.598763579410189,-21.93357955622713,0.5965922264082479,0.19689939863495987,-1.4905256300415815,0.01260029077911895,0.0031987214892836846,-0.03521833518007611,0.0,70.0,255.0,255.0,255.0
527,26.35,19.312552268920633,-4.588914744369787,-22.0081497867532,0.597245468094556,0.19707852602583564,-1.4922984453355426,0.013736460428148689,0.004113794331583875,-0.03576932912885411,0.0,70.0,255.0,255.0,255.0
528,26.400000000000002,19.34243165129208,-4.5790557268076055,-22.082809400760684,0.5979658724510628,0.19731077806811825,-1.4941025629544669,0.015078723262362814,0.005195267837354578,-0.03638528853535661,0.0,70.0,255.0,255.0,255.0
529,26.450000000000003,19.37234885616574,-4.569183666562975,-22.157560043048647,0.5987533404207923,0.1975980528095711,-1.4959369741890782,0.016210840312425034,0.006187993331518982,-0.03689501431445308,0.0,70.0,255.0,255.0,255.0
530,26.5,19.40230698533416,-4.559295921526648,-22.232403098179592,0.5995869564823053,0.19792957740127015,-1.4977920643859122,0.016721700262678496,0.006855948814799007,-0.037131845904880834,0.0,70.0,255.0,255.0,255.0
531,26.55,19.43230755181397,-4.549390708822848,-22.30733924948724,0.6004255104470602,0.198283647691051,-1.4996501587795663,0.016402145239169386,0.007071524779522775,-0.037011403321685066,0.0,70.0,255.0,255.0,255.0
532,26.6,19.462349536378866,-4.539467556757543,-22.38236811405755,0.6012271710062222,0.19863672987922243,-1.5014932047180807,0.015429190158400274,0.006867646472485944,-0.03659851092727706,0.0,70.0,255.0,255.0,255.0
533,26.650000000000002,19.492430268914593,-4.529527035834926,-22.457488569959047,0.6019684294629002,0.1989704123382996,-1.503310009872294,0.0141690704310804,0.006348143856094168,-0.036032526994844716,0.0,70.0,255.0,255.0,255.0
534,26.700000000000003,19.522546379325156,-4.519570515523713,-22.532699115044778,0.6026440780493303,0.19927154426483185,-1.5050964574175651,0.012989769198767931,0.005626381657197754,-0.03545792095138722,0.0,70.0,255.0,255.0,255.0
535,26.75,19.552694676719526,-4.509599881408443,-22.607998215700803,0.603267406382777,0.19953305050401937,-1.5068558019674327,0.012252528220102477,0.004808719304083553,-0.03501678354886906,0.0,70.0,255.0,255.0,255.0
536,26.8,19.582873119963434,-4.499617210473311,-22.68338469524152,0.6038693308713405,0.1997524161952402,-1.508598135772452,0.01215047558424942,0.003973640931498323,-0.034788825429288295,0.0,70.0,255.0,255.0,255.0
537,26.85,19.61308160980666,-4.489624639788919,-22.75885802927805,0.6044824539412019,0.1999304145971692,-1.5103346845103616,0.012577734646512795,0.0032128225758931706,-0.03475299079980232,0.0,70.0,255.0,255.0,255.0
538,26.900000000000002,19.643321365357554,-4.4796241690135945,-22.834418163692558,0.6051271043359918,0.20007369845282952,-1.5120734348524323,0.013294878464265025,0.0026574714227400875,-0.034849079007770456,0.0,70.0,255.0,255.0,255.0
539,26.950000000000003,19.67359432024026,-4.469617269943636,-22.91006537276329,0.6058119417876284,0.2001961617394432,-1.5138195924111386,0.01406299664488131,0.0024449415781724326,-0.03501950234650053,0.0,70.0,255.0,255.0,255.0
540,27.0,19.703902559536317,-4.45960455283965,-22.98580012293367,0.60653340400048,0.20031819261064676,-1.5155753850870823,0.014640214827821296,0.0027091739696061268,-0.03520903854621338,0.0,70.0,255.0,255.0,255.0
541,27.05,19.734247660640307,-4.449585450682571,-23.061622911272,0.6072759632704106,0.20046707913640383,-1.51734049626576,0.014890404638379096,0.0034954499554373797,-0.0353805210693281,0.0,70.0,255.0,255.0,255.0
542,27.1,19.764630155863358,-4.43955784492601,-23.137534172560247,0.6080224444643179,0.2006677376061905,-1.5191134371940151,0.014864440020900815,0.004635748538817097,-0.03551045827521193,0.0,70.0,255.0,255.0,255.0
543,27.150000000000002,19.79504990508674,-4.429518676921952,-23.2135342549914,0.6087624072725006,0.20093065399028553,-1.5208915420932811,0.014685168628858492,0.005824767656026353,-0.03556938541180443,0.0,70.0,255.0,255.0,255.0
