idx,t,px,py,pz,vx,vy,vz,ax,ay,az,yaw,mode,ledr,ledg,ledb
0,0.0,-1.5000000000000004,-4.500000000000003,2.6151940385618948e-19,0.0004119366643751121,-0.00043059027909464476,0.0005792927627253102,-0.008079577762520884,0.006337268527367712,-0.02866195175150206,0.0,70.0,255.0,255.0,255.0
1,0.05,-1.4999794031667817,-4.500021529513957,2.8964638136265773e-05,7.957776249067905e-06,-0.00011372685272625915,-0.000853804824849793,-0.012109419423467216,0.009413744225117426,-0.04311018365831533,0.0,70.0,255.0,255.0,255.0
2,0.1,-1.4999992042223755,-4.500011372685275,-8.538048248497904e-05,-0.0007990052779716095,0.0005107841434170979,-0.0037317256031062234,-0.016119366643785327,0.012305902790998857,-0.057792927627253084,0.0,70.0,255.0,255.0,255.0
3,0.15000000000000002,-1.5000593036945788,-4.499970451099616,-0.0003442079221743566,-0.0016039788881294648,0.0011168634263736266,-0.0066330975875751015,-0.016079577762773134,0.011937268526196476,-0.05826195175150523,0.0,70.0,255.0,255.0,255.0
4,0.2,-1.5001596021111885,-4.499899686342638,-0.0007486902412424893,-0.002406963054248923,0.0017045109960367455,-0.009557920778256747,-0.016038954149721896,0.011567613963503476,-0.05873410225598402,0.0,70.0,255.0,255.0,255.0
5,0.25,-1.5003000000000037,-4.499800000000012,-0.0013000000000000314,-0.0032078743031016543,0.002273624822723974,-0.012506507813173504,-0.015993530828506408,0.01119209268214405,-0.059224229446773274,0.0,70.0,255.0,255.0,255.0
6,0.30000000000000004,-1.5004803895414986,-4.4996723238603655,-0.00199934102255984,-0.004006316137099564,0.0028237202642511505,-0.015480343722934074,-0.015942032515403604,0.010809145887069604,-0.059737109738122775,0.0,70.0,255.0,255.0,255.0
7,0.35000000000000003,-1.5007006316137137,-4.499517627973587,-0.002848034372293439,-0.004802077554642015,0.0033545394114309346,-0.018480218786985782,-0.01589533391017639,0.010432065811905034,-0.06023201334315869,0.0,70.0,255.0,255.0,255.0
8,0.4,-1.5009605972969629,-4.499336869919222,-0.003847362901258418,-0.005595849528117203,0.003866926845441654,-0.021503545057249943,-0.015870802070838685,0.010082080351114797,-0.06064389418433312,0.0,70.0,255.0,255.0,255.0
9,0.45,-1.5012602165665254,-4.499130935289043,-0.0049983888780184334,-0.006389157761725883,0.004362747446542414,-0.024544608205419094,-0.015885688120942376,0.009773562400816616,-0.06092156697700905,0.0,70.0,255.0,255.0,255.0
10,0.5,-1.5015995130731354,-4.498900595174568,-0.006301823721800328,-0.00718441834021144,0.0048442830855233154,-0.02759570175495085,-0.015964199281714997,0.009504212527300382,-0.06103814291832217,0.0,70.0,255.0,255.0,255.0
11,0.55,-1.5019786584005466,-4.49864650698049,-0.007757959053513518,-0.007985577689897383,0.0053131686992724525,-0.03064842249725131,-0.01611421913110256,0.00927341047978203,-0.0609846079043996,0.0,70.0,255.0,255.0,255.0
12,0.6000000000000001,-1.5023980708421252,-4.498369278304641,-0.009366665971525459,-0.008795840253321696,0.005771624133501518,-0.03369416254539081,-0.016289466429775246,0.009112045541126435,-0.06075938393524244,0.0,70.0,255.0,255.0,255.0
13,0.65,-1.5028582424258787,-4.49806934456714,-0.0111273753080526,-0.009614524332874907,0.006224373253385096,-0.036724360890775555,-0.016412125626685814,0.009064676808812067,-0.060374571803962704,0.0,70.0,255.0,255.0,255.0
14,0.7000000000000001,-1.5033595232754127,-4.497746840979302,-0.013039102060603014,-0.010437052815990278,0.006678091814382725,-0.03973161972578708,-0.01640682805064131,0.009163002829382094,-0.059860116382260686,0.0,70.0,255.0,255.0,255.0
15,0.75,-1.5039019477074778,-4.497401535385702,-0.015100537280631307,-0.011255207137939038,0.007140673536323305,-0.042710372529001624,-0.016195230845350572,0.00943508462265541,-0.059239502918786296,0.0,70.0,255.0,255.0,255.0
16,0.8,-1.5044850439892066,-4.49703277362567,-0.017310139313503177,-0.012056575900525335,0.007621600276648266,-0.04565557001766571,-0.015746456694176736,0.009883790963272077,-0.05853998595690746,0.0,70.0,255.0,255.0,255.0
17,0.8500000000000001,-1.5051076052975303,-4.496639375358037,-0.019666094282397878,-0.012829852807356712,0.008129052632650513,-0.04856437112469237,-0.015148571932277477,0.010438912862831273,-0.05784858611400795,0.0,70.0,255.0,255.0,255.0
18,0.9,-1.5057680292699422,-4.496219868362405,-0.022166576425972414,-0.013571433093753082,0.008665491562931393,-0.051440428629066504,-0.014559763021515515,0.010978373253234253,-0.05730136172336191,0.0,70.0,255.0,255.0,255.0
19,0.9500000000000001,-1.5064647486069056,-4.495772826201744,-0.02481013714530453,-0.014285829109508263,0.009226889957973938,-0.05429450729702856,-0.014139773569432634,0.011375451923001378,-0.0570302285662079,0.0,70.0,255.0,255.0,255.0
20,1.0,-1.507196612180893,-4.495297179366608,-0.02759602715567527,-0.014985410450696346,0.009803036755231531,-0.057143451485687294,-0.014046858688976371,0.011511439657407863,-0.0571518174345028,0.0,70.0,255.0,255.0,255.0
21,1.05,-1.5079632896519752,-4.494792522526221,-0.030524482293873258,-0.0156905149784059,0.010378033923714725,-0.06000968904047884,-0.014353753625861998,0.011330912846307939,-0.057710273442798665,0.0,70.0,255.0,255.0,255.0
22,1.1,-1.5087656636787337,-4.494259375974236,-0.033596996059723154,-0.016420785813282546,0.010936128039862325,-0.06291447882996716,-0.01495177031649586,0.010896778532387685,-0.05860095692341409,0.0,70.0,255.0,255.0,255.0
23,1.1500000000000001,-1.5096053682333035,-4.493698909722235,-0.036815930176869974,-0.017185692010055487,0.011467711776953493,-0.06586978473282025,-0.015632458650927106,0.010338193814174446,-0.059622778505388774,0.0,70.0,255.0,255.0,255.0
24,1.2000000000000002,-1.5104842328797392,-4.493112604796541,-0.04018397453300518,-0.017984031678375256,0.01196994742127977,-0.06887675668050604,-0.01618130377900595,0.009794676658270163,-0.06056050781444583,0.0,70.0,255.0,255.0,255.0
25,1.25,-1.511403771401141,-4.492501914980107,-0.04370360584492058,-0.018803822387956082,0.01244717944278051,-0.07192583551426483,-0.016381343722882136,0.009407175396525247,-0.06122119937117532,0.0,70.0,255.0,255.0,255.0
26,1.3,-1.5123646151185348,-4.491867886852263,-0.04737655808443166,-0.01962216605066347,0.012910664960932294,-0.07499887661762357,-0.016125242088937952,0.009252044830709849,-0.06149892027189907,0.0,70.0,255.0,255.0,255.0
27,1.35,-1.5133659880062074,-4.491210848484013,-0.051203493506682934,-0.020416346596849877,0.013372383925851494,-0.07807572754145474,-0.015529754726983924,0.00929033664345269,-0.06139569808044712,0.0,70.0,255.0,255.0,255.0
28,1.4000000000000001,-1.5144062497782198,-4.490530648459678,-0.055184130838577136,-0.021175141523361862,0.013839698625277563,-0.08113844642566828,-0.014824994449402773,0.009433327013841364,-0.06095941236697669,0.0,70.0,255.0,255.0,255.0
29,1.4500000000000002,-1.5154835021585435,-4.489826878621486,-0.05931733814924976,-0.021898846041790154,0.01431571662723563,-0.08417166877815241,-0.014241584741236935,0.009592041910355675,-0.06025445346272279,0.0,70.0,255.0,255.0,255.0
30,1.5,-1.5165961343823988,-4.489099076796954,-0.06360129771639238,-0.022599299997485556,0.014798902816313131,-0.08716389177194056,-0.014011729123453165,0.009667877405750147,-0.05934744102484846,0.0,70.0,255.0,255.0,255.0
31,1.55,-1.517743432158292,-4.488346988339854,-0.06803372732644382,-0.02330001895413547,0.015282504367810645,-0.09010641288063725,-0.014251851444813113,0.009608133937977215,-0.058298707474266354,0.0,70.0,255.0,255.0,255.0
32,1.6,-1.5189261362778124,-4.487570826360173,-0.0726119390044561,-0.024024485141966867,0.015759716210110852,-0.0929937625193672,-0.014843802850261767,0.00946280729410276,-0.05721522511377003,0.0,70.0,255.0,255.0,255.0
33,1.6500000000000001,-1.5201458806724888,-4.486771016718843,-0.07733310357838054,-0.024784399239161647,0.01622878509722092,-0.09582793539201426,-0.015552971476950894,0.009326726568481547,-0.056263954311096265,0.0,70.0,255.0,255.0,255.0
34,1.7000000000000002,-1.5214045762017285,-4.485947947850451,-0.08219473254365753,-0.025579782289661956,0.016692388866959007,-0.09862015795047682,-0.01614578382935772,0.00928424194697186,-0.055619627052615195,0.0,70.0,255.0,255.0,255.0
35,1.75,-1.522703858901455,-4.485101777832147,-0.08719511937342822,-0.02639897762209742,0.017157209291918107,-0.10138989809727578,-0.016387777079351906,0.009417259036759162,-0.0554330458534355,0.0,70.0,255.0,255.0,255.0
36,1.8,-1.5240444739639383,-4.484232226921259,-0.0923337223533851,-0.027218559997597147,0.017634114770634923,-0.10416346253582037,-0.01616077870529864,0.009762505665467103,-0.05576778829257251,0.0,70.0,255.0,255.0,255.0
37,1.85,-1.5254257149012147,-4.483338366355084,-0.09761146562701026,-0.028015055492627283,0.018133459858464818,-0.10696667692653303,-0.015580441797502509,0.01025666261815772,-0.05653538281644721,0.0,70.0,255.0,255.0,255.0
38,1.9000000000000001,-1.526845979513201,-4.482418880935413,-0.10303039004603841,-0.028776604177347398,0.018659781032450695,-0.1098170008174651,-0.014877711717287134,0.0107806991122672,-0.057550271554145105,0.0,70.0,255.0,255.0,255.0
39,1.9500000000000002,-1.5283033753189494,-4.481472388251839,-0.10859316570875677,-0.029502826664355997,0.019211529769691538,-0.11272170408194754,-0.014281853367736908,0.01121821640897025,-0.058601863501654694,0.0,70.0,255.0,255.0,255.0
40,2.0,-1.5297962621796366,-4.4804977279584435,-0.11430256045423316,-0.03020478951412109,0.01978160267334772,-0.11567718716763056,-0.014021125263274925,0.011471105095495204,-0.05949231029334784,0.0,70.0,255.0,255.0,255.0
41,2.0500000000000003,-1.5313238542703616,-4.479494227984504,-0.12016088442551982,-0.03090493919068349,0.020358640279241058,-0.11867093511128232,-0.014211607160641293,0.01148804386659208,-0.06010445170974432,0.0,70.0,255.0,255.0,255.0
42,2.1,-1.532886756098705,-4.478461863930519,-0.1261696539653614,-0.03162595023018522,0.020930407060006928,-0.121687632338605,-0.0147490220343105,0.011275017758016759,-0.06041051634769895,0.0,70.0,255.0,255.0,255.0
43,2.15,-1.53448644929338,-4.477401187278503,-0.13232964765938032,-0.03237984139411454,0.021486142055042734,-0.12471198674605222,-0.015421589579123207,0.010866840618639628,-0.06040600842339011,0.0,70.0,255.0,255.0,255.0
44,2.2,-1.5361247402381164,-4.476313249725015,-0.13864085263996662,-0.03316810918809754,0.02201709112187089,-0.127728233180944,-0.016020229272983855,0.010309092883087345,-0.060093944581809944,0.0,70.0,255.0,255.0,255.0
45,2.25,-1.5378032602121898,-4.475199478166316,-0.14510247097747472,-0.033981864321412925,0.02251705134335147,-0.1307213812042332,-0.016343759163839344,0.009638367201247888,-0.05948573162118942,0.0,70.0,255.0,255.0,255.0
46,2.3000000000000003,-1.5395229266702577,-4.47406154459068,-0.15171299076038994,-0.03480248510448147,0.02298092784199568,-0.13367680634306295,-0.016286219225647436,0.008891006513866984,-0.05861235358639583,0.0,70.0,255.0,255.0,255.0
47,2.35,-1.541283508722638,-4.472901385382117,-0.15847015161178102,-0.03561048624397767,0.023406151994738167,-0.1365826165628728,-0.015908877990677972,0.008161401547823743,-0.057584230114421375,0.0,70.0,255.0,255.0,255.0
48,2.4000000000000004,-1.5430839752946555,-4.471720929391206,-0.16537125241667722,-0.03639337290354927,0.023797067996778054,-0.13943522935450509,-0.015350522040691317,0.0075954815370593565,-0.0565873730739852,0.0,70.0,255.0,255.0,255.0
49,2.45,-1.544922846012993,-4.470521678582439,-0.17241367454723153,-0.0371455384480468,0.024165700148444103,-0.14224135387027131,-0.014750516253370094,0.007337673131235789,-0.055827020175777675,0.0,70.0,255.0,255.0,255.0
50,2.5,-1.5467985291394601,-4.469304359376362,-0.17959538780370435,-0.03786842452888628,0.024530835309901633,-0.14501793137208285,-0.014239828757478534,0.007523398127506908,-0.05550480984191919,0.0,70.0,255.0,255.0,255.0
51,2.5500000000000003,-1.5487096884658815,-4.468068595051449,-0.1869154676844398,-0.03856952132379465,0.024918039961194793,-0.14779183485446323,-0.013896289829773423,0.008202755252639804,-0.055713360051901084,0.0,70.0,255.0,255.0,255.0
52,2.6,-1.5506554812718396,-4.466812555380242,-0.19437457128915067,-0.03925805351186362,0.025351110835165613,-0.15058926737727296,-0.013731829639462845,0.009234061364793433,-0.05632538370743678,0.0,70.0,255.0,255.0,255.0
53,2.6500000000000004,-1.552635493817068,-4.465533483967932,-0.2019743944221671,-0.03994270428774094,0.025841446097674137,-0.1534243732252069,-0.013740797782468839,0.01035403043623262,-0.0570908396070241,0.0,70.0,255.0,255.0,255.0
54,2.7,-1.5546497517006137,-4.464228410770475,-0.20971700861167136,-0.040632133290110506,0.026386513878788875,-0.15629835133797537,-0.013917192892720642,0.01128175305389334,-0.057745200822315046,0.0,70.0,255.0,255.0,255.0
55,2.75,-1.556698707146079,-4.462894832580053,-0.21760422955596465,-0.041334423577013,0.02696962140306347,-0.15919889330743842,-0.01425291648218252,0.011736012316809763,-0.058015029011102004,0.0,70.0,255.0,255.0,255.0
56,2.8000000000000003,-1.558783194058315,-4.4615314486301685,-0.2256368979424152,-0.04205742493832876,0.02756011511046985,-0.16209985423908557,-0.01472964709650082,0.011577972475507181,-0.05776143231322195,0.0,70.0,255.0,255.0,255.0
57,2.85,-1.5609044496399118,-4.460138821069006,-0.2338142149798732,-0.042807388286663084,0.02812741865061419,-0.1649750365387606,-0.015282964290674883,0.010950464880021826,-0.05712057538217463,0.0,70.0,255.0,255.0,255.0
58,2.9000000000000004,-1.5630639328869813,-4.458718706765107,-0.24213440159629127,-0.043585721367396246,0.028655161598472034,-0.16781191177730304,-0.015805447668615358,0.010140284830129076,-0.056362089010758565,0.0,70.0,255.0,255.0,255.0
59,2.95,-1.5652630217766514,-4.457273304909159,-0.2505954061576035,-0.04438793305352462,0.029141447133627096,-0.17061124543983647,-0.016181737816789443,0.009441888080452543,-0.05575254949535258,0.0,70.0,255.0,255.0,255.0
60,3.0,-1.5675027261923338,-4.455804562051744,-0.2591955261402749,-0.04520389514907519,0.02959935040651729,-0.1733871667268383,-0.01630449598954975,0.00916052463297845,-0.05556700884558896,0.0,70.0,255.0,255.0,255.0
61,3.0500000000000003,-1.569783411291559,-4.454313369868507,-0.26793412283028734,-0.046018382652479595,0.03005749959692494,-0.17616794632439536,-0.016124608963719034,0.009451415451344758,-0.055940770835066767,0.0,70.0,255.0,255.0,255.0
62,3.1,-1.5721045644575817,-4.452798812092052,-0.27681232077271445,-0.046816356045447094,0.030544491951651764,-0.17898124381034497,-0.015700788722594616,0.010157738788674209,-0.05670690683844404,0.0,70.0,255.0,255.0,255.0
63,3.1500000000000004,-1.5744650468961037,-4.451258920673342,-0.28583224721132183,-0.047588461524739056,0.031073273475792362,-0.18183863700823977,-0.015153775179577167,0.010972009730902954,-0.05754621227538892,0.0,70.0,255.0,255.0,255.0
64,3.2,-1.5768634106100556,-4.449691484744473,-0.2949961844735384,-0.04833173356340481,0.03164169292474206,-0.18473586503788386,-0.014615343019408478,0.011597034951016383,-0.05814474105643175,0.0,70.0,255.0,255.0,255.0
65,3.25,-1.5792982202524442,-4.448094751380868,-0.3043058337151102,-0.049049995826679904,0.032232976970894,-0.18765311111388294,-0.014217118207371371,0.011741982390400807,-0.058185000874577675,0.0,70.0,255.0,255.0,255.0
66,3.3000000000000003,-1.5817684101927236,-4.446468187047383,-0.3137614955849267,-0.04975344538414195,0.03281589116378214,-0.19055436512534163,-0.014031404228087574,0.011262706044590232,-0.05751511138614718,0.0,70.0,255.0,255.0,255.0
67,3.35,-1.5842735647908583,-4.44481316226449,-0.3233612702276444,-0.05045313624948866,0.033359247575353024,-0.19340462225249766,-0.014030244455520702,0.010305759453288488,-0.05633897675117461,0.0,70.0,255.0,255.0,255.0
68,3.4000000000000004,-1.5868137238176725,-4.443132262289848,-0.3331019578101765,-0.05115646982969402,0.03384646710911099,-0.1961882628004591,-0.014143927137721946,0.00916533592043578,-0.05504672156136925,0.0,70.0,255.0,255.0,255.0
69,3.45,-1.5893892117738277,-4.441428515553579,-0.3429800965076903,-0.051867528963260856,0.0342757811673966,-0.19890929440863458,-0.014303090571732291,0.008136032721228759,-0.05402783359834129,0.0,70.0,255.0,255.0,255.0
70,3.5,-1.5920004767139986,-4.439704684173108,-0.35299288725103994,-0.05258677888686725,0.034660070381233865,-0.20159104616029322,-0.014435049828942503,0.007499517833586822,-0.053668931712053114,0.0,70.0,255.0,255.0,255.0
71,3.5500000000000003,-1.5946478896625145,-4.437962508515455,-0.3631392011237196,-0.053311033946155106,0.035025732950755284,-0.2042761875798399,-0.014497000230950796,0.00740433379657901,-0.05415915658069648,0.0,70.0,255.0,255.0,255.0
72,3.6,-1.597331580108614,-4.436202110878033,-0.37342050600902393,-0.05403647890996233,0.035400503760891766,-0.20700696181836287,-0.014499165856118879,0.007771111510290751,-0.05528730270686344,0.0,70.0,255.0,255.0,255.0
73,3.6500000000000004,-1.6000515375535107,-4.434422458139366,-0.3838398973055559,-0.054760950531766994,0.03580284410178436,-0.20980491785052624,-0.014468744707918368,0.008414758475439044,-0.056635945768185314,0.0,70.0,255.0,255.0,255.0
74,3.7,-1.6028076751617908,-4.432621826467854,-0.39440099779407656,-0.05548335338075416,0.03624197960843567,-0.2126705563951814,-0.01442609422768193,0.009145547450106761,-0.05778457723096819,0.0,70.0,255.0,255.0,255.0
75,3.75,-1.6055998728915861,-4.4307982601785225,-0.40510695294507404,-0.05620355995453519,0.036717398846795035,-0.21558337557362306,-0.014390654504903289,0.00977994627584522,-0.05831931889726527,0.0,70.0,255.0,255.0,255.0
76,3.8000000000000003,-1.6084280311572443,-4.428950086583175,-0.41595933535143886,-0.05692241883124449,0.03721997423602019,-0.21850248828490793,-0.014373881561158264,0.01020769769715102,-0.05802840215117788,0.0,70.0,255.0,255.0,255.0
77,3.85,-1.6112921147747106,-4.4270762627549205,-0.42695720177356483,-0.057640948110651014,0.03773816861651014,-0.22138621578874085,-0.01437309211997917,0.010414363270339067,-0.05708262827215371,0.0,70.0,255.0,255.0,255.0
78,3.9000000000000004,-1.6141921259683094,-4.425176269721524,-0.43809795693031295,-0.05835972804324241,0.0382614105630541,-0.2242107511121233,-0.014381094030735397,0.010409383091758428,-0.05583867951504118,0.0,70.0,255.0,255.0,255.0
79,3.95,-1.6171280875790348,-4.423250121698615,-0.44937827688477716,-0.05907905751372455,0.03877910692568598,-0.22697008374024497,-0.014392532517493173,0.01019608983234832,-0.054653717617669795,0.0,70.0,255.0,255.0,255.0
80,4.0,-1.6201000317196819,-4.421298359028955,-0.46079496530433744,-0.05979898129499173,0.03928101954628893,-0.22967612287389028,-0.01440233215153075,0.009772678415398417,-0.053873746078880735,0.0,70.0,255.0,255.0,255.0
81,4.05,-1.623107985708534,-4.419322019743986,-0.4723458891721662,-0.06051929072887763,0.03975637476722582,-0.23235745834813304,-0.014407473524347125,0.009157136486592776,-0.05368658213393829,0.0,70.0,255.0,255.0,255.0
82,4.1000000000000005,-1.6261519607925696,-4.417322721552233,-0.48403071113915075,-0.06123972864742644,0.04019673319494821,-0.2350447810872841,-0.014408465663962033,0.008452274568160334,-0.05401313991543755,0.0,70.0,255.0,255.0,255.0
83,4.15,-1.6292319585732766,-4.415302346424491,-0.4958503672808946,-0.06196013729527383,0.040601602224041855,-0.2377587723396768,-0.01440687916922645,0.007828548318933315,-0.05465921962153897,0.0,70.0,255.0,255.0,255.0
84,4.2,-1.632347974522097,-4.413262561329828,-0.5078065883731184,-0.06268041656434908,0.04097958802684154,-0.240510703049438,-0.014403775702120925,0.007462354293608087,-0.05543346605133559,0.0,70.0,255.0,255.0,255.0
85,4.25,-1.6355000002297115,-4.411204387621807,-0.5199014375858384,-0.06340051486548592,0.041347837653402664,-0.24330211894481035,-0.014400016889037914,0.007521321414571958,-0.05615772475923153,0.0,70.0,255.0,255.0,255.0
86,4.3,-1.6386880260086456,-4.409127777564488,-0.5321368002675995,-0.06412041825325288,0.041731720168298736,-0.24612647552536115,-0.014396224341606256,0.008078068710126729,-0.05671972152745397,0.0,70.0,255.0,255.0,255.0
87,4.3500000000000005,-1.6419120420550368,-4.407031215604977,-0.5445140851383745,-0.06484013729964655,0.04215564452441534,-0.24897409109755575,-0.014393045224125878,0.00901029137017062,-0.05706938083065438,0.0,70.0,255.0,255.0,255.0
88,4.4,-1.6451720397386103,-4.404912213112047,-0.557034209377355,-0.06555972277566546,0.0426327493053158,-0.2518334136084266,-0.014391389292200962,0.010080992397654143,-0.057158194912620974,0.0,70.0,255.0,255.0,255.0
89,4.45,-1.6484680143326034,-4.402767940674446,-0.5696974264992172,-0.06627927622886665,0.04316374376418075,-0.25468991058881785,-0.014392364674131741,0.011042231921898349,-0.056933443818074636,0.0,70.0,255.0,255.0,255.0
90,4.5,-1.651799967361497,-4.4005958387356285,-0.5825032004362368,-0.06699895924307864,0.04373697249750563,-0.25752675799023406,-0.014397600292581636,0.011662035925752434,-0.05633936420814667,0.0,70.0,255.0,255.0,255.0
91,4.55,-1.6551679102569112,-4.398394243424695,-0.5954501022982406,-0.06771903625812481,0.044329947356755994,-0.2603238470096325,-0.01440762910898119,0.01181730195840558,-0.05537299329466672,0.0,70.0,255.0,255.0,255.0
92,4.6000000000000005,-1.6585718709873094,-4.396162843999953,-0.6085355851372001,-0.06843972215397676,0.04491870269334619,-0.26306405731970073,-0.014419353439465432,0.011554671839864028,-0.054191947484594216,0.0,70.0,255.0,255.0,255.0
93,4.65,-1.662011882472309,-4.393902373155361,-0.6217565080302107,-0.06916097160207135,0.0454854145407424,-0.26574304175809194,-0.014427563662056109,0.010999370203013115,-0.053067907487891475,0.0,70.0,255.0,255.0,255.0
94,4.7,-1.6654879681475165,-4.391614302545879,-0.6351098893130093,-0.06988247852018237,0.0460186397136475,-0.2683708480684899,-0.0144267656013497,0.010288718018802712,-0.05228450692805753,0.0,70.0,255.0,255.0,255.0
95,4.75,-1.6690001303243271,-4.389300509183996,-0.6485935928370596,-0.07060364816220632,0.04651428634262267,-0.2709714924508977,-0.014409581940699745,0.009562562853826506,-0.05212080908405525,0.0,70.0,255.0,255.0,255.0
96,4.800000000000001,-1.6725483329637372,-4.386962873911616,-0.662207038558099,-0.07132343671425234,0.04697489599903015,-0.2735829289768954,-0.014373259222333346,0.00891118499373178,-0.05270261764827033,0.0,70.0,255.0,255.0,255.0
97,4.8500000000000005,-1.6761324739957524,-4.384603019584093,-0.6759518857347492,-0.07204097408443966,0.047405404841995846,-0.2762417542157247,-0.014329541018009984,0.008368224068444619,-0.05383387818224117,0.0,70.0,255.0,255.0,255.0
98,4.9,-1.6797524303721811,-4.382222333427417,-0.6898312139796715,-0.07275639081605334,0.047811718405874615,-0.2789663167951195,-0.014298356059594397,0.007966841476125808,-0.05513744786310726,0.0,70.0,255.0,255.0,255.0
99,4.95,-1.6834081130773577,-4.379821847743505,-0.7038485174142611,-0.0734708096903991,0.04820208898960843,-0.28175549900203545,-0.014300572920444843,0.007748070828039744,-0.056222980683984236,0.0,70.0,255.0,255.0,255.0
100,5.0,-1.687099511341221,-4.377402124528456,-0.718006763879875,-0.07418644810809782,0.04858652548867859,-0.28458861486351794,-0.014364071944727996,0.007739740631240721,-0.0567054181034754,0.0,70.0,255.0,255.0,255.0
101,5.050000000000001,-1.6908267578881675,-4.3749631951946375,-0.7323073789006129,-0.0749072168848719,0.0489760630527325,-0.287426040812383,-0.014499334001705222,0.007945696993960638,-0.05638996268574337,0.0,70.0,255.0,255.0,255.0
102,5.1000000000000005,-1.6945902330297082,-4.372504518223183,-0.7467493679611134,-0.07563638150826835,0.04938109518807465,-0.2902276111320923,-0.014662482488470019,0.008328888762765274,-0.05544335563743008,0.0,70.0,255.0,255.0,255.0
103,5.15,-1.6983903960389943,-4.37002508567583,-0.7613301400138222,-0.0763734651337189,0.04980895192900903,-0.292970376376126,-0.014779012099386257,0.008815128694195096,-0.05421148520889929,0.0,70.0,255.0,255.0,255.0
104,5.2,-1.7022275795430801,-4.367523623030282,-0.776046405598726,-0.07711428271820697,0.05026260805749416,-0.2956487596529822,-0.014777656003572837,0.009313311023539939,-0.053043430475785414,0.0,70.0,255.0,255.0,255.0
105,5.25,-1.706101824310815,-4.364998824870081,-0.7908950159791204,-0.07785123073407618,0.05074028303136302,-0.29827471942370454,-0.01458615825260523,0.009738428001426769,-0.052277471881856385,0.0,70.0,255.0,255.0,255.0
106,5.300000000000001,-1.7100127026164877,-4.3624495947271456,-0.8058738775410964,-0.0785728985434675,0.05123645085763684,-0.30087650684116785,-0.014175605237132238,0.01003982656353486,-0.052096878928153956,0.0,70.0,255.0,255.0,255.0
107,5.3500000000000005,-1.7139591141651618,-4.359875179784317,-0.8209826666632372,-0.0792687912577894,0.051744265687716506,-0.30348440731651993,-0.013622300589877234,0.010199857244330701,-0.052423654979150136,0.0,70.0,255.0,255.0,255.0
108,5.4,-1.7179395817422667,-4.357275168158374,-0.8362223182727484,-0.07993512860245522,0.05225643658206991,-0.30611887233908286,-0.013064663141615362,0.010208168222547442,-0.05306649475119718,0.0,70.0,255.0,255.0,255.0
109,5.45,-1.7219526270254073,-4.35464953612611,-0.8515945538971454,-0.08057525757195094,0.05276508250997125,-0.30879105679163965,-0.01264157695801682,0.01005919789820453,-0.05383621116570314,0.0,70.0,255.0,255.0,255.0
110,5.5,-1.7259971074994618,-4.351998659907377,-0.8671014239519124,-0.0811992862982569,0.05326235637189036,-0.3115024934556532,-0.012483276397023957,0.009750556687659895,-0.05455672234100373,0.0,70.0,255.0,255.0,255.0
111,5.550000000000001,-1.730072555655233,-4.349323300488921,-0.8827448032427108,-0.08182358521165334,0.05374013817873724,-0.31424672902574,-0.012652044583671973,0.009293971110491128,-0.055116973816127235,0.0,70.0,255.0,255.0,255.0
112,5.6000000000000005,-1.7341794660206271,-4.346624646089503,-0.8985260968544864,-0.0824644907566241,0.054191753482939475,-0.3170141908372659,-0.013083839627725524,0.008752521420696269,-0.055466593210662385,0.0,70.0,255.0,255.0,255.0
113,5.65,-1.7383190047308954,-4.343904125140627,-0.9144462223264374,-0.08313196917442589,0.05461539032080687,-0.31979338834680626,-0.013645971697484605,0.008233037576754754,-0.0555562887000316,0.0,70.0,255.0,255.0,255.0
114,5.7,-1.7424926629380697,-4.341163107057422,-0.930505435689167,-0.08382908792637256,0.05501505724061495,-0.32256981970726906,-0.014196548984601876,0.007848871742499597,-0.05533275050237929,0.0,70.0,255.0,255.0,255.0
115,5.75,-1.7467019135235327,-4.3384026194165655,-0.9467032042971643,-0.08455162407288608,0.05540027749505683,-0.3253266633970442,-0.014592717511474618,0.007703354572008436,-0.05473964807816145,0.0,70.0,255.0,255.0,255.0
116,5.800000000000001,-1.7509478253453583,-4.335623079307917,-0.9630381020288714,-0.08528835967752002,0.055785392697815794,-0.3280437845150852,-0.01475672924895477,0.00784480181517111,-0.05377368734577059,0.0,70.0,255.0,255.0,255.0
117,5.8500000000000005,-1.7552307494912847,-4.332824080146784,-0.9795075827486728,-0.08602729699778155,0.05618475767657394,-0.33070403213162125,-0.014725977262974865,0.00822558154860431,-0.05259258290083446,0.0,70.0,255.0,255.0,255.0
118,5.9,-1.7595505550451365,-4.330004603540259,-0.9961085052420335,-0.0867609574038175,0.056607950852676225,-0.33330304280516865,-0.014586974543639997,0.008743317834181141,-0.05146825720867554,0.0,70.0,255.0,255.0,255.0
119,5.95,-1.7639068452316664,-4.327163285061516,-1.0128378870291896,-0.08748599445214555,0.05705908945999205,-0.3358508578524888,-0.014426026637193168,0.009285827951721615,-0.050684535076461756,0.0,70.0,255.0,255.0,255.0
120,6.0,-1.768299154490351,-4.32429869459426,-1.0296935910272824,-0.08820356006753682,0.05753653364784839,-0.3383714963128148,-0.01433783490931706,0.009748006375964735,-0.05052067602226984,0.0,70.0,255.0,255.0,255.0
121,6.050000000000001,-1.77272720123842,-4.321409631696731,-1.0466750366604711,-0.08891977794307726,0.058033890097588525,-0.3409029254547158,-0.014373812313328571,0.010067334449992416,-0.05110258915517196,0.0,70.0,255.0,255.0,255.0
122,6.1000000000000005,-1.7771911322846587,-4.318495305584501,-1.063783883572754,-0.08964094129886968,0.05854326709284763,-0.343481755228332,-0.01449131891946287,0.010228788748722906,-0.05223412413704054,0.0,70.0,255.0,255.0,255.0
123,6.15,-1.781691295368307,-4.315555304987447,-1.0810232121833043,-0.09036890983502355,0.059056768972460816,-0.34612633786841984,-0.014607901689678293,0.010229215561441407,-0.053537955192584086,0.0,70.0,255.0,255.0,255.0
124,6.2,-1.786228023268161,-4.312589628687255,-1.098396517359596,-0.09110173146783751,0.05956618864899177,-0.34883555074759043,-0.01465225821934979,0.01006832927075152,-0.05462356140630842,0.0,70.0,255.0,255.0,255.0
125,6.25,-1.7908014685150908,-4.3095986861225475,-1.1159067672580634,-0.09183413565695853,0.06006360189953597,-0.3515886940090507,-0.01455999879542702,0.009748629248651497,-0.05510566648063708,0.0,70.0,255.0,255.0,255.0
126,6.300000000000001,-1.795411436833857,-4.3065832684973016,-1.133555386760501,-0.09255773134738021,0.06054105157385692,-0.35434611739565414,-0.014300935250699531,0.009284834744427428,-0.05478938260690125,0.0,70.0,255.0,255.0,255.0
127,6.3500000000000005,-1.8000572416498288,-4.303544580965162,-1.1513413789976288,-0.09326422918202848,0.06099208537397871,-0.3570676322697408,-0.01391051862105197,0.008740102617554868,-0.053841736401882834,0.0,70.0,255.0,255.0,255.0
128,6.4,-1.8047378597520598,-4.300484059959904,-1.1692621499874751,-0.09394878320948541,0.061415061835612406,-0.3597302910358424,-0.013460486296867913,0.008220659080215853,-0.052609106170242725,0.0,70.0,255.0,255.0,255.0
129,6.45,-1.8094521199707774,-4.2974030747816006,-1.187314408101213,-0.09461027781171527,0.061814151282000296,-0.3623285428867651,-0.013024427664554139,0.007839829323241787,-0.05144107943815257,0.0,70.0,255.0,255.0,255.0
130,6.5,-1.8141988875332313,-4.294302644831704,-1.2054950042761516,-0.09525122597594082,0.062199044767936584,-0.3648743989796577,-0.012666179232745378,0.0077014859545698755,-0.05067661143496327,0.0,70.0,255.0,255.0,255.0
131,6.550000000000001,-1.8189772425683715,-4.291183170304807,-1.2238018479991788,-0.09587689573498981,0.06258429987745728,-0.3673962040302614,-0.012422446684112742,0.00785383939350126,-0.0504992277366334,0.0,70.0,255.0,255.0,255.0
132,6.6000000000000005,-1.8237865771067303,-4.288044214843958,-1.2422346246791778,-0.0964934706443521,0.06298442870728671,-0.369924321753321,-0.012303902633803432,0.008246325255711895,-0.050829885966696686,0.0,70.0,255.0,255.0,255.0
133,6.65,-1.8286265896328067,-4.284884727434078,-1.260794280174511,-0.09710728599837015,0.06340893240302847,-0.3724791926269311,-0.012312857085672313,0.00877178448099869,-0.0514755035762926,0.0,70.0,255.0,255.0,255.0
134,6.7,-1.8334973057065673,-4.281703321603655,-1.2794825439418709,-0.09772475635291933,0.06386160715538658,-0.3750718721109503,-0.01244331783569752,0.009312866256561136,-0.052245034593578765,0.0,70.0,255.0,255.0,255.0
135,6.75,-1.8383990652680986,-4.27849856671854,-1.298301467385606,-0.0983516177819399,0.06434021902868459,-0.37770369608628895,-0.01267924697736511,0.009757408285882008,-0.052959915751538134,0.0,70.0,255.0,255.0,255.0
136,6.800000000000001,-1.8433324674847613,-4.275269299700787,-1.3172529135504998,-0.09899268105065584,0.06483734798397478,-0.3803678636861041,-0.0130035903672443,0.010040320502469058,-0.05350815866138614,0.0,70.0,255.0,255.0,255.0
137,6.8500000000000005,-1.8482983333731642,-4.272014831920142,-1.3363382537542163,-0.09965197681866433,0.06534425107893149,-0.38305451195242757,-0.013393031682817913,0.010158232722190519,-0.05384328849595832,0.0,70.0,255.0,255.0,255.0
138,6.9,-1.8532976651666278,-4.2687348745928935,-1.3555583647457425,-0.10033198421893763,0.06585317125619383,-0.3857521925356999,-0.013807246199371015,0.010127727471154202,-0.05392263243808593,0.0,70.0,255.0,255.0,255.0
139,6.95,-1.858331531795058,-4.265429514794523,-1.3749134730077863,-0.10103270143860144,0.06635702382604691,-0.38844677519623616,-0.014196613347028375,0.00996921847153942,-0.05369980782838901,0.0,70.0,255.0,255.0,255.0
140,7.0,-1.863400935310488,-4.262099172210289,-1.3944030422653662,-0.10175164555364047,0.06685009310334777,-0.3911221733185388,-0.014520795561967503,0.009712890225976878,-0.05312773488301836,0.0,70.0,255.0,255.0,255.0
141,7.050000000000001,-1.868506696350422,-4.258744505484188,-1.4140256903396402,-0.10248478099479819,0.0673283128486446,-0.393759548684538,-0.014756478560262742,0.009383852955657801,-0.052206599156545686,0.0,70.0,255.0,255.0,255.0
142,7.1000000000000005,-1.8736494134099677,-4.255366340925424,-1.43377899713382,-0.10322729340966674,0.06778847839891355,-0.3963428332341934,-0.014886674597458516,0.009001583016132741,-0.05107957077217229,0.0,70.0,255.0,255.0,255.0
143,7.15,-1.8788294256913887,-4.251965657644297,-1.4536599736630595,-0.10397344845454404,0.06822847115025787,-0.3988675057617552,-0.014895454153851517,0.008598144794902396,-0.04999387343105344,0.0,70.0,255.0,255.0,255.0
144,7.2,-1.8840467582554221,-4.2485434938103985,-1.4736657477099955,-0.1047168388250519,0.0686482928784038,-0.40134222057729874,-0.014776942063066123,0.008215947503842358,-0.04920748234442662,0.0,70.0,255.0,255.0,255.0
145,7.25,-1.8893011095738939,-4.245100828356456,-1.4937941957207894,-0.10545114266085065,0.06905006590064211,-0.4037882539961979,-0.014533608071287674,0.007887068106438022,-0.048965135392387005,0.0,70.0,255.0,255.0,255.0
146,7.300000000000001,-1.8945918725215072,-4.241638487220334,-1.5140445731096153,-0.10617019963218066,0.0694369996890476,-0.40623873411653744,-0.014176183037228896,0.007630980960993128,-0.049379757066891905,0.0,70.0,255.0,255.0,255.0
147,7.3500000000000005,-1.899918129537112,-4.238157128387551,-1.5344180691324432,-0.10686876096457354,0.06981316399674142,-0.4087262297028871,-0.013741109087961334,0.0074727312505906696,-0.05030947736657243,0.0,70.0,255.0,255.0,255.0
148,7.4,-1.9052787486179645,-4.23465717082066,-1.554917196079904,-0.1075443105409768,0.07018427281410666,-0.4112696818531947,-0.013291776346080475,0.007442397311852034,-0.05146914656499746,0.0,70.0,255.0,255.0,255.0
149,7.45,-1.9106725605912096,-4.231138701106141,-1.5755450373177626,-0.10819793859918159,0.07055740372792663,-0.4138731443593868,-0.012901306046475547,0.007560278226836914,-0.052558001721547676,0.0,70.0,255.0,255.0,255.0
150,7.5,-1.9160985424778827,-4.2276014304478675,-1.5963045105158427,-0.10883444114562435,0.07094030063679035,-0.41652548202534945,-0.012640809449027124,0.007842800052326737,-0.05328771422328238,0.0,70.0,255.0,255.0,255.0
151,7.550000000000001,-1.921556004705772,-4.224044671042462,-1.6171975855202976,-0.1094620195440843,0.0713416837331593,-0.41920191578171506,-0.012545502577343548,0.008286535554002938,-0.05350159868309223,0.0,70.0,255.0,255.0,255.0
152,7.6000000000000005,-1.9270447444322911,-4.220467262074552,-1.6382247020940142,-0.1100889914033587,0.07176895419219065,-0.42187564189365867,-0.012586185087992696,0.008826652820825842,-0.05325156405058262,0.0,70.0,255.0,255.0,255.0
153,7.65,-1.932564903846108,-4.216867775623243,-1.6593851497096634,-0.11072063805288357,0.07222434901524188,-0.4245270721867733,-0.012700144424737658,0.009351426796833096,-0.05267965685915588,0.0,70.0,255.0,255.0,255.0
154,7.7,-1.9381168082375795,-4.213244827173027,-1.6806774093126915,-0.11135900584583247,0.07270409687187396,-0.42714360757957426,-0.01281783375093326,0.009743965229791485,-0.05193431030316997,0.0,70.0,255.0,255.0,255.0
155,7.75,-1.9437008044306912,-4.209597365936055,-1.7020995104676209,-0.1120024214279769,0.07319874553822103,-0.4297205032170903,-0.01285914480841921,0.009897722360729944,-0.05116400771416618,0.0,70.0,255.0,255.0,255.0
156,7.800000000000001,-1.9493170503803772,-4.205924952619205,-1.7236494596344005,-0.11264492032667439,0.07369386910794695,-0.4322600083509909,-0.012782319473925163,0.009762364002430246,-0.05046559645249804,0.0,70.0,255.0,255.0,255.0
157,7.8500000000000005,-1.9549652964633586,-4.202227979025261,-1.74532551130272,-0.11328065337536941,0.07417498193846406,-0.4347670628623401,-0.012635082961121036,0.009385132990225031,-0.049881469228640896,0.0,70.0,255.0,255.0,255.0
158,7.9,-1.960645115717914,-4.198507454425359,-1.7671261659206345,-0.1139084286227865,0.07463238240696946,-0.43724815527385497,-0.012505874393475835,0.008868259136818324,-0.049457540683817136,0.0,70.0,255.0,255.0,255.0
159,7.95,-1.9663561393256372,-4.194764740784564,-1.7890503268301055,-0.114531240814717,0.07506180785214589,-0.43971281693072184,-0.012474445196830608,0.008323348033822953,-0.04924993189086013,0.0,70.0,255.0,255.0,255.0
160,8.0,-1.9720982397993858,-4.191001273640144,-1.8110974476137067,-0.11515587314246956,0.07546471721035175,-0.442173148462941,-0.01261855537286749,0.007854329153378359,-0.049308282891846744,0.0,70.0,255.0,255.0,255.0
161,8.05,-1.9778717266398842,-4.1872182690635285,-1.8332676416763996,-0.11579309635200374,0.07584724076748373,-0.4446436452199065,-0.012972305773928383,0.007523495615124887,-0.049643754434458565,0.0,70.0,255.0,255.0,255.0
162,8.1,-1.9836775494345862,-4.183416549563396,-1.8555618121356974,-0.1164531037198624,0.07621706677186424,-0.44713752390638684,-0.013471711505896877,0.007349178854010319,-0.05017901591168883,0.0,70.0,255.0,255.0,255.0
163,8.15,-1.9895170370118704,-4.179596562386342,-1.8779813940670382,-0.11714026750259343,0.07658215865288476,-0.4496615468110754,-0.013997290402611995,0.007340012180812039,-0.05077204520771428,0.0,70.0,255.0,255.0,255.0
164,8.200000000000001,-1.9953915761848455,-4.1757583336981074,-1.900527966816805,-0.1178528327601236,0.07695106798994544,-0.45221472842715826,-0.01443161156904349,0.007502129815240011,-0.051266987774156725,0.0,70.0,255.0,255.0,255.0
165,8.25,-2.001302320287883,-4.1719014555873475,-1.923202866909754,-0.11858342865949778,0.07733237163440876,-0.45478824558849107,-0.014674652347923534,0.007840951701876264,-0.05151484207026602,0.0,70.0,255.0,255.0,255.0
166,8.3,-2.0072499190507953,-4.168025096534667,-1.946006791375654,-0.11932029799491595,0.07773516316013307,-0.45736621263418487,-0.014674657896374121,0.008344679177163528,-0.05143938580969287,0.0,70.0,255.0,255.0,255.0
167,8.35,-2.0132343500873744,-4.164127939271334,-1.9689394881731725,-0.12005089444913519,0.07816683955212511,-0.45993218416946036,-0.014442546539772394,0.008937312432344413,-0.051087875050237486,0.0,70.0,255.0,255.0,255.0
168,8.4,-2.019255008495709,-4.160208412579454,-1.9920000097926,-0.12076455264889319,0.07862889440336751,-0.4624750001392086,-0.014021327632685043,0.009490852979521236,-0.05056887056000825,0.0,70.0,255.0,255.0,255.0
169,8.450000000000001,-2.0253108053522637,-4.156265049830997,-2.0151869881870934,-0.1214530272124037,0.07911592485007723,-0.4649890712254612,-0.013465308993287906,0.009869158346642593,-0.049995403725611176,0.0,70.0,255.0,255.0,255.0
170,8.5,-2.031400311216949,-4.152296820094446,-2.038498916915146,-0.12211108354822198,0.07961581023803177,-0.46747454051176973,-0.01282288185526781,0.009937854715058592,-0.04946833950301155,0.0,70.0,255.0,255.0,255.0
171,8.55,-2.037521913707086,-4.148303468807194,-2.0619344422382704,-0.12273531539793048,0.0801097103215831,-0.46993590517576234,-0.012134750286074691,0.009637274855389677,-0.04905147621956374,0.0,70.0,255.0,255.0,255.0
172,8.6,-2.0436738427567422,-4.144285849062288,-2.0854925074327224,-0.12332455857682945,0.08057953772357074,-0.4723796881337261,-0.011476237533436517,0.00906604694108637,-0.048785847523591386,0.0,70.0,255.0,255.0,255.0
173,8.65,-2.049854369564769,-4.140245515034837,-2.109172411051643,-0.12388293915127413,0.08101631501569173,-0.4748144899281215,-0.010960942190330059,0.008412939537993935,-0.04871694807686566,0.0,70.0,255.0,255.0,255.0
174,8.700000000000001,-2.0560621366718697,-4.136184217560719,-2.1329739564255346,-0.12442065279586245,0.08142083167737013,-0.47725138294141267,-0.01069941352969117,0.007874010691200084,-0.04889088450323875,0.0,70.0,255.0,255.0,255.0
175,8.75,-2.062296434844355,-4.1321034318671,-2.1568975493457843,-0.12495288050424325,0.08180371608481174,-0.47970357837844535,-0.010781792258862666,0.007643620113562122,-0.049367790593635164,0.0,70.0,255.0,255.0,255.0
176,8.8,-2.068557424722294,-4.128003845952238,-2.180944314263379,-0.12549883202174872,0.08218519368872634,-0.4821881620007762,-0.011241166134245972,0.007819508114081941,-0.050155734952594955,0.0,70.0,255.0,255.0,255.0
177,8.85,-2.07484631804653,-4.1238849124982275,-2.205116365545862,-0.12607699711766784,0.08258566689621993,-0.48471915187370485,-0.012007188641538491,0.008313091878076051,-0.051087895694168495,0.0,70.0,255.0,255.0,255.0
178,8.9,-2.0811651244340608,-4.119745279262616,-2.2294162294507496,-0.12669955088590257,0.08301650287653395,-0.48729695157019304,-0.012937700809079189,0.008942796794730867,-0.0518824979721888,0.0,70.0,255.0,255.0,255.0
179,8.950000000000001,-2.0875162731351202,-4.115583262210574,-2.253846060702881,-0.12737076719857576,0.08347994657569302,-0.4899074016709237,-0.013871862062142526,0.00952822546205212,-0.05225551047653987,0.0,70.0,255.0,255.0,255.0
180,9.0,-2.0939022011539183,-4.111397284605046,-2.278406969617842,-0.12808673709211682,0.08396932542273916,-0.492522502617847,-0.014665893165011212,0.009903702126212721,-0.051920544742323216,0.0,70.0,255.0,255.0,255.0
181,9.05,-2.100324946844332,-4.1071863296683,-2.303098310964666,-0.12883735651507688,0.08447031678831429,-0.49509945614515605,-0.015234384711115823,0.009978119261777607,-0.050757472081475186,0.0,70.0,255.0,255.0,255.0
182,9.1,-2.106785936805426,-4.102950252926215,-2.3279169152323576,-0.1296101755632284,0.08496713734891692,-0.49759824982599454,-0.015541348226744134,0.009766993471949093,-0.04903058834742069,0.0,70.0,255.0,255.0,255.0
183,9.15,-2.1132859644006547,-4.0986896159334085,-2.3528581359472653,-0.1303914913377513,0.0854470161355092,-0.5000025149798981,-0.015561075086223397,0.009330465357493267,-0.04722755886890084,0.0,70.0,255.0,255.0,255.0
184,9.200000000000001,-2.119825085939201,-4.094405551312664,-2.3779171667303474,-0.13116628307185074,0.08590018388466625,-0.5023210057128846,-0.015280364328740248,0.008733087460832678,-0.045845395269283884,0.0,70.0,255.0,255.0,255.0
185,9.25,-2.12640259270784,-4.090099597544942,-2.403090236518554,-0.13191952777062532,0.08632032488159247,-0.5045870545068265,-0.014694681701010737,0.008029590029678957,-0.04536998381721169,0.0,70.0,255.0,255.0,255.0
186,9.3,-2.1330170387162637,-4.085773518824505,-2.42837587218103,-0.13263575124195182,0.08670314288763414,-0.5068580040946058,-0.01382595702623668,0.007266989197329821,-0.046035262502508445,0.0,70.0,255.0,255.0,255.0
187,9.35,-2.139666167832035,-4.0814292832561785,-2.4537760369280144,-0.133302123473249,0.08704702380132545,-0.5091905807570773,-0.012789096773069275,0.0065370694317223865,-0.047575391941645506,0.0,70.0,255.0,255.0,255.0
188,9.4,-2.1463472510635886,-4.077068816444372,-2.4792949302567378,-0.13391466091925874,0.08735684983080638,-0.5116155432887703,-0.011779677167655933,0.005978884899437986,-0.04945994720442215,0.0,70.0,255.0,255.0,255.0
189,9.450000000000001,-2.153057633923961,-4.072693598273098,-2.5049375912568914,-0.13448009119001458,0.08764491229126925,-0.5141365754775196,-0.01101134262762038,0.00573168576742944,-0.05114407394759546,0.0,70.0,255.0,255.0,255.0
190,9.5,-2.15979526018259,-4.068304325215245,-2.5307085878044897,-0.13501579518202078,0.08793001840754933,-0.5167299506835299,-0.010695426651041728,0.005925909782877881,-0.05209154796119719,0.0,70.0,255.0,255.0,255.0
191,9.55,-2.166559213442163,-4.063900596432343,-2.5566105863252444,-0.13554963385511876,0.08823750326955704,-0.5193457302736393,-0.010929013291249845,0.006608749123326874,-0.05202213058930205,0.0,70.0,255.0,255.0,255.0
192,9.600000000000001,-2.173350223568102,-4.05948057488829,-2.5826431608318536,-0.13610869651114577,0.08859089331988201,-0.5219321637424601,-0.011575085193626933,0.007639414115434562,-0.05112229610051422,0.0,70.0,255.0,255.0,255.0
193,9.65,-2.1801700830932775,-4.055041507100355,-2.6088038026994904,-0.13670714237448145,0.0890014446811005,-0.5244579598836907,-0.012366556569620712,0.008756792248121315,-0.04979736093768672,0.0,70.0,255.0,255.0,255.0
194,9.700000000000001,-2.18702093780555,-4.05058043042018,-2.6350889568202227,-0.13734535216810784,0.08946657254469415,-0.5269118998362288,-0.013021491268316865,0.009681707931186168,-0.048458681900465095,0.0,70.0,255.0,255.0,255.0
195,9.75,-2.1939046183100883,-4.046094849845885,-2.6614949926831133,-0.13800929150131314,0.08996961547421911,-0.5293038280737372,-0.013243611694768731,0.010134742866707569,-0.047527787042467295,0.0,70.0,255.0,255.0,255.0
196,9.8,-2.2008218669556814,-4.041583468872758,-2.6880193396275964,-0.1386697133375847,0.0904800468313649,-0.5316646785404755,-0.012885215915625636,0.009978014309286465,-0.04723453681902967,0.0,70.0,255.0,255.0,255.0
197,9.850000000000001,-2.207771589643847,-4.037046845162749,-2.714661460537161,-0.1392978130928757,0.09096741690514776,-0.5340272817556402,-0.01211690277851396,0.009353385994348429,-0.04744721852794065,0.0,70.0,255.0,255.0,255.0
198,9.9,-2.214751648264969,-4.032486727182243,-2.7414220678031604,-0.1398814036154361,0.09141538543079974,-0.5364094003932696,-0.011266917067009885,0.00854583422045252,-0.047881331654986425,0.0,70.0,255.0,255.0,255.0
199,9.950000000000001,-2.2217597300053904,-4.027905306619669,-2.768302400576488,-0.1404245047995767,0.09182200032719301,-0.5388154149211388,-0.010656351973148404,0.00784805593427862,-0.048266513135653,0.0,70.0,255.0,255.0,255.0
200,10.0,-2.2287940987449266,-4.023304527149524,-2.7953036092952743,-0.14094703881275095,0.0922001910242276,-0.5412360517068349,-0.010610033329472301,0.007563090777562564,-0.04831739710953187,0.0,70.0,255.0,255.0,255.0
201,10.05,-2.2358544338866655,-4.018685287517246,-2.8224260057471713,-0.14148550813252392,0.09257830940494927,-0.543647154632092,-0.011283782719484492,0.007845254245708588,-0.0478870881020832,0.0,70.0,255.0,255.0,255.0
202,10.100000000000001,-2.242942649558179,-4.014046696209029,-2.8496683247584835,-0.1420754170846994,0.09298471644879847,-0.5460247605170432,-0.012470124205377076,0.008540701581427612,-0.047132466151067476,0.0,70.0,255.0,255.0,255.0
203,10.15,-2.2500619755951354,-4.009386815872366,-2.8770284817988756,-0.14273252055306163,0.09343237956309203,-0.5483604012471988,-0.013772115488963621,0.009347050357266795,-0.04635283691807324,0.0,70.0,255.0,255.0,255.0
204,10.200000000000001,-2.257215901613485,-4.0047034582527195,-2.9045043648832034,-0.14345262863359576,0.09391942148452515,-0.5506600442088505,-0.014793753519848352,0.009972408657699106,-0.04582892523057325,0.0,70.0,255.0,255.0,255.0
205,10.25,-2.264407238458495,-3.9999948737239137,-2.9320944862197607,-0.14421189590504646,0.09442962042886194,-0.5529432937702561,-0.015140310931327505,0.010132987263311577,-0.04583852195501059,0.0,70.0,255.0,255.0,255.0
206,10.3,-2.27163709120399,-3.9952604962098333,-2.959798694260229,-0.1449666597267285,0.0949327202108563,-0.5552438964043516,-0.014619280245842248,0.009687309034589475,-0.04651128326682574,0.0,70.0,255.0,255.0,255.0
207,10.350000000000001,-2.278903904431168,-3.990501601702828,-2.987618875860196,-0.14567382392963069,0.09539835133232089,-0.5575944220969387,-0.01345248384980735,0.008770987167316946,-0.04765666978161498,0.0,70.0,255.0,255.0,255.0
208,10.4,-2.286204473596953,-3.985720661076601,-3.015558136469923,-0.14631190811170924,0.095809818927588,-0.5600095633825131,-0.012075576688008738,0.007659624023537148,-0.04891188943756397,0.0,70.0,255.0,255.0,255.0
209,10.450000000000001,-2.293535095242339,-3.9809206198100693,-3.043619832198447,-0.14688138159843156,0.0961643137346746,-0.562485611040695,-0.010927981266917186,0.006628370039951648,-0.0499122381563577,0.0,70.0,255.0,255.0,255.0
210,10.5,-2.300892611756796,-3.9761042297031337,-3.0718066975739924,-0.14740470623840096,0.09647265593158316,-0.5650007871981488,-0.010448676325403028,0.005932932197261209,-0.05030054304193676,0.0,70.0,255.0,255.0,255.0
211,10.55,-2.308275565866179,-3.971273354216911,-3.100119910918262,-0.14792624923097186,0.09675760695440072,-0.5675156653448887,-0.010858956436932132,0.005712083043496463,-0.04990069258363761,0.0,70.0,255.0,255.0,255.0
212,10.600000000000001,-2.3156852366798932,-3.9664284690076936,-3.1285582641084813,-0.14849060188209418,0.09704386423593281,-0.5699908564565126,-0.011949124544363698,0.005927237861813595,-0.0488907381728243,0.0,70.0,255.0,255.0,255.0
213,10.65,-2.3231246260543883,-3.9615689677933177,-3.1571189965639133,-0.14912116168540823,0.09735033074058208,-0.5724047391621712,-0.013296393609696366,0.006462565436260448,-0.047630561042755204,0.0,70.0,255.0,255.0,255.0
214,10.700000000000001,-2.330597352848434,-3.9566934359336354,-3.1857987380246984,-0.1498202412430638,0.09769012077955885,-0.5747539125607881,-0.014481174559444199,0.007194111181796359,-0.04648818274963773,0.0,70.0,255.0,255.0,255.0
215,10.75,-2.3381066501786947,-3.951799955715362,-3.214594387819992,-0.15056927914135265,0.09806974185876172,-0.5770535574371349,-0.015097058359225812,0.008003255975896906,-0.045831287229303186,0.0,70.0,255.0,255.0,255.0
216,10.8,-2.3456542807625693,-3.9468864617477593,-3.243504093768412,-0.1513299470789864,0.09849044637714854,-0.5793370412837184,-0.014931747152946429,0.008805897253250095,-0.04585200700502057,0.0,70.0,255.0,255.0,255.0
217,10.850000000000001,-2.3532396448865933,-3.941950911077647,-3.272528091948364,-0.1520624538566473,0.09895033158408673,-0.581638758137637,-0.014121833823521612,0.009522858588395522,-0.04641133323772806,0.0,70.0,255.0,255.0,255.0
218,10.9,-2.360860526148234,-3.9369914285893506,-3.3016679695821756,-0.15274213046133855,0.0994427322359881,-0.5839781746074912,-0.012968033022842107,0.010044799546404803,-0.047215749841234,0.0,70.0,255.0,255.0,255.0
219,10.950000000000001,-2.368513857932727,-3.932006637854048,-3.330925909409113,-0.1533592571589315,0.0999548115387272,-0.5863603331217604,-0.01177389392208461,0.010256723694057612,-0.04797465788470845,0.0,70.0,255.0,255.0,255.0
220,11.0,-2.376196451864127,-3.926995947435478,-3.3603040028943516,-0.15391951985354702,0.10046840460539386,-0.5887756403959621,-0.010835071589454515,0.010054043898666265,-0.04839836398495834,0.0,70.0,255.0,255.0,255.0
221,11.05,-2.383905809918082,-3.9219597973935088,-3.3898034734487092,-0.15444276431787696,0.10096021592859383,-0.5912001695202562,-0.010319602736652556,0.009402789481560703,-0.048331932077205764,0.0,70.0,255.0,255.0,255.0
222,11.100000000000001,-2.391640728295915,-3.9168999258426185,-3.4194240198463772,-0.15495148012721227,0.10140868355354993,-0.5936088336036827,-0.01019626743432589,0.008426642470382717,-0.0478702692022992,0.0,70.0,255.0,255.0,255.0
223,11.15,-2.399400957930803,-3.9118189290381538,-3.4491643568090775,-0.15546239106130955,0.1018028801756321,-0.5959871964404861,-0.010360425347810676,0.007355439176226497,-0.047219260105269,0.0,70.0,255.0,255.0,255.0
224,11.200000000000001,-2.407186967402046,-3.9067196378250553,-3.479022739490426,-0.15598752266199334,0.10214422747117258,-0.5983307596142096,-0.010708937398318241,0.006437455580199369,-0.04658027195896253,0.0,70.0,255.0,255.0,255.0
225,11.25,-2.4149997101970024,-3.9016045062910365,-3.5089974327704985,-0.15653328480114137,0.10244662573365204,-0.6006452236363824,-0.011126664607141734,0.005912596400703407,-0.04615921953425861,0.0,70.0,255.0,255.0,255.0
226,11.3,-2.42284029588216,-3.89647497525169,-3.539087261854064,-0.1571001891227075,0.10273548711124292,-0.6029466815676354,-0.011538093648155723,0.005902944819879963,-0.0460663252919602,0.0,70.0,255.0,255.0,255.0
227,11.350000000000001,-2.430709729109273,-3.891330957579912,-3.569292100927262,-0.15768709416595694,0.10303692021564004,-0.6052518561655784,-0.011933189679202982,0.006322459642316147,-0.04622395358970799,0.0,70.0,255.0,255.0,255.0
228,11.4,-2.4386090052987557,-3.886171283230126,-3.599612447470622,-0.1582935080906278,0.10336773307547453,-0.6075690769266062,-0.01230765486348595,0.00698155563778613,-0.04647168526257239,0.0,70.0,255.0,255.0,255.0
229,11.450000000000001,-2.446539079918336,-3.8809941842723648,-3.6300490086199226,-0.15891785965230554,0.10373507577941865,-0.6098990246918357,-0.012638468373094014,0.007680167272017258,-0.046657168032604446,0.0,70.0,255.0,255.0,255.0
230,11.5,-2.4545007912639862,-3.875797775652184,-3.6606023499398055,-0.1595573549279372,0.10413574980267626,-0.6122347937298667,-0.012910204714078333,0.008215570497904778,-0.04662480449764139,0.0,70.0,255.0,255.0,255.0
231,11.55,-2.4624948154111297,-3.870580609292097,-3.6912724879929093,-0.16020888012371337,0.10455663282920913,-0.6145615051415998,-0.013114596096741593,0.008473170166212185,-0.04629619332789936,0.0,70.0,255.0,255.0,255.0
232,11.600000000000001,-2.4705216792763576,-3.8653421123692633,-3.7220585004539655,-0.16086881453761137,0.10498306681929748,-0.6168644130626566,-0.013233677811452793,0.008488087725355697,-0.04575662040164907,0.0,70.0,255.0,255.0,255.0
233,11.65,-2.478581696864891,-3.8600823026101674,-3.752958929299175,-0.16153224790485865,0.1054054416017447,-0.6191371671817647,-0.013246251235798923,0.008352091186658583,-0.04517129488252891,0.0,70.0,255.0,255.0,255.0
234,11.700000000000001,-2.4866749040668434,-3.854801568209089,-3.783972217172142,-0.16219343966119126,0.10581827593796334,-0.6213815425509095,-0.013143902395862384,0.008149474399132828,-0.04469762933720922,0.0,70.0,255.0,255.0,255.0
235,11.75,-2.49480104083101,-3.849500475016371,-3.815097083554266,-0.1628466381444449,0.10622038904165798,-0.6236069301154856,-0.012928553832525225,0.007965074987703602,-0.04448151585432214,0.0,70.0,255.0,255.0,255.0
236,11.8,-2.502959567881288,-3.844179529304923,-3.8463329101836905,-0.16348629504444379,0.1066147834367337,-0.6258296941363417,-0.012609209610614514,0.007850435121570243,-0.04459598764339212,0.0,70.0,255.0,255.0,255.0
237,11.850000000000001,-2.5111496703354543,-3.8388389966726977,-3.8776800529679,-0.16410755910550634,0.107005432553815,-0.6280665288798248,-0.012212938235656168,0.007804257055310515,-0.044985089279636625,0.0,70.0,255.0,255.0,255.0
238,11.9,-2.5193703237918386,-3.8334789860495415,-3.909139563071673,-0.1647075888680094,0.10739520914226475,-0.6303282030643054,-0.011788179354121908,0.007811851176819928,-0.04552677157150242,0.0,70.0,255.0,255.0,255.0
239,11.950000000000001,-2.5276204292222553,-3.828099475758471,-3.9407128732743306,-0.16528637704091853,0.107786617671497,-0.6326192060369751,-0.011391609689370696,0.00786813559749966,-0.046092827438926065,0.0,70.0,255.0,255.0,255.0
240,12.0,-2.5358989614959304,-3.822700324282392,-3.9724014836753705,-0.16584674983694647,0.10818202270201471,-0.634937485808198,-0.01107161725215633,0.007976157524014482,-0.046561113436416335,0.0,70.0,255.0,255.0,255.0
241,12.05,-2.54420510420595,-3.8172812734882697,-4.00420662185515,-0.16639353876613416,0.10858423342389845,-0.6372753173806167,-0.010855278747445851,0.008131802634547824,-0.04686036891889955,0.0,70.0,255.0,255.0,255.0
242,12.100000000000001,-2.552538315372544,-3.811841900940002,-4.036129015413432,-0.16693227771169106,0.1089952029654695,-0.6396235227000879,-0.010751865282809803,0.008294884052828522,-0.04698665884390607,0.0,70.0,255.0,255.0,255.0
243,12.15,-2.560898331977119,-3.806381753191723,-4.068168974125159,-0.16746872529441514,0.1094137218291813,-0.6419739832650073,-0.010763735310392875,0.008400504105399165,-0.046957143307402305,0.0,70.0,255.0,255.0,255.0
244,12.200000000000001,-2.5692851879019853,-3.800900528757084,-4.100326413739933,-0.16800865124273034,0.10983525337600941,-0.6443192370308282,-0.010882945560153345,0.008384696497820698,-0.04679157372713405,0.0,70.0,255.0,255.0,255.0
245,12.25,-2.577699197101392,-3.795398227854122,-4.132600897828242,-0.16855701985043048,0.11025219147896337,-0.6466531406377207,-0.011088939863146408,0.008182322888750093,-0.046518039723508764,0.0,70.0,255.0,255.0,255.0
246,12.3,-2.5861408898870284,-3.7898753096091875,-4.164991727803705,-0.16911754522904499,0.11065348566488442,-0.648971041003179,-0.011363987753876259,0.007768554806464323,-0.04616151104057664,0.0,70.0,255.0,255.0,255.0
247,12.350000000000001,-2.5946109516242966,-3.7843328792876334,-4.19749800192856,-0.1696934186258181,0.1110290469596098,-0.6512692917417784,-0.011698761471956587,0.007217978295592786,-0.04574911450614394,0.0,70.0,255.0,255.0,255.0
248,12.4,-2.60311023174961,-3.7787724049132265,-4.230118656977883,-0.17028742137624064,0.1113752834944437,-0.6535459524537934,-0.01207604024351383,0.00666520000041082,-0.04532549435962707,0.0,70.0,255.0,255.0,255.0
249,12.450000000000001,-2.6116396937619206,-3.773195350938189,-4.262852597173939,-0.1709010226501695,0.11169556695965088,-0.6558018411777411,-0.012470920424378917,0.006245852303488064,-0.044946565297809826,0.0,70.0,255.0,255.0,255.0
250,12.5,-2.620200334014627,-3.7676028482172614,-4.295698841095657,-0.17153451341867854,0.1119998687247925,-0.6580406089835744,-0.012876585999377355,0.006086532273208434,-0.04466276496479793,0.0,70.0,255.0,255.0,255.0
251,12.55,-2.6287931451037885,-3.76199536406571,-4.328656658072297,-0.17218868125010722,0.11230422018697173,-0.6602681176742209,-0.013282056950325583,0.006247777673085153,-0.044500300205641,0.0,70.0,255.0,255.0,255.0
252,12.600000000000001,-2.637419202139638,-3.7563724261985643,-4.361725652863079,-0.1728627191137111,0.11262464649210102,-0.6624906390041385,-0.013615792791776826,0.006668727240333183,-0.04445417916967287,0.0,70.0,255.0,255.0,255.0
253,12.65,-2.6460794170151596,-3.7507328994164997,-4.394905721972711,-0.1735502605292849,0.11297109291100504,-0.6647135355911882,-0.013769399752749933,0.007222332256873187,-0.044503583216926046,0.0,70.0,255.0,255.0,255.0
254,12.700000000000001,-2.6547742281925664,-3.7450753169074638,-4.428197006422198,-0.1742396590889861,0.11334687971778834,-0.6669409973258311,-0.013646799316102687,0.007772407108674884,-0.044622165080632215,0.0,70.0,255.0,255.0,255.0
255,12.75,-2.663503382924058,-3.739398211444721,-4.461599821705294,-0.17491494046089517,0.11374833362187253,-0.6691757520992514,-0.013152781407566039,0.008183529370375808,-0.0447868910927518,0.0,70.0,255.0,255.0,255.0
256,12.8,-2.672265722238656,-3.7337004835452765,-4.495114581632123,-0.1755549372297427,0.11416523265482592,-0.6714196864351063,-0.01225967255624738,0.008380847321243223,-0.044977800958356795,0.0,70.0,255.0,255.0,255.0
257,12.850000000000001,-2.6810588766470325,-3.7279816881792383,-4.528741790348804,-0.1761409077165199,0.11458641835399686,-0.6736735321950871,-0.011120678083287316,0.008390749107123341,-0.04515510121683164,0.0,70.0,255.0,255.0,255.0
258,12.9,-2.689879813010308,-3.722241841709877,-4.562481934851632,-0.17666700503807142,0.11500430756553826,-0.6759351965567895,-0.010006267505646704,0.008280995448162187,-0.045258401211167865,0.0,70.0,255.0,255.0,255.0
259,12.950000000000001,-2.6987255771508396,-3.7164812574226844,-4.596335310004483,-0.17714153446708458,0.11541451789881307,-0.6781993723162039,-0.009193630563508748,0.008118318795258261,-0.045225287199635034,0.0,70.0,255.0,255.0,255.0
260,13.0,-2.7075939664570163,-3.7107003899199955,-4.630301872083252,-0.1775863680944223,0.11581613944506408,-0.680457725276753,-0.008948279046316898,0.00797133159720076,-0.04498967066322024,0.0,70.0,255.0,255.0,255.0
261,13.05,-2.716484213960282,-3.704899643478178,-4.6643810825321586,-0.17803636237171627,0.11621165105853315,-0.6826983393825259,-0.00939356517850598,0.00788160693425688,-0.044527983140607574,0.0,70.0,255.0,255.0,255.0
262,13.100000000000001,-2.725397602694188,-3.699079224814142,-4.698571706021505,-0.1785257246122729,0.11660430013848977,-0.6849105235908137,-0.01037254382594277,0.007847343930267314,-0.04392718752521674,0.0,70.0,255.0,255.0,255.0
263,13.15,-2.734336786421509,-3.693239213464329,-4.73287213489124,-0.17907361675431055,0.11699638545155988,-0.6870910581350476,-0.011572802951986816,0.007855457512651043,-0.04334187953789481,0.0,70.0,255.0,255.0,255.0
264,13.200000000000001,-2.743304964369619,-3.687379586268986,-4.767280811835009,-0.17968300490747158,0.11738984588975487,-0.6892447115446032,-0.012666417358087045,0.007900518176473526,-0.04292946001376308,0.0,70.0,255.0,255.0,255.0
265,13.25,-2.7523050869122563,-3.6815002288753536,-4.8017966060457,-0.18034025849011925,0.11778643726920723,-0.6913840041364239,-0.013330093083308014,0.007983172212799872,-0.04284640760561231,0.0,70.0,255.0,255.0,255.0
266,13.3,-2.761338990218631,-3.6756009425420655,-4.836419212248652,-0.18101601421580238,0.11818816311103486,-0.6935293523051644,-0.013393292836338944,0.008099438228237332,-0.04316406601283518,0.0,70.0,255.0,255.0,255.0
267,13.350000000000001,-2.7704066883338365,-3.66968141256425,-4.871149541276217,-0.18167958777375315,0.11859638109203097,-0.6957004107377074,-0.012958190901812827,0.00821987517212186,-0.0437716731581439,0.0,70.0,255.0,255.0,255.0
268,13.4,-2.7795069489960063,-3.6637413044328624,-4.9059892533224225,-0.18231183330598366,0.11901015062824705,-0.6979065196209788,-0.012252637237075703,0.008297174501237237,-0.0444577170006788,0.0,70.0,255.0,255.0,255.0
269,13.450000000000001,-2.788637871664435,-3.6577803975014254,-4.940940193238315,-0.18290485149746072,0.11942609854215469,-0.7001461824377753,-0.011507786251430119,0.008286321785089257,-0.04500409885279666,0.0,70.0,255.0,255.0,255.0
270,13.5,-2.7977974341457523,-3.651798694578647,-4.9760038715662,-0.18346261193112667,0.11983878280675597,-0.7024069295062585,-0.010959320648318283,0.008148007523578471,-0.04518870823879695,0.0,70.0,255.0,255.0,255.0
271,13.55,-2.8069841328575476,-3.6457965192207498,-5.01118088618894,-0.18400078356229255,0.12024089929451254,-0.704665053261655,-0.01073881126152365,0.007866840619508153,-0.04490246609414328,0.0,70.0,255.0,255.0,255.0
272,13.600000000000001,-2.8161975125019816,-3.6397746046491957,-5.0464703768923656,-0.18453649305727904,0.12062546686870679,-0.7068971761156728,-0.010790123802006946,0.00747492694364027,-0.04427152776704801,0.0,70.0,255.0,255.0,255.0
273,13.65,-2.8254377821632755,-3.633733972533879,-5.081870603800508,-0.18507979594249324,0.12098839198887656,-0.7090922060383598,-0.010982895186240071,0.007034912081049782,-0.043541844534544794,0.0,70.0,255.0,255.0,255.0
274,13.700000000000001,-2.834705492096231,-3.627675765450308,-5.1173795974962015,-0.18563478257590305,0.12132895807681177,-0.7112513605691273,-0.011194838568640009,0.0066136818619888516,-0.04296071800222734,0.0,70.0,255.0,255.0,255.0
275,13.75,-2.8440012604208658,-3.621601076726198,-5.15299573985742,-0.18619927979935724,0.12164976017507545,-0.7133882778385825,-0.011292670943019445,0.006268807016729383,-0.04278272214310874,0.0,70.0,255.0,255.0,255.0
276,13.8,-2.8533254200761666,-3.6155107894328005,-5.18871842528006,-0.186764049670205,0.1219558387784847,-0.7155296327834382,-0.011205401511471536,0.006033199294286362,-0.04313264303634767,0.0,70.0,255.0,255.0,255.0
277,13.850000000000001,-2.8626776653878863,-3.6094054928483494,-5.224548703135764,-0.1873198199505044,0.12225308010450409,-0.7177015421422173,-0.011002246291447193,0.005917713091330157,-0.04385680784775303,0.0,70.0,255.0,255.0,255.0
278,13.9,-2.872057402071217,-3.60328548142235,-5.2604885794942815,-0.1878642742993497,0.12254761008761772,-0.7199153135682135,-0.01081401045639474,0.005925881136814581,-0.04466031278758109,0.0,70.0,255.0,255.0,255.0
279,13.950000000000001,-2.8814640928178212,-3.5971507318395877,-5.296540234492586,-0.18840122099614387,0.12284566821818554,-0.7221675734209754,-0.010759945720861808,0.006052237479758915,-0.045253168998815596,0.0,70.0,255.0,255.0,255.0
280,14.0,-2.8908975241708315,-3.5910009146005315,-5.332705336836379,-0.1889402688714359,0.12315283383559361,-0.724440630468095,-0.010965939635365629,0.006280727113372464,-0.04534846845611895,0.0,70.0,255.0,255.0,255.0
281,14.05,-2.900358119704965,-3.5848354484560283,-5.368984297539395,-0.18949781495968043,0.12347374092952279,-0.7267024202665873,-0.01148666893975303,0.006594674557680591,-0.04480658880021693,0.0,70.0,255.0,255.0,255.0
282,14.100000000000001,-2.9098473056667995,-3.5786535405075792,-5.405375578863038,-0.1900889357654112,0.12381230129136167,-0.7289212893481167,-0.012199119470412967,0.0069733815305284,-0.043788420329349265,0.0,70.0,255.0,255.0,255.0
283,14.15,-2.919367013281506,-3.572454218326892,-5.441876426474207,-0.19071772690672173,0.12417107908257563,-0.7310812622995222,-0.012881995388980272,0.007380724210870326,-0.04261056398924268,0.0,70.0,255.0,255.0,255.0
284,14.200000000000001,-2.9289190783574717,-3.5662364325993217,-5.47848370509299,-0.19137713530430922,0.1245503737124487,-0.733182345747041,-0.013319317942128706,0.007771680573265272,-0.04159266660845873,0.0,70.0,255.0,255.0,255.0
285,14.25,-2.938504726811937,-3.5599991809556473,-5.515194661048911,-0.1920496587009346,0.12494824713990216,-0.7352405289603681,-0.013303617136140033,0.008112247233738046,-0.041051376059453304,0.0,70.0,255.0,255.0,255.0
286,14.3,-2.948124044227565,-3.5537416078853314,-5.552007757989027,-0.19270749701792322,0.1253615984358225,-0.7372874833529863,-0.012740323661786235,0.008381389188016897,-0.04114757518980383,0.0,70.0,255.0,255.0,255.0
287,14.350000000000001,-2.957775476513729,-3.547463021112065,-5.5889234093842095,-0.19332369106711322,0.12578638605870385,-0.7393552864793485,-0.011767522912675688,0.008551464749428916,-0.0417413989469928,0.0,70.0,255.0,255.0,255.0
288,14.4,-2.9674564133342765,-3.541162969279461,-5.625943286636962,-0.1938842493091908,0.1262167449107654,-0.7414616232476856,-0.01065343922279638,0.008588518057139893,-0.04254554314373493,0.0,70.0,255.0,255.0,255.0
289,14.450000000000001,-2.9771639014446483,-3.5348413466209885,-5.663069571708978,-0.19438903498939286,0.12664523786441784,-0.7436098407937219,-0.009675043583001752,0.008467753513841103,-0.04326959114111517,0.0,70.0,255.0,255.0,255.0
290,14.5,-2.9868953168332157,-3.5284984454930193,-5.700304270716334,-0.19485175366749097,0.1270635202621495,-0.7457885823617971,-0.009099591820760367,0.008166321247982111,-0.04361805527715035,0.0,70.0,255.0,255.0,255.0
291,14.55,-2.9966490768113974,-3.5221349945947735,-5.737648429945158,-0.1952989941714689,0.12746186998921605,-0.747971646321437,-0.009065323126522529,0.007685456335693175,-0.04343704983433838,0.0,70.0,255.0,255.0,255.0
292,14.600000000000001,-3.0064252162503626,-3.5157522584940977,-5.7751014353484775,-0.19575828598014322,0.12783206589571883,-0.750132287345231,-0.009482676990302252,0.0071015986323530456,-0.04285232420899732,0.0,70.0,255.0,255.0,255.0
293,14.65,-3.0162249054094117,-3.5093517880052016,-5.812661658679681,-0.19624726187049912,0.12817202985245135,-0.7522568787423367,-0.010152359607440431,0.006546042721389256,-0.042120083948482545,0.0,70.0,255.0,255.0,255.0
294,14.700000000000001,-3.0260499424374125,-3.5029350555088525,-5.850327123222711,-0.19677352194088726,0.12848667016785775,-0.7543442957400792,-0.01086722101253379,0.0061562797302183725,-0.04148934178882513,0.0,70.0,255.0,255.0,255.0
295,14.75,-3.0359022576035004,-3.496503120988416,-5.888096088253689,-0.1973339839717525,0.1287876578254732,-0.7564058129212192,-0.011418015581243779,0.006066477098753964,-0.041208337563869435,0.0,70.0,255.0,255.0,255.0
296,14.8,-3.045783340834588,-3.490056289726305,-5.925967704514833,-0.19791532349901164,0.12909331787773315,-0.7584651294964662,-0.011686122760012907,0.006337298289960103,-0.04140408561079667,0.0,70.0,255.0,255.0,255.0
297,14.850000000000001,-3.0556937899534016,-3.4835937892006426,-5.963942601203335,-0.1985025962477538,0.1294213876544692,-0.7605462214822989,-0.011706337890471374,0.006877665196469707,-0.04196389629136377,0.0,70.0,255.0,255.0,255.0
298,14.9,-3.065633600459363,-3.4771141509608583,-6.002022326663063,-0.19908595728805878,0.12978108439738012,-0.7626615191256025,-0.011570875260957791,0.007510947420863445,-0.04265952898920844,0.0,70.0,255.0,255.0,255.0
299,14.950000000000001,-3.0756023856822075,-3.4706156807609045,-6.040208753115896,-0.19965968377384957,0.13017248239655554,-0.7648121743812197,-0.011363671434816425,0.00805435367241536,-0.0432664682779027,0.0,70.0,255.0,255.0,255.0
300,15.0,-3.085599568836748,-3.4640969027212027,-6.078503544101185,-0.20022232443154042,0.13058651976462166,-0.7669881659533928,-0.011168299234487478,0.008331779680892382,-0.04356463176273806,0.0,70.0,255.0,255.0,255.0
301,15.05,-3.0956246181253615,-3.4575570287844424,-6.116907569711235,-0.20077651369729832,0.13100566036464478,-0.7691686375574935,-0.01103624643894463,0.008252063791269748,-0.043440034294839336,0.0,70.0,255.0,255.0,255.0
302,15.100000000000001,-3.105677220206478,-3.4509963366847383,-6.155420407856934,-0.20132594907543488,0.13141172614374863,-0.7713321693828767,-0.010971039046703268,0.007873148507320238,-0.04297749855117772,0.0,70.0,255.0,255.0,255.0
303,15.15,-3.115757213032905,-3.4444158561700675,-6.194040786649523,-0.20187361760196865,0.1317929752153768,-0.7734663874126113,-0.010965910911053811,0.007324759670046532,-0.042356392170628254,0.0,70.0,255.0,255.0,255.0
304,15.200000000000001,-3.125864581966675,-3.4378170391632006,-6.2327670465981955,-0.20242254016654027,0.13214420211075328,-0.7755678085999396,-0.011024293714667621,0.006739592293580898,-0.04175807181301394,0.0,70.0,255.0,255.0,255.0
305,15.25,-3.135999467049559,-3.431201435958992,-6.271597567509517,-0.2029760469734354,0.1324669344447349,-0.7776421945939127,-0.011160815452671002,0.00624239485298439,-0.04136912605972043,0.0,70.0,255.0,255.0,255.0
306,15.3,-3.1461621866640184,-3.424570345718727,-6.310531266057587,-0.20353862171180737,0.13276844159605172,-0.7797047212059116,-0.011375604770824665,0.005907220437473271,-0.04128855110252516,0.0,70.0,255.0,255.0,255.0
307,15.350000000000001,-3.1563533292207397,-3.417924591799387,-6.349568039630108,-0.20411360745051788,0.13305765648848222,-0.7817710497041652,-0.011609505922649532,0.005746104411219477,-0.041442473141195535,0.0,70.0,255.0,255.0,255.0
308,15.4,-3.16657354740907,-3.411264580069879,-6.388708371028003,-0.20469957230407232,0.13334305203717367,-0.7838489685200312,-0.011765481094760943,0.005754489423726028,-0.04167937785251041,0.0,70.0,255.0,255.0,255.0
309,15.450000000000001,-3.176823286451147,-3.4045902865956696,-6.427952936482111,-0.20529015555999397,0.13363310543085483,-0.7859389874894163,-0.011745866993395637,0.0059267643328642095,-0.04185415822242078,0.0,70.0,255.0,255.0,255.0
310,15.5,-3.1871025629650696,-3.3979012695267934,-6.467302269776945,-0.20587415900341188,0.1339357284704601,-0.7880343843422732,-0.011440466927004067,0.006254631582569559,-0.041818910618385274,0.0,70.0,255.0,255.0,255.0
311,15.55,-3.197410702351488,-3.3911967137486236,-6.506756374916338,-0.20643420225269438,0.13425856858911178,-0.7901208785512548,-0.010807534943380048,0.0067200800995426135,-0.04149918786904294,0.0,70.0,255.0,255.0,255.0
312,15.600000000000001,-3.207745983190339,-3.384475412667882,-6.54631435763207,-0.2069549124977499,0.13460773648041435,-0.7921843031291775,-0.009992708824180241,0.007261594687557604,-0.040975312846835976,0.0,70.0,255.0,255.0,255.0
313,15.65,-3.218106193601263,-3.377735940100582,-6.585974805229256,-0.2074334731351124,0.13498472805786754,-0.7942184098359384,-0.00925123230937075,0.007776443474050154,-0.040403392456145326,0.0,70.0,255.0,255.0,255.0
314,15.700000000000001,-3.2284893305038502,-3.3709769398620955,-6.625736198615664,-0.20788003572868696,0.13538538082781937,-0.7962246423747921,-0.008838298917890341,0.008154376015712117,-0.039931868724174535,0.0,70.0,255.0,255.0,255.0
315,15.75,-3.238894197174132,-3.3641974020178003,-6.665597269466735,-0.20831730302690143,0.13580016565943875,-0.7982115967083558,-0.009017270219446871,0.008295069493069462,-0.03969518484678858,0.0,70.0,255.0,255.0,255.0
316,15.8,-3.2493210608065404,-3.3573969232961516,-6.7055573582865,-0.20878176275063165,0.13621488777712631,-0.8001941608594709,-0.009901854523164388,0.008151946343915029,-0.039761783668268436,0.0,70.0,255.0,255.0,255.0
317,15.850000000000001,-3.259772373449195,-3.3505759132400876,-6.745616685552682,-0.20930748847921787,0.13661536029383026,-0.8021877750751827,-0.011253411694012172,0.007771992362748392,-0.04009179994719503,0.0,70.0,255.0,255.0,255.0
318,15.9,-3.270251809654462,-3.3437353872667686,-6.785776135794018,-0.20990710392003287,0.13699208701340115,-0.8042033408541904,-0.01263415843251181,0.007256100316199721,-0.040590688686581444,0.0,70.0,255.0,255.0,255.0
319,15.950000000000001,-3.2807630838411983,-3.3368767045387475,-6.826037019638101,-0.21057090432246905,0.13734097032545023,-0.8062468439438408,-0.01360210283674057,0.006715218783703847,-0.04115887970144172,0.0,70.0,255.0,255.0,255.0
320,16.0,-3.291308900086709,-3.3300012902342235,-6.866400820188402,-0.21126731420370692,0.13766360889177154,-0.8083192288243346,-0.013714508139361925,0.006253109093368181,-0.041712331346310805,0.0,70.0,255.0,255.0,255.0
321,16.05,-3.301889815261569,-3.3231103436495704,-6.906868942520535,-0.21194235513640525,0.13796628123478705,-0.8104180770784719,-0.012764161182410305,0.005931621704435841,-0.04219419027782223,0.0,70.0,255.0,255.0,255.0
322,16.1,-3.3125031356003496,-3.316204662110745,-6.947442627896249,-0.21254373032194795,0.13825677106221512,-0.8125386478521168,-0.011045299411316378,0.005766799497886055,-0.04254112372805707,0.0,70.0,255.0,255.0,255.0
323,16.150000000000002,-3.323144188293764,-3.309284666543349,-6.988122807305746,-0.21304688507753688,0.13854296118457565,-0.8146721894512776,-0.00912215727097987,0.005763630785615703,-0.042669377273707454,0.0,70.0,255.0,255.0,255.0
324,16.2,-3.3338078241081033,-3.3023503659922873,-7.028909846841377,-0.21345594604904594,0.1388331341407767,-0.8168055855794876,-0.0075654109472189646,0.005924236028809204,-0.04249983857755879,0.0,70.0,255.0,255.0,255.0
325,16.25,-3.3444897828986684,-3.295401353129271,-7.069803365863695,-0.21380342617225878,0.13913538478745657,-0.8189221733090335,-0.006936631955012373,0.006248484809612265,-0.041951527063766036,0.0,70.0,255.0,255.0,255.0
326,16.3,-3.355188166725329,-3.2884368275135416,-7.1108020641722804,-0.21414960924454718,0.13945798262173792,-0.8210007382858642,-0.007515160420723532,0.006722592479446732,-0.041006630045004044,0.0,70.0,255.0,255.0,255.0
327,16.35,-3.365904743823123,-3.2814555548670974,-7.151903439692282,-0.21455494221433113,0.13980764403540125,-0.8230228363135339,-0.009030099285389781,0.007279970484663778,-0.039826315863411565,0.0,70.0,255.0,255.0,255.0
328,16.400000000000002,-3.3766436609467623,-3.2744560631100015,-7.193104347803634,-0.21505261917308616,0.1401859796702043,-0.8249833698722053,-0.010931664698166088,0.007808537380604719,-0.0386917089787886,0.0,70.0,255.0,255.0,255.0
329,16.45,-3.3874100057404317,-3.267436956900077,-7.234401776679502,-0.21564810868414774,0.14058849777346172,-0.8268920072114128,-0.0126636193417351,0.008188862742031233,-0.037893514239950576,0.0,70.0,255.0,255.0,255.0
330,16.5,-3.398208471815177,-3.2603972133326553,-7.275793548524775,-0.21631898110725967,0.14100486594440742,-0.8287727212962004,-0.013683019984833678,0.008308942343626669,-0.03771755107457864,0.0,70.0,255.0,255.0,255.0
331,16.55,-3.4090419038511577,-3.253336470305636,-7.317279048809122,-0.2170164106826311,0.14141939200782438,-0.8306637623188706,-0.013702563101913867,0.008117495557513621,-0.03829360189575581,0.0,70.0,255.0,255.0,255.0
332,16.6,-3.41991011288344,-3.246255274131873,-7.358859924756662,-0.21768923741745105,0.14181661550015878,-0.832602081485776,-0.012888755661322193,0.0076777940887229335,-0.03942466176996007,0.0,70.0,255.0,255.0,255.0
333,16.650000000000002,-3.430810827592903,-3.2391548087556203,-7.4005392569577,-0.21830528624876333,0.14218717141669668,-0.8346062284958666,-0.011615892561334107,0.0071185833281806055,-0.040731059539300674,0.0,70.0,255.0,255.0,255.0
334,16.7,-3.4417406415083165,-3.232036556990203,-7.442320547606249,-0.21885082667358446,0.14252847383297684,-0.836675187439706,-0.010260484646273937,0.006579800181993889,-0.041820556676164244,0.0,70.0,255.0,255.0,255.0
335,16.75,-3.4526959102602612,-3.2249019613723227,-7.48420677570167,-0.21933133471339072,0.14284515143489607,-0.8387882841634831,-0.00919525080966821,0.0062037644635193345,-0.042306287285498456,0.0,70.0,255.0,255.0,255.0
336,16.8,-3.4636737749796556,-3.2177520418467136,-7.526199376022597,-0.21977035175455129,0.14314885027932878,-0.8409058161682559,-0.008632908849826038,0.006066912470314989,-0.041992388945288894,0.0,70.0,255.0,255.0,255.0
337,16.85,-3.4746729454357164,-3.21058707634439,-7.568297357318496,-0.22019462559837333,0.14345184268192757,-0.842987523058012,-0.008526672940956104,0.006125216797636668,-0.04104585290818363,0.0,70.0,255.0,255.0,255.0
338,16.900000000000002,-3.485693237539493,-3.203406857578521,-7.610498128328398,-0.2206230190486469,0.14376137195909244,-0.8450104014590742,-0.008735487667355102,0.006281604830959964,-0.03981323701385264,0.0,70.0,255.0,255.0,255.0
339,16.95,-3.496735247340581,-3.1962109391484805,-7.652798397464403,-0.22106817436510884,0.14408000316502356,-0.8469688467593972,-0.009126330185038611,0.006438136995479127,-0.038644119194142235,0.0,70.0,255.0,255.0,255.0
340,17.0,-3.507800054976004,-3.1889988572620185,-7.695195013004338,-0.22153565206715076,0.14440518565864036,-0.8488748133784885,-0.009552014072378157,0.006484018450558793,-0.037877253163287605,0.0,70.0,255.0,255.0,255.0
341,17.05,-3.518888812547296,-3.1817704205826165,-7.737685878802252,-0.22202337577234665,0.14472840501007944,-0.850756572075726,-0.00992076653356655,0.006362080668909087,-0.03769618964319932,0.0,70.0,255.0,255.0,255.0
342,17.1,-3.5300023925532384,-3.1745260167610105,-7.780270670211911,-0.2225277287205074,0.14504139372553126,-0.8526444323428084,-0.010244645815404851,0.006142271121722942,-0.038022882308563766,0.0,70.0,255.0,255.0,255.0
343,17.150000000000002,-3.541141585419347,-3.1672662812100634,-7.822950322036533,-0.22304784035388714,0.14534263212225174,-0.8545588603065823,-0.01055954604698428,0.005953225785626515,-0.03866587585461545,0.0,70.0,255.0,255.0,255.0
344,17.2,-3.552307176588627,-3.1599917535487854,-7.865726556242569,-0.22358368332520584,0.14563671630409392,-0.85651101992827,-0.010882306501214245,0.005914738082379856,-0.03943588029935441,0.0,70.0,255.0,255.0,255.0
345,17.25,-3.5634999537518675,-3.152702609579654,-7.90860142402936,-0.22413607100400856,0.14593410593048972,-0.8585024483365178,-0.011248627632420849,0.006156105791133015,-0.04015672803383552,0.0,70.0,255.0,255.0,255.0
346,17.3,-3.574720783689028,-3.1453983429557364,-7.951576801076221,-0.22470854608844792,0.14625232688320722,-0.8605266927316535,-0.011670598442492519,0.006731851101893227,-0.04071730469714652,0.0,70.0,255.0,255.0,255.0
347,17.35,-3.5859708083607122,-3.1380773768913333,-7.994654093302525,-0.22530313084825782,0.14660729104067904,-0.8625741788062324,-0.012057447760494,0.007503927153207357,-0.041067186622356644,0.0,70.0,255.0,255.0,255.0
348,17.400000000000002,-3.597251096773854,-3.1307376138516685,-8.037834218956844,-0.22591429086449732,0.14700271959852795,-0.8646334113938892,-0.012263624182251576,0.008226424427171253,-0.041157012480663724,0.0,70.0,255.0,255.0,255.0
349,17.45,-3.608562237447162,-3.1233771049314805,-8.081117434441914,-0.22652949326648297,0.14742993348339617,-0.8666898800542988,-0.012157870383155966,0.008656850068700095,-0.04093338524899792,0.0,70.0,255.0,255.0,255.0
350,17.5,-3.619904046100502,-3.115994620503329,-8.124503206962274,-0.22713007790281292,0.14786840460539796,-0.868726749918789,-0.011601540665839849,0.008551605005235885,-0.04033984402589397,0.0,70.0,255.0,255.0,255.0
351,17.55,-3.6312752452374433,-3.1085902644709407,-8.167990109433793,-0.22768964733306696,0.14828509398391976,-0.8707238644568882,-0.010548727808457059,0.007802915856158776,-0.03937305310675043,0.0,70.0,255.0,255.0,255.0
352,17.6,-3.642673010833809,-3.101166111104937,-8.211575593407963,-0.22818495068365863,0.14864869619101384,-0.872664055229464,-0.00920817386522721,0.006608267351326802,-0.03819098192465731,0.0,70.0,255.0,255.0,255.0
353,17.650000000000002,-3.654093740305809,-3.0937253948518393,-8.25525651495674,-0.22861046471958968,0.14894592071905244,-0.8745429626493539,-0.007945863984248902,0.005336507740949514,-0.03706598098247582,0.0,70.0,255.0,255.0,255.0
354,17.7,-3.6655340573057678,-3.0862715190330317,-8.299029889672898,-0.22897953708208352,0.1491823469651088,-0.8763706533277116,-0.007131246931502133,0.004363409428576048,-0.03628232695618294,0.0,70.0,255.0,255.0,255.0
355,17.75,-3.6769916940140175,-3.0788071601553284,-8.34289358028951,-0.2293235894127399,0.14938226166191004,-0.8781711953449722,-0.007129172407660533,0.0040654462159839255,-0.03611988653897669,0.0,70.0,255.0,255.0,255.0
356,17.8,-3.6884664162470417,-3.0713332928668406,-8.386847009207395,-0.22969245432284957,0.14958889158670718,-0.8799826419816092,-0.008102602211268461,0.004623571720641095,-0.036704795229702825,0.0,70.0,255.0,255.0,255.0
357,17.85,-3.6999609394463024,-3.0638482709966577,-8.430891844487672,-0.23013384963386674,0.14984461883397415,-0.8818416748679425,-0.009779134168264036,0.005813119991726623,-0.037839934630667926,0.0,70.0,255.0,255.0,255.0
358,17.900000000000002,-3.7114798012104284,-3.0563488309834432,-8.47503117669419,-0.23067036773967597,0.15017020358587985,-0.883766635444676,-0.011641125009509423,0.007196588897739886,-0.03914633631740827,0.0,70.0,255.0,255.0,255.0
359,17.95,-3.72302797622027,-3.0488312506380697,-8.51926850803214,-0.23129796213481768,0.15056427772374814,-0.8857563084996833,-0.013158820212622047,0.00833016489747429,-0.04023175914067423,0.0,70.0,255.0,255.0,255.0
360,18.0,-3.73460959742391,-3.0412924032110684,-8.563606807544158,-0.23198624976093818,0.15100322007562728,-0.8877898113587435,-0.013817806998916993,0.008766656751157953,-0.040708628466212815,0.0,70.0,255.0,255.0,255.0
361,18.05,-3.746226601196364,-3.033730928630507,-8.608047489168014,-0.23267974283470938,0.15144094339886394,-0.8898271713463046,-0.01336049038558329,0.00828293712151762,-0.04038119254605732,0.0,70.0,255.0,255.0,255.0
362,18.1,-3.757877571707381,-3.026148308871182,-8.652589524678788,-0.2333222987994965,0.15183151378777904,-0.8918279306133492,-0.01201058083757367,0.007110068532689695,-0.03942009540391922,0.0,70.0,255.0,255.0,255.0
363,18.150000000000002,-3.7695588310763135,-3.018547777251729,-8.697230282229349,-0.23388080091846675,0.1521519502521329,-0.8937691808866965,-0.010235183763773748,0.005706320817067123,-0.038177857898347156,0.0,70.0,255.0,255.0,255.0
364,18.2,-3.781265651799228,-3.0109331138459687,-8.741966442767458,-0.23434581717587388,0.15240214586948575,-0.8956457164031839,-0.008512819537109806,0.004529077834636297,-0.03701049661994915,0.0,70.0,255.0,255.0,255.0
365,18.25,-3.792993412793901,-3.0033075626647805,-8.786794853869667,-0.23473208287217773,0.15260485803559654,-0.8974702305486915,-0.0073075716243931055,0.004035852187556088,-0.036265552975756066,0.0,70.0,255.0,255.0,255.0
366,18.3,-3.8047388600864456,-2.995672628042409,-8.831713465822327,-0.2350765743383132,0.15280573108824136,-0.8992722717007595,-0.006874270745216293,0.004457826645998253,-0.03612978190581373,0.0,70.0,255.0,255.0,255.0
367,18.35,-3.816501070227732,-2.9880269895559564,-8.876722081039743,-0.23541950994669936,0.15305064070019636,-0.9010832087392728,-0.007125861829004876,0.005575790027112504,-0.03651063946534805,0.0,70.0,255.0,255.0,255.0
368,18.400000000000002,-3.8282808110811155,-2.9803675639723894,-8.921821786696254,-0.23578916052121368,0.1533633100909526,-0.9029233356472943,-0.007832498910209651,0.006948943685225473,-0.03719211553931956,0.0,70.0,255.0,255.0,255.0
369,18.45,-3.8400799862798536,-2.972690658546861,-8.967014414604472,-0.23620275983772032,0.1537455350687189,-0.9048024202932048,-0.008762302570941571,0.00814037691023728,-0.03795916813196243,0.0,70.0,255.0,255.0,255.0
370,18.5,-3.8519010870648875,-2.9649930104655176,-9.012302028725575,-0.23666539077830784,0.15417734778197634,-0.9067192524604906,-0.009679925150996027,0.008722009090611493,-0.038601187602615994,0.0,70.0,255.0,255.0,255.0
371,18.55,-3.8637465253576844,-2.9572729237686635,-9.057686339850521,-0.23717075235281992,0.15461773597778006,-0.9086625390534664,-0.010437904489002392,0.008472609441279033,-0.03899413204475621,0.0,70.0,255.0,255.0,255.0
372,18.6,-3.8756181623001695,-2.9495312368677395,-9.103168282630921,-0.23770918122720808,0.15502460872610424,-0.9106186656649662,-0.011009701450248599,0.0075575872098276875,-0.039141915499385505,0.0,70.0,255.0,255.0,255.0
373,18.650000000000002,-3.887517443480405,-2.941770462896053,-9.148748206417018,-0.23827172249784478,0.15537349469876283,-0.9125767306034049,-0.011387734348700107,0.006327088591406849,-0.039087432859297166,0.0,70.0,255.0,255.0,255.0
374,18.7,-3.899445334549954,-2.9339938873978633,-9.194425955691262,-0.2388479546620781,0.15565731758524493,-0.9145274089508959,-0.01154659488791232,0.005129274663806527,-0.03886714320664453,0.0,70.0,255.0,255.0,255.0
375,18.75,-3.911402238946613,-2.9262047311375285,-9.240200947312108,-0.23942638198663602,0.15588642216514348,-0.9164634449240694,-0.011468671827463695,0.004296064830056068,-0.03852167796516426,0.0,70.0,255.0,255.0,255.0
376,18.8,-3.9233879727486176,-2.918405245181349,-9.286072300183669,-0.23999482184482446,0.15608692406825053,-0.9183795767474123,-0.011159659083892493,0.004011082908395025,-0.038085950986754824,0.0,70.0,255.0,255.0,255.0
377,18.85,-3.9354017211310954,-2.9105960387307035,-9.332038904986849,-0.24054234789502527,0.15628753045598298,-0.9202720400227449,-0.010678875493441708,0.00422481684441145,-0.037602537697267735,0.0,70.0,255.0,255.0,255.0
378,18.900000000000002,-3.94744220753812,-2.9027764921357506,-9.378099504185943,-0.24106270939416863,0.15650940575269168,-0.9221398305171391,-0.010134698893571326,0.004792585399115978,-0.03713899218507066,0.0,70.0,255.0,255.0,255.0
379,18.95,-3.9595079920705123,-2.8949450981554343,-9.424252888038563,-0.2415558177843824,0.15676678899589458,-0.9239859392412519,-0.009657005523200368,0.005568724900495425,-0.036777946687927,0.0,70.0,255.0,255.0,255.0
380,19.0,-3.9715977893165584,-2.887099813236161,-9.470498098110069,-0.24202840994648867,0.15706627824274122,-0.9258176251859318,-0.00938543415887061,0.006413731589560712,-0.03660813783259442,0.0,70.0,255.0,255.0,255.0
381,19.05,-3.983710833065161,-2.87923847033116,-9.516834650557156,-0.24249436120026946,0.15740816215485065,-0.9276467530245114,-0.009389659641367842,0.007231310673638802,-0.03666877729422424,0.0,70.0,255.0,255.0,255.0
382,19.1,-3.9958472254365853,-2.871358997020676,-9.56326277341252,-0.24296737591062545,0.1577894093101051,-0.9294845029153542,-0.009591160212485406,0.007945942614817625,-0.036885229748584436,0.0,70.0,255.0,255.0,255.0
383,19.150000000000002,-4.008007570656224,-2.8634595294001497,-9.609783100848691,-0.243453477221518,0.1582027564163324,-0.9313352759993698,-0.009837945601631759,0.008457255126836927,-0.03711930236445227,0.0,70.0,255.0,255.0,255.0
384,19.200000000000003,-4.020192573158737,-2.855538721379043,-9.656396301012457,-0.24395117047078863,0.1586351348227888,-0.9331964331517995,-0.009978296772494843,0.00865736419566332,-0.03722778332910792,0.0,70.0,255.0,255.0,255.0
385,19.25,-4.032402687703303,-2.847596015917871,-9.703102744163871,-0.24445130689876748,0.15906849283589874,-0.9350580543322806,-0.009849638156911311,0.008449008812183578,-0.037053789351304545,0.0,70.0,255.0,255.0,255.0
386,19.3,-4.044637703848614,-2.839631872095453,-9.749902106445685,-0.24493613428647976,0.15948003570400715,-0.9369018120869299,-0.00937512892384973,0.00780213593589707,-0.03652565312179945,0.0,70.0,255.0,255.0,255.0
387,19.35,-4.0568963011319505,-2.83164801234747,-9.796792925372564,-0.24538881979115246,0.15984870642948845,-0.9387106196444606,-0.008679187619620166,0.006836727381109853,-0.03577924727036219,0.0,70.0,255.0,255.0,255.0
388,19.400000000000002,-4.069176585827729,-2.823647001452504,-9.84377316841013,-0.24580405304844177,0.16016370844211814,-0.9404797368139661,-0.007990814737013352,0.005775596890744694,-0.03506109439630478,0.0,70.0,255.0,255.0,255.0
389,19.450000000000003,-4.081476706436795,-2.8156316415032583,-9.890840899053961,-0.2461879012648538,0.16042626611856292,-0.942216729084091,-0.007529667526906536,0.004860279855156691,-0.03461078013788921,0.0,70.0,255.0,255.0,255.0
390,19.5,-4.0937953759542145,-2.807604374840648,-9.93799484131854,-0.24655701980113243,0.1606497364276338,-0.943940814827755,-0.007503938621322703,0.004322261133937744,-0.034664630167924315,0.0,70.0,255.0,255.0,255.0
391,19.55,-4.106132408416908,-2.799566667860495,-9.985234980536736,-0.24693829512698606,0.1608584922319567,-0.9456831921008835,-0.008010710443784319,0.004280145583157591,-0.03532949599716062,0.0,70.0,255.0,255.0,255.0
392,19.6,-4.118489205466913,-2.791518525617452,-10.032563160528628,-0.24735809084551086,0.16107775098594956,-0.9474737644274711,-0.00892584222320636,0.004659035972087722,-0.0364315340840804,0.0,70.0,255.0,255.0,255.0
393,19.650000000000002,-4.130868217501459,-2.7834588927619,-10.079982356979484,-0.2478308793493067,0.16132439582916547,-0.9493263455092915,-0.01000336421519421,0.005288469197983758,-0.03764088881776928,0.0,70.0,255.0,255.0,255.0
394,19.700000000000003,-4.143272293401844,-2.7753860860345356,-10.127495795079557,-0.24835842726703028,0.16160659790574794,-0.951237853309248,-0.010990772047581032,0.005988229670395029,-0.038623548336325086,0.0,70.0,255.0,255.0,255.0
395,19.75,-4.155704060228162,-2.767298232971325,-10.175106142310408,-0.2489299565540648,0.16192321879620497,-0.953188700342924,-0.011654607357325375,0.0065819466521510606,-0.03905971794591068,0.0,70.0,255.0,255.0,255.0
396,19.8,-4.16816528905725,-2.759193764154915,-10.22281466511385,-0.24952388800276282,0.16226479257096305,-0.9551438251038391,-0.011868742587850534,0.006965020659421839,-0.03878927663940601,0.0,70.0,255.0,255.0,255.0
397,19.85,-4.180656449028438,-2.751071753714229,-10.270620524820792,-0.25011683081284986,0.16261972086214715,-0.9570676280068646,-0.01166555537581715,0.007131697495044165,-0.037944499843334256,0.0,70.0,255.0,255.0,255.0
398,19.900000000000002,-4.193176972138535,-2.7429317920687004,-10.318521427914536,-0.25069044354034453,0.16297796232046746,-0.9589382750881725,-0.01114761651379581,0.0071042792312514536,-0.036806306045811255,0.0,70.0,255.0,255.0,255.0
399,19.950000000000003,-4.205725493382473,-2.734773957482182,-10.36651435232961,-0.25123159246422944,0.1633301487852723,-0.9607482586114457,-0.010427244283217618,0.006901113817603388,-0.035667800412575446,0.0,70.0,255.0,255.0,255.0
400,20.0,-4.218300131384958,-2.726598777190173,-10.41459625377568,-0.2517331679686663,0.1636680737022278,-0.9625050551294301,-0.009609659921583358,0.006541933609227613,-0.034820507369737186,0.0,70.0,255.0,255.0,255.0
401,20.05,-4.230898810179339,-2.7184071501119593,-10.462764857842553,-0.25219255845638777,0.16398434214619506,-0.9642303093484195,-0.008772780742649644,0.00605203285153344,-0.034425658514436464,0.0,70.0,255.0,255.0,255.0
402,20.1,-4.243519387230597,-2.7102003429755537,-10.511019284710523,-0.25261044604293126,0.16427327698738114,-0.9659476209808737,-0.00800913907008649,0.0054950132083231296,-0.034423193818078346,0.0,70.0,255.0,255.0,255.0
403,20.150000000000002,-4.256159854783633,-2.701979822413221,-10.55935961994064,-0.2529934723633964,0.16453384346702737,-0.9676726287302273,-0.007451484415366139,0.0049752530379088,-0.03466283805018122,0.0,70.0,255.0,255.0,255.0
404,20.200000000000003,-4.268818734466937,-2.693746958628851,-10.607786547583546,-0.25335559448446787,0.16477080229117202,-0.9694139047858918,-0.007238712358681454,0.004606289418429554,-0.03499765094474583,0.0,70.0,255.0,255.0,255.0
405,20.25,-4.281495414232079,-2.685502742184104,-10.656301010419229,-0.25371734359926457,0.16499447240887033,-0.9711723938247019,-0.00750675295595471,0.004494328234594391,-0.03527428986842551,0.0,70.0,255.0,255.0,255.0
406,20.3,-4.294190468826863,-2.677247511387964,-10.704903786966016,-0.25410626978006334,0.16522023511463146,-0.9729413337727344,-0.008301672902888413,0.004687360754918046,-0.03540254151594979,0.0,70.0,255.0,255.0,255.0
407,20.35,-4.306906041210086,-2.668980718672641,-10.753595143796502,-0.2545475108895534,0.16546320848436213,-0.9747126479762969,-0.009452573658830232,0.005123774147364202,-0.035404589688603494,0.0,70.0,255.0,255.0,255.0
408,20.400000000000002,-4.319645219915818,-2.6607011905395277,-10.802375051763645,-0.25505152714594637,0.16573261252936788,-0.9764817927415947,-0.010649243027760491,0.005678344981019379,-0.03533879863137912,0.0,70.0,255.0,255.0,255.0
409,20.450000000000003,-4.33241119392468,-2.652407457419704,-10.851243323070662,-0.25561243519232946,0.16603104298246407,-0.9782465278394348,-0.011566158030351659,0.006214241329516312,-0.03524919487496447,0.0,70.0,255.0,255.0,255.0
410,20.5,-4.345206463435051,-2.6440980862412813,-10.900199704547589,-0.25620814294898153,0.16635403666231952,-0.9800067122290912,-0.011883328254747028,0.006592734804033995,-0.035178277211755926,0.0,70.0,255.0,255.0,255.0
411,20.55,-4.3580320082195785,-2.635772053753472,-10.949243994293571,-0.25680076801780416,0.16669031646286747,-0.9817643555606104,-0.011446728111863536,0.006739036948788524,-0.035150748848344904,0.0,70.0,255.0,255.0,255.0
412,20.6,-4.370886540236832,-2.6274290545949945,-10.99837614010365,-0.2573528157601679,0.16702794035719837,-0.9835217871139257,-0.010430449743736858,0.006693526566081687,-0.03515844742807417,0.0,70.0,255.0,255.0,255.0
413,20.650000000000002,-4.383767289795595,-2.6190692597177523,-11.047596173004964,-0.25784381299217785,0.16735966911947564,-0.9852802003034178,-0.009182499184490212,0.006546891513936615,-0.03518196742398061,0.0,70.0,255.0,255.0,255.0
414,20.700000000000003,-4.3966709215360495,-2.610693087683047,-11.096904160133992,-0.2582710656786169,0.16768262950859203,-0.9870399838563237,-0.008062716126477909,0.006390544797429953,-0.035205569555252225,0.0,70.0,255.0,255.0,255.0
415,20.75,-4.409594396363457,-2.602300996766893,-11.146300171390596,-0.25865008460482564,0.16799872359921864,-0.988800757258943,-0.0074319153770652235,0.006326713901172454,-0.035212601286715994,0.0,70.0,255.0,255.0,255.0
416,20.8,-4.422535929996532,-2.593893215323125,-11.195784235859886,-0.25901425721632343,0.16831530089870927,-0.9905612439849953,-0.0074774752555129,0.006409265342188775,-0.03519446309088181,0.0,70.0,255.0,255.0,255.0
417,20.85,-4.435495822085089,-2.585469466677022,-11.245356295789096,-0.2593978321303769,0.1686396501334375,-0.9923202035680312,-0.00805658307667656,0.0065811871873489025,-0.035161620597001786,0.0,70.0,255.0,255.0,255.0
418,20.900000000000002,-4.44847571320957,-2.5770292503097814,-11.29501625621669,-0.2598199155239911,0.16897341961744416,-0.9940774060446955,-0.008870643684133483,0.006735860525530768,-0.035133331673264934,0.0,70.0,255.0,255.0,255.0
419,20.950000000000003,-4.461477813637488,-2.5685721247152777,-11.344764036393565,-0.2602848964987903,0.1693132361859906,-0.9958335367353577,-0.00962260450414476,0.006776493233751069,-0.03512852690406021,0.0,70.0,255.0,255.0,255.0
420,21.0,-4.474504202859449,-2.5600979266911823,-11.394599609890225,-0.26078217597440556,0.16965106894081927,-0.9975902587351015,-0.010013066180647456,0.006604465534865156,-0.03517131764070314,0.0,70.0,255.0,255.0,255.0
421,21.05,-4.487556031234929,-2.551607017821196,-11.444523062267075,-0.261286203116855,0.1699736827394771,-0.999350668499428,-0.009884023546291587,0.006176815435088301,-0.035271398789404884,0.0,70.0,255.0,255.0,255.0
422,21.1,-4.500632823171134,-2.5431005584172346,-11.494534676740168,-0.2617705783290347,0.1702687504843281,-1.001117398614042,-0.009349558276561254,0.005583496246686082,-0.035395070183597,0.0,70.0,255.0,255.0,255.0
423,21.150000000000002,-4.513733089067832,-2.534580142772763,-11.54463480212848,-0.26222115894451115,0.1705320323641457,-1.0028901755177877,-0.008647746591972094,0.004988733983468663,-0.0354847058822827,0.0,70.0,255.0,255.0,255.0
424,21.200000000000003,-4.5268549390655854,-2.52604735518082,-11.594823694291946,-0.26263535298823193,0.17076762388267497,-1.0046658692022703,-0.008007238817242524,0.0045562561602263685,-0.03548703611517823,0.0,70.0,255.0,255.0,255.0
425,21.25,-4.539996624366656,-2.5175033803844955,-11.645101389048707,-0.2630218828262354,0.17098765798016835,-1.0064388791293055,-0.0076477546320674605,0.004447405310692432,-0.03535415612248016,0.0,70.0,255.0,255.0,255.0
426,21.3,-4.553157127348209,-2.508948589382803,-11.695467582204877,-0.2634001284514387,0.1712123644137442,-1.0082012848145183,-0.007686290699027154,0.0047372724511163256,-0.03506614221837623,0.0,70.0,255.0,255.0,255.0
427,21.35,-4.5663366372117995,-2.500382143943121,-11.745921517530158,-0.2637905118961381,0.17146138522527998,-1.0099454933511431,-0.008059775892022003,0.005320352301918518,-0.034659870229525325,0.0,70.0,255.0,255.0,255.0
428,21.400000000000002,-4.579536178537823,-2.491802450860275,-11.796462131539991,-0.2642061060406409,0.17174439964393606,-1.0116672718374708,-0.008623777873228988,0.0059928399042785685,-0.034206912395617906,0.0,70.0,255.0,255.0,255.0
429,21.450000000000003,-4.592757247815864,-2.4832077039787275,-11.847088244713905,-0.264652889683461,0.17206066921570784,-1.013366184590705,-0.009235153513742489,0.006545708232463809,-0.03378281581589704,0.0,70.0,255.0,255.0,255.0
430,21.5,-4.606001467506169,-2.4745963839387044,-11.897798749999062,-0.2651296213920151,0.17239897046718244,-1.0150455534190606,-0.009759924615515558,0.006769922546512319,-0.03345606719484806,0.0,70.0,255.0,255.0,255.0
431,21.55,-4.619270209955065,-2.4659678069320092,-11.948592800055811,-0.26562888214501257,0.17273766147035907,-1.0167117913101897,-0.010118039764250852,0.006560808047062494,-0.033264032336077776,0.0,70.0,255.0,255.0,255.0
432,21.6,-4.63256435572067,-2.4573226177916685,-11.99946992913008,-0.2661414253684402,0.1730550512718887,-1.0183719566526683,-0.01029497451874306,0.006020502470738265,-0.03320274493372466,0.0,70.0,255.0,255.0,255.0
433,21.650000000000002,-4.645884352491909,-2.4486623018048204,-12.050429995721078,-0.2666583795968869,0.1733397117174329,-1.0200320658035622,-0.010292666390299132,0.005354498473986169,-0.033250348498370386,0.0,70.0,255.0,255.0,255.0
434,21.700000000000003,-4.659230193680359,-2.439988646619925,-12.101473135710437,-0.2671706920074701,0.1735905011192873,-1.0216969915025054,-0.010112659948635638,0.004767484337087069,-0.03338170062292534,0.0,70.0,255.0,255.0,255.0
435,21.75,-4.672601421692656,-2.4313032516928916,-12.152599694871329,-0.26766964559175044,0.1738164601511416,-1.0233702358658547,-0.009756556231010904,0.004456867207691673,-0.03357756577493376,0.0,70.0,255.0,255.0,255.0
436,21.8,-4.685997158239534,-2.422607000604811,-12.203810159297023,-0.2681463476305712,0.17403618784005648,-1.0250547480799987,-0.009240524602915912,0.004526068786958604,-0.0338182412573218,0.0,70.0,255.0,255.0,255.0
437,21.85,-4.699416056455713,-2.413899632908886,-12.255105169679329,-0.26859369805204203,0.17426906702983747,-1.026752059991587,-0.008641165193168376,0.004912229889297848,-0.03405008243628771,0.0,70.0,255.0,255.0,255.0
438,21.900000000000002,-4.712856528044738,-2.4051800939018273,-12.306485365296181,-0.26901046414988805,0.17452741082898626,-1.0284597563236275,-0.008086395726003559,0.005474574124741949,-0.034189922049421284,0.0,70.0,255.0,255.0,255.0
439,21.950000000000003,-4.726317102870702,-2.3964468918259874,-12.357951145311691,-0.2694023376246424,0.17481652444231166,-1.030171052196529,-0.007713181050839069,0.006071067706070465,-0.03415089451230813,0.0,70.0,255.0,255.0,255.0
440,22.0,-4.739796761807202,-2.387698441457596,-12.409502470515834,-0.26978178225497196,0.1751345175995933,-1.0318748457748583,-0.007657859784249155,0.006566617947223463,-0.03383366970481916,0.0,70.0,255.0,255.0,255.0
441,22.05,-4.753295281096199,-2.378933440066028,-12.461138629889177,-0.2701681236030673,0.175473186237034,-1.033554419167011,-0.007980374644667165,0.006882142912090217,-0.03320248981477647,0.0,70.0,255.0,255.0,255.0
442,22.1,-4.766813574167509,-2.3701511228338927,-12.512857912432535,-0.2705798197194387,0.17582273189080233,-1.035195094756336,-0.00857588918474761,0.007014214335576696,-0.032398696884250455,0.0,70.0,255.0,255.0,255.0
443,22.150000000000002,-4.780353263068143,-2.361351166876948,-12.564658139364811,-0.27102571252154206,0.17617460767059168,-1.036794288855436,-0.009245387069700683,0.0069827295027469205,-0.03166903090257023,0.0,70.0,255.0,255.0,255.0
444,22.200000000000003,-4.793916145419663,-2.3525336620668336,-12.616537341318079,-0.27150435842640874,0.17652100484107702,-1.038361997846593,-0.00978184195474796,0.006808757659015896,-0.031260781932118675,0.0,70.0,255.0,255.0,255.0
445,22.25,-4.807503698910784,-2.34369906639284,-12.66849433914947,-0.27200389671701686,0.17685548343649327,-1.0399203670486479,-0.009976013955093066,0.006520670327292422,-0.0314277087852588,0.0,70.0,255.0,255.0,255.0
446,22.3,-4.821116535091365,-2.3348481137231842,-12.720529378022944,-0.27250195982191805,0.17717307187380626,-1.0415047687251189,-0.009724690105539224,0.006144333923829848,-0.03227939855197093,0.0,70.0,255.0,255.0,255.0
447,22.35,-4.834753894892976,-2.3259817592054595,-12.772644816021982,-0.2729763657275708,0.17746991682887625,-1.043148306903845,-0.009140685994246667,0.005711751929382558,-0.03358888294133777,0.0,70.0,255.0,255.0,255.0
448,22.400000000000002,-4.848414171664122,-2.3171011220402966,-12.824844208713328,-0.2734160284213427,0.17774424706674452,-1.0448636570192527,-0.008446648069426743,0.005275347025079924,-0.0349385231043442,0.0,70.0,255.0,255.0,255.0
449,22.450000000000003,-4.86209549773511,-2.308207334498785,-12.877131181723907,-0.27382103053451345,0.17799745153138424,-1.0466421592142794,-0.007866024555891471,0.004899589303430929,-0.03590714325998334,0.0,70.0,255.0,255.0,255.0
450,22.5,-4.875796274717573,-2.299301376887158,-12.929508424634756,-0.27420263087693186,0.1782342059970876,-1.048454371345251,-0.007622047099697937,0.004646738039237874,-0.03607955109821148,0.0,70.0,255.0,255.0,255.0
451,22.55,-4.889515760822803,-2.2903839138990763,-12.981976618858432,-0.27458323524448325,0.17846212533530803,-1.0502501143241005,-0.007827438360674677,0.004547234679419532,-0.03525903019667709,0.0,70.0,255.0,255.0,255.0
452,22.6,-4.903254598242022,-2.2814551643536274,-13.034533436067166,-0.27498537471299933,0.17868892946502957,-1.0519802743649187,-0.008375958912409942,0.004576073984585705,-0.03369742636341044,0.0,70.0,255.0,255.0,255.0
453,22.650000000000002,-4.917014298294103,-2.2725150209525733,-13.087174646294924,-0.27542083113572424,0.1789197327337666,-1.0536198569604416,-0.00905342857668856,0.0046785863595300015,-0.031886899989963524,0.0,70.0,255.0,255.0,255.0
454,22.700000000000003,-4.930796681355594,-2.2635631910802507,-13.13989542176321,-0.2758907175706682,0.17915678810098257,-1.055168964363915,-0.009647486395714111,0.004792885127402613,-0.030329479525192937,0.0,70.0,255.0,255.0,255.0
455,22.75,-4.94460337005117,-2.254599342142475,-13.192691542731316,-0.27638557977529565,0.17939902124650686,-1.0566528049129609,-0.009951834943233706,0.004848368191634478,-0.029518049524845935,0.0,70.0,255.0,255.0,255.0
456,22.8,-4.958435239333124,-2.2456232889556,-13.245560702254506,-0.27688590106499156,0.17964162492014601,-1.0581207693163996,-0.00985898302472421,0.004807240178728023,-0.029704340801828266,0.0,70.0,255.0,255.0,255.0
457,22.85,-4.972291960157669,-2.2366351796504604,-13.298503619662956,-0.2773714780777681,0.17987974526437966,-1.0596232389931437,-0.009440886280920324,0.00470488453365725,-0.03068789179270226,0.0,70.0,255.0,255.0,255.0
458,22.900000000000002,-4.9861723871409005,-2.227635314429162,-13.35152302615382,-0.2778299896930836,0.18011211337351174,-1.0611895584956699,-0.008854229698496141,0.004608535975236805,-0.0320473967498458,0.0,70.0,255.0,255.0,255.0
459,22.950000000000003,-5.0000749591269775,-2.2186239683131093,-13.404622575512523,-0.2782569010476177,0.18034059886190335,-1.0628279786681283,-0.008257316575033258,0.004575956433683359,-0.033355078498154,0.0,70.0,255.0,255.0,255.0
460,23.0,-5.013998077245662,-2.2096012545429717,-13.457805824020634,-0.2786557213505869,0.18056970901688008,-1.0645250663454853,-0.00780660380348408,0.0046557332499030935,-0.034184288096739124,0.0,70.0,255.0,255.0,255.0
461,23.05,-5.027940531262036,-2.2005669974114213,-13.511075082147071,-0.2790375614279661,0.18080617218689365,-1.0662464074778022,-0.007589403433083675,0.0048708908527483885,-0.03430477209782623,0.0,70.0,255.0,255.0,255.0
462,23.1,-5.041901833388459,-2.1915206373242824,-13.564430464768414,-0.2794146616938953,0.18105679810215491,-1.067955543555268,-0.007576859600177954,0.005202616319310849,-0.033840983156707694,0.0,70.0,255.0,255.0,255.0
463,23.150000000000002,-5.055881997431426,-2.1824613176012058,-13.617870636502598,-0.2797952473879839,0.18132643381882474,-1.069630505793473,-0.0076941281530906735,0.005608202140550134,-0.033071858000432997,0.0,70.0,255.0,255.0,255.0
464,23.200000000000003,-5.069881358127257,-2.1733879939424,-13.671393515347761,-0.28018407450920435,0.18161761831620993,-1.0712627293553112,-0.007869447770580962,0.006043801958321993,-0.03227109226351388,0.0,70.0,255.0,255.0,255.0
465,23.25,-5.083900404882346,-2.1642995557695848,-13.72499690943813,-0.280582192165042,0.18193081401465694,-1.0728576150198244,-0.00802976849163528,0.006484689484809181,-0.03172074214301546,0.0,70.0,255.0,255.0,255.0
466,23.3,-5.0979395773437615,-2.155194912540934,-13.778679276849743,-0.2809870513583679,0.18226608726469085,-1.0744348035696127,-0.008130629349878404,0.006909196409976559,-0.03157540530551728,0.0,70.0,255.0,255.0,255.0
467,23.35,-5.111999110018183,-2.1460729470431157,-13.83244038979509,-0.28139525510002983,0.1826217336556546,-1.076015155550376,-0.008172607719014735,0.007247354151607155,-0.031743606814416125,0.0,70.0,255.0,255.0,255.0
468,23.400000000000002,-5.1260791028537644,-2.1369327391753687,-13.886280792404781,-0.28180431213026935,0.18299082267985156,-1.0776091642510544,-0.008167486126708923,0.007395951500077658,-0.03203141833427736,0.0,70.0,255.0,255.0,255.0
469,23.450000000000003,-5.14017954123121,-2.1277738647751305,-13.940201306220196,-0.2822120037127007,0.18336132880566236,-1.0792182973838038,-0.008118691877090356,0.007262262306850786,-0.032259666670064746,0.0,70.0,255.0,255.0,255.0
470,23.5,-5.1543003032250345,-2.1185966062948025,-13.994202622143161,-0.2826161813179784,0.18371704891053664,-1.0808351309180608,-0.008022294258758222,0.006753574078954827,-0.03224481792347689,0.0,70.0,255.0,255.0,255.0
471,23.55,-5.168441159363008,-2.109402159884077,-14.048284819312002,-0.28301423313857654,0.18403668621355784,-1.0824427791761515,-0.007881365880013647,0.005844211618954986,-0.031893746538358414,0.0,70.0,255.0,255.0,255.0
472,23.6,-5.182601726538892,-2.1001929376734467,-14.102446900060777,-0.28340431790597975,0.18430147007243214,-1.0840245055718967,-0.007732709523633474,0.004690577796884199,-0.03130729354854367,0.0,70.0,255.0,255.0,255.0
473,23.650000000000002,-5.196781591153606,-2.0909720128768337,-14.156687269869192,-0.2837875040909399,0.18450574399324626,-1.0855735085310059,-0.0076359273397663685,0.0035678986189058293,-0.030679764699570455,0.0,70.0,255.0,255.0,255.0
474,23.700000000000003,-5.210980476947986,-2.081742363274122,-14.211004250913877,-0.2841679106399564,0.18465825993432272,-1.0870924820418537,-0.007649071434912003,0.002758897066046373,-0.03019681448357403,0.0,70.0,255.0,255.0,255.0
475,23.75,-5.225198382217601,-2.0725061868834014,-14.265396518073377,-0.2845524112344311,0.1847816336998509,-1.0885931899793633,-0.007829026502115255,0.002537004875424742,-0.03003993954280304,0.0,70.0,255.0,255.0,255.0
476,23.8,-5.239435718071429,-2.063264199904137,-14.319863569911814,-0.2849508132901679,0.1849119604218652,-1.090096475996134,-0.008197706663182203,0.003028269468252631,-0.030296694786358103,0.0,70.0,255.0,255.0,255.0
477,23.85,-5.253693463546618,-2.054014990841215,-14.37440616567299,-0.2853721819007493,0.18508446064667616,-1.091622859457999,-0.00869478262384149,0.004061383612130598,-0.030862743467885423,0.0,70.0,255.0,255.0,255.0
478,23.900000000000002,-5.267972936261504,-2.0447557538394694,-14.429025855857613,-0.28582029155255206,0.18531809878307826,-1.0931827503429226,-0.009209736915138933,0.005299726751850642,-0.03153315923327682,0.0,70.0,255.0,255.0,255.0
479,23.950000000000003,-5.282275492701873,-2.035483180962907,-14.483724440707283,-0.2862931555922632,0.18561443332186123,-1.0947761753813268,-0.009632248491087125,0.006389888356661544,-0.03210030150313514,0.0,70.0,255.0,255.0,255.0
480,24.0,-5.2966022518207305,-2.0261943105072833,-14.538503473395746,-0.2867835164016608,0.1859570876187444,-1.096392780493236,-0.009869618381586065,0.006974397095227403,-0.03235943322774659,0.0,70.0,255.0,255.0,255.0
481,24.05,-5.310953844342039,-2.0168874722010326,-14.593363718756606,-0.2872801174304218,0.18631187303138397,-1.0980121187041014,-0.009874007933063922,0.0068699366150060115,-0.03220618760195748,0.0,70.0,255.0,255.0,255.0
482,24.1,-5.325330263563773,-2.007563123204145,-14.648304685266156,-0.28777091719496717,0.186644081280245,-1.0996133992534318,-0.009652635503965001,0.00623293204347064,-0.03172714050485581,0.0,70.0,255.0,255.0,255.0
483,24.150000000000002,-5.339730936061536,-1.998223064073008,-14.70332505868195,-0.2882453809808183,0.18693516623573103,-1.101184832754587,-0.009241488636302364,0.005383310923989804,-0.031102190443199618,0.0,70.0,255.0,255.0,255.0
484,24.200000000000003,-5.3541548016618545,-1.9888696065805718,-14.758423168541615,-0.2886950660585974,0.187182412372644,-1.1027236182977518,-0.008688135068357639,0.0046419224680294136,-0.03051526621877798,0.0,70.0,255.0,255.0,255.0
485,24.25,-5.368600442667396,-1.9795048228357437,-14.813597420511725,-0.2891141944876541,0.18739935848253397,-1.1042363593764648,-0.008032546592140477,0.004341350799652588,-0.03015831822050785,0.0,70.0,255.0,255.0,255.0
486,24.3,-5.38306622111062,-1.9701296707323184,-14.868846804479261,-0.28949832071781145,0.18761654745260925,-1.1057394501198026,-0.007311949249277916,0.0046513313908258525,-0.03013132869735813,0.0,70.0,255.0,255.0,255.0
487,24.35,-5.397550274739177,-1.9607431680904828,-14.924171365523705,-0.28984538941258187,0.18786449162161656,-1.1072494922462006,-0.006612810557360405,0.005400547887268736,-0.03034505814945021,0.0,70.0,255.0,255.0,255.0
488,24.400000000000002,-5.412050760051878,-1.9513432215701567,-14.979571753703881,-0.2901596017735475,0.18815660224133612,-1.1087739559347476,-0.006067851663882351,0.006254209039502356,-0.030622554518799916,0.0,70.0,255.0,255.0,255.0
489,24.450000000000003,-5.426566234916532,-1.9419275078663492,-15.03504876111718,-0.2904521745789701,0.1884899125255668,-1.1103117476980806,-0.005807472308561046,0.006888762097889689,-0.03079154737513079,0.0,70.0,255.0,255.0,255.0
490,24.5,-5.441095977509775,-1.9324942303176,-15.09060292847369,-0.2907403490044036,0.1888454784511251,-1.1118531106722607,-0.005948167277747274,0.006980292946145994,-0.030667340509893393,0.0,70.0,255.0,255.0,255.0
491,24.55,-5.455640269816972,-1.9230429600212366,-15.146234072184406,-0.29104699130674483,0.1891879418201814,-1.11337848174907,-0.006533020244070542,0.0063710781480041945,-0.030161924182081634,0.0,70.0,255.0,255.0,255.0
492,24.6,-5.47020067664045,-1.913575436135582,-15.201940776648597,-0.29139365102881065,0.1894825862659255,-1.1148693030904688,-0.007450807581221852,0.005252055894500174,-0.029415330861404243,0.0,70.0,255.0,255.0,255.0
493,24.650000000000002,-5.484779634919853,-1.904094701394644,-15.257721002493453,-0.291792072064867,0.1897131474096314,-1.1163200148352104,-0.008489901911179487,0.0039935125917711645,-0.02868488751985865,0.0,70.0,255.0,255.0,255.0
494,24.700000000000003,-5.499379883846936,-1.8946041213946188,-15.313572778132118,-0.2922426412199286,0.18988193752510263,-1.1177377918424547,-0.009423514158601876,0.0029623764600916758,-0.028218404419710907,0.0,70.0,255.0,255.0,255.0
495,24.75,-5.514003899041846,-1.8851065076421338,-15.369494781677698,-0.2927344234807272,0.19000938505564058,-1.1191418552771815,-0.010042756324768476,0.0025134214715061276,-0.028260245145794727,0.0,70.0,255.0,255.0,255.0
496,24.8,-5.528653326195009,-1.8756031828890547,-15.425486963659836,-0.29324691685240545,0.19013327967225324,-1.1205638163570342,-0.010235969774718967,0.0028247289773464246,-0.02892186035481359,0.0,70.0,255.0,255.0,255.0
497,24.85,-5.543328590727087,-1.8660931796749085,-15.481551163313402,-0.2937580204581991,0.19029185795337522,-1.1220340413126628,-0.010032071006271792,0.0037413450849621555,-0.030027371321317275,0.0,70.0,255.0,255.0,255.0
498,24.900000000000002,-5.558029128240829,-1.8565739970937172,-15.537690367791102,-0.2942501239530326,0.19050741418074946,-1.123566553489166,-0.009524428803686646,0.004940784882512261,-0.031242464167213768,0.0,70.0,255.0,255.0,255.0
499,24.950000000000003,-5.57275360312239,-1.8470424382568336,-15.593907818662318,-0.29471046333856776,0.19078593644162645,-1.1251582877293842,-0.008818471056759591,0.006095671455796925,-0.032229287157647946,0.0,70.0,255.0,255.0,255.0
500,25.0,-5.587500174574686,-1.8374954034495545,-15.65020619656404,-0.2951319710587086,0.19111698132632915,-1.1267894822049307,-0.008012835394755058,0.006894039815841246,-0.032663706878466314,0.0,70.0,255.0,255.0,255.0
501,25.05,-5.602266800228261,-1.8279307401242006,-15.706586766882811,-0.29551174687804327,0.19147534042321057,-1.1284246584172308,-0.007181562195501812,0.007163945336308153,-0.03238354815184863,0.0,70.0,255.0,255.0,255.0
502,25.1,-5.61705134926249,-1.8183478694072335,-15.763048662405764,-0.29585012727825877,0.19183337585995996,-1.1300278370201156,-0.006418111190686915,0.00695160805475048,-0.03152506730277338,0.0,70.0,255.0,255.0,255.0
503,25.150000000000002,-5.631851812956087,-1.8087474025382047,-15.819589550584823,-0.29615355799711196,0.19217050122868562,-1.1315771651475082,-0.005857697559630282,0.006393464428389173,-0.030376211524796304,0.0,70.0,255.0,255.0,255.0
504,25.200000000000003,-5.646666705062201,-1.799130819284365,-15.876206378920514,-0.2964358970342218,0.19247272230279888,-1.1330654581725952,-0.005641063153394299,0.005628737250495952,-0.029237220841871192,0.0,70.0,255.0,255.0,255.0
505,25.25,-5.661495402659509,-1.7895001303079248,-15.932896096402082,-0.2967176643124514,0.19273337495373521,-1.1345008872316953,-0.005905902095992843,0.004790419265288115,-0.028408936661961093,0.0,70.0,255.0,255.0,255.0
506,25.3,-5.676338471493446,-1.7798574817889914,-15.989656467643684,-0.2970264872438211,0.1929517642293277,-1.1359063518387913,-0.006699319904068801,0.00397123792896803,-0.028056208110172065,0.0,70.0,255.0,255.0,255.0
507,25.35,-5.691198051383891,-1.770204953884992,-16.04648673158596,-0.29738759630285827,0.19313049874663202,-1.1373065080427125,-0.007850169545253749,0.0032494254929016364,-0.028105086740026763,0.0,70.0,255.0,255.0,255.0
508,25.400000000000002,-5.706077231123732,-1.7605444319143282,-16.103387118447955,-0.29781150419834646,0.19327670677861786,-1.138716860512794,-0.009047578161069936,0.002730672089401587,-0.028381640785468676,0.0,70.0,255.0,255.0,255.0
509,25.450000000000003,-5.7209792018037255,-1.7508772832071302,-16.16035841763724,-0.29829235411896526,0.19340356595557218,-1.1401446721212594,-0.009965528078392794,0.0025278410809681517,-0.028714230408866115,0.0,70.0,255.0,255.0,255.0
510,25.5,-5.735906466535629,-1.741204075318771,-16.21740158566008,-0.29880805700618573,0.19352949088671467,-1.1415882835536806,-0.010283556220880286,0.002744283123123914,-0.028916583766402937,0.0,70.0,255.0,255.0,255.0
511,25.55,-5.750860007504344,-1.7315243341184587,-16.27451724599261,-0.2993207097410533,0.19367799426788457,-1.1430363304978997,-0.009847358654280214,0.0034126414091284474,-0.028886071621414544,0.0,70.0,255.0,255.0,255.0
512,25.6,-5.765838537509734,-1.7218362758919825,-16.33170521870987,-0.29979279287161376,0.19387075502762752,-1.144476890715822,-0.008831094078409762,0.004405375288074609,-0.028696450540266483,0.0,70.0,255.0,255.0,255.0
513,25.650000000000002,-5.7808392867915055,-1.712137258615696,-16.38896493506419,-0.30020381914889427,0.19411853179669203,-1.1459059755519263,-0.007582945506889871,0.005486644416974329,-0.028493682210140037,0.0,70.0,255.0,255.0,255.0
514,25.700000000000003,-5.7958589194246235,-1.7024244227123133,-16.446295816265064,-0.30055108742230274,0.19441941946932495,-1.147326258936836,-0.006462885139502106,0.0064014368873932526,-0.028406743303577286,0.0,70.0,255.0,255.0,255.0
515,25.75,-5.810894395533736,-1.6926953166687635,-16.503697560957875,-0.3008501076628445,0.19475867548543135,-1.148746649882284,-0.005831854373017364,0.00690042027011728,-0.02856864435507589,0.0,70.0,255.0,255.0,255.0
516,25.8,-5.825943930190908,-1.6829485551637702,-16.561170481253292,-0.3011342728596045,0.19510946149633668,-1.1501831233723436,-0.005877306084478562,0.006858196434444963,-0.029039878363334992,0.0,70.0,255.0,255.0,255.0
517,25.85,-5.841007822819696,-1.6731843705191298,-16.61871587329511,-0.30143783827129234,0.19544449512887585,-1.1516506377186175,-0.0064564098514630075,0.006377185243011674,-0.029707339538731503,0.0,70.0,255.0,255.0,255.0
518,25.900000000000002,-5.856087714018037,-1.6634041056508826,-16.676335545025154,-0.3017799138447508,0.19574718002063785,-1.1531538573262168,-0.007270523260860529,0.005674638354546957,-0.03036456277776267,0.0,70.0,255.0,255.0,255.0
519,25.950000000000003,-5.871185814204171,-1.653609652517066,-16.73403125902773,-0.3021648905973784,0.19601195896433055,-1.1546870939963938,-0.008022558403730784,0.004979698082707706,-0.030812735769458754,0.0,70.0,255.0,255.0,255.0
520,26.0,-5.886304203077775,-1.6438029097544495,-16.791804254424793,-0.30258216968512386,0.19624514982890862,-1.1562351309031627,-0.00841308223247239,0.004534035796388558,-0.03086888543073485,0.0,70.0,255.0,255.0,255.0
521,26.05,-5.901444031172684,-1.6339851375341752,-16.849654772118047,-0.3030061988206256,0.1964653625439694,-1.1577739825394673,-0.008284069688357931,0.004466833925409475,-0.030446815856066678,0.0,70.0,255.0,255.0,255.0
522,26.1,-5.916604822959838,-1.6241563735000526,-16.90758165267874,-0.30341057665395965,0.19669183322144956,-1.1592798124887693,-0.0077496068407789664,0.004681314975463202,-0.029640438391353996,0.0,70.0,255.0,255.0,255.0
523,26.150000000000002,-5.93178508883808,-1.6143159542120302,-16.965582753366924,-0.3037811595047035,0.19693349404151572,-1.1607380263786027,-0.007047781962299382,0.004981049250862846,-0.028643497918068306,0.0,70.0,255.0,255.0,255.0
524,26.200000000000003,-5.946982938910308,-1.604463024095901,-17.0236554553166,-0.3041153548501896,0.19718993814653585,-1.1621441622805762,-0.006407254206575175,0.005178885000844957,-0.02766128797908607,0.0,70.0,255.0,255.0,255.0
525,26.25,-5.962196624323099,-1.5945969603973766,-17.08179716959498,-0.30442188492536104,0.19745138254160022,-1.1635041551765113,-0.006047751428894799,0.005075511136620747,-0.026887841893596942,0.0,70.0,255.0,255.0,255.0
526,26.3,-5.977425127402844,-1.584717885841741,-17.14000587083425,-0.30472012999307907,0.19769748926019792,-1.1648329464699358,-0.006086275301342425,0.00457460772402829,-0.026432345390503542,0.0,70.0,255.0,255.0,255.0
527,26.35,-5.9926686373224065,-1.5748272114713568,-17.198280464241975,-0.3050305124554953,0.19790884331400305,-1.1661473897155616,-0.006459754860355105,0.0038202588177105312,-0.02628456656772471,0.0,70.0,255.0,255.0,255.0
528,26.400000000000002,-6.007928178648394,-1.5649270015103407,-17.256620609805807,-0.3053661054791146,0.19807951514196898,-1.1674614031267083,-0.007023756815982551,0.0030784606791289804,-0.026388625036943836,0.0,70.0,255.0,255.0,255.0
529,26.450000000000003,-6.023205247870318,-1.55501925995716,-17.315026604554646,-0.30573288813709354,0.19821668938191594,-1.168786252219256,-0.007635138056283353,0.0026046220538811227,-0.026681599494438046,0.0,70.0,255.0,255.0,255.0
530,26.5,-6.038501467462103,-1.545105332572149,-17.373499235027733,-0.3061296192847429,0.1983399773473571,-1.1701295630761521,-0.008159921374950585,0.0026518450652712744,-0.02709172834904905,0.0,70.0,255.0,255.0,255.0
531,26.55,-6.053818209798792,-1.5351852622224242,-17.43203956086226,-0.3065488802745886,0.19848187388844307,-1.171495425054161,-0.008518055213446729,0.0033356209593105035,-0.027565341043711555,0.0,70.0,255.0,255.0,255.0
532,26.6,-6.069156355489562,-1.5252571451833048,-17.49064877753315,-0.3069814248060876,0.19867353944328814,-1.1728860971805233,-0.008695010081982701,0.004471402667394209,-0.02806138857529561,0.0,70.0,255.0,255.0,255.0
533,26.650000000000002,-6.084516352279401,-1.5153179082780954,-17.549328170580313,-0.30741838128278687,0.1989290141551825,-1.1743015639116905,-0.008692715249569716,0.005709676797094332,-0.028519391209869127,0.0,70.0,255.0,255.0,255.0
