idx,t,px,py,pz,vx,vy,vz,ax,ay,az,yaw,mode,ledr,ledg,ledb
0,0.0,13.500000000000007,-1.5000000000000013,1.5691164231371369e-18,-0.0009460926874638176,0.00011005118956575188,0.0010815034140129825,0.022840617916131123,0.003266325402950798,-0.02961002276008656,0.0,70.0,255.0,255.0,255.0
1,0.05,13.499952695365634,-1.499994497440523,5.4075170700650704e-05,0.00019593820834273856,0.0002733674597132918,-0.0003989977239913454,0.03420584963489404,0.0049911974290273164,-0.04431378129511902,0.0,70.0,255.0,255.0,255.0
2,0.1,13.500019593820841,-1.49997266325403,-3.989977239913297e-05,0.002474492276025586,0.0006091709324684835,-0.00334987471549892,0.04546092687451875,0.006899488104372686,-0.05881503414012984,0.0,70.0,255.0,255.0,255.0
3,0.15000000000000002,13.500200144593236,-1.4999335803472762,-0.0002809123008492413,0.004742030895794613,0.0009633162701505604,-0.006280501138004329,0.04524061791961742,0.007266325402510709,-0.058410022760089636,0.0,70.0,255.0,255.0,255.0
4,0.2,13.50049379691042,-1.499876331627015,-0.0006679498861995659,0.006998554067987328,0.0013358034727195545,-0.009190876991507883,0.04502240038188887,0.0076341453017381156,-0.05800322792452178,0.0,70.0,255.0,255.0,255.0
5,0.25,13.500900000000035,-1.4998000000000042,-0.0012000000000000296,0.0092442709339835,0.001726730800324372,-0.012080823930456508,0.044816208505338295,0.008007615155580794,-0.05758617821967682,0.0,70.0,255.0,255.0,255.0
6,0.30000000000000004,13.50141822400382,-1.4997036585469825,-0.0018760322792452167,0.011480174918521158,0.002136564988277634,-0.014949494813475565,0.04462523752888359,0.00838823615791906,-0.05715614892184615,0.0,70.0,255.0,255.0,255.0
7,0.35000000000000003,13.502048017491887,-1.4995863435011765,-0.0026949494813475862,0.01370679468687186,0.002565554416116278,-0.017796438822641123,0.044422240887698194,0.00876320720601953,-0.05673637449328958,0.0,70.0,255.0,255.0,255.0
8,0.4,13.502788903472506,-1.4994471031053709,-0.003655676161509329,0.015922399007290977,0.003012885708879587,-0.020623132262804524,0.0441637054107602,0.009112084747830984,-0.056363960717015875,0.0,70.0,255.0,255.0,255.0
9,0.45,13.503640257392616,-1.4992850549302885,-0.004757262707628039,0.01812316522794788,0.0034767628908993764,-0.02343283489434271,0.04380640841272765,0.009421274989396267,-0.05606905238717194,0.0,70.0,255.0,255.0,255.0
10,0.5,13.504601219995301,-1.499099426816281,-0.0059989596509436,0.020303039848563742,0.0039550132078192135,-0.026230037501521718,0.04328969870002197,0.009694170623042453,-0.05587148160210567,0.0,70.0,255.0,255.0,255.0
11,0.55,13.505670561377473,-1.4988895536095066,-0.00738026645778021,0.022452135097950077,0.004446179953203622,-0.029019983054553278,0.04259382396689659,0.009931747941349656,-0.05577783569818924,0.0,70.0,255.0,255.0,255.0
12,0.6000000000000001,13.506846433505096,-1.4986548088209606,-0.008900957956398928,0.0245624222452534,0.004948188001954179,-0.03180782107134064,0.041834741860569125,0.010101027485420744,-0.055776691182086585,0.0,70.0,255.0,255.0,255.0
13,0.65,13.508126803601998,-1.4983947348093112,-0.010561048564914275,0.02663560928400699,0.005456282701745696,-0.034597652172761936,0.041207419244138066,0.010153935813450587,-0.05584146402615987,0.0,70.0,255.0,255.0,255.0
14,0.7000000000000001,13.509509994433497,-1.498109180550786,-0.012360723173675122,0.028683164169667208,0.005963581583299238,-0.03739196747395663,0.040897372600312565,0.010055067352277014,-0.05593552236248675,0.0,70.0,255.0,255.0,255.0
15,0.75,13.510995120018965,-1.4977983766509813,-0.014300245312309938,0.030725346544038246,0.0064617894369733975,-0.04019120440901061,0.041085121285000525,0.009771382776380122,-0.056018036295540224,0.0,70.0,255.0,255.0,255.0
16,0.8,13.5125825290879,-1.4974630016070887,-0.016379843614576183,0.03279167629816726,0.00694071986093725,-0.04299377110351065,0.041842956620996574,0.009298155609971381,-0.05606452436366774,0.0,70.0,255.0,255.0,255.0
17,0.8500000000000001,13.514274287648782,-1.4971043046648875,-0.018599622422661003,0.0349096422061379,0.007391604997970536,-0.045797656845377385,0.04299347698317746,0.008713522012859798,-0.05607779317929745,0.0,70.0,255.0,255.0,255.0
18,0.9,13.516073493308514,-1.4967238411072916,-0.02095960929911392,0.037091023996485006,0.00781207206222323,-0.0486015504214404,0.04420941481679819,0.008153011159262036,-0.05606841161657598,0.0,70.0,255.0,255.0,255.0
19,0.9500000000000001,13.51798339004843,-1.4963230974586652,-0.023459777464805043,0.03933058368781772,0.00820690611389674,-0.051404498007034984,0.045152352934785256,0.007757429960553175,-0.05604265769668243,0.0,70.0,255.0,255.0,255.0
20,1.0,13.520006551677296,-1.495903150495902,-0.02610005909981742,0.04160625928996353,0.008587815058278547,-0.05420581619110864,0.04548981615908332,0.007664307595600661,-0.056004345243705275,0.0,70.0,255.0,255.0,255.0
21,1.05,13.522144015977426,-1.4954643159528374,-0.028880359083915907,0.043879565303726054,0.008973336873456805,-0.05700493253140551,0.04506055001503029,0.007936142439146643,-0.055957353560426304,0.0,70.0,255.0,255.0,255.0
22,1.1,13.524394508207669,-1.4950058168085563,-0.03180055235295797,0.04611231429146656,0.009381429302193212,-0.05980155154715127,0.04404123365748802,0.008480408938593698,-0.05591213610072476,0.0,70.0,255.0,255.0,255.0
23,1.1500000000000001,13.526755247406573,-1.494526173022618,-0.034860514238631034,0.048283688669474856,0.009821377767316175,-0.06259614614147799,0.042785877200657296,0.009117655913271072,-0.055884889507537214,0.0,70.0,255.0,255.0,255.0
24,1.2000000000000002,13.529222877074616,-1.4940236790318246,-0.03806016696710577,0.05039090201153229,0.010293194893520319,-0.06539004049790499,0.04165927626722521,0.009662438912627636,-0.055893846850785245,0.0,70.0,255.0,255.0,255.0
25,1.25,13.531794337607726,-1.493496853533266,-0.04139951828842153,0.05244961629619738,0.010787621658578939,-0.06818553082655651,0.04102759542945478,0.009935396165183796,-0.05596458272963886,0.0,70.0,255.0,255.0,255.0
26,1.3,13.534467838704236,-1.4929449168659668,-0.04487872004976142,0.05449366155447777,0.011286734510038698,-0.07098649877086888,0.041080903923429446,0.009843987920188368,-0.05610606139462848,0.0,70.0,255.0,255.0,255.0
27,1.35,13.537243703763174,-1.4923681800822621,-0.04849816816550842,0.05655770668854032,0.011772020450597775,-0.07379613696601936,0.04167254409868093,0.00945025015826051,-0.05627366241780646,0.0,70.0,255.0,255.0,255.0
28,1.4000000000000001,13.54012360937309,-1.491767714820907,-0.05225833374636336,0.05866091596434586,0.01223175952586475,-0.07661386501264952,0.04249695983258306,0.008890957262264187,-0.056392030353275,0.0,70.0,255.0,255.0,255.0
29,1.4500000000000002,13.543109795359609,-1.4911450041296757,-0.05615955466677337,0.06080740267179863,0.012661116176824194,-0.07943534000134686,0.043250169035502495,0.008306101101984709,-0.056388668186888036,0.0,70.0,255.0,255.0,255.0
30,1.5,13.54620434964027,-1.4905016032032246,-0.06020186774649804,0.06298593286789611,0.01306236963606322,-0.08225273183133833,0.04362385806491176,0.007830098419692177,-0.056189351809763505,0.0,70.0,255.0,255.0,255.0
31,1.55,13.549408388646398,-1.4898387671660693,-0.0643848278499072,0.0651697884782898,0.013444126018793412,-0.08505427518232321,0.04345648697317017,0.007540679773065939,-0.055764601327264185,0.0,70.0,255.0,255.0,255.0
32,1.6,13.552721328488099,-1.4891571906013452,-0.06870729526473036,0.06733158156521313,0.013816437613369814,-0.08782919196406475,0.042874930275083045,0.007434954064677868,-0.05519498578982693,0.0,70.0,255.0,255.0,255.0
33,1.6500000000000001,13.55614154680292,-1.4884571234047324,-0.07316774704631368,0.06945728150579811,0.014187621425261199,-0.0905737737613059,0.042139103979721426,0.007482990562146519,-0.05462605667843068,0.0,70.0,255.0,255.0,255.0
34,1.7000000000000002,13.559667056638679,-1.487738428458819,-0.07776467264086095,0.07154549196318527,0.014564736669584466,-0.09329179763190781,0.04150042055091063,0.007652643858868657,-0.05420425429443626,0.0,70.0,255.0,255.0,255.0
35,1.75,13.563296095999238,-1.487000649737774,-0.08249692680950446,0.07360732356088917,0.014952885811148064,-0.09599419919074953,0.041208907044953946,0.007900200831878479,-0.05406999138328761,0.0,70.0,255.0,255.0,255.0
36,1.8,13.567027788994768,-1.4862431398777043,-0.08736409255993591,0.07566638266768067,0.015354756752772314,-0.09869879677023657,0.041393008323886704,0.008194318628684805,-0.054289332830116666,0.0,70.0,255.0,255.0,255.0
37,1.85,13.570862734266006,-1.4854651740624967,-0.09236680648652812,0.07774662439327784,0.015772317674016545,-0.1014231324737612,0.04194232687346755,0.00852909442219385,-0.05478191889841666,0.0,70.0,255.0,255.0,255.0
38,1.9000000000000001,13.574802451434095,-1.4846659081103026,-0.09750640580731203,0.07986061535502742,0.0162076661949917,-0.10417698866007824,0.04263203217380607,0.008896241328293364,-0.0553873792966425,0.0,70.0,255.0,255.0,255.0
39,1.9500000000000002,13.578848795801509,-1.4838444074429975,-0.10278450535253594,0.08200982761065845,0.01666194180684588,-0.10696187040342545,0.04324157533552864,0.009277635817017682,-0.055941540742582285,0.0,70.0,255.0,255.0,255.0
40,2.0,13.583003434195161,-1.482999713929618,-0.10820259284765457,0.08418477288858028,0.017135429776693467,-0.10977114273433647,0.04355655105197087,0.009673060956560953,-0.056294691981094436,0.0,70.0,255.0,255.0,255.0
41,2.0500000000000003,13.587267273090367,-1.4821308644653282,-0.11376161962596959,0.08636548271585553,0.017629247902501977,-0.11259133960153489,0.04346490630275923,0.01007533242549652,-0.0563647806389872,0.0,70.0,255.0,255.0,255.0
42,2.1,13.591639982466747,-1.4812367891393678,-0.11946172680780806,0.0885312635188562,0.01814296301924312,-0.11540762079823519,0.043041170155078134,0.010411372209384595,-0.05616274654191844,0.0,70.0,255.0,255.0,255.0
43,2.15,13.596120399442253,-1.4803165681634038,-0.1253023817057931,0.09066959973136335,0.018670385123440436,-0.11820761425572673,0.042447359402508766,0.010569340161903362,-0.055739018209602365,0.0,70.0,255.0,255.0,255.0
44,2.2,13.600706942439883,-1.4793697506270238,-0.13128248823338073,0.09277599945910708,0.019199897035433455,-0.12098152261919543,0.041846564820779975,0.010450239446635479,-0.05514958273521997,0.0,70.0,255.0,255.0,255.0
45,2.25,13.605397999388163,-1.4783965784598605,-0.13740053396771265,0.09485425621344135,0.019715409068103984,-0.12372257252924873,0.04140087942179349,0.009955620609836124,-0.05443925934034699,0.0,70.0,255.0,255.0,255.0
46,2.3000000000000003,13.610192368061227,-1.4773982097202134,-0.1436547454863056,0.09691608740128643,0.020195459096417068,-0.12642544855323012,0.041200140357311454,0.009056239781068953,-0.053650518972914174,0.0,70.0,255.0,255.0,255.0
47,2.35,13.615089608128292,-1.4763770325502188,-0.15004307882303566,0.09897427024917249,0.02062103304621088,-0.12908762442654015,0.04120935614331245,0.00790802746302166,-0.05288523013205204,0.0,70.0,255.0,255.0,255.0
48,2.4000000000000004,13.620089795086145,-1.4753361064155923,-0.15656350792895962,0.10103702301561768,0.020986261842719234,-0.13171397156643533,0.04134300574154537,0.006786304784056618,-0.05230009098851074,0.0,70.0,255.0,255.0,255.0
49,2.45,13.625193310429854,-1.4742784063659469,-0.1632144759796792,0.10310857082332703,0.02129966352461654,-0.13431763352539122,0.041518365845938376,0.00597315464825332,-0.05205238938878198,0.0,70.0,255.0,255.0,255.0
50,2.5,13.630400652168477,-1.4732061400631307,-0.16999527128149874,0.10518885960021152,0.021583577307544566,-0.13691921050531353,0.04164794990835219,0.005740447280011551,-0.05229624268548172,0.0,70.0,255.0,255.0,255.0
51,2.5500000000000003,13.635712196389875,-1.4721200486351924,-0.17690639703021055,0.10727336581416225,0.021873708252617696,-0.1395472577939394,0.04168175837637733,0.0062140208042960055,-0.05308796864418874,0.0,70.0,255.0,255.0,255.0
52,2.6,13.641127988749894,-1.471018769237869,-0.18394999706089268,0.10935703543784925,0.022204979387974166,-0.1422280073697324,0.04164233767376402,0.007227566889622672,-0.05425101824454992,0.0,70.0,255.0,255.0,255.0
53,2.6500000000000004,13.64664789993366,-1.469899550696395,-0.1911291977671838,0.11143759958153865,0.022596464941579963,-0.1449723596183944,0.04157884606925677,0.008452713429418779,-0.055463415039172514,0.0,70.0,255.0,255.0,255.0
54,2.7,13.652271748708047,-1.468759122743711,-0.19844723302273212,0.11351492004477493,0.023050250730916044,-0.14777434887364965,0.04153377132798397,0.009544880888068263,-0.05638911145790515,0.0,70.0,255.0,255.0,255.0
55,2.75,13.657999391938137,-1.4675945256233034,-0.20590663265454875,0.11559097671433705,0.02355095303038679,-0.1506112707641849,0.04155529297253935,0.010158580945840434,-0.05669576991771952,0.0,70.0,255.0,255.0,255.0
56,2.8000000000000003,13.663830846379481,-1.4664040274406722,-0.2135083600991506,0.11767044934202886,0.024066108825500088,-0.1534439258654216,0.04166611285114641,0.010114903109115225,-0.056223806916524954,0.0,70.0,255.0,255.0,255.0
57,2.85,13.66976643687234,-1.4651879147407534,-0.22125102524109092,0.11975758799945169,0.024562443341298312,-0.1562336514558374,0.041821293161703466,0.009550749267672742,-0.05516058033959992,0.0,70.0,255.0,255.0,255.0
58,2.9000000000000004,13.675806605179426,-1.4639477831065424,-0.22913172524473435,0.1218525786581992,0.025021183752267362,-0.1589599838993816,0.04194160998149954,0.008752958048363624,-0.053877204565788706,0.0,70.0,255.0,255.0,255.0
59,2.95,13.68195169473816,-1.4626857963655266,-0.23714702363102907,0.12395174899760164,0.025437739146134675,-0.16162137191241627,0.04195326212936834,0.008007694759792905,-0.052757225385696715,0.0,70.0,255.0,255.0,255.0
60,3.0,13.688201780079186,-1.461404009191929,-0.24529386243597598,0.12604790487113604,0.025821953228246652,-0.16423570643795127,0.04178290617247171,0.0076011729924552185,-0.052192658995597885,0.0,70.0,255.0,255.0,255.0
61,3.0500000000000003,13.694556485225274,-1.460103601042702,-0.2535705942748242,0.1281300396148488,0.026197856445380197,-0.16684063781197606,0.04139999068613065,0.007685714078808914,-0.0523828642957469,0.0,70.0,255.0,255.0,255.0
62,3.1,13.701014784040671,-1.458784223547391,-0.2619779262171736,0.1301879039397491,0.026590524636127544,-0.16947399286752596,0.040874261242329624,0.0081630957132095,-0.053137616107992725,0.0,70.0,255.0,255.0,255.0
63,3.1500000000000004,13.707575275619249,-1.4574445485790892,-0.2705179935615768,0.13221746573908177,0.027014166016701147,-0.17215439942277533,0.04033378160244183,0.008822633864191687,-0.05407765014757704,0.0,70.0,255.0,255.0,255.0
64,3.2,13.71423653061458,-1.4560828069457208,-0.2791933661594511,0.1342212820999933,0.027472788022546712,-0.17488175788228366,0.03990595404790298,0.009463967112566252,-0.05482832732567888,0.0,70.0,255.0,255.0,255.0
65,3.25,13.720997403829248,-1.4546972697768346,-0.28800616934980516,0.13620806114387207,0.027960562727957772,-0.17763723215534322,0.039705063689332576,0.009904792352344316,-0.05500967801596035,0.0,70.0,255.0,255.0,255.0
66,3.3000000000000003,13.727857336728967,-1.453286750672925,-0.29695708937498544,0.13819178846892655,0.028463267257781144,-0.1803827256838797,0.039787723937401154,0.010042380435781872,-0.05443158904731571,0.0,70.0,255.0,255.0,255.0
67,3.35,13.73481658267614,-1.4518509430510564,-0.30604444191819313,0.1401868335376122,0.02896480077153596,-0.1830803910600748,0.0401171863451566,0.009882275804740104,-0.0532970671165367,0.0,70.0,255.0,255.0,255.0
68,3.4000000000000004,13.741876020082728,-1.4503902705957714,-0.3152651284809929,0.1422035071034422,0.029451494838255154,-0.18571243239553337,0.040606899971606936,0.009471098569457936,-0.05200408295581438,0.0,70.0,255.0,255.0,255.0
69,3.45,13.749036933386485,-1.448905793567231,-0.32461568515774647,0.14424752353477288,0.029911910628481753,-0.18828079935565623,0.04116343450011328,0.008856436790249944,-0.05094261216476714,0.0,70.0,255.0,255.0,255.0
70,3.5,13.756300772436205,-1.4473990795329232,-0.33409320841655854,0.14631985055345353,0.03033713851728015,-0.19080669361201008,0.04170882042178192,0.008067676246259481,-0.05049254502447198,0.0,70.0,255.0,255.0,255.0
71,3.5500000000000003,13.76366891844183,-1.445872079715503,-0.3436963545189475,0.14841840557695107,0.0307186782531077,-0.19333005385810342,0.04218962638340429,0.0071437385367856265,-0.0508444391886298,0.0,70.0,255.0,255.0,255.0
72,3.6,13.7711426129939,-1.4443272117076125,-0.3534262138023689,0.15053881319179396,0.03105151237095871,-0.19589113753087306,0.04254062974275996,0.006225936265868981,-0.05182423197598873,0.0,70.0,255.0,255.0,255.0
73,3.6500000000000004,13.77872279976101,-1.442766928478407,-0.3632854682720348,0.15267246855122707,0.0313412718796946,-0.1985124770557023,0.04267414298713135,0.005536514981696605,-0.05307506231822523,0.0,70.0,255.0,255.0,255.0
74,3.7,13.786409859849023,-1.441193084519643,-0.3732774615079391,0.1548062274905071,0.03160516386912837,-0.20119864376269558,0.04250753405603547,0.005295833512053427,-0.05423516340918311,0.0,70.0,255.0,255.0,255.0
75,3.75,13.79420342251006,-1.4396064120914942,-0.38340533264830434,0.15692322195683062,0.03187085523089994,-0.2039359933966206,0.04195569191871584,0.005720446718449068,-0.054948160534151747,0.0,70.0,255.0,255.0,255.0
76,3.8000000000000003,13.802102182044706,-1.438005998996553,-0.3936710608476012,0.15900179668237868,0.03217720854097328,-0.20669345981611076,0.04099894535602999,0.006891290125499161,-0.05502459359209566,0.0,70.0,255.0,255.0,255.0
77,3.85,13.810103602178298,-1.4363886912373969,-0.4040746786299154,0.16102311649243362,0.03255998424344986,-0.20943845275583017,0.039802905409125344,0.008566892884753763,-0.054575049268573705,0.0,70.0,255.0,255.0,255.0
78,3.9000000000000004,13.81820449369395,-1.434750000572208,-0.4146149061231842,0.16298208722329122,0.033033897829448655,-0.21215096474296813,0.03865643484104453,0.010306571107743245,-0.053845784321410184,0.0,70.0,255.0,255.0,255.0
79,3.95,13.826401810900627,-1.433085301454452,-0.42528977510421223,0.16488875997653807,0.03359064135422418,-0.2148230311879712,0.037858177524974224,0.011655707017066419,-0.05308382044555415,0.0,70.0,255.0,255.0,255.0
80,4.0,13.834693369691603,-1.4313909364367856,-0.4360972092419813,0.16676790497578864,0.0341994685311553,-0.21745934678752354,0.03770440257699903,0.012178555527797563,-0.05254278486686026,0.0,70.0,255.0,255.0,255.0
81,4.05,13.843078601398206,-1.4296653546013365,-0.4470357097829646,0.16865920023423797,0.03480849690700394,-0.22007730967465722,0.03832890454713578,0.011663501893433015,-0.052362734228567076,0.0,70.0,255.0,255.0,255.0
82,4.1000000000000005,13.851559289715027,-1.4279100867460852,-0.45810494020944703,0.17060079543050222,0.0353658187204986,-0.22269562021038025,0.03951879757426724,0.010320851169476342,-0.052471002185222604,0.0,70.0,255.0,255.0,255.0
83,4.15,13.860138680941256,-1.4261287727292866,-0.4693052718040026,0.1726110799916647,0.03584058202395157,-0.22532440989317948,0.040867390377918866,0.008584519934817791,-0.052708047482363796,0.0,70.0,255.0,255.0,255.0
84,4.2,13.868820397714194,-1.42432602854369,-0.480637381198765,0.1746875344682941,0.03622427071398038,-0.22796642495861663,0.04195420805661598,0.006906886205326757,-0.05292866902762983,0.0,70.0,255.0,255.0,255.0
85,4.25,13.877607434388086,-1.4225063456578886,-0.4921019142998643,0.1768065007973263,0.03653127064448425,-0.23061727679594246,0.042354716418913085,0.005725331170269854,-0.0529927745904657,0.0,70.0,255.0,255.0,255.0
86,4.3,13.886501047793926,-1.4206729014792416,-0.5036991088783592,0.1789230061101854,0.03679680383100736,-0.2332657024176632,0.04185886302909836,0.005280250086259208,-0.05282460935382982,0.0,70.0,255.0,255.0,255.0
87,4.3500000000000005,13.895499734999104,-1.4188266652747878,-0.5154284845416306,0.18099238710023613,0.03705929565311017,-0.23589973773132544,0.04069272014586289,0.005497021784761635,-0.05246364595329345,0.0,70.0,255.0,255.0,255.0
88,4.4,13.90460028650395,-1.4169669719139306,-0.5272890826514918,0.1829922781247717,0.03734650600948353,-0.23851206701299255,0.0393031877964134,0.006169708127345963,-0.05199932178645561,0.0,70.0,255.0,255.0,255.0
89,4.45,13.913798962811581,-1.4150920146738395,-0.5392796912429298,0.18492270587987747,0.037676266465844765,-0.241099669909971,0.03813813710156211,0.007089149093886249,-0.05151479015713667,0.0,70.0,255.0,255.0,255.0
90,4.5,13.923092557091937,-1.4131993452673461,-0.5513990496424889,0.1868060918349279,0.03805542091887215,-0.2436635460287062,0.03764465715470067,0.008048138439131769,-0.05107809812320285,0.0,70.0,255.0,255.0,255.0
91,4.55,13.932479571995074,-1.4112864725819523,-0.5636460458458005,0.18868717159534754,0.03848108030975794,-0.2462074797222913,0.03804879018982632,0.008910975617126837,-0.05073211506947395,0.0,70.0,255.0,255.0,255.0
92,4.6000000000000005,13.941961274251472,-1.4093512372363703,-0.576019797614718,0.19061097085391054,0.038946518480584835,-0.2487367575356536,0.03913950599336857,0.009614791295242675,-0.050511710038936286,0.0,70.0,255.0,255.0,255.0
93,4.65,13.951540669080465,-1.4073918207338938,-0.5885197215993658,0.1926011221946844,0.03944255943928221,-0.2512586507261849,0.040490674286175476,0.010089561308812556,-0.05045736933451117,0.0,70.0,255.0,255.0,255.0
94,4.7,13.96122138647094,-1.4054069812924421,-0.6011456626873365,0.1946600382825281,0.03995547461146609,-0.2537824944691047,0.0416800966823061,0.010251855414367128,-0.05060545705705133,0.0,70.0,255.0,255.0,255.0
95,4.75,13.971006672908718,-1.4033962732727472,-0.6138979710462763,0.196769131862915,0.04046774498071892,-0.25631919643189005,0.042298729555234615,0.01003008710096509,-0.05099879562069365,0.0,70.0,255.0,255.0,255.0
96,4.800000000000001,13.980898299657232,-1.4013602067943702,-0.6267775823305255,0.19888991123805155,0.0409584833215626,-0.2588823740311741,0.04213282935943141,0.009407595697208393,-0.05164124272266646,0.0,70.0,255.0,255.0,255.0
97,4.8500000000000005,13.990895664032523,-1.399300424940591,-0.6397862084493937,0.20098241479885814,0.04140850455043976,-0.2614833207041567,0.041320071731298924,0.008489127719668588,-0.0524086747300645,0.0,70.0,255.0,255.0,255.0
98,4.9,14.000996541137118,-1.3972193563393263,-0.6529259144009412,0.20302191841118145,0.04180739609352946,-0.26412324150418054,0.04016329920677464,0.007469249434577385,-0.0530903617146361,0.0,70.0,255.0,255.0,255.0
99,4.95,14.011197855873641,-1.395119685331238,-0.6661985325998118,0.2049987447195356,0.0421554294938975,-0.2667923568756203,0.0389680495956668,0.0065618907868936205,-0.05347112054243652,0.0,70.0,255.0,255.0,255.0
100,5.0,14.021496415609072,-1.3930038133899365,-0.6796051500885032,0.20691872337074813,0.04246358517221882,-0.2694703535584242,0.038032405977617145,0.005963541128783945,-0.05333473804204347,0.0,70.0,255.0,255.0,255.0
101,5.050000000000001,14.031889728210716,-1.390873326814016,-0.6931455679556542,0.20880198531729732,0.042751783606775895,-0.27212583067982465,0.03752544015753756,0.005778641594367251,-0.05258860168554369,0.0,70.0,255.0,255.0,255.0
102,5.1000000000000005,14.042376614140801,-1.388728635029259,-0.7068177331564857,0.21067126738650188,0.043041449331655546,-0.27472921372697856,0.037412934352687444,0.005980585938147875,-0.05141983812699813,0.0,70.0,255.0,255.0,255.0
103,5.15,14.052956854949366,-1.3865691818808505,-0.720618489328352,0.21254327875256607,0.04334984220059068,-0.27726781449252447,0.037585079936164334,0.0064815528409534195,-0.050176615042396566,0.0,70.0,255.0,255.0,255.0
104,5.2,14.063630942016058,-1.3843936508091998,-0.7345445146057381,0.21442977538011831,0.04368960461575089,-0.2797468752312182,0.03793339258297834,0.007180581437804534,-0.049215608558828006,0.0,70.0,255.0,255.0,255.0
105,5.25,14.074399832487378,-1.3822002214192755,-0.7485931768514739,0.2163366180108639,0.044067900344371136,-0.28218937534840727,0.03833565585971144,0.007983720411663953,-0.048890224239106495,0.0,70.0,255.0,255.0,255.0
106,5.300000000000001,14.085264603817144,-1.3799868607747627,-0.7627634521405788,0.21826334096608946,0.04448797665691728,-0.28463589765512887,0.03871366175687285,0.008819376387103617,-0.04937143678219735,0.0,70.0,255.0,255.0,255.0
107,5.3500000000000005,14.096226166583987,-1.3777514237535837,-0.7770567666169867,0.2202079841865512,0.0449498379830815,-0.287126519026627,0.03906828409618868,0.009591325730751166,-0.0504620893119867,0.0,70.0,255.0,255.0,255.0
108,5.4,14.1072854022358,-1.3754918769764546,-0.7914761040432415,0.22217016937570833,0.0454471092299924,-0.28968210658632754,0.03941377032585791,0.010159224516326226,-0.05177222240487778,0.0,70.0,255.0,255.0,255.0
109,5.45,14.118443183521558,-1.3732067128305845,-0.8060249772756195,0.22414936121913698,0.04596576043471412,-0.2923037412671148,0.03974649196116786,0.010377321923171756,-0.052907097902998856,0.0,70.0,255.0,255.0,255.0
110,5.5,14.129700338357713,-1.3708953009329832,-0.820706478169953,0.2261448185718251,0.046484841422309575,-0.2949728163766274,0.04007690531793173,0.010101577224630454,-0.053484411621584904,0.0,70.0,255.0,255.0,255.0
111,5.550000000000001,14.14105766537874,-1.3685582286883535,-0.8355222589132822,0.22815705175093015,0.046975918157177166,-0.29765218242927327,0.040406486241195694,0.009282314395986369,-0.05330579104579902,0.0,70.0,255.0,255.0,255.0
112,5.6000000000000005,14.152516043532806,-1.3661977091172655,-0.8504716964128803,0.23018546719594468,0.04741307286190821,-0.3003033954812073,0.04067663322278037,0.008099425823981932,-0.05250262047578058,0.0,70.0,255.0,255.0,255.0
113,5.65,14.164076212098335,-1.3638169214021627,-0.865552598461403,0.2322247150732082,0.04778586073957536,-0.30290244447685133,0.04079713479683278,0.00687875189078202,-0.05136367948723741,0.0,70.0,255.0,255.0,255.0
114,5.7,14.175738515040127,-1.361419123043308,-0.8807619408605655,0.23426518067562796,0.048100948050986414,-0.30543976342993107,0.040694066145441354,0.00596187912123014,-0.050182573255797,0.0,70.0,255.0,255.0,255.0
115,5.75,14.187502730165898,-1.359006826597064,-0.8960965748043961,0.23629412168775232,0.04838204865169837,-0.30792070180243103,0.04030478813881189,0.005689970689926049,-0.0492441106265451,0.0,70.0,255.0,255.0,255.0
116,5.800000000000001,14.199367927208902,-1.356580918178138,-0.9115540110408086,0.23829565948950915,0.04866994511997902,-0.3103641744925856,0.03961228139175432,0.006225165562967483,-0.04871094682017407,0.0,70.0,255.0,255.0,255.0
117,5.8500000000000005,14.211332296114849,-1.3541398320850662,-0.9271329922536546,0.24025534982692776,0.04900456520799512,-0.31279179648444844,0.03870779373436051,0.007361087523194421,-0.048560156057619874,0.0,70.0,255.0,255.0,255.0
118,5.9,14.223393462191595,-1.3516804616573386,-0.9428331906892534,0.2421664388629452,0.04940605387229846,-0.31522019009834756,0.037757597245935415,0.008694812209375513,-0.04870201069511193,0.0,70.0,255.0,255.0,255.0
119,5.95,14.235548940001143,-1.3491992266978363,-0.9586550112634894,0.2440311095515213,0.04987404642893267,-0.31766199755395963,0.03693570499514465,0.009815814272706724,-0.049048296719400586,0.0,70.0,255.0,255.0,255.0
120,6.0,14.247796573146747,-1.3466930570144453,-0.9745993904446494,0.24586000936245966,0.05038763529956913,-0.3201250197702876,0.03639196077482865,0.01031858663576024,-0.04950315519621773,0.0,70.0,255.0,255.0,255.0
121,6.050000000000001,14.26013494093739,-1.3441604631678794,-0.9906675132405182,0.24767030562900416,0.050905905092508696,-0.3226123130735814,0.03620490101212681,0.009997163212327465,-0.049998673421869366,0.0,70.0,255.0,255.0,255.0
122,6.1000000000000005,14.272563603709647,-1.3416024665051944,-1.0068606217520075,0.24948049946367234,0.05138735162080188,-0.32512488711247456,0.03636501235284584,0.009027039934106362,-0.05049684853392078,0.0,70.0,255.0,255.0,255.0
123,6.15,14.285082990883756,-1.3390217280057992,-1.0231800019517656,0.25130680686428875,0.05180860908591933,-0.3276619979269735,0.03681881654689079,0.007771183420901551,-0.05094566700974967,0.0,70.0,255.0,255.0,255.0
124,6.2,14.297694284396076,-1.3364216055966025,-1.0396268215447049,0.2531623811183614,0.052164469962892035,-0.3302194538134495,0.03749691340804162,0.006594723927833002,-0.051279065041298644,0.0,70.0,255.0,255.0,255.0
125,6.25,14.310399228995593,-1.33380528100951,-1.0562019473331106,0.2550564982050929,0.05246808147870263,-0.33278990443110334,0.03834331281584724,0.005855636146878673,-0.05144723129246742,0.0,70.0,255.0,255.0,255.0
126,6.300000000000001,14.323199934216586,-1.3311747974487322,-1.0729058119878152,0.25699671239994615,0.0527500335775799,-0.33536417694269627,0.03930293973368748,0.0057455289069086035,-0.051427133385129054,0.0,70.0,255.0,255.0,255.0
127,6.3500000000000005,14.336098900235587,-1.328530277651752,-1.0897383650273802,0.25898679217846166,0.05304263436939349,-0.33793261776961625,0.04023495405931499,0.006161708451379866,-0.05121692533121003,0.0,70.0,255.0,255.0,255.0
128,6.4,14.349098613434432,-1.325870534011793,-1.1066990737647768,0.26102020780587765,0.05336620442271789,-0.34048586947581727,0.04092182188326632,0.006870337557018935,-0.05083168490238599,0.0,70.0,255.0,255.0,255.0
129,6.45,14.362200921016175,-1.3231936572094802,-1.123786951974962,0.2630789743667883,0.05372966812509539,-0.34301578625985485,0.04114489311994873,0.0076382037688560445,-0.050301643581640576,0.0,70.0,255.0,255.0,255.0
130,6.5,14.37540651087111,-1.3204975671992834,-1.1410006523907623,0.2651346971178725,0.05413002479960349,-0.34551603383398133,0.04068681593221157,0.008230896748773198,-0.049647966253840714,0.0,70.0,255.0,255.0,255.0
131,6.550000000000001,14.388714390727962,-1.3177806547295199,-1.15833855535836,0.26714765596000944,0.054552757799972706,-0.3479805828852389,0.03946800205731904,0.008515173374656904,-0.048898480683257084,0.0,70.0,255.0,255.0,255.0
132,6.6000000000000005,14.402121276467112,-1.315042291419286,-1.1757987106792862,0.2690814973236044,0.054981542137069184,-0.35040588190230704,0.03774225765749151,0.008530695024910884,-0.048153585339472116,0.0,70.0,255.0,255.0,255.0
133,6.65,14.415622540460323,-1.312282500515813,-1.1933791435485908,0.2709218817257586,0.055405827302463795,-0.35279594141918613,0.035970166318044505,0.008381219264630424,-0.04757113650424305,0.0,70.0,255.0,255.0,255.0
134,6.7,14.429213464639687,-1.3095017086890397,-1.2110783048212048,0.2726785139554089,0.055819664063532226,-0.35516299555273134,0.03462803625726707,0.008160060064366093,-0.04730662170437938,0.0,70.0,255.0,255.0,255.0
135,6.75,14.442890391855864,-1.3067005341094597,-1.228895443103864,0.2743846853514853,0.056221833308900404,-0.35752660358962407,0.03418140480562215,0.007960730237988045,-0.047508875720025934,0.0,70.0,255.0,255.0,255.0
136,6.800000000000001,14.456651933174836,-1.3038795253581497,-1.2468309651801672,0.2760966544359711,0.05661573708733103,-0.35991388312473394,0.034852651102745824,0.007839838200496274,-0.04823376905664922,0.0,70.0,255.0,255.0,255.0
137,6.8500000000000005,14.47050005729946,-1.3010389604007266,-1.2648868314163373,0.2778699504617599,0.05700581712895003,-0.362349980495289,0.03638165633716994,0.007794579048048256,-0.04932341862586842,0.0,70.0,255.0,255.0,255.0
138,6.9,14.484438928221012,-1.2981789436452547,-1.2830659632296961,0.2797348200696881,0.057395194992135856,-0.3648462249873208,0.03825019349825709,0.007806556946365895,-0.0504865662834586,0.0,70.0,255.0,255.0,255.0
139,6.95,14.49847353930643,-1.295299440901513,-1.3013714539150694,0.2816949698115856,0.05778647282358662,-0.36739863712363485,0.039924127350943195,0.007867756439838836,-0.0514201213488219,0.0,70.0,255.0,255.0,255.0
140,7.0,14.51260842520217,-1.292400296362896,-1.3198058269420596,0.2837272328047824,0.05818197063611974,-0.36998823712220297,0.04087959281697806,0.007978210271075703,-0.051836530865845276,0.0,70.0,255.0,255.0,255.0
141,7.050000000000001,14.526846262586908,-1.289481243837901,-1.3383702776272897,0.2857829290932834,0.05858429385069419,-0.3725822902102194,0.04084204621417342,0.008132187110088118,-0.051592643556497286,0.0,70.0,255.0,255.0,255.0
142,7.1000000000000005,14.541186718111499,-1.2865418669778266,-1.3570640559630816,0.28781143742619975,0.05899518934712855,-0.3751475014778527,0.03998556920858931,0.008290988782988507,-0.05080262360723786,0.0,70.0,255.0,255.0,255.0
143,7.15,14.555627406329528,-1.2835817249031882,-1.375885027775075,0.28978148601414233,0.05941339272899304,-0.37766255257094317,0.03869376831175941,0.00839255295004282,-0.04971355407288325,0.0,70.0,255.0,255.0,255.0
144,7.2,14.570164866712913,-1.2806005277049273,-1.3948303112201759,0.2916808142573757,0.059834444642132834,-0.380118856885141,0.03735582729902376,0.008375627462964275,-0.04858566679295517,0.0,70.0,255.0,255.0,255.0
145,7.25,14.584795487755265,-1.277598280438975,-1.413896913463589,0.2935170687440447,0.06025095547528947,-0.3825211192502387,0.03636418663077734,0.008178456649532428,-0.04766901014037206,0.0,70.0,255.0,255.0,255.0
146,7.300000000000001,14.599516573587318,-1.2745754321573983,-1.4330824231451997,0.2953172329204534,0.060652290307086076,-0.3848857578991782,0.03593748572008337,0.007777613825399321,-0.047107917789479536,0.0,70.0,255.0,255.0,255.0
147,7.3500000000000005,14.61432721104731,-1.2715330514082663,-1.4523854892535069,0.29711081731605304,0.0610287168578294,-0.38723191102918664,0.035987861701514134,0.0072432373818820395,-0.04689881421819919,0.0,70.0,255.0,255.0,255.0
148,7.4,14.629227655318923,-1.2684725604716154,-1.4718056142481184,0.29891601909060483,0.06137661404527428,-0.38957563932099815,0.03630545586350564,0.006702298852534483,-0.04698816847432674,0.0,70.0,255.0,255.0,255.0
149,7.45,14.644218812956371,-1.265395390003739,-1.4913430531856067,0.3007413629024036,0.06169894674308285,-0.3919307278766193,0.03669116485021107,0.006282507601063081,-0.047322899124968565,0.0,70.0,255.0,255.0,255.0
150,7.5,14.659301791609163,-1.262302665797307,-1.5109986870357803,0.30258513557562594,0.06200486480538059,-0.394307929233495,0.03693172592829086,0.006099944482751418,-0.047851437896384574,0.0,70.0,255.0,255.0,255.0
151,7.550000000000001,14.674477326513934,-1.2591949035232008,-1.5307738461089562,0.3044345354952327,0.06230894119135799,-0.39671587166625777,0.03690917640817304,0.006211157122204547,-0.0485239370336954,0.0,70.0,255.0,255.0,255.0
152,7.6000000000000005,14.689745245158687,-1.2560717716781713,-1.550670274202406,0.30627605321644324,0.06262598051760104,-0.39916032293686454,0.03670484878952607,0.006571586165105003,-0.04924221276014773,0.0,70.0,255.0,255.0,255.0
153,7.65,14.705104931835578,-1.2529323054714407,-1.5706898784026426,0.3081050203741853,0.06296609980786849,-0.40164009294227254,0.03648086510921189,0.007081888003335202,-0.049851161307401526,0.0,70.0,255.0,255.0,255.0
154,7.7,14.720555747196105,-1.2497751616973845,-1.5908342834966334,0.30992413972736443,0.06333416931793456,-0.4041454390676047,0.03638039907905011,0.007634854953164627,-0.05018427516882973,0.0,70.0,255.0,255.0,255.0
155,7.75,14.736097345808314,-1.2465988885396473,-1.611104422309403,0.3117430602820903,0.06372958530318495,-0.4066585204591555,0.036552825740443495,0.008133746771510353,-0.050081228949938605,0.0,70.0,255.0,255.0,255.0
156,7.800000000000001,14.751730053224314,-1.243402203167066,-1.631500135542549,0.3135794223014088,0.0641475439950856,-0.40915356196259856,0.03706618160776998,0.008518270506474579,-0.04947530843462111,0.0,70.0,255.0,255.0,255.0
157,7.8500000000000005,14.767455288038455,-1.2401841341401387,-1.652019778505663,0.3154496784428673,0.06458141235383241,-0.4116060513026176,0.037790971578210986,0.008754054321369331,-0.04849858182747191,0.0,70.0,255.0,255.0,255.0
158,7.9,14.7832750210686,-1.2369440619316827,-1.6726607406728107,0.3173585194592299,0.06502294942722253,-0.41400342014534575,0.038492016102154025,0.00880567360945772,-0.04740261753137798,0.0,70.0,255.0,255.0,255.0
159,7.95,14.799191139984378,-1.2336818391974165,-1.6934201205201975,0.3192988800530827,0.06546197971477818,-0.4163463130557554,0.03894117822920151,0.008638585406672838,-0.046452261271978657,0.0,70.0,255.0,255.0,255.0
160,8.0,14.815204909073909,-1.230397863960205,-1.7142953719783862,0.32125263728215003,0.06588680796788982,-0.4186486462725436,0.0389170177278686,0.008209077755227945,-0.0459036463039908,0.0,70.0,255.0,255.0,255.0
161,8.05,14.831316403712593,-1.2270931584006275,-1.7352849851474519,0.32319058182586957,0.06628288749030098,-0.4209366776861545,0.03831849809117216,0.007514735210967238,-0.04588811594135045,0.0,70.0,255.0,255.0,255.0
162,8.1,14.847523967256496,-1.2237695752111748,-1.7563890397470017,0.32508448709126725,0.06663828148898654,-0.42323745786667866,0.037297511984668574,0.006693035710303441,-0.04631534804180326,0.0,70.0,255.0,255.0,255.0
163,8.15,14.86382485242172,-1.2204293302517288,-1.7776087309341198,0.32692033302433643,0.06695219106133132,-0.42556821249033483,0.03614650171943623,0.0059762567196086636,-0.04698648045484699,0.0,70.0,255.0,255.0,255.0
164,8.200000000000001,14.88021600055893,-1.2170743561050417,-1.7989458609960352,0.32869913726321087,0.0672359071609474,-0.42793610591216336,0.03516714907618734,0.0056030644923099615,-0.04769339303001274,0.0,70.0,255.0,255.0,255.0
165,8.25,14.896694766148041,-1.213705739535634,-1.820402341525336,0.33043704793195516,0.06751249751056232,-0.4303375517933361,0.03465910334679023,0.005821923559490294,-0.04822418583441124,0.0,70.0,255.0,255.0,255.0
166,8.3,14.913259705352125,-1.2103231063539854,-1.8419796161753688,0.3321650475978899,0.06781809951689644,-0.4327585244956045,0.03477311274071582,0.006737101004095081,-0.048459966727731896,0.0,70.0,255.0,255.0,255.0
167,8.35,14.92991127090783,-1.2069239295839445,-1.8636781939748965,0.33391435920602675,0.06818620761097183,-0.4351835484661093,0.03537086859548566,0.008107555751246664,-0.04844459476962548,0.0,70.0,255.0,255.0,255.0
168,8.4,14.946651141272728,-1.2035044855928883,-1.8854979710219797,0.33570213445743846,0.0686288550920211,-0.43760298397256703,0.036170088908349385,0.009493868276533313,-0.048285213562926366,0.0,70.0,255.0,255.0,255.0
169,8.450000000000001,14.963481484353574,-1.2000610440747423,-1.9074384923721532,0.3375313680968617,0.06913559443862516,-0.44001206982240193,0.03688365203871058,0.010450322125121758,-0.04808176567570044,0.0,70.0,255.0,255.0,255.0
170,8.5,14.980404278082414,-1.1965909261490257,-1.9294991780042199,0.3393904996613095,0.06967388730453328,-0.44241116054013707,0.037218596856902764,0.010527283951033972,-0.04793956373845276,0.0,70.0,255.0,255.0,255.0
171,8.55,14.997420534319705,-1.193093655344289,-1.951679608426167,0.34125322778255196,0.07018832283372856,-0.4448060261962472,0.037022990339607986,0.009515974991991527,-0.04791807775368362,0.0,70.0,255.0,255.0,255.0
172,8.6,15.01452960086067,-1.1895720938656529,-1.9739797806238446,0.3430927986952703,0.07062548480373243,-0.44720296831550543,0.03642535396100044,0.007728396296391438,-0.0479853404785624,0.0,70.0,255.0,255.0,255.0
173,8.65,15.031729814189232,-1.1860311068639158,-1.9963999052577175,0.344895763178652,0.0709611624633677,-0.44960456024410345,0.035685963161924406,0.005758293484192656,-0.04807443685519441,0.0,70.0,255.0,255.0,255.0
174,8.700000000000001,15.049019177178534,-1.182475977619316,-2.018940236648255,0.34666139501146276,0.0712013141521517,-0.4520104120010249,0.035058615728011944,0.0042077682190777566,-0.048132458020244684,0.0,70.0,255.0,255.0,255.0
175,8.75,15.066395953690378,-1.1789109754487006,-2.04160094645782,0.3484016247514532,0.07138193928527548,-0.4544178060461279,0.03479844395499754,0.003680875368305969,-0.04812161515599378,0.0,70.0,255.0,255.0,255.0
176,8.8,15.08385933965368,-1.1753377836907886,-2.0643820172528677,0.3501412394069625,0.07156940168898229,-0.45682257351662425,0.035034786040277766,0.004472658701781818,-0.048020636010415174,0.0,70.0,255.0,255.0,255.0
177,8.85,15.101410077631074,-1.1717540352798024,-2.0872832038094824,0.351905103355481,0.07182920515545366,-0.45921986964716943,0.035642307637751,0.006243567688013485,-0.04781581487773856,0.0,70.0,255.0,255.0,255.0
178,8.9,15.119049849989228,-1.1681548631752432,-2.1103040042175847,0.3537054701707376,0.07219375845778364,-0.4616041550043981,0.03637146637043287,0.008327410001207625,-0.047496106615296796,0.0,70.0,255.0,255.0,255.0
179,8.950000000000001,15.136780624648148,-1.164534659434024,-2.133443619309922,0.35554224999252426,0.07266194615557442,-0.4639694803086991,0.036975311621390006,0.010052684252381816,-0.04705460270955086,0.0,70.0,255.0,255.0,255.0
180,9.0,15.15460407498848,-1.1608886685596858,-2.1567009522484546,0.3574030013328766,0.07319902688302182,-0.4663096152753532,0.037203664618523646,0.010745298491743327,-0.04647001293349717,0.0,70.0,255.0,255.0,255.0
181,9.05,15.172520924781436,-1.1572147567457218,-2.1800745808374575,0.3592626164543766,0.07373647600474875,-0.46861648160204883,0.03693129207267276,0.010066956634657842,-0.04574557867100815,0.0,70.0,255.0,255.0,255.0
182,9.1,15.190530336633918,-1.1535150209592109,-2.2035626004086595,0.3610961305401439,0.0742057225464876,-0.470884173142454,0.03629082341429779,0.008353556727747069,-0.04499046760977343,0.0,70.0,255.0,255.0,255.0
183,9.15,15.20863053783545,-1.149794184491073,-2.227162998151703,0.3628916987958064,0.07457183167752346,-0.47311552836302617,0.035542763430385094,0.006275842734670967,-0.04438290824539948,0.0,70.0,255.0,255.0,255.0
184,9.200000000000001,15.226819506513499,-1.1460578377914585,-2.250874153244962,0.3646504068831824,0.0748333068199547,-0.47532246396699396,0.03494671121195836,0.004501215051289087,-0.04409519174770615,0.0,70.0,255.0,255.0,255.0
185,9.25,15.245095578523769,-1.1423108538090776,-2.2746952445484023,0.36638636991700224,0.07502195318265237,-0.4775250475377968,0.034770860276722715,0.0036898187767864243,-0.0442942771658128,0.0,70.0,255.0,255.0,255.0
186,9.3,15.263458143505199,-1.1385556424731933,-2.2986266579987418,0.36812749291085467,0.07520228869763335,-0.47975189168357524,0.035146619096160236,0.004179235039059037,-0.04504516119330226,0.0,70.0,255.0,255.0,255.0
187,9.35,15.281908327814854,-1.1347906249393143,-2.32267043371676,0.36990103182661827,0.07543987668655827,-0.482029563657127,0.035908990779098815,0.005685981624536929,-0.04617699999771574,0.0,70.0,255.0,255.0,255.0
188,9.4,15.30044824668786,-1.1310116548045375,-2.3468296143644545,0.37171839198876455,0.07577088686008704,-0.4843695916833468,0.03674288783326318,0.007625442836478591,-0.0473750576064802,0.0,70.0,255.0,255.0,255.0
189,9.450000000000001,15.31908016701373,-1.1272135362533056,-2.3711073928850945,0.3735753206099446,0.07620242097020613,-0.48676706941777503,0.03733798338938499,0.009416021976194067,-0.04831288204831807,0.0,70.0,255.0,255.0,255.0
190,9.5,15.337805778748855,-1.1233914127075169,-2.395506321306232,0.37545219032770305,0.07671248905770645,-0.4892008798881786,0.037380959543220627,0.01049151031720097,-0.048672878402822306,0.0,70.0,255.0,255.0,255.0
191,9.55,15.3566253860465,-1.119542287347535,-2.4200274808739124,0.37731341656426665,0.07725157200192623,-0.49163435725805726,0.03672185858327737,0.01055018246312045,-0.04829997702171518,0.0,70.0,255.0,255.0,255.0
192,9.600000000000001,15.375537120405282,-1.1156662555073242,-2.4446697570320377,0.3791243761860308,0.07776750730401849,-0.49403087759035014,0.03556039295684599,0.00975696898843914,-0.047351415849217204,0.0,70.0,255.0,255.0,255.0
193,9.65,15.394537823665104,-1.111765536617133,-2.4694305686329474,0.38086945585995124,0.07822726890077014,-0.496369498842979,0.034279344910004284,0.008487094544062934,-0.046147817039887684,0.0,70.0,255.0,255.0,255.0
194,9.700000000000001,15.413624065991277,-1.1078435286172472,-2.4943067069163356,0.3825523106770312,0.07861621675842478,-0.4986456592943389,0.033260702548432164,0.007115070004504176,-0.045019340665231056,0.0,70.0,255.0,255.0,255.0
195,9.75,15.432793054732807,-1.1039039149412906,-2.5192951345623813,0.38419552611479446,0.07893877590122056,-0.5008714329095021,0.032881245606652953,0.0060081026584057895,-0.04428619057450511,0.0,70.0,255.0,255.0,255.0
196,9.8,15.452043618602756,-1.0999496510271252,-2.544393850207286,0.3858404352376965,0.07921702702426536,-0.5030742783517894,0.033326319531745696,0.0053783567865783866,-0.044120991325957704,0.0,70.0,255.0,255.0,255.0
197,9.850000000000001,15.471377098256577,-1.095982212238864,-2.5696025623975602,0.38752815806796903,0.0794766115798784,-0.5052835320420979,0.03439955394419769,0.00519793729345519,-0.04444829231671221,0.0,70.0,255.0,255.0,255.0
198,9.9,15.490796434409553,-1.0920019898691373,-2.5949222034114956,0.3892803906321163,0.07973682075361088,-0.5075191075834606,0.03570877681546847,0.005356901598041475,-0.04508355768386707,0.0,70.0,255.0,255.0,255.0
199,9.950000000000001,15.510305137319788,-1.088008530163503,-2.6203544731559063,0.3910990357495159,0.08001230173968255,-0.5097918878104846,0.03685985909598344,0.005755586117861533,-0.04584266904319456,0.0,70.0,255.0,255.0,255.0
200,10.0,15.529906337984505,-1.084000759695169,-2.645901392192544,0.3929663765417146,0.08031237936539704,-0.5121033744877801,0.037474104650314644,0.006292116345263388,-0.04655438727092509,0.0,70.0,255.0,255.0,255.0
201,10.05,15.54960177497396,-1.0799772922269633,-2.6715648106046843,0.39484644621454734,0.08064151337420888,-0.5144473265375771,0.037353003150819575,0.006891355425375778,-0.04711050988919219,0.0,70.0,255.0,255.0,255.0
202,10.100000000000001,15.56939098260596,-1.0759366083577482,-2.6973461248463018,0.3967016768567966,0.08100151490793461,-0.5168144254766993,0.03661220711741464,0.007491375077828266,-0.04745998364885651,0.0,70.0,255.0,255.0,255.0
203,10.15,15.58927194265964,-1.0718771407361698,-2.7232462531523542,0.3985076669262888,0.08139065088199171,-0.5191933249024627,0.035514731977492886,0.008002688341135489,-0.047551705138415556,0.0,70.0,255.0,255.0,255.0
204,10.200000000000001,15.609241749298588,-1.067797543269549,-2.749265457336548,0.40025315005454587,0.08180178374204816,-0.5215695959905409,0.034326434493792135,0.008317410698888139,-0.04733100880236485,0.0,70.0,255.0,255.0,255.0
205,10.25,15.629297257665094,-1.063696962361965,-2.7754032127514083,0.401940310375668,0.08222239195188052,-0.5239264257826992,0.0332943171430955,0.008327394664520149,-0.046740269665868084,0.0,70.0,255.0,255.0,255.0
206,10.3,15.649435780336155,-1.059575304074361,-2.801658099914818,0.4035825817688554,0.08263452320850018,-0.5262436229571277,0.03256721565048082,0.00798899540463971,-0.045775430656114224,0.0,70.0,255.0,255.0,255.0
207,10.350000000000001,15.66965551584198,-1.055433510041115,-2.828027575047121,0.4051970319407161,0.0830212914923445,-0.5285039688483106,0.032184344859764735,0.007401037919785303,-0.044594383810414584,0.0,70.0,255.0,255.0,255.0
208,10.4,15.689955483530227,-1.0512731749251265,-2.854508496799649,0.4068010162548319,0.08337462700047871,-0.5307030613381691,0.03216124632512418,0.006748708673853798,-0.04346952852278818,0.0,70.0,255.0,255.0,255.0
209,10.450000000000001,15.710335617467463,-1.047096047341067,-2.881097881180938,0.4084131565732285,0.08369616235972988,-0.5328509217005895,0.03251337728844561,0.006227544979386934,-0.04268504399882467,0.0,70.0,255.0,255.0,255.0
210,10.5,15.73079679918755,-1.0429035586891535,-2.907793588969708,0.41005235398367645,0.0839973814984174,-0.5349715657380516,0.03326060812778309,0.006034295672607826,-0.04252052474096324,0.0,70.0,255.0,255.0,255.0
211,10.55,15.75134085286583,-1.0386963091912254,-2.934595037754743,0.41173921738600683,0.08429959192699066,-0.5371029741746858,0.03438018552763822,0.006265949669259641,-0.04310207984086212,0.0,70.0,255.0,255.0,255.0
212,10.600000000000001,15.77197072092615,-1.0344735994964545,-2.9615038863871765,0.4134903725364403,0.08462397646534336,-0.5392817737221378,0.03568873512076465,0.006819065317564821,-0.044233530061044135,0.0,70.0,255.0,255.0,255.0
213,10.65,15.792689890119474,-1.030233911544691,-2.988523215126957,0.4153080908980833,0.08498149845874714,-0.5415263271807902,0.03687860440155788,0.007487884888957019,-0.04553745349817895,0.0,70.0,255.0,255.0,255.0
214,10.700000000000001,15.813501530015959,-1.0259754496505797,-3.0156565191052556,0.41717823297659606,0.08537276495423907,-0.5438355190719557,0.03762882092335218,0.008065835957027367,-0.04662326741637912,0.0,70.0,255.0,255.0,255.0
215,10.75,15.834407713417134,-1.021696635049267,-3.0429067670341525,0.4190709729904185,0.08578808205444988,-0.5461886539224281,0.03762725966929281,0.008351459940958428,-0.047105650017353895,0.0,70.0,255.0,255.0,255.0
216,10.8,15.855408627315,-1.0173966414451348,-3.0702753844974984,0.42094095894352535,0.08620791094833491,-0.5485460840736911,0.0367372170634539,0.008240632491784972,-0.04678967655418198,0.0,70.0,255.0,255.0,255.0
217,10.850000000000001,15.876501809311486,-1.0130758439544336,-3.0977613754415216,0.4227446946967639,0.08661214530362837,-0.5508676215778463,0.03519143726720131,0.007808108735440911,-0.045842311796917556,0.0,70.0,255.0,255.0,255.0
218,10.9,15.897683096784677,-1.008735426914772,-3.125362146655283,0.4244601026702455,0.086988721821879,-0.5531303152533829,0.03343613093971243,0.007214343844896831,-0.04460984163370263,0.0,70.0,255.0,255.0,255.0
219,10.950000000000001,15.918947819578511,-1.0043769717722457,-3.15307440696686,0.42608830779073514,0.08733357968811806,-0.5553286057412166,0.0319363739849976,0.00662239790568675,-0.0434417464752368,0.0,70.0,255.0,255.0,255.0
220,11.0,15.94029192756375,-1.00000206894596,-3.1808950072294047,0.42765374006874524,0.08765096161244768,-0.5574744899009065,0.031146343871846227,0.006195855239465864,-0.04267682856897714,0.0,70.0,255.0,255.0,255.0
221,11.05,15.961713193585386,-0.995611875611001,-3.2088218559569506,0.42920294217791977,0.08795316521206464,-0.5595962885981143,0.03129751964383587,0.00602429425646811,-0.042498561262016565,0.0,70.0,255.0,255.0,255.0
222,11.100000000000001,15.983212221781542,-0.9912067524247536,-3.236854636089216,0.4307834920331288,0.08825339103809449,-0.5617243460271082,0.03221199599661162,0.006064863377119867,-0.04282817846297249,0.0,70.0,255.0,255.0,255.0
223,11.15,16.0047915427887,-0.9867865365071915,-3.2649942905596614,0.43242414177758093,0.08855965154977663,-0.5638791064444115,0.033510391653024385,0.006219215255931498,-0.04347306341681012,0.0,70.0,255.0,255.0,255.0
224,11.200000000000001,16.0264546359593,-0.982350787269776,-3.2932425467336572,0.43413453119843126,0.08887531256368764,-0.5660716523687892,0.03480582299673074,0.006390772886444296,-0.04424266043514535,0.0,70.0,255.0,255.0,255.0
225,11.25,16.04820499590854,-0.9778990052508227,-3.3216014557965403,0.435904724077254,0.08919872883842106,-0.5683033724879261,0.03572340214113012,0.006473137749196667,-0.0449590636785846,0.0,70.0,255.0,255.0,255.0
226,11.3,16.070045108367026,-0.9734309143859339,-3.35007288398245,0.4377068714125443,0.0895226263386073,-0.5705675587366477,0.036053869864005605,0.006409416589592265,-0.04551053061234711,0.0,70.0,255.0,255.0,255.0
227,11.350000000000001,16.091975683049796,-0.968946742616962,-3.378658211670205,0.43951011106365456,0.08983967049738029,-0.5728544255491608,0.03585055543489091,0.006253370156972249,-0.04584954311601663,0.0,70.0,255.0,255.0,255.0
228,11.4,16.11399611947339,-0.9644469473361958,-3.407358326537366,0.44129192695603336,0.09014796335430453,-0.5751525130482493,0.03527064743344965,0.006107023569534853,-0.04593165761321849,0.0,70.0,255.0,255.0,255.0
229,11.450000000000001,16.1361048757454,-0.9599319462815316,-3.43617346297503,0.44303717580699953,0.09045037285433377,-0.5774475913104826,0.03446793309507257,0.006061596795692292,-0.0457086374248572,0.0,70.0,255.0,255.0,255.0
230,11.5,16.15829983705409,-0.9554019100507625,-3.465103085668414,0.4447387202655406,0.09075412303387376,-0.579723376790735,0.03358801959372215,0.0062075378196913,-0.04513092604003788,0.0,70.0,255.0,255.0,255.0
231,11.55,16.180578747771953,-0.9508565339781442,-3.4941458006541035,0.44639597776637174,0.0910711266363029,-0.5819606839144864,0.0327320358668004,0.006585125632219135,-0.044197777827426066,0.0,70.0,255.0,255.0,255.0
232,11.600000000000001,16.20293943483073,-0.9462947973871322,-3.523299154059863,0.44801192385222066,0.09141263559709567,-0.5841431545734777,0.03198298506106312,0.007119884433226531,-0.04305625979577066,0.0,70.0,255.0,255.0,255.0
233,11.65,16.225379940157175,-0.9417152704184346,-3.5525601161114513,0.44959427627247806,0.09178311507962555,-0.5862663098940635,0.031452333294978985,0.007673622866832819,-0.04196021289000207,0.0,70.0,255.0,255.0,255.0
234,11.700000000000001,16.247898862457976,-0.9371164858791696,-3.581925785049269,0.45115715718171856,0.09217999788377895,-0.5883391758624779,0.031260906160568425,0.008110066038058417,-0.041174538117338955,0.0,70.0,255.0,255.0,255.0
235,11.75,16.270495655875347,-0.9324972706300567,-3.611394033697699,0.4527203668885349,0.0925941216834314,-0.5903837637057974,0.03152451948693624,0.008304729620056683,-0.04095322283728109,0.0,70.0,255.0,255.0,255.0
236,11.8,16.29317089914683,-0.9278570737108265,-3.640964161419849,0.4543096091304122,0.09301047084578462,-0.592434498146206,0.03227952512858678,0.008196281347738754,-0.04141267043240582,0.0,70.0,255.0,255.0,255.0
237,11.850000000000001,16.31592661678839,-0.9231962235454783,-3.6706374835123197,0.4559483194013936,0.09341374981820527,-0.594525030749038,0.03337218963466171,0.00783156763465298,-0.04239646665222807,0.0,70.0,255.0,255.0,255.0
238,11.9,16.33876573108697,-0.918515698729006,-3.7004166644947527,0.45764682809387836,0.09379362760924992,-0.5966741448114288,0.034522816591575634,0.0073148485994045664,-0.04359476355344505,0.0,70.0,255.0,255.0,255.0
239,11.950000000000001,16.361691299597776,-0.9138168607845533,-3.7303048979934625,0.45940060106055114,0.09414523467814573,-0.5988845071043825,0.03543669401118166,0.00675762623151277,-0.04468094903335995,0.0,70.0,255.0,255.0,255.0
240,12.0,16.384705791193024,-0.9091011752611914,-3.760305115205191,0.4611904974949965,0.0944693902324012,-0.6011422397147648,0.03583390245758267,0.0062615623481865335,-0.04533217328743788,0.0,70.0,255.0,255.0,255.0
241,12.05,16.407810349347276,-0.9043699217613131,-3.790419121964939,0.4629839913063094,0.09477139091296438,-0.6034177244331262,0.03557606408470804,0.005889236156308986,-0.045378766550197014,0.0,70.0,255.0,255.0,255.0
242,12.100000000000001,16.431004190323655,-0.899624036169895,-3.8206468876485036,0.4647481039034673,0.0950583138480321,-0.6056801163697845,0.03477813985206524,0.005670208664498855,-0.04492691788415826,0.0,70.0,255.0,255.0,255.0
243,12.15,16.454285159737623,-0.8948640903765099,-3.8509871336019175,0.46646180529151593,0.09533841177941427,-0.6079104162215421,0.03368735605100426,0.005631458259991451,-0.044210849445880385,0.0,70.0,255.0,255.0,255.0
244,12.200000000000001,16.477650370852807,-0.8900901949919535,-3.881437929270658,0.46811683950856775,0.09562145967403124,-0.6101012013143725,0.03256509168672039,0.00579891621531603,-0.04346875199621181,0.0,70.0,255.0,255.0,255.0
245,12.25,16.50109684368848,-0.8853019444091068,-3.9119972537333547,0.46971831446018797,0.09591830340094587,-0.6122572914211633,0.03166388000543918,0.006205011663307225,-0.04294605604124868,0.0,70.0,255.0,255.0,255.0
246,12.3,16.524622202298826,-0.8804983646518589,-3.942663658412774,0.47128322750911167,0.09624196084036196,-0.6143958069184974,0.031128479604802806,0.00684779966814153,-0.04277781115238355,0.0,70.0,255.0,255.0,255.0
247,12.350000000000001,16.54822516643939,-0.8756777483250706,-3.9734368344252045,0.47283116242066825,0.09660308336776002,-0.6165350725364016,0.030947978232021,0.007606758546463421,-0.04289129304657635,0.0,70.0,255.0,255.0,255.0
248,12.4,16.571905318540892,-0.8708380563150829,-4.004317165666414,0.47437802533231377,0.0970026366950083,-0.618684936223155,0.031056710253452025,0.008278479199752553,-0.04312808574922222,0.0,70.0,255.0,255.0,255.0
249,12.450000000000001,16.595662968972622,-0.8659774846555698,-4.03530532804752,0.47593683344601345,0.09743093128773528,-0.6208478811113238,0.0313886268848762,0.008654447834854917,-0.04334315720107007,0.0,70.0,255.0,255.0,255.0
250,12.5,16.619499001885494,-0.8610949631863094,-4.066401953777547,0.4775168880208014,0.0978680814784938,-0.623019251943262,0.03187458684443811,0.008526409646592015,-0.04339567713937953,0.0,70.0,255.0,255.0,255.0
251,12.55,16.643414657774702,-0.8561906765077204,-4.097607253241846,0.47912429213045726,0.09828357225239448,-0.6251874488252618,0.03245826924533901,0.00780525281697253,-0.04321012870001084,0.0,70.0,255.0,255.0,255.0
252,12.600000000000001,16.66741143109854,-0.85126660596107,-4.128920698660073,0.4807627149453353,0.09864860676019105,-0.6273402648132631,0.03307004045822737,0.006669004235948517,-0.04283061389260823,0.0,70.0,255.0,255.0,255.0
253,12.65,16.691490929269236,-0.8463258158317013,-4.1603412797231725,0.48243129617628,0.09895047267598933,-0.6294705102145226,0.03360319221137331,0.005450056176359297,-0.04235410359489933,0.0,70.0,255.0,255.0,255.0
254,12.700000000000001,16.715654560716168,-0.841371558693471,-4.191867749681525,0.4841230341664726,0.09919361237782698,-0.631575675172753,0.0339352259519643,0.004488840230698621,-0.041871905912760354,0.0,70.0,255.0,255.0,255.0
255,12.75,16.739903232685883,-0.8364064545939186,-4.223498847240448,0.48582481877147643,0.0993993566990592,-0.6336577008057986,0.03394173532242917,0.004117321778196459,-0.04146321675326803,0.0,70.0,255.0,255.0,255.0
256,12.8,16.764237042593315,-0.8314316230235651,-4.255233519762105,0.48751720769871554,0.09960534455564662,-0.6357219968480798,0.03357121730402923,0.004498275311182187,-0.04117496076121441,0.0,70.0,255.0,255.0,255.0
257,12.850000000000001,16.788654953455755,-0.8264459201383539,-4.287071046925256,0.48918194050187935,0.09984918423017741,-0.6377751968819201,0.03293633545844443,0.005467341060017006,-0.04102354742023806,0.0,70.0,255.0,255.0,255.0
258,12.9,16.813155236643503,-0.8214467046005474,-4.319011039450297,0.49081084124456,0.10015207866164832,-0.6398243515901036,0.03224688453684621,0.006690340383785909,-0.041018203833420586,0.0,70.0,255.0,255.0,255.0
259,12.950000000000001,16.83773603758021,-0.8164307122721891,-4.351053482084266,0.492406628955564,0.100518218268556,-0.6418770172652621,0.031723243200687534,0.007824130636191473,-0.04116250586090331,0.0,70.0,255.0,255.0,255.0
260,13.0,16.86239589953906,-0.8113948827736918,-4.383198741176823,0.49398316556462873,0.10093449172526747,-0.643940602176194,0.03159446254343834,0.008532321888599093,-0.04145541855162804,0.0,70.0,255.0,255.0,255.0
261,13.05,16.887134354136673,-0.8063372630996624,-4.4154475423018855,0.4955660752099078,0.10137145045741591,-0.6460225591204249,0.031970148252824515,0.008635585332283924,-0.04188434061012103,0.0,70.0,255.0,255.0,255.0
262,13.100000000000001,16.91195250706005,-0.8012577377279502,-4.447800997088866,0.4971801803899112,0.10179805025849586,-0.6481290362372061,0.03269920978326013,0.008230675813170052,-0.04239435726596241,0.0,70.0,255.0,255.0,255.0
263,13.15,16.936852372175665,-0.7961574580738128,-4.480260445925606,0.4988359961882338,0.10219451803873292,-0.6502619948470212,0.033494677565570896,0.0075386988386272336,-0.04289224190969776,0.0,70.0,255.0,255.0,255.0
264,13.200000000000001,16.961836106678874,-0.7910382859240769,-4.512827196573568,0.5005296481464683,0.10255192014235859,-0.6524182604281759,0.03407194110529588,0.006781723471493972,-0.043279096284010166,0.0,70.0,255.0,255.0,255.0
265,13.25,16.98690533699031,-0.7859022660595769,-4.545502271968424,0.5022431902987634,0.10287269038588231,-0.6545899044754222,0.03414847977083468,0.006181362695356629,-0.04347109971662988,0.0,70.0,255.0,255.0,255.0
266,13.3,17.01206042570875,-0.7807510168854886,-4.57828618702111,0.5039444961235517,0.10317005641189425,-0.6567653703998388,0.03358781672275768,0.005864931145205254,-0.043427163977760586,0.0,70.0,255.0,255.0,255.0
267,13.350000000000001,17.037299786602667,-0.7755852604183875,-4.611178809008408,0.5056019719710392,0.10345918350040284,-0.6589326208731983,0.03255400489692306,0.005805386922708156,-0.04316349904014416,0.0,70.0,255.0,255.0,255.0
268,13.4,17.062620622905854,-0.7704050985354484,-4.64417944910843,0.507199896613244,0.10375059510416507,-0.6610817203038533,0.031368064876247104,0.005921111348139441,-0.04272919216470328,0.0,70.0,255.0,255.0,255.0
269,13.450000000000001,17.08801977626399,-0.765210200907971,-4.677286981038793,0.5087387784586639,0.10405129463521678,-0.6632055400896686,0.030355052986408282,0.006141376410273569,-0.042187309469365886,0.0,70.0,255.0,255.0,255.0
270,13.5,17.11349450075172,-0.7599999690719267,-4.710500003117397,0.5102354019118849,0.10436473274519242,-0.6653004512507898,0.02983959039823958,0.00640227394985704,-0.04160022920176587,0.0,70.0,255.0,255.0,255.0
271,13.55,17.13904331645518,-0.7547737276334517,-4.743817026163872,0.5117227374984878,0.10469152203020249,-0.6673655630098452,0.029985158278833524,0.006658629480793543,-0.04101269112455341,0.0,70.0,255.0,255.0,255.0
272,13.600000000000001,17.16466677450157,-0.7495308168689064,-4.777236559418381,0.5132339177397682,0.10503059569327178,-0.6694017203632452,0.030636658743077305,0.006868708896956566,-0.040469781771168556,0.0,70.0,255.0,255.0,255.0
273,13.65,17.190366708229156,-0.7442706680641246,-4.810757198200196,0.5147864033727956,0.10537839291989815,-0.671412541186962,0.03148117481970303,0.006975084207150317,-0.0400345325554774,0.0,70.0,255.0,255.0,255.0
274,13.700000000000001,17.21614541483885,-0.7389929775769166,-4.844377813537077,0.5163820352217385,0.10572810411398681,-0.6734051736187929,0.0322012735239241,0.006913283707943307,-0.0397706401977338,0.0,70.0,255.0,255.0,255.0
275,13.75,17.24200491175133,-0.7336978576527259,-4.878097715562076,0.518006530725188,0.10606972129069248,-0.6753896052067354,0.03246518660908748,0.006609541505053773,-0.03972798347611217,0.0,70.0,255.0,255.0,255.0
276,13.8,17.267946067911367,-0.7283860054478474,-4.911916774057751,0.5196285538826473,0.10638905826449219,-0.6773779719664041,0.03210548955365766,0.006040038111121415,-0.03992309716540632,0.0,70.0,255.0,255.0,255.0
277,13.850000000000001,17.293967767139595,-0.7230589518262767,-4.945835512758716,0.5212170796805538,0.10667372510180462,-0.679381914923276,0.0313057004539985,0.005321549051318097,-0.04031383075098205,0.0,70.0,255.0,255.0,255.0
278,13.9,17.320067775879423,-0.7177186329376669,-4.979854965550079,0.5227591239280471,0.106921213169624,-0.6814093550415024,0.030420056359758973,0.004657619422354653,-0.04081454241511295,0.0,70.0,255.0,255.0,255.0
279,13.950000000000001,17.3462436795324,-0.7123668305093143,-5.013976448262866,0.5242590853165296,0.10713948704404008,-0.6834633691647873,0.029793512594622484,0.004251549364031604,-0.041324442094836655,0.0,70.0,255.0,255.0,255.0
280,14.0,17.372493684411076,-0.7070046842332629,-5.048201302466557,0.5257384751875094,0.10734636810602716,-0.685541799250986,0.029779569924670568,0.00429951340980006,-0.04174779027374953,0.0,70.0,255.0,255.0,255.0
281,14.05,17.39881752705115,-0.7016321936987115,-5.082530628187965,0.5272370423089967,0.10756943838502009,-0.6876381481921623,0.030546543177933927,0.004888817142312263,-0.04202871974685607,0.0,70.0,255.0,255.0,255.0
282,14.100000000000001,17.425217388641975,-0.6962477403947609,-5.1169651172857735,0.5287931295053028,0.10783524982025838,-0.6897446712256716,0.03185335995112837,0.005878847811568999,-0.0421585315880435,0.0,70.0,255.0,255.0,255.0
283,14.15,17.45169684000168,-0.6908486687166857,-5.151505095310532,0.5304223783041095,0.10815732316617699,-0.6918540013509666,0.0332449400676893,0.0069990068680581,-0.04214282226042698,0.0,70.0,255.0,255.0,255.0
284,14.200000000000001,17.478259626472386,-0.6854320080781432,-5.18615051742087,0.5321176235120717,0.1085351505070642,-0.6939589534517143,0.03427204206616352,0.007968257763624198,-0.041992104244048534,0.0,70.0,255.0,255.0,255.0
285,14.25,17.504908602352888,-0.6799951536659793,-5.220900990655704,0.5338495825107259,0.10895414894253941,-0.6960532117753715,0.03449261761154787,0.008512404855598454,-0.041724864752090696,0.0,70.0,255.0,255.0,255.0
286,14.3,17.53164458472346,-0.6745365931838893,-5.255755838598407,0.5355668852732265,0.10938639099262404,-0.6981314399269234,0.03369416524208191,0.008491406606381258,-0.0413609982053309,0.0,70.0,255.0,255.0,255.0
287,14.350000000000001,17.55846529088021,-0.6690565145667169,-5.290714134648396,0.5372189990349341,0.10980328960317753,-0.7001893115959046,0.03213251474925016,0.00801117159056064,-0.040932882057909126,0.0,70.0,255.0,255.0,255.0
288,14.4,17.585366484626952,-0.6635562642235715,-5.325774769757998,0.5387801367481515,0.1101875081516801,-0.7022247281327143,0.030310206678763052,0.007298241217357226,-0.04049500770504366,0.0,70.0,255.0,255.0,255.0
289,14.450000000000001,17.612343304555026,-0.6580377637515489,-5.360936607461667,0.5402500197028104,0.11053311372491326,-0.704238812366409,0.028737153639468715,0.006588706294807789,-0.040112828575189496,0.0,70.0,255.0,255.0,255.0
290,14.5,17.639391486597233,-0.6525029528510802,-5.396198650994639,0.5416538521120984,0.11084637878116088,-0.7062360109902333,0.02791392233341128,0.006130867167675191,-0.03984878801341907,0.0,70.0,255.0,255.0,255.0
291,14.55,17.666508689766236,-0.6469531258734328,-5.431560208560691,0.5430414119361515,0.11114620044168078,-0.7082236911677509,0.028096655995923925,0.006057817504445673,-0.03973400071837219,0.0,70.0,255.0,255.0,255.0
292,14.600000000000001,17.69369562779085,-0.6413883328069121,-5.467021020111414,0.5444635177116908,0.11145216053160545,-0.7102094110620705,0.029083061237500374,0.006271897061704834,-0.03974723621764653,0.0,70.0,255.0,255.0,255.0
293,14.65,17.720955041537405,-0.6358079098202722,-5.502581149666898,0.5459497180599016,0.11177339014785126,-0.7121984147895155,0.03044775302960545,0.00657427534875854,-0.03983985088220621,0.0,70.0,255.0,255.0,255.0
294,14.700000000000001,17.74829059959684,-0.630210993792127,-5.538240861590365,0.5475082930146513,0.1121095880664813,-0.7141933961502911,0.031759483234594654,0.0067760312763121,-0.03995658145532488,0.0,70.0,255.0,255.0,255.0
295,14.75,17.77570587083887,-0.6245969510136241,-5.574000489281927,0.549125666383361,0.11245099327548247,-0.716194072935048,0.03258773035206275,0.00667620106570288,-0.040035973869656516,0.0,70.0,255.0,255.0,255.0
296,14.8,17.803203166235175,-0.6189658944645787,-5.60986026888387,0.5507670660498576,0.11277720817305159,-0.7181969935372567,0.0327003762791378,0.006177463235912395,-0.04004351174122789,0.0,70.0,255.0,255.0,255.0
297,14.850000000000001,17.830782577443856,-0.613319230196319,-5.6458201886356525,0.5523957040112748,0.11306873959907371,-0.7201984241091708,0.032225216990511285,0.0054239441253600695,-0.03999910547252128,0.0,70.0,255.0,255.0,255.0
298,14.9,17.858442736636302,-0.6076590205046714,-5.681880111294787,0.5539895877489087,0.1133196025855876,-0.7221969040845089,0.031447126188766106,0.004681953424845453,-0.03994381720531237,0.0,70.0,255.0,255.0,255.0
299,14.950000000000001,17.886181536218746,-0.6019872699377602,-5.718039879044103,0.5555404166301514,0.11353693494155825,-0.724192805829702,0.030645799201423074,0.004207028739811047,-0.039914645137262283,0.0,70.0,255.0,255.0,255.0
300,15.0,17.913996778299317,-0.5963053270105155,-5.754299391877757,0.557054167669051,0.1137403054595687,-0.7261883685982351,0.030111100316787542,0.004252253977543585,-0.03995528853453223,0.0,70.0,255.0,255.0,255.0
301,15.05,17.94188695298565,-0.5906132393918033,-5.790658715903927,0.5585515266618302,0.11396216033931261,-0.7281883346831552,0.03000067338838619,0.004933215332780794,-0.040085239029874487,0.0,70.0,255.0,255.0,255.0
302,15.100000000000001,17.9698519309655,-0.5849091109765843,-5.827118225346073,0.5600542350078896,0.11423362699284678,-0.7301968925012225,0.030211502033594684,0.0060660793505307176,-0.0402563418931301,0.0,70.0,255.0,255.0,255.0
303,15.15,17.99789237648644,-0.5791898766925186,-5.863678405154049,0.5615726768651896,0.11456876827436568,-0.7322139688724683,0.03052998930144213,0.0073024797164089605,-0.04038488029767251,0.0,70.0,255.0,255.0,255.0
304,15.200000000000001,18.02600919865202,-0.5734522341491477,-5.90033962223332,0.5631072339380339,0.11496387496448768,-0.7342353805309898,0.030756434178869085,0.00829030597894187,-0.040391551282414895,0.0,70.0,255.0,255.0,255.0
305,15.25,18.054203099880244,-0.5676934891960699,-5.937101943207148,0.5646483202830765,0.11539779887225987,-0.7362531240007097,0.030679942972255958,0.008686810996205718,-0.040194899962919806,0.0,70.0,255.0,255.0,255.0
306,15.3,18.082474030680327,-0.5619124542619217,-5.973964934633391,0.5661752282352595,0.11583255606410825,-0.7382548705272818,0.030197070027426776,0.008322589185838503,-0.03976173260520355,0.0,70.0,255.0,255.0,255.0
307,15.350000000000001,18.11082062270377,-0.556110233589659,-6.010927430259876,0.5676680272858192,0.11623005779084372,-0.7402292972612301,0.029451478837927425,0.007361621922430395,-0.03917729851714569,0.0,70.0,255.0,255.0,255.0
308,15.4,18.13924083340891,-0.5502894484828373,-6.047987864359514,0.5691203761190522,0.11656871825635129,-0.7421726003789963,0.028710212643900945,0.006139083420519942,-0.038595729203461104,0.0,70.0,255.0,255.0,255.0
309,15.450000000000001,18.167732660315675,-0.5444533617640239,-6.085144690297776,0.5705390485502093,0.11684396613289572,-0.7440888701815762,0.02822832422175736,0.004997807950379851,-0.03817192362642885,0.0,70.0,255.0,255.0,255.0
310,15.5,18.19629473826393,-0.5386050518695478,-6.122396751377671,0.5719432085412279,0.11706849905138927,-0.7459897927416392,0.028257053200064775,0.004272483389600179,-0.03805709296518245,0.0,70.0,255.0,255.0,255.0
311,15.55,18.224926981169798,-0.532746511858885,-6.15974366957194,0.5733647538702158,0.11727121447185573,-0.7478945794780945,0.028911932284003683,0.004142488530023414,-0.038321630082638336,0.0,70.0,255.0,255.0,255.0
312,15.600000000000001,18.25363121365095,-0.5268779304223622,-6.197186209325481,0.5748344017696283,0.11748274790439162,-0.7498219557499031,0.030016335529836624,0.004518388670726736,-0.038869988514278475,0.0,70.0,255.0,255.0,255.0
313,15.65,18.28241042134676,-0.5209982370684458,-6.23472586514693,0.5763663874231995,0.11772305333892841,-0.7517815783295223,0.031233728886093104,0.005191070051346891,-0.03951583925241309,0.0,70.0,255.0,255.0,255.0
314,15.700000000000001,18.31126785239327,-0.5151056250884694,-6.272364367158433,0.5779577746582376,0.1180018549095263,-0.7537735396751444,0.03222472114785546,0.005951375972412798,-0.04006798031896963,0.0,70.0,255.0,255.0,255.0
315,15.75,18.340206198812584,-0.5091980515774932,-6.310103219114445,0.579588859537985,0.11831819093616969,-0.7557883763614193,0.032663872201155186,0.006595283417359932,-0.04034073749998868,0.0,70.0,255.0,255.0,255.0
316,15.8,18.36922673834707,-0.5032738059948524,-6.347943204794575,0.5812241618783531,0.1186613832512623,-0.7578076134251432,0.03238811459027602,0.007001908908588206,-0.0402384603514605,0.0,70.0,255.0,255.0,255.0
317,15.850000000000001,18.39832861500042,-0.497331913252367,-6.385883980456959,0.5828276709970126,0.11901838182702851,-0.7598122223965653,0.031533062490396446,0.00716939215929524,-0.03982815535144013,0.0,70.0,255.0,255.0,255.0
318,15.9,18.42750950544677,-0.49137196781214953,-6.4239244270342315,0.5843774681273928,0.11937832246719182,-0.7617904289602873,0.030385827520973407,0.007130389287784977,-0.03925550586085791,0.0,70.0,255.0,255.0,255.0
319,15.950000000000001,18.45676636181316,-0.4853940810056478,-6.462063023352988,0.5858662537491099,0.119731420755807,-0.7637377729826511,0.029245565082192115,0.006911000514275845,-0.03866944181094567,0.0,70.0,255.0,255.0,255.0
320,16.0,18.486096130821682,-0.47939882573656883,-6.500298204332497,0.587302024635612,0.1200694225186194,-0.7656573731413818,0.028411467323152806,0.006538364292907328,-0.038215947710984466,0.0,70.0,255.0,255.0,255.0
321,16.05,18.51549656427672,-0.47338713875378585,-6.538628760667126,0.5887074004814252,0.12038525718509774,-0.7675593677537496,0.028047870425496058,0.00604213690785782,-0.03797730240426844,0.0,70.0,255.0,255.0,255.0
322,16.1,18.544966870869825,-0.46736030001805906,-6.577054141107872,0.5901068116781616,0.12067363620940519,-0.7694551033818087,0.0280841417772848,0.005484881852985124,-0.03793375371650143,0.0,70.0,255.0,255.0,255.0
323,16.150000000000002,18.574507245444536,-0.46131977513284533,-6.615574271005307,0.5915158146591537,0.12093374537039625,-0.7713527431253997,0.02835191207921639,0.004968211958439328,-0.03802661282827913,0.0,70.0,255.0,255.0,255.0
324,16.2,18.60411845233574,-0.45526692548101944,-6.6541894154204115,0.5929420028860832,0.12117045740524912,-0.7732577646646366,0.028685419459506534,0.004603596329449955,-0.03820045290261476,0.0,70.0,255.0,255.0,255.0
325,16.25,18.633801445733145,-0.4492027293923204,-6.69290004747177,0.5943843566051044,0.12139410500334125,-0.7751727884156612,0.028906295804276283,0.0044952687349053555,-0.03840349030399537,0.0,70.0,255.0,255.0,255.0
326,16.3,18.66355688799625,-0.4431275149806853,-6.731706694261978,0.5958326324665109,0.12161998427873966,-0.7770981136950361,0.02891485591867138,0.004690056280454158,-0.03859955613956245,0.0,70.0,255.0,255.0,255.0
327,16.35,18.693384708979796,-0.43704073096444646,-6.770609858841274,0.5972758421969715,0.12186311063138666,-0.7790327440296174,0.028772235200591467,0.005126604904398535,-0.03875776218400517,0.0,70.0,255.0,255.0,255.0
328,16.400000000000002,18.723284472215948,-0.43094120391754664,-6.809609968664939,0.59870985598657,0.12213264476917951,-0.7809738899134366,0.02860298104003789,0.005680399242158352,-0.03883627126395339,0.0,70.0,255.0,255.0,255.0
329,16.45,18.753255694578453,-0.4248274664875285,-6.848707247832618,0.6001361403009753,0.1224311505556025,-0.7829163711560128,0.028513642860872324,0.006215126988357023,-0.03878925939879707,0.0,70.0,255.0,255.0,255.0
330,16.5,18.783298086246045,-0.4186980888619864,-6.887901605780541,0.6015612202726572,0.12275415746801521,-0.7848528158533163,0.028607265543456606,0.006592542119354672,-0.03857009107290921,0.0,70.0,255.0,255.0,255.0
331,16.55,18.81341181660572,-0.412552050740727,-6.927192529417949,0.602996866855321,0.12309040476753796,-0.7867733802633037,0.028933078861470563,0.0067381507908303995,-0.03816396021703028,0.0,70.0,255.0,255.0,255.0
332,16.6,18.843597772931577,-0.4063890483852326,-6.966578943806871,0.6044545281588043,0.12342797254709825,-0.7886692118750194,0.029425145858752444,0.006692334893215746,-0.03763696910992209,0.0,70.0,255.0,255.0,255.0
333,16.650000000000002,18.8738572694216,-0.40020925348601716,-7.006059450605451,0.6059393814411962,0.12375963825685954,-0.7905370771742959,0.029957096158383933,0.006545715548511577,-0.037107369715361216,0.0,70.0,255.0,255.0,255.0
334,16.7,18.904191711075697,-0.39401308455954664,-7.045632651524301,0.6074502377746427,0.12408254410194941,-0.7923799488465555,0.03040723520477684,0.00638969525078581,-0.036695283394116984,0.0,70.0,255.0,255.0,255.0
335,16.75,18.934602293199063,-0.3878009990758222,-7.085297445490107,0.6089801049616739,0.12439860778193812,-0.7942066055137076,0.030672660671982044,0.006326544139595436,-0.036508126755574466,0.0,70.0,255.0,255.0,255.0
336,16.8,18.965089721571864,-0.38157322378135283,-7.125053312075671,0.6105175038418409,0.12471519851590895,-0.7960307615221129,0.030699029100489383,0.006410114449051374,-0.03659840252652202,0.0,70.0,255.0,255.0,255.0
337,16.85,18.995654043583247,-0.3753294792242313,-7.164900521642318,0.6120500078717228,0.12503961922684326,-0.7978664457663598,0.03049165688935318,0.006583123121900458,-0.03692988585282109,0.0,70.0,255.0,255.0,255.0
338,16.900000000000002,19.026294722359037,-0.3690692618586685,-7.204839956652307,0.6135666695307762,0.125373510828099,-0.799723750107395,0.030084997962731563,0.00673851012556459,-0.03741788623834452,0.0,70.0,255.0,255.0,255.0
339,16.95,19.057010710536325,-0.3627921281414214,-7.244872896653058,0.615058507667996,0.12571347023939972,-0.8016082343901942,0.02952361678580928,0.006779005761314849,-0.03797011984429943,0.0,70.0,255.0,255.0,255.0
340,17.0,19.087800573125836,-0.35649791483472854,-7.285000780091327,0.6165190312093571,0.12605141140423048,-0.803520762091825,0.02884213839102756,0.006605337266313294,-0.03850938325644648,0.0,70.0,255.0,255.0,255.0
341,17.05,19.11866261365726,-0.3501869870009984,-7.32522497286224,0.6179427215070987,0.12637400396603105,-0.8054591727158389,0.028076492380790796,0.006174305165940197,-0.0389829424976007,0.0,70.0,255.0,255.0,255.0
342,17.1,19.149594845276546,-0.34386051443812543,-7.365546697362911,0.6193266804474362,0.1266688419208245,-0.8074190563415851,0.027326361778889918,0.005576944180962773,-0.039327123842625156,0.0,70.0,255.0,255.0,255.0
343,17.150000000000002,19.180595281702004,-0.3375201028089159,-7.405966878496399,0.6206753576849877,0.12693169838412732,-0.8093918851001014,0.026746455115045364,0.004979311548269916,-0.0394566098071536,0.0,70.0,255.0,255.0,255.0
344,17.2,19.211662381045045,-0.3311673445997127,-7.446485885872921,0.6220013259589408,0.1271667730756515,-0.8113647173223004,0.026490558727232383,0.004547055596704208,-0.03929146333554456,0.0,70.0,255.0,255.0,255.0
345,17.25,19.2427954142979,-0.3248034255013508,-7.487103350228629,0.623324413557711,0.12738640394379774,-0.8133210314336559,0.026706757792638314,0.004444088147126379,-0.0387503775142406,0.0,70.0,255.0,255.0,255.0
346,17.3,19.273994822400816,-0.3184287042053329,-7.527817989016286,0.6246720017382046,0.12761118189036413,-0.8152397550737245,0.027449826547254474,0.004746464421012675,-0.03781500230886081,0.0,70.0,255.0,255.0,255.0
347,17.35,19.30526261447172,-0.31204230731231436,-7.568627325736001,0.6260693962124364,0.127861050385899,-0.8171025316645419,0.028557581308064073,0.005344624629810557,-0.0366442295001157,0.0,70.0,255.0,255.0,255.0
348,17.400000000000002,19.33660176202206,-0.305642599166743,-7.609528242182741,0.627527759869011,0.1281456443533452,-0.818904178023736,0.029731978781910584,0.006027880045000877,-0.0355155812925112,0.0,70.0,255.0,255.0,255.0
349,17.45,19.36801539045862,-0.29922774287697984,-7.650517743538375,0.6290425940906275,0.1284638383903991,-0.8206540897937931,0.030662400055447847,0.006579997959033079,-0.03471577506406476,0.0,70.0,255.0,255.0,255.0
350,17.5,19.399506021431122,-0.2927962153277031,-7.69159365116212,0.6305939998745558,0.1288036441492485,-0.8223757555301425,0.031050830439127708,0.0067823194691341016,-0.03452509736279197,0.0,70.0,255.0,255.0,255.0
351,17.55,19.431074790446075,-0.286347378462055,-7.732755319091389,0.6321476771345402,0.1291420703373125,-0.8241065995300723,0.030750401895573987,0.006526550436736223,-0.035071360621863334,0.0,70.0,255.0,255.0,255.0
352,17.6,19.462720789144576,-0.27988200829397186,-7.774004311115127,0.6336690400641132,0.12945629919292212,-0.8258828915923289,0.029893196438379732,0.00592996522529865,-0.03616700710793452,0.0,70.0,255.0,255.0,255.0
353,17.650000000000002,19.494441694452487,-0.2734017485427628,-7.815343608250622,0.6351369967783782,0.12973506685984237,-0.8277233002408657,0.02875658546805937,0.005223760346384498,-0.03744833775103373,0.0,70.0,255.0,255.0,255.0
354,17.7,19.526234488822414,-0.2669085016079876,-7.856776641139214,0.6365446986109191,0.12997867522756057,-0.8296277253674322,0.02763261494393987,0.004639525993643812,-0.038539888622945995,0.0,70.0,255.0,255.0,255.0
355,17.75,19.55809616431358,-0.2604038810200067,-7.898306380787365,0.6379002582727722,0.13019901945920676,-0.8315772891031603,0.026813929775215684,0.004410596680212708,-0.039077251681085556,0.0,70.0,255.0,255.0,255.0
356,17.8,19.59002451464969,-0.25388859966206695,-7.93993437004953,0.6392260915884407,0.13041973489558184,-0.8335354505355408,0.026460826942908966,0.00465390725861714,-0.03887298177671639,0.0,70.0,255.0,255.0,255.0
357,17.85,19.622018773472423,-0.24736190753044854,-7.981659925840919,0.6405463409670631,0.13066441018506847,-0.835464587280832,0.02650236021146668,0.005250106543661093,-0.03805855791982893,0.0,70.0,255.0,255.0,255.0
358,17.900000000000002,19.654079148746398,-0.2408221586435601,-8.023480828777613,0.6418763276095873,0.13094474554994795,-0.8373413063275237,0.026770630393002648,0.005962486494948127,-0.036920251852912145,0.0,70.0,255.0,255.0,255.0
359,17.95,19.68620640623338,-0.23426743297545374,-8.065394056473671,0.6432234040063634,0.13126065883456328,-0.8391566124661232,0.027099541102160174,0.006555324639770377,-0.03575124387058537,0.0,70.0,255.0,255.0,255.0
360,18.0,19.718401489147034,-0.22769609276010377,-8.107396490024225,0.6445862817198034,0.131600278013925,-0.8409164307145822,0.02730948775848674,0.006791331105954201,-0.03483787726388243,0.0,70.0,255.0,255.0,255.0
361,18.05,19.750665034405362,-0.22110740517406124,-8.14948569954513,0.645954352782212,0.1319397919451587,-0.8426404001925114,0.02730074254522208,0.006551247102218327,-0.034342260056696716,0.0,70.0,255.0,255.0,255.0
362,18.1,19.782996924425255,-0.2145021135655879,-8.191660530043476,0.6473163559743256,0.13225540272414682,-0.8443506567202519,0.027139227516315145,0.005955016525563406,-0.03423148848629154,0.0,70.0,255.0,255.0,255.0
363,18.150000000000002,19.815396670002794,-0.20788186490164656,-8.233920765217155,0.6486682755338435,0.13253529359771504,-0.8460635490411406,0.026957349838241385,0.005240885748469815,-0.0343996058864704,0.0,70.0,255.0,255.0,255.0
364,18.2,19.84786375197864,-0.2012485842058164,-8.27626688494759,0.6500120909581497,0.1327794912989938,-0.8477906173088989,0.026870106428944496,0.0046457488737827735,-0.034740823540779786,0.0,70.0,255.0,255.0,255.0
365,18.25,19.88039787909861,-0.19460391577174718,-8.318699826948045,0.651355286176738,0.13299986848509332,-0.8495376313952185,0.026992035273920578,0.004408041599862633,-0.03513524858718142,0.0,70.0,255.0,255.0,255.0
366,18.3,19.912999280596313,-0.18794859735730707,-8.361220648087112,0.6527112944855418,0.13322029545898006,-0.8513041421676171,0.027376575836868255,0.004647677759092583,-0.035506229743909046,0.0,70.0,255.0,255.0,255.0
367,18.35,19.945669008547164,-0.18128188622584918,-8.403830241164806,0.6540929437604248,0.13346463626100258,-0.8530882543696094,0.027938958161399796,0.0052444194287570856,-0.03585558137473299,0.0,70.0,255.0,255.0,255.0
368,18.400000000000002,19.978408574972356,-0.1746021337312068,-8.446529473524073,0.6555051903016818,0.13374473740185577,-0.8548897003050904,0.02852090265434981,0.005959378436629081,-0.03619871387900986,0.0,70.0,255.0,255.0,255.0
369,18.45,20.01121952757733,-0.1679074124856636,-8.489319211195316,0.6569450340258598,0.1340605741046655,-0.8567081257575104,0.028967259289558456,0.006555106438455027,-0.036533573855024315,0.0,70.0,255.0,255.0,255.0
370,18.5,20.044103078374942,-0.16119607632074026,-8.532200286099824,0.6584019162306376,0.13440024804570128,-0.8585430576905928,0.029130389793152744,0.006792539790567709,-0.036873063118747496,0.0,70.0,255.0,255.0,255.0
371,18.55,20.077059719200395,-0.15446738768109347,-8.575173516964375,0.6598580730051751,0.13473982808372226,-0.8603954320693852,0.02893915457313767,0.006551468434842778,-0.037219394392984384,0.0,70.0,255.0,255.0,255.0
372,18.6,20.11008888567546,-0.14772209351236804,-8.618239829306763,0.6612958316879514,0.13505539488918555,-0.8622649971298912,0.02846941536311931,0.005952713684875821,-0.03750888997817725,0.0,70.0,255.0,255.0,255.0
373,18.650000000000002,20.14318930236919,-0.14096184819217492,-8.661400016677364,0.662705014541487,0.13533509945220984,-0.8641463210672029,0.027875403178967417,0.005236192579671783,-0.037642834636741895,0.0,70.0,255.0,255.0,255.0
374,18.7,20.176359387129608,-0.13418858356714705,-8.704654461413483,0.6640833720058481,0.13557901414715273,-0.8660292805935654,0.02732034359311797,0.004640398798924639,-0.0375383076121949,0.0,70.0,255.0,255.0,255.0
375,18.75,20.209597639569775,-0.12740394677745964,-8.74800294473672,0.6654370489007988,0.1357991393321023,-0.8679001518284224,0.02697442420362961,0.004405761941750352,-0.03712056420415166,0.0,70.0,255.0,255.0,255.0
376,18.8,20.242903092019688,-0.12060866963393682,-8.791444476596325,0.6667808144262111,0.13601959034132777,-0.8697413370139806,0.02692629304839045,0.00465302192809991,-0.036368080795590174,0.0,70.0,255.0,255.0,255.0
377,18.85,20.276275721012397,-0.11380198774332687,-8.834977078438119,0.6681296782056378,0.1362644415249123,-0.8715369599079814,0.027099744021796823,0.005259317906407268,-0.03539146943687399,0.0,70.0,255.0,255.0,255.0
378,18.900000000000002,20.30971605984025,-0.10698222548144559,-8.878598172587123,0.6694907888283907,0.1365455221319685,-0.873280483957668,0.027341960152682532,0.0059812591701541296,-0.03438985433525943,0.0,70.0,255.0,255.0,255.0
379,18.95,20.343224799895236,-0.10014743553013002,-8.922305126833885,0.6708638742209061,0.1368625674419277,-0.8749759453415074,0.02750428009150596,0.00657672493922512,-0.03357165723354427,0.0,70.0,255.0,255.0,255.0
380,19.0,20.376802447262342,-0.09329596873725282,-8.966095767121274,0.6722412168375413,0.137203194625891,-0.8766376496810224,0.02743196001837589,0.006800449738396386,-0.03313269871227931,0.0,70.0,255.0,255.0,255.0
381,19.05,20.41044892157899,-0.08642711606754092,-9.009968891801988,0.6736070702227437,0.13754261241576735,-0.8782892152127353,0.027049099806575327,0.006529870426168205,-0.03316879524515315,0.0,70.0,255.0,255.0,255.0
382,19.1,20.444163154284617,-0.07954170749567609,-9.053924688642548,0.6749461268181989,0.13785618166850783,-0.8799545292055377,0.026454312506984934,0.005895422614975165,-0.03359805278666528,0.0,70.0,255.0,255.0,255.0
383,19.150000000000002,20.47794353426081,-0.07264149790069013,-9.097964344722541,0.6762525014734422,0.13813215467726486,-0.8816490204914018,0.025834052246764827,0.00515336281437434,-0.034244088350021684,0.0,70.0,255.0,255.0,255.0
384,19.200000000000003,20.51178840443196,-0.0657284920279496,-9.142089590691688,0.6775295320428754,0.13837151794994526,-0.8833789380405399,0.025369109471640172,0.004559274870728769,-0.03491557627430808,0.0,70.0,255.0,255.0,255.0
385,19.25,20.545696487465097,-0.058804346105695605,-9.186302238526595,0.6787894124206062,0.13858808216433774,-0.8851405781188326,0.02523768910442925,0.0043764018085701295,-0.035416612973371286,0.0,70.0,255.0,255.0,255.0
386,19.3,20.57966734567402,-0.051869683811515827,-9.230603648503571,0.6800533009533183,0.13880915813080227,-0.886920599337877,0.025524393969078574,0.004734069793776163,-0.03563776386492634,0.0,70.0,255.0,255.0,255.0
387,19.35,20.61370181756043,-0.04492343029261538,-9.274994298460383,0.681341851817514,0.13906148914371536,-0.8887043545053253,0.026118530422536423,0.005473583708312801,-0.03562088818060971,0.0,70.0,255.0,255.0,255.0
388,19.400000000000002,20.647801530855773,-0.03796353489714429,-9.319474083954104,0.6826651539955719,0.13935651650163355,-0.890482688155938,0.026805467225088364,0.0062906974978069186,-0.03546754517831374,0.0,70.0,255.0,255.0,255.0
389,19.450000000000003,20.681968332959986,-0.03098777864245202,-9.364042567275977,0.6840223985400229,0.13969055889349605,-0.8922511090231566,0.02736650813375263,0.006886315438003887,-0.03527363673683226,0.0,70.0,255.0,255.0,255.0
390,19.5,20.716203770709775,-0.023994479007794684,-9.40869919485642,0.6854018048089472,0.14004514804543394,-0.8940100518296212,0.027581292887290942,0.006962008295323674,-0.035140802774336066,0.0,70.0,255.0,255.0,255.0
391,19.55,20.75050851344088,-0.016983263837908623,-9.453443572458939,0.686780527828752,0.14038675972302841,-0.8957651893005902,0.027340037602741063,0.006373477438297859,-0.035126209902358596,0.0,70.0,255.0,255.0,255.0
392,19.6,20.78488182349265,-0.009955803035491841,-9.498275713786478,0.6881358085692213,0.14068249578926373,-0.8975226728198571,0.02675697372787056,0.005297422038958166,-0.03519746208979768,0.0,70.0,255.0,255.0,255.0
393,19.650000000000002,20.819322094297803,-0.0029150142589822485,-9.543195839740925,0.689456225201539,0.14091650192692423,-0.89928493550957,0.02605867092562164,0.004077506868135072,-0.035287502498526635,0.0,70.0,255.0,255.0,255.0
394,19.700000000000003,20.853827446012804,0.004135847157200585,-9.588204207337435,0.6907416756617835,0.14109024647607724,-0.9010514230697098,0.025471431421664192,0.0030548106966565847,-0.03534279053134526,0.0,70.0,255.0,255.0,255.0
395,19.75,20.88839626186398,0.011194010388625478,-9.633300982047896,0.6920033683437055,0.1412219829965899,-0.9028192145627045,0.025221102051631306,0.0025515090660124806,-0.035324231872380096,0.0,70.0,255.0,255.0,255.0
396,19.8,20.923027782847175,0.018258045456859575,-9.678486128793706,0.6932637858669466,0.14134539738267848,-0.9045838462569478,0.02542202904720625,0.002732393413329426,-0.035210310277911105,0.0,70.0,255.0,255.0,255.0
397,19.85,20.957722640450676,0.025328550126893327,-9.72375936667359,0.6945455712484261,0.14149522233792283,-0.9063402455904956,0.025968166738010723,0.003486844685967605,-0.03499103502218048,0.0,70.0,255.0,255.0,255.0
398,19.900000000000002,20.992482339972018,0.03240756769065186,-9.769120153352755,0.6958606025407477,0.14169408185127524,-0.9080829497591658,0.026645256995649902,0.0045683193187759374,-0.03466151242772497,0.0,70.0,255.0,255.0,255.0
399,19.950000000000003,21.02730870070475,0.03949795831202085,-9.814567661649507,0.6972100969479911,0.14195205426980043,-0.9098063968332681,0.027241192755766974,0.005721667882664094,-0.0342214016047393,0.0,70.0,255.0,255.0,255.0
400,20.0,21.062203349666817,0.046602773117631904,-9.860100793036082,0.6985847218163244,0.14226624863954165,-0.9115050899196397,0.02755033620367442,0.0067079461165520105,-0.033658307031991797,0.0,70.0,255.0,255.0,255.0
401,20.05,21.097167172886383,0.05372458317597502,-9.905718170641471,0.6999651305683585,0.14262284888145563,-0.9131722275364673,0.027465272781768135,0.007384687836044235,-0.03297874944969692,0.0,70.0,255.0,255.0,255.0
402,20.1,21.132199862723652,0.06086505800577747,-9.951418015789729,0.7013312490945012,0.14300471742314608,-0.9148029648646094,0.027055767242245565,0.007722471944442144,-0.032277465419561224,0.0,70.0,255.0,255.0,255.0
403,20.150000000000002,21.167300297795833,0.06802505491828963,-9.997198467127932,0.7026707072925831,0.14339509607589984,-0.9163999740784234,0.026474893167005575,0.0077202648078880665,-0.0317082193550533,0.0,70.0,255.0,255.0,255.0
404,20.200000000000003,21.20246693345291,0.07520456761336745,-10.043058013197571,0.7039787384112017,0.14377674390393488,-0.9179737868001148,0.02587708427377322,0.007379543413783274,-0.031417663656441164,0.0,70.0,255.0,255.0,255.0
405,20.25,21.237698171636954,0.08240272930868311,-10.088995845807943,0.7052584157199604,0.14413305041727817,-0.9195417404440676,0.02541354380660721,0.006704725115735943,-0.031538484055815275,0.0,70.0,255.0,255.0,255.0
406,20.3,21.272992775024907,0.08961787265509527,-10.135012187241978,0.7065200927918625,0.14444721641550848,-0.9211276352056963,0.025169653714129936,0.005726803960362514,-0.03212280381017507,0.0,70.0,255.0,255.0,255.0
407,20.35,21.30835018091614,0.09684745095023396,-10.181108609328513,0.7077753810913734,0.14470573081331442,-0.9227540208250851,0.025125127929115365,0.004584945857938338,-0.033053788612669166,0.0,70.0,255.0,255.0,255.0
408,20.400000000000002,21.343770313134044,0.10408844573642671,-10.227287589324487,0.709032605584774,0.1449057110013023,-0.9244330140669632,0.025219645863927553,0.003512299771429861,-0.03410840735806886,0.0,70.0,255.0,255.0,255.0
409,20.450000000000003,21.379253441474617,0.1113380220503642,-10.27355191073521,0.7102973456777661,0.1450569607904574,-0.926164861560892,0.025396670618604844,0.002758107180218794,-0.03504948223103099,0.0,70.0,255.0,255.0,255.0
410,20.5,21.41480004770182,0.11859414181547245,-10.319904075480576,0.7115722726466345,0.1451815217193242,-0.9279379622900663,0.02560350721481086,0.002561172068456241,-0.035655728771288864,0.0,70.0,255.0,255.0,255.0
411,20.55,21.45041066873928,0.1258561742222966,-10.366345706964216,0.7128576963992472,0.14531307799730303,-0.9297304344380208,0.025803338467866865,0.0030291219634548394,-0.03581003531003546,0.0,70.0,255.0,255.0,255.0
412,20.6,21.486085817341745,0.13312544961520276,-10.412877118924378,0.7141526064934212,0.14548443391566968,-0.9315189658210699,0.02596465344204546,0.004008793574847291,-0.035555492016570156,0.0,70.0,255.0,255.0,255.0
413,20.650000000000002,21.521825929388623,0.14040461761386358,-10.459497603546323,0.7154541617434518,0.14571395735478776,-0.9332859836396779,0.026044751815845757,0.005197808833737327,-0.035010039325733544,0.0,70.0,255.0,255.0,255.0
414,20.700000000000003,21.55763123351609,0.14769684535068153,-10.506205717288346,0.7167570816750057,0.1460042147990434,-0.9350199697536432,0.02599674607495217,0.006275766793154003,-0.03430440741993834,0.0,70.0,255.0,255.0,255.0
415,20.75,21.593501637556123,0.15500503909376792,-10.552999600521687,0.718053836350947,0.14634153403410316,-0.9367164243816717,0.025772427332881875,0.006926577286373026,-0.03357062883022621,0.0,70.0,255.0,255.0,255.0
416,20.8,21.629436617151185,0.16233099875409185,-10.599877359726513,0.7193343244082939,0.1466968725276807,-0.9383770326366658,0.02535647959405196,0.006983934292972838,-0.032895516488729015,0.0,70.0,255.0,255.0,255.0
417,20.85,21.665435069996953,0.169674726346536,-10.646837303785354,0.7205894843103522,0.14703992746340044,-0.9400059760305446,0.02481802986302739,0.006548924131713485,-0.032321446117933306,0.0,70.0,255.0,255.0,255.0
418,20.900000000000002,21.70149556558222,0.1770349915004319,-10.693877957329567,0.7218161273945967,0.14735176494085206,-0.9416091772484592,0.024280414470112532,0.005846581443791354,-0.03189675002435166,0.0,70.0,255.0,255.0,255.0
419,20.950000000000003,21.737616682736412,0.1844099028406212,-10.7409982215102,0.7230175257573634,0.14762458560777958,-0.9431956510329798,0.023869118977515313,0.0051059118943125315,-0.03167806291362041,0.0,70.0,255.0,255.0,255.0
420,21.0,21.773797318157957,0.19179745006120985,-10.788197522432865,0.7242030392923482,0.1478623561302833,-0.9447769835398212,0.023698764807633665,0.00456049081398735,-0.031713783879183666,0.0,70.0,255.0,255.0,255.0
421,21.05,21.810036986665647,0.19919613845364953,-10.835475919864182,0.7253874022381268,0.14808063468917831,-0.9463670294208981,0.023824542689254713,0.004340688650142366,-0.03201563766275228,0.0,70.0,255.0,255.0,255.0
422,21.1,21.84633605838177,0.20660551353012768,-10.882834225374955,0.7265854935612737,0.14829642499529755,-0.9479785473060964,0.024198751578907718,0.00439094113371119,-0.032515180388514864,0.0,70.0,255.0,255.0,255.0
423,21.150000000000002,21.882695536021775,0.21402578095317928,-10.930273774594792,0.7278072773960176,0.14851972880254943,-0.9496185474597496,0.024717226668258263,0.00458211247738316,-0.033084825380846894,0.0,70.0,255.0,255.0,255.0
424,21.200000000000003,21.91911678612137,0.22145748641038263,-10.97779608012093,0.7290572162280995,0.14875463624303586,-0.9512870298441811,0.025267290836694656,0.0047929865620716106,-0.03358436656615282,0.0,70.0,255.0,255.0,255.0
425,21.25,21.955601257644584,0.22890124457748287,-11.02540247757921,0.730334006479687,0.1489990274587566,-0.9529769841163649,0.02574449478736085,0.004891506077683849,-0.03388621700324279,0.0,70.0,255.0,255.0,255.0
426,21.3,21.99215018676934,0.23635738915625829,-11.073093778532566,0.7316316657068356,0.14924378685080425,-0.9546756515445054,0.02608586246850564,0.004807250500302174,-0.0339219328591156,0.0,70.0,255.0,255.0,255.0
427,21.35,22.028764424215268,0.2438256232625633,-11.12087004273366,0.7329425927265376,0.1494797525087868,-0.9563691774022764,0.02627060018376426,0.004608243734385842,-0.03370324025393501,0.0,70.0,255.0,255.0,255.0
428,21.400000000000002,22.065444446041994,0.25130536440713697,-11.168730696272794,0.734258725725212,0.14970461122424283,-0.9580459755698989,0.026286203333825142,0.004423197085004493,-0.03327854053001289,0.0,70.0,255.0,255.0,255.0
429,21.450000000000003,22.10219029678779,0.2587960843849876,-11.21667464029065,0.7355712130599201,0.14992207221728726,-0.9596970314552777,0.026122230495673193,0.004369228104550427,-0.03270447082233119,0.0,70.0,255.0,255.0,255.0
430,21.5,22.139001567347986,0.2662975716288657,-11.264700399418322,0.7368709487747793,0.15014153403469788,-0.961316422652132,0.025767265363541014,0.004569428931128217,-0.032029366754038335,0.0,70.0,255.0,255.0,255.0
431,21.55,22.175877391665267,0.27381023778845737,-11.312806282555863,0.7381479395962742,0.15037901511040008,-0.9628999681306816,0.025230981799140295,0.005077395595642908,-0.03129560525731989,0.0,70.0,255.0,255.0,255.0
432,21.6,22.212816361307613,0.2813354731399057,-11.36099039623139,0.7393940469546934,0.15064927359426217,-0.964445983177864,0.024599686851445313,0.0057743123670239704,-0.030589993793483927,0.0,70.0,255.0,255.0,255.0
433,21.650000000000002,22.249816796360737,0.2888751651478836,-11.40925088087365,0.7406079082814188,0.15095644634710248,-0.96595896751003,0.02401879915332472,0.006446031583623446,-0.030044555626140834,0.0,70.0,255.0,255.0,255.0
434,21.700000000000003,22.286877152135755,0.29643111777461595,-11.457586292982393,0.7417959268700258,0.1512938767526245,-0.9674504387404781,0.023642761538056334,0.006884040413701609,-0.029790011218011614,0.0,70.0,255.0,255.0,255.0
435,21.75,22.32399638904774,0.30400455282314603,-11.505995924747698,0.7429721844352244,0.15164485038847264,-0.9689379686318311,0.023630453085843328,0.006890824817751273,-0.029944288006689135,0.0,70.0,255.0,255.0,255.0
436,21.8,22.361174370579278,0.3115956028134632,-11.554480089845576,0.7441589721786102,0.15198295923439964,-0.970444867541147,0.024050723155255582,0.006375568049438174,-0.03055047128484034,0.0,70.0,255.0,255.0,255.0
437,21.85,22.3984122862656,0.319202848746586,-11.603040411501812,0.74537725675075,0.15228240719341646,-0.9719930157603152,0.024766176886359403,0.00546075388382361,-0.031491469887079404,0.0,70.0,255.0,255.0,255.0
438,21.900000000000002,22.435712096254353,0.32682384353280486,-11.651679391421608,0.7466355898672461,0.152529034622782,-0.973594014529855,0.025522236415298494,0.004388107816039044,-0.03254603417079949,0.0,70.0,255.0,255.0,255.0
439,21.950000000000003,22.473075845252325,0.3344557522088642,-11.700399812954798,0.7479294803922798,0.15272121797502036,-0.9752476191773951,0.026060662743176977,0.003406871312916504,-0.03347702276776943,0.0,70.0,255.0,255.0,255.0
440,22.0,22.51050504429358,0.3420959653303069,-11.749204153339347,0.7492416561415638,0.15286972175407365,-0.9769417168066319,0.02612695959243183,0.0027472717977872207,-0.03406145324458265,0.0,70.0,255.0,255.0,255.0
441,22.05,22.54800001086648,0.34974272438427156,-11.79809398463546,0.750542176351523,0.15299594515479908,-0.9786537645018534,0.025599039332746543,0.002533618919825509,-0.03418250960329772,0.0,70.0,255.0,255.0,255.0
442,22.1,22.585559261928733,0.3573955598457868,-11.847069529789533,0.7518015600748384,0.1531230836460562,-0.9803599677669617,0.02462278508872373,0.0027345602095663057,-0.03389223854615153,0.0,70.0,255.0,255.0,255.0
443,22.150000000000002,22.623180166873965,0.3650550327488772,-11.896129981412157,0.7530044548603954,0.15326940117575572,-0.9820429883564685,0.023485914860188473,0.0032496490404376743,-0.03332319580202636,0.0,70.0,255.0,255.0,255.0
444,22.200000000000003,22.660859707414772,0.3727224999633624,-11.94527382862518,0.7541501515608573,0.15344804855009997,-0.9836922873471643,0.022480648093647915,0.003968474334697936,-0.032621897713625,0.0,70.0,255.0,255.0,255.0
445,22.25,22.69859518203005,0.3803998376038872,-11.994499210146873,0.7552525196697601,0.1536662486092255,-0.985305178127831,0.0218896805733948,0.004788060018989793,-0.031941926986078784,0.0,70.0,255.0,255.0,255.0
446,22.3,22.73638495938175,0.3880891248242849,-12.043804346437962,0.7563391196181968,0.15392685455199895,-0.9868864800457722,0.021859692938264175,0.005631494732699638,-0.03137795183825176,0.0,70.0,255.0,255.0,255.0
447,22.35,22.77422909399187,0.3957925230590871,-12.09318785815145,0.7574384889635866,0.15422939808249547,-0.9884429733116562,0.022294570872460895,0.006403802480692278,-0.030936778725099146,0.0,70.0,255.0,255.0,255.0
448,22.400000000000002,22.812128808278107,0.4035120646325345,-12.142648643769128,0.7585685767054429,0.15456723480006818,-0.9899801579182821,0.022982216038869296,0.006967981337013818,-0.030606497307950065,0.0,70.0,255.0,255.0,255.0
449,22.450000000000003,22.850085951662415,0.4112492465390939,-12.192185873943279,0.7597367105674735,0.15492619621619685,-0.9915036230424512,0.023703458162316338,0.007180769809950194,-0.030387274492582605,0.0,70.0,255.0,255.0,255.0
450,22.5,22.888102479334854,0.41900468425415416,-12.241799006073373,0.7609389225216745,0.1552853117810632,-0.9930188853675403,0.02423431810960608,0.006900488126138082,-0.030274894753290482,0.0,70.0,255.0,255.0,255.0
451,22.55,22.926179843914582,0.4267777777172002,-12.291487762480033,0.7621601423784341,0.15561624502881066,-0.9945311125177803,0.024449927844472086,0.0060788636876751845,-0.030259622435302447,0.0,70.0,255.0,255.0,255.0
452,22.6,22.964318493572698,0.4345663087570352,-12.341252117325151,0.7633839153061217,0.15589319814983071,-0.9960448476110706,0.024403500188086014,0.004895544553007447,-0.030318874991763778,0.0,70.0,255.0,255.0,255.0
453,22.650000000000002,23.002518235445194,0.4423670975321833,-12.39109224724114,0.7646004923972427,0.1561057994841114,-0.9975630000169566,0.02421897390334493,0.003675628408833509,-0.030411747368397357,0.0,70.0,255.0,255.0,255.0
454,22.700000000000003,23.040778542812422,0.45017688870544637,-12.441008417326847,0.7658058126964562,0.15626076099071406,-0.9990860223479103,0.024013118321875027,0.0027601946773425645,-0.030482803850873097,0.0,70.0,255.0,255.0,255.0
455,22.75,23.07909881671484,0.4579931736312547,-12.491000849475931,0.7670018042294302,0.15638181895184566,-1.000611280402044,0.02391300036244104,0.0024899874763617547,-0.0304624567034395,0.0,70.0,255.0,255.0,255.0
456,22.8,23.117478723235365,0.46581507060063093,-12.541069545367051,0.7681971127327003,0.15650975973835024,-1.0021322680182543,0.023986656290375663,0.0030268500502750317,-0.030317357954068314,0.0,70.0,255.0,255.0,255.0
457,22.85,23.15591852798811,0.4736441496050897,-12.591214076277756,0.7694004698584678,0.15668450395687317,-1.0036430161974508,0.024170495976250095,0.004164135857448459,-0.03010865370907112,0.0,70.0,255.0,255.0,255.0
458,22.900000000000002,23.194418770221212,0.48148352099631825,-12.641433846986796,0.7706141623303253,0.1569261733240951,-1.0051431333891614,0.024343659911352233,0.0054985493168180355,-0.029944741657850216,0.0,70.0,255.0,255.0,255.0
459,22.950000000000003,23.232979944221142,0.4893367669374992,-12.691728389616673,0.771834835849603,0.15723435888855497,-1.0066374903632358,0.02439698230283227,0.0066191041613761215,-0.029928596351780357,0.0,70.0,255.0,255.0,255.0
460,23.0,23.271602253806172,0.49720695688517375,-12.74209759602312,0.7730538605606085,0.1575880837402327,-1.0081359930243394,0.02421773638303648,0.007119608588351811,-0.030171222487318516,0.0,70.0,255.0,255.0,255.0
461,23.05,23.310285330277203,0.5050955753115225,-12.792541988919107,0.7742566094879066,0.15794631974739015,-1.0096546126119677,0.023756360746318705,0.006793875971261576,-0.0307180319950362,0.0,70.0,255.0,255.0,255.0
462,23.1,23.349027914754963,0.5130015888599128,-12.843063057284317,0.7754294966352404,0.15826747133735886,-1.011207796223843,0.023116287468027963,0.005818727868017737,-0.03144473861080854,0.0,70.0,255.0,255.0,255.0
463,23.150000000000002,23.387828279940727,0.5209223224452584,-12.89366276854149,0.7765682382347094,0.15852819253419193,-1.0127990864730485,0.022485454051235365,0.004559358473177344,-0.03213021840160479,0.0,70.0,255.0,255.0,255.0
464,23.200000000000003,23.426684738578434,0.528854408113332,-12.944342965931622,0.777678042040364,0.1587234071846766,-1.0144208180640035,0.022051726361738133,0.003383248817157014,-0.032556750136158996,0.0,70.0,255.0,255.0,255.0
465,23.25,23.465596084144764,0.536794663163726,-12.995104850347891,0.7787734108708833,0.15886651741590763,-1.0160547614866644,0.02200803545662211,0.0026515315501129955,-0.03251269996802364,0.0,70.0,255.0,255.0,255.0
466,23.3,23.504562079665522,0.5447410598549227,-13.045948442080288,0.7798788455860262,0.1589885603396879,-1.017672088060806,0.02244170025562653,0.002556993383839856,-0.031902914998482856,0.0,70.0,255.0,255.0,255.0
467,23.35,23.543583968703366,0.5526935191976948,-13.096872059153972,0.7810175808964459,0.1591222167542916,-1.0192450529865127,0.023199878627266912,0.002991908381466679,-0.030878638932385627,0.0,70.0,255.0,255.0,255.0
468,23.400000000000002,23.582663837755167,0.5606532815303519,-13.14787294737894,0.7821988334487529,0.15928775117783456,-1.0207599519540445,0.0239981602504713,0.00371390024046514,-0.029729815969758988,0.0,70.0,255.0,255.0,255.0
469,23.450000000000003,23.62180385204824,0.5686222943154783,-13.198948054349376,0.783417396921493,0.15949360677833813,-1.0222180345834886,0.024550051645633175,0.004480814322982418,-0.028756664176299296,0.0,70.0,255.0,255.0,255.0
470,23.5,23.661005577447316,0.5766026422081857,-13.250094750837288,0.7846538386133162,0.1597358326101328,-1.0236356183716744,0.024566159085281924,0.005046293183219586,-0.028257977642098808,0.0,70.0,255.0,255.0,255.0
471,23.55,23.700269235909573,0.5845958775764916,-13.301311616186544,0.7858740128300212,0.15999823609666008,-1.0250438323476985,0.02390975198309775,0.005272602707684371,-0.028383594724878947,0.0,70.0,255.0,255.0,255.0
472,23.6,23.739592978730318,0.5926024658178517,-13.352599134072058,0.7870448138116259,0.16026309288090124,-1.0264739778441623,0.02277137751072189,0.005218207370638606,-0.028992593769316954,0.0,70.0,255.0,255.0,255.0
473,23.650000000000002,23.778973717290736,0.6006221868645817,-13.40395901397096,0.7881511505810934,0.16052005683372395,-1.0279430917246302,0.021515564621310546,0.005018793478828165,-0.02979862960597046,0.0,70.0,255.0,255.0,255.0
474,23.700000000000003,23.818408093788427,0.6086544715012241,-13.455393443244521,0.789196370273757,0.16076497222878405,-1.0294538408047593,0.02050741437571446,0.004801092958628406,-0.030510019734464322,0.0,70.0,255.0,255.0,255.0
475,23.75,23.85789335431811,0.6166986840874601,-13.506904398051436,0.7902018920186649,0.16100016612958679,-1.0309940936980766,0.020103272256832838,0.004703249096882356,-0.030827417437429006,0.0,70.0,255.0,255.0,255.0
476,23.8,23.897428282990294,0.6247544881141828,-13.558492852614329,0.7912066974994403,0.1612352971384723,-1.0325365825485022,0.020479664769368355,0.004798656391358236,-0.03059664549542873,0.0,70.0,255.0,255.0,255.0
477,23.85,23.937014024068056,0.6328222138013073,-13.610158056306286,0.7922498584956017,0.1614800317687226,-1.0340537582476195,0.021464727879560996,0.0050143297350979665,-0.029957326314367094,0.0,70.0,255.0,255.0,255.0
478,23.900000000000002,23.976653268839854,0.640902491291055,-13.66189822843909,0.7933531702873964,0.16173673011198209,-1.035532315179939,0.022708625556688844,0.005212697406031808,-0.02918848611770386,0.0,70.0,255.0,255.0,255.0
479,23.950000000000003,24.016349341096795,0.6489958868125055,-13.71371128782428,0.7945207210512706,0.1620013015093258,-1.0369726068593899,0.023854230245135,0.005267727595437144,-0.0285636298487546,0.0,70.0,255.0,255.0,255.0
480,24.0,24.05610534094498,0.6571026214419876,-13.76559548912503,0.7957385933119099,0.1622635028715258,-1.0383886781648144,0.024548770531040986,0.005044766373230036,-0.028364287341453576,0.0,70.0,255.0,255.0,255.0
481,24.05,24.095923200427986,0.6652222370996581,-13.817550155640761,0.7969755981043747,0.1625057781466488,-1.0398090355935352,0.024605528336607563,0.004485685479738155,-0.028729683431016895,0.0,70.0,255.0,255.0,255.0
482,24.1,24.13580290075542,0.6733531992566525,-13.869576392684383,0.7981991461455706,0.16271207141949962,-1.041261646507916,0.024138755262015366,0.0037262452508679544,-0.029492693046684337,0.0,70.0,255.0,255.0,255.0
483,24.150000000000002,24.175743115042543,0.6814934442416081,-13.921676320291553,0.7993894736305762,0.1628784026717356,-1.0427583048982036,0.023400049703070636,0.003009484496141468,-0.0303328338493003,0.0,70.0,255.0,255.0,255.0
484,24.200000000000003,24.215741848118476,0.689641039523826,-13.973852223174204,0.8005391511158777,0.16301301986911376,-1.0442949298928461,0.022642750892742924,0.002574057265636309,-0.030935600732640012,0.0,70.0,255.0,255.0,255.0
485,24.25,24.25579703015413,0.6977947462285194,-14.026105813280838,0.8016537487198505,0.16313580839829922,-1.0458518649714676,0.022129617640587185,0.0026576387901378062,-0.030983498466419235,0.0,70.0,255.0,255.0,255.0
486,24.3,24.29590722299046,0.705954620363656,-14.07843740967135,0.8027521128799364,0.16327878374812754,-1.047393279739488,0.022003769668899054,0.003366200757248805,-0.030324247817681282,0.0,70.0,255.0,255.0,255.0
487,24.35,24.336072241442125,0.7141226246033322,-14.130845141254786,0.8038541256867404,0.1634724284740241,-1.0488842897532358,0.02217568231266398,0.004514442175196365,-0.029159080984619834,0.0,70.0,255.0,255.0,255.0
488,24.400000000000002,24.376292635559135,0.7223018632110584,-14.183325838646674,0.8049696811112028,0.16373022796564718,-1.05030918783795,0.022457422718247244,0.005753933373986442,-0.027873838160452635,0.0,70.0,255.0,255.0,255.0
489,24.450000000000003,24.416569209553245,0.7304956473998969,-14.235876060038581,0.8060998679585651,0.16404782181142274,-1.051671673569281,0.022673880400958524,0.0067304955565061775,-0.02685331454070905,0.0,70.0,255.0,255.0,255.0
490,24.5,24.456902622354992,0.7387066453922007,-14.288493006003602,0.8072370691512987,0.1644032775212978,-1.052994519292021,0.022644833495277794,0.007096706438280975,-0.026477662849266892,0.0,70.0,255.0,255.0,255.0
491,24.55,24.497292916468375,0.7469359751520267,-14.341175511967784,0.8083643513080929,0.16475749245525084,-1.0543194398542077,0.0222795328475911,0.006682425244119994,-0.02693369825763625,0.0,70.0,255.0,255.0,255.0
492,24.6,24.5377390574858,0.7551823946377257,-14.393924949989023,0.8094650224360578,0.1650715200457098,-1.0556878891177846,0.021681219452673872,0.005665869498217013,-0.028021099564412566,0.0,70.0,255.0,255.0,255.0
493,24.650000000000002,24.57823941871198,0.7634431271565977,-14.446744300879562,0.8105324732533603,0.16532407940507254,-1.057121549810649,0.021047555464193124,0.004405737718904401,-0.029340857799908804,0.0,70.0,255.0,255.0,255.0
494,24.700000000000003,24.618792304811137,0.771714802578233,-14.499637104970088,0.8115697779824771,0.16551209381760024,-1.0586219748977754,0.020568300930534633,0.003270021114443189,-0.030491793785181187,0.0,70.0,255.0,255.0,255.0
495,24.75,24.65939639651023,0.7799943365383577,-14.55260649836934,0.8125893033464138,0.16565108151651686,-1.060170729189167,0.020431001754417366,0.002627516808673125,-0.031085896754312614,0.0,70.0,255.0,255.0,255.0
496,24.8,24.70005123514578,0.7882799107298847,-14.605654177889004,0.8136128781579188,0.16577484549846755,-1.0617305645732067,0.02072518518438926,0.0026701588722088943,-0.030921099010683406,0.0,70.0,255.0,255.0,255.0
497,24.85,24.74075768432602,0.7965718210882045,-14.65877955482666,0.8146618218648527,0.16591809740373775,-1.0632628390902354,0.02133496435625659,0.003253035542949423,-0.03012733661016398,0.0,70.0,255.0,255.0,255.0
498,24.900000000000002,24.781517417332264,0.8048717204702585,-14.711980461798028,0.8157463745935445,0.1661001490527625,-1.064743298234223,0.02203599179360083,0.00407299920041071,-0.02899191479084351,0.0,70.0,255.0,255.0,255.0
499,24.950000000000003,24.822332321785375,0.8131818359934807,-14.765253884650082,0.8168654210442128,0.16632539732377882,-1.0661620305693198,0.02260014197972282,0.004829047025323163,-0.027806083745218757,0.0,70.0,255.0,255.0,255.0
500,25.0,24.863203959436685,0.8215042602026363,-14.81859666485496,0.8180063887915168,0.1665830537552948,-1.067523906608745,0.022795168807476784,0.00521728227099727,-0.026850731483563095,0.0,70.0,255.0,255.0,255.0
501,25.05,24.904132960664526,0.8298401413690102,-14.872006275310957,0.8191449379249605,0.16684712555087855,-1.068847103717676,0.02250643970462818,0.005077591947666438,-0.026287453483320178,0.0,70.0,255.0,255.0,255.0
502,25.1,24.94511845322918,0.8381889727577242,-14.925481375226727,0.8202570327619796,0.16709081295006145,-1.070152651957077,0.021864331049670227,0.00452832865633912,-0.026102281268158833,0.0,70.0,255.0,255.0,255.0
503,25.150000000000002,24.986158663940724,0.8465492226640163,-14.979021540506665,0.8213313710299275,0.16729995841651246,-1.071457331844492,0.02112306943544695,0.0038150859923757885,-0.026220434087953493,0.0,70.0,255.0,255.0,255.0
504,25.200000000000003,25.027251590332174,0.8549189685993754,-15.032627108411177,0.8223693397055243,0.16747232154929903,-1.0727746953658723,0.020537704573087012,0.003174163744656955,-0.02656955888156176,0.0,70.0,255.0,255.0,255.0
505,25.25,25.068395597911277,0.8632964548189462,-15.086299010043252,0.8233851414872362,0.16761737479097816,-1.0741142877326482,0.020372285718650573,0.002835288839164729,-0.027075186633318538,0.0,70.0,255.0,255.0,255.0
506,25.3,25.109590104480898,0.8716807060784733,-15.140038537184441,0.8244065682773893,0.1677558504332155,-1.0754822140292042,0.020755629426716382,0.002919333476969488,-0.02767733880286727,0.0,70.0,255.0,255.0,255.0
507,25.35,25.150836254739016,0.8800720398622678,-15.193847231446172,0.8254607044299078,0.1679093081386751,-1.076882021612935,0.02152230352194806,0.003348241906220295,-0.028303631557413667,0.0,70.0,255.0,255.0,255.0
508,25.400000000000002,25.19213617492389,0.8884716368923408,-15.247726739345735,0.8265587986295841,0.16809067462383753,-1.0783125771849456,0.022357138389850206,0.00395206475559684,-0.02884373813500929,0.0,70.0,255.0,255.0,255.0
509,25.450000000000003,25.233492134601974,0.8968811073246515,-15.301678489164667,0.8276964182688928,0.1683045146142348,-1.0797663954264358,0.022949179586007062,0.004561011282910865,-0.02917050590465209,0.0,70.0,255.0,255.0,255.0
510,25.5,25.274905816750778,0.9053020883537642,-15.355703378888379,0.8288537165881849,0.16854677575212862,-1.0812296277754108,0.022983753587269007,0.005005571696214961,-0.029152484686534308,0.0,70.0,255.0,255.0,255.0
511,25.55,25.316377506260793,0.9137357848998644,-15.409801451942208,0.8299947936276197,0.1688050717838563,-1.0826816438950893,0.022310669625369428,0.005192300251666282,-0.028735965198656288,0.0,70.0,255.0,255.0,255.0
512,25.6,25.35790529611354,0.9221825955321499,-15.463971543277887,0.8310847835507218,0.16906600577729525,-1.0841032242952764,0.02113363434794735,0.0051623400823985754,-0.028047668027397776,0.0,70.0,255.0,255.0,255.0
513,25.650000000000002,25.399485984615865,0.9306423854775939,-15.518211774371736,0.8321081570624145,0.16932130579209614,-1.085486410697829,0.019842036682149455,0.005012179460717192,-0.027320977006262126,0.0,70.0,255.0,255.0,255.0
514,25.700000000000003,25.44111611181978,0.9391147261113595,-15.57252018434767,0.8330689872189367,0.16956722372336697,-1.0868353219959026,0.018824924404370336,0.004835590657648048,-0.026801191392245016,0.0,70.0,255.0,255.0,255.0
515,25.75,25.48279288333776,0.9475991078499306,-15.626895306571326,0.8339906495028515,0.16980486485786095,-1.0881665298370535,0.018468643987645805,0.004734405727990776,-0.02675086529695392,0.0,70.0,255.0,255.0,255.0
516,25.8,25.524515176770066,0.9560952125971456,-15.681336837331376,0.8349158516177013,0.17004066429616604,-1.089510408525598,0.018962065029271002,0.00476423940901638,-0.027292087115782238,0.0,70.0,255.0,255.0,255.0
517,25.85,25.56628446849953,0.9646031742795472,-15.735846347423886,0.8358868560057786,0.1702812887987626,-1.0908957385486318,0.020093275637833585,0.00488146536314904,-0.028220288408498106,0.0,70.0,255.0,255.0,255.0
518,25.900000000000002,25.608103862370644,0.9731233414770218,-15.790426411186239,0.8369251791814847,0.17052881083248095,-1.0923324373664478,0.021443759170836074,0.005000988963388409,-0.029157761764508905,0.0,70.0,255.0,255.0,255.0
519,25.950000000000003,25.649976986417677,0.9816560553627953,-15.84507959116053,0.8380312319228622,0.17078138769510143,-1.0938115147250826,0.02259177547792035,0.005049539839552253,-0.029731581672542973,0.0,70.0,255.0,255.0,255.0
520,26.0,25.69190698556293,0.990201480246532,-15.899807562658747,0.8391843567292767,0.17103376481643617,-1.095305595533702,0.02312171708176436,0.004960861335867595,-0.029564147366301086,0.0,70.0,255.0,255.0,255.0
521,26.05,25.733895422090605,0.9987594318444389,-15.9546101507139,0.8403434036310387,0.1712774738286882,-1.0967679294617128,0.022821210116319435,0.004703655865112566,-0.02848151384533537,0.0,70.0,255.0,255.0,255.0
522,26.1,25.775941325926034,1.0073292276294008,-16.00948435560492,0.8414664777409087,0.17150413040294743,-1.0981537469182356,0.02186407895692355,0.004313570026592828,-0.02676012938849226,0.0,70.0,255.0,255.0,255.0
523,26.150000000000002,25.818042069864696,1.0159098448847337,-16.064425525405724,0.842529811526731,0.17170883083134747,-1.099443942400562,0.020612110780859894,0.0038629322848371395,-0.02492070320663231,0.0,70.0,255.0,255.0,255.0
524,26.200000000000003,25.860194307078707,1.0245001107125355,-16.119428749844975,0.8435276888189946,0.17189042363143114,-1.1006458172388989,0.01942783381885249,0.003425737163897935,-0.023484603129020343,0.0,70.0,255.0,255.0,255.0
525,26.25,25.902394838746595,1.0330988872478768,-16.174490107129614,0.8444725949086163,0.17205140454773726,-1.101792402713464,0.018664441067883786,0.003066158252562623,-0.022960470646538056,0.0,70.0,255.0,255.0,255.0
526,26.3,25.94464156656957,1.0417052511673093,-16.22960799011632,0.845394132925783,0.1721970394566874,-1.1029418643035527,0.01851244182660139,0.00282113713041543,-0.023596029997463575,0.0,70.0,255.0,255.0,255.0
527,26.35,25.986934252039173,1.0503185911935455,-16.28478429355997,0.8463238390912764,0.1723335182607788,-1.1041520057132104,0.018881364246681187,0.0027015505676297735,-0.025124835061873796,0.0,70.0,255.0,255.0,255.0
528,26.400000000000002,26.029273950478697,1.0589386029933872,-16.340023190687642,0.8472822693504511,0.17246719451345038,-1.10545434780974,0.019557681152448936,0.0027099858600054816,-0.027012106060908536,0.0,70.0,255.0,255.0,255.0
529,26.450000000000003,26.07166247897422,1.0675653106448906,-16.395329728340943,0.8482796072065213,0.17260451684677935,-1.1068532163193012,0.020329802995888713,0.0028407982182621083,-0.028711171315976003,0.0,70.0,255.0,255.0,255.0
530,26.5,26.11410191119935,1.076199054678065,-16.450708512319572,0.84931524965004,0.1727512743352766,-1.1083254649413377,0.020992546624043484,0.0030784683578533034,-0.029685998019957083,0.0,70.0,255.0,255.0,255.0
531,26.55,26.156594003939222,1.0848404380784182,-16.506162274835077,0.8503788618689256,0.17291236368256468,-1.109821816121297,0.02142347479541229,0.0034061079675407058,-0.029655018843044445,0.0,70.0,255.0,255.0,255.0
532,26.6,26.19913979738624,1.0934902910463216,-16.561690693931702,0.8514575971295812,0.17309188513203067,-1.111290966825642,0.02161503281747912,0.0037993885418918794,-0.02879498257755131,0.0,70.0,255.0,255.0,255.0
533,26.650000000000002,26.24173976365218,1.1021496265916213,-16.61729137151764,0.8525403651506736,0.17329230253675387,-1.112701314379052,0.021590917520342146,0.0042162851142890645,-0.027495581174719064,0.0,70.0,255.0,255.0,255.0
534,26.700000000000003,26.28439383390131,1.110819521299997,-16.672960825369607,0.8536166888816155,0.17351351364345957,-1.114040524943114,0.021367266550953445,0.0046053823174130315,-0.026151084570003036,0.0,70.0,255.0,255.0,255.0
535,26.75,26.327101432540342,1.1195009779559673,-16.728695424011953,0.8546770918057689,0.17375284076849518,-1.1153164228360524,0.020957353790507227,0.0049239310200066555,-0.025159499978855138,0.0,70.0,255.0,255.0,255.0
536,26.8,26.369861543081885,1.1281948053768465,-16.784492467653212,0.8557124242606662,0.17400590674546024,-1.1165564749409995,0.020385920067056418,0.005147717712805644,-0.02474221630706097,0.0,70.0,255.0,255.0,255.0
537,26.85,26.41267267496641,1.1369015686305133,-16.840351071506053,0.8567156838124745,0.17426761253977574,-1.1177906444667585,0.01973934364265517,0.005263599227456339,-0.024807029497608823,0.0,70.0,255.0,255.0,255.0
538,26.900000000000002,26.455533111463133,1.145621566630824,-16.896271532099888,0.8576863586249317,0.17453226666820587,-1.1190371778907604,0.019159487925080043,0.005262169720188226,-0.025136291850458292,0.0,70.0,255.0,255.0,255.0
539,26.950000000000003,26.498441310828902,1.1543547952973339,-16.95225478929513,0.8586316326049825,0.17479382951179456,-1.1203042736518043,0.018800105158689462,0.005144385798772078,-0.025523091803947295,0.0,70.0,255.0,255.0,255.0
540,27.0,26.54139627472363,1.1631009495820035,-17.00830195946507,0.8595663691408006,0.17504670524808308,-1.1215894870711551,0.018822047540112408,0.004921844858096769,-0.025744067332666987,0.0,70.0,255.0,255.0,255.0
541,27.05,26.584397947742982,1.1718594658221422,-17.064413738002244,0.8605138373589938,0.17528601399760424,-1.122878680385071,0.01929335775940899,0.004608708826925323,-0.025677281426794707,0.0,70.0,255.0,255.0,255.0
