idx,t,px,py,pz,vx,vy,vz,ax,ay,az,yaw,mode,ledr,ledg,ledb
0,0.0,-7.5000000000000036,-10.500000000000004,7.845582115685684e-19,0.0006100821588184147,0.00040040203529656537,0.0012028531570070589,-0.015000547725385616,0.003463986431029298,-0.03628568771338037,0.0,70.0,255.0,255.0,255.0
1,0.05,-7.499969495892063,-10.499979979898239,6.0142657850353735e-05,-0.00013994522745086613,0.0005736013568480303,-0.00061143122866196,-0.02252575312251537,0.005462981343029583,-0.05429282060589802,0.0,70.0,255.0,255.0,255.0
2,0.1,-7.500013994522749,-10.499942639864319,-6.114312286619521e-05,-0.0016424931534331222,0.0009467001695995236,-0.004226428903582743,-0.030100821588252558,0.007995979647290596,-0.07202853157007057,0.0,70.0,255.0,255.0,255.0
3,0.15000000000000002,-7.500133745207406,-10.499885309881279,-0.0003625002325079206,-0.003150027386276122,0.00137319932157709,-0.007814284385669017,-0.03020054772706615,0.00906398642914752,-0.0714856877133842,0.0,70.0,255.0,255.0,255.0
4,0.2,-7.500328997261376,-10.499805319932161,-0.000842571561433097,-0.004662547926139737,0.0018530988125142756,-0.011374997674921164,-0.030302366020951155,0.0101409723766821,-0.07093816881075043,0.0,70.0,255.0,255.0,255.0
5,0.25,-7.50060000000002,-10.499700000000027,-0.0015000000000000371,-0.006180263988371237,0.0023872965592453,-0.01490810126674406,-0.030416214212891646,0.011269588518025841,-0.07036376839392786,0.0,70.0,255.0,255.0,255.0
6,0.30000000000000004,-7.500947023660213,-10.499566590276237,-0.002333381688107503,-0.007704169347428902,0.0029800576643168597,-0.01841137451431395,-0.030545288660199788,0.012463553009567363,-0.06975534403162578,0.0,70.0,255.0,255.0,255.0
7,0.35000000000000003,-7.501370416934763,-10.499401994233596,-0.0033411374514314323,-0.009234792854391216,0.0036336518602020362,-0.02188363566990664,-0.03066233320749845,0.013605887310141895,-0.06917380118350878,0.0,70.0,255.0,255.0,255.0
8,0.4,-7.5018705029456525,-10.499203225090216,-0.004521745255098167,-0.010770402668178747,0.004340646395331049,-0.02532875463266483,-0.030723819368549954,0.014509774942972342,-0.06871640677769401,0.0,70.0,255.0,255.0,255.0
9,0.45,-7.502447457201581,-10.498967929594063,-0.005874012914697915,-0.012307174791246211,0.0050846293544992704,-0.02875527634767604,-0.030693222527045094,0.01501649967732277,-0.06846635185694487,0.0,70.0,255.0,255.0,255.0
10,0.5,-7.503101220424777,-10.498694762154766,-0.007397272889865771,-0.013839724920883256,0.005842296363063326,-0.032175389818359316,-0.03054175824930283,0.014993218225711757,-0.06849543652987784,0.0,70.0,255.0,255.0,255.0
11,0.55,-7.503831429693669,-10.498383699957756,-0.009091551896533847,-0.015361350616176495,0.006583951177070446,-0.035604820000663825,-0.030259923687570023,0.014396153019191615,-0.06882730118767846,0.0,70.0,255.0,255.0,255.0
12,0.6000000000000001,-7.504637355486395,-10.49803636703706,-0.010957754889932154,-0.01686571728964026,0.007281911664982488,-0.03905811993712716,-0.02987625810177974,0.013373311949216315,-0.06937765892011692,0.0,70.0,255.0,255.0,255.0
13,0.65,-7.505518001422633,-10.497655508791258,-0.012997363890246564,-0.01834897642635447,0.007921282371992078,-0.04254258589267552,-0.02944612333122265,0.012203057934812023,-0.06999003887459936,0.0,70.0,255.0,255.0,255.0
14,0.7000000000000001,-7.50647225312903,-10.49724423879986,-0.015212013479199706,-0.019810329622762524,0.00850221745846369,-0.0460571238245871,-0.02902979357548574,0.011193237138762413,-0.0704956372908195,0.0,70.0,255.0,255.0,255.0
15,0.75,-7.507499034384909,-10.496805287045412,-0.017603076272705274,-0.021251955783903043,0.009040606085868319,-0.04959214962175747,-0.02867697632655819,0.010655192366115784,-0.07073023523246992,0.0,70.0,255.0,255.0,255.0
16,0.8,-7.5085974487074205,-10.496340178191273,-0.020171228441375453,-0.022678027255418343,0.009567736695075268,-0.05313014734783409,-0.02841710874488257,0.01074701454619742,-0.07061077617171473,0.0,70.0,255.0,255.0,255.0
17,0.8500000000000001,-7.509766837110451,-10.495848513375904,-0.022916091007488683,-0.0240936666583913,0.010115307540488061,-0.05665322723892894,-0.028269930423352463,0.011331820603643905,-0.07020097106143243,0.0,70.0,255.0,255.0,255.0
18,0.9,-7.51100681537326,-10.495328647437224,-0.025836551165268347,-0.02550502029775359,0.010700918755439659,-0.06015024445397733,-0.02825439126903362,0.012127876767742407,-0.06963802979850185,0.0,70.0,255.0,255.0,255.0
19,0.9500000000000001,-7.5123173391402265,-10.49477842150036,-0.028931115452886416,-0.02691910578529466,0.011328095217262302,-0.06361703021877912,-0.02838088988408316,0.012850178806012025,-0.06906438569306422,0.0,70.0,255.0,255.0,255.0
20,1.0,-7.513698725951789,-10.494195837915498,-0.03219825418714626,-0.028343109286161905,0.011985936636040861,-0.06705668302328376,-0.028654299148467288,0.01321006825367732,-0.06861961321623297,0.0,70.0,255.0,255.0,255.0
21,1.05,-7.515151650068843,-10.493579827836756,-0.03563678375521479,-0.02978453570014139,0.012649102042630034,-0.07047899154040242,-0.029065953687101853,0.013056441477665715,-0.06838236801824105,0.0,70.0,255.0,255.0,255.0
22,1.1,-7.516677179521803,-10.492930927711235,-0.0392461533411865,-0.03124970465487209,0.013291580783807433,-0.07389491982510786,-0.029563181044078846,0.012505745963409254,-0.06833482047051906,0.0,70.0,255.0,255.0,255.0
23,1.1500000000000001,-7.51827662053433,-10.492250669758375,-0.04302627573772558,-0.032740853804549275,0.01389967663897096,-0.07731247358745433,-0.030055472432177766,0.01179825550767788,-0.068422317455865,0.0,70.0,255.0,255.0,255.0
24,1.2000000000000002,-7.519951264902258,-10.491540960047338,-0.046977400699931934,-0.03425525189808987,0.01447140633457522,-0.08073715157069436,-0.030447672529021474,0.01116642059564299,-0.06859302040312584,0.0,70.0,255.0,255.0,255.0
25,1.25,-7.521702145724139,-10.490803529124918,-0.051099990894795014,-0.03578562105745142,0.015016318698535258,-0.08417177562776691,-0.030661817755373022,0.010836469349584377,-0.06879933055062015,0.0,70.0,255.0,255.0,255.0
26,1.3,-7.523529827008003,-10.490039328177485,-0.055394578262708626,-0.03732143367362717,0.015555053269533659,-0.08761708462575638,-0.030658563686358775,0.010927079684108776,-0.06900697786255128,0.0,70.0,255.0,255.0,255.0
27,1.35,-7.525434289091502,-10.489248023797964,-0.05986169935737065,-0.0388514774260873,0.016109026666946136,-0.09107247341402204,-0.0304418209243984,0.011359787618658856,-0.06918067945742429,0.0,70.0,255.0,255.0,255.0
28,1.4000000000000001,-7.527414974750612,-10.48842842551079,-0.06450182560411083,-0.04036561576606701,0.016691032031399544,-0.0945351525714988,-0.030040082638649324,0.01196450912743785,-0.06927092881625976,0.0,70.0,255.0,255.0,255.0
29,1.4500000000000002,-7.529470850668108,-10.487578920594824,-0.06931521461452053,-0.04185548568995223,0.01730547757968992,-0.09799956629564802,-0.029494620466330446,0.012570852095805662,-0.06922404551494843,0.0,70.0,255.0,255.0,255.0
30,1.5,-7.531600523319607,-10.486697877752821,-0.07430178223367563,-0.043315077812700054,0.01794811724098011,-0.10145755712299365,-0.02883847644978843,0.013008063671193781,-0.06898306458129472,0.0,70.0,255.0,255.0,255.0
31,1.55,-7.533802358449378,-10.485784108870726,-0.0794609703268199,-0.044739333334931075,0.0186062839468093,-0.10489787275377749,-0.028105479213547113,0.013182465894701068,-0.06852920771104748,0.0,70.0,255.0,255.0,255.0
32,1.6,-7.5360744566531,-10.48483724935814,-0.08479156950905338,-0.046125625734054765,0.019266363830450217,-0.1083104778940984,-0.027387670456935354,0.013138739925544485,-0.0679442332615493,0.0,70.0,255.0,255.0,255.0
33,1.6500000000000001,-7.538414921022784,-10.483857472487681,-0.09029201811622974,-0.04747810038062461,0.019920157939363747,-0.11169229607993242,-0.026827740136070588,0.012979232459642276,-0.0673730348781501,0.0,70.0,255.0,255.0,255.0
34,1.7000000000000002,-7.540822266691163,-10.482845233564204,-0.09596079911704662,-0.048808399747661824,0.020564287076414445,-0.1150477813819134,-0.02656610667726156,0.01280397055474225,-0.06696357142986359,0.0,70.0,255.0,255.0,255.0
35,1.75,-7.54329576099755,-10.48180104378004,-0.10179679625442108,-0.050134711048350766,0.021200554994837972,-0.11838865322291878,-0.02673224847367095,0.012723257316515912,-0.06686039247619929,0.0,70.0,255.0,255.0,255.0
36,1.8,-7.545835737795998,-10.48072517806472,-0.1077996644393385,-0.05148162459502892,0.021836612808066036,-0.12173382062953333,-0.02737434463471189,0.012795830630096816,-0.0671299908270584,0.0,70.0,255.0,255.0,255.0
37,1.85,-7.548443923457053,-10.479617382499233,-0.11397017831737441,-0.052872145511821955,0.022480138057847654,-0.12510165230562462,-0.028362182563146376,0.012964320277042418,-0.0676779119718876,0.0,70.0,255.0,255.0,255.0
38,1.9000000000000001,-7.55112295234718,-10.478477164258935,-0.12030982966990096,-0.054317842851343556,0.023133044835770278,-0.1285016118267221,-0.029451754020115573,0.013120332597615914,-0.06832056803476594,0.0,70.0,255.0,255.0,255.0
39,1.9500000000000002,-7.553875707742187,-10.477304078015656,-0.12682033950004662,-0.05581732091383351,0.023792171317609245,-0.1319337091091012,-0.03038249128550774,0.01316617943931675,-0.06886889487283665,0.0,70.0,255.0,255.0,255.0
40,2.0,-7.5567046844385635,-10.476097947127174,-0.13350320058081108,-0.05735609197989433,0.024449662779701953,-0.13538850131400576,-0.03090050168310654,0.013002963004460355,-0.06913937483793015,0.0,70.0,255.0,255.0,255.0
41,2.0500000000000003,-7.559611316940177,-10.474859111737686,-0.1403591896314472,-0.058907371082144167,0.02509246761805528,-0.13884764659289422,-0.030877142247032197,0.012587125337226723,-0.06903754226742775,0.0,70.0,255.0,255.0,255.0
42,2.1,-7.562595421546778,-10.473588700365369,-0.1473879652401005,-0.06044380620459755,0.025708375313424625,-0.14229225554074854,-0.030411711179212375,0.012005750528487624,-0.06862952677631207,0.0,70.0,255.0,255.0,255.0
43,2.15,-7.565655697560636,-10.472288274206344,-0.15458841518552205,-0.061948542200065404,0.026293042670904043,-0.14571059927052543,-0.029717131896767057,0.011418504749904912,-0.06805928505737857,0.0,70.0,255.0,255.0,255.0
44,2.2,-7.568790275766784,-10.470959396098278,-0.16195902516715305,-0.06341551939427426,0.026850225788415116,-0.1490981840464864,-0.029017214893567456,0.010984085581000613,-0.06747413579206996,0.0,70.0,255.0,255.0,255.0
45,2.25,-7.571997249500064,-10.469603251627502,-0.1694982335901707,-0.06485026368942215,0.027391451229004105,-0.15245801284973243,-0.02854574479300709,0.010856872016340446,-0.06701809884807897,0.0,70.0,255.0,255.0,255.0
46,2.3000000000000003,-7.575275302135727,-10.468220250975378,-0.1772048264521263,-0.06627009387357496,0.02793591299004916,-0.1557999939312943,-0.028429347448533093,0.011109467555669994,-0.06677261399600232,0.0,70.0,255.0,255.0,255.0
47,2.35,-7.578624258887421,-10.466809660328497,-0.18507823298330012,-0.06769319843427546,0.028502397984571104,-0.15913527424933266,-0.028586403955888073,0.011648202085012827,-0.06672034455922904,0.0,70.0,255.0,255.0,255.0
48,2.4000000000000004,-7.582044621979154,-10.46537001117692,-0.19311835387705956,-0.06912873426916377,0.029100733198550444,-0.1624720283872172,-0.02884596548051732,0.012289284766175967,-0.06680676726020518,0.0,70.0,255.0,255.0,255.0
49,2.45,-7.585537132314338,-10.463899587008642,-0.20132543582202184,-0.07057779498232719,0.0297313264611887,-0.16581595097535318,-0.02904776335945769,0.01284470434352869,-0.06698076242507567,0.0,70.0,255.0,255.0,255.0
50,2.5,-7.589102401477387,-10.462396878530802,-0.20969994897459487,-0.07203351060510954,0.030385203632903313,-0.16917010462972476,-0.029028593736590835,0.013133558252853561,-0.06719624841776961,0.0,70.0,255.0,255.0,255.0
51,2.5500000000000003,-7.592740483374849,-10.460861066645352,-0.2182424462849943,-0.07348065435598627,0.031044682286474057,-0.17253557581713014,-0.028705607817780532,0.013061717727858024,-0.06741922785579169,0.0,70.0,255.0,255.0,255.0
52,2.6,-7.5964504669129855,-10.459292410302155,-0.2269535065563079,-0.0749040713868876,0.031691375405689115,-0.17591202741530393,-0.028165376959243815,0.012686849057885752,-0.06761002738772115,0.0,70.0,255.0,255.0,255.0
53,2.6500000000000004,-7.600230890513537,-10.457691929104783,-0.2358336490265247,-0.07629719205191066,0.03231336719226263,-0.17929657855590225,-0.027576302219767257,0.012138948259377003,-0.06771187434002901,0.0,70.0,255.0,255.0,255.0
54,2.7,-7.604080186118177,-10.456061073582928,-0.2448831644118981,-0.07766170160886432,0.032905270231626815,-0.18268321484930683,-0.027098305095485387,0.011550383757352733,-0.06766332732810743,0.0,70.0,255.0,255.0,255.0
55,2.75,-7.607997060674424,-10.45440140208162,-0.2541019705114554,-0.0790070225614592,0.033468405567997905,-0.186062911288713,-0.026879833640691686,0.011044885648203717,-0.06739690748085447,0.0,70.0,255.0,255.0,255.0
56,2.8000000000000003,-7.6119808883743225,-10.452714233026128,-0.2634894555407694,-0.08034968497293349,0.03400975879644719,-0.18942290559739228,-0.026995307527322154,0.010696435426460482,-0.06688996176032469,0.0,70.0,255.0,255.0,255.0
57,2.85,-7.616032029171717,-10.451000426201976,-0.2730442610711946,-0.08170655331419141,0.034538049110643954,-0.19275190746474546,-0.02738761268146206,0.010520765319910197,-0.06624131745164852,0.0,70.0,255.0,255.0,255.0
58,2.9000000000000004,-7.620151543705742,-10.449260428115064,-0.28276464628724396,-0.0830884462410797,0.03506183532843821,-0.19604703734255713,-0.027932462004365277,0.010519397720010204,-0.06562480297876427,0.0,70.0,255.0,255.0,255.0
59,2.95,-7.624340873795825,-10.447494242669132,-0.29264896480545033,-0.08449979951462794,0.035589988882644974,-0.1993143877626219,-0.028499529079617503,0.010693247806869977,-0.06521870215526748,0.0,70.0,255.0,255.0,255.0
60,3.0,-7.6286015236572045,-10.4457014292268,-0.30269608506350615,-0.08593839914904144,0.036131160109125204,-0.20256890755808388,-0.02896405305259364,0.011042889830825686,-0.06520810301078872,0.0,70.0,255.0,255.0,255.0
61,3.0500000000000003,-7.632934713710729,-10.44388112665822,-0.3129058555612587,-0.0873962048198873,0.03669427786572754,-0.20583519806370076,-0.029253674893858772,0.011553566206679022,-0.06567472463672175,0.0,70.0,255.0,255.0,255.0
62,3.1,-7.637341144139193,-10.442032001440227,-0.3232796048698762,-0.08886376663842732,0.03728651672979311,-0.20913638002175605,-0.029367808678415486,0.01214925050199156,-0.06646022728121759,0.0,70.0,255.0,255.0,255.0
63,3.1500000000000004,-7.641821090374572,-10.44015247498524,-0.3338194935634343,-0.09033298568772885,0.0379092029159267,-0.21248122079182252,-0.02932937423780757,0.01270262170010028,-0.0672725501085436,0.0,70.0,255.0,255.0,255.0
64,3.2,-7.646374442707966,-10.438241081148634,-0.3445277269490585,-0.09179670406220808,0.038556778899803135,-0.2158636350326104,-0.029164091406475023,0.013077650655723971,-0.06781580344475402,0.0,70.0,255.0,255.0,255.0
65,3.25,-7.651000760780793,-10.43629679709526,-0.35540585706669536,-0.09324939482837635,0.039216967981499096,-0.21926280113629792,-0.028907963472768472,0.013139545703744204,-0.06778671777206147,0.0,70.0,255.0,255.0,255.0
66,3.3000000000000003,-7.655699382190804,-10.434319384350484,-0.36645400706268827,-0.09468750040948493,0.039870733470177555,-0.22264230680981656,-0.028588967256926168,0.012828786927165936,-0.06704405344573061,0.0,70.0,255.0,255.0,255.0
67,3.35,-7.660469510821741,-10.432309723748242,-0.377670087747677,-0.09610829155406897,0.04049984667421569,-0.22596720648087099,-0.02822199176639728,0.012246708197594103,-0.06580495291064192,0.0,70.0,255.0,255.0,255.0
68,3.4000000000000004,-7.665310211346211,-10.430269399683063,-0.38905072771077537,-0.09750969958612465,0.041095404289936965,-0.22922280210088075,-0.027830880204238184,0.011586479115521797,-0.06447865626068583,0.0,70.0,255.0,255.0,255.0
69,3.45,-7.670220480780354,-10.428200183319248,-0.4005923679577651,-0.09889137957449279,0.04165849458576787,-0.23241507210693957,-0.02744979294035943,0.011048923463086169,-0.06347743138502837,0.0,70.0,255.0,255.0,255.0
70,3.5,-7.67519934930366,-10.426103550224486,-0.4122922349214693,-0.1002546788801606,0.04220029663624558,-0.2355705452393836,-0.027100130352675222,0.010834918029622997,-0.06322096995692861,0.0,70.0,255.0,255.0,255.0
71,3.5500000000000003,-7.68024594866837,-10.423980153655624,-0.42414942248170345,-0.10160139260976031,0.04274198638873017,-0.23873716910263243,-0.026797169364645157,0.011044572798013519,-0.06390943454074316,0.0,70.0,255.0,255.0,255.0
72,3.6,-7.685359488564636,-10.421829351585613,-0.43616595183173257,-0.10293439581662511,0.043304753916046934,-0.2419614886934579,-0.026581520293422756,0.011578508781795449,-0.06527007762632264,0.0,70.0,255.0,255.0,255.0
73,3.6500000000000004,-7.690539388250032,-10.419649678264019,-0.44834557135104924,-0.10425954463910259,0.043899837266909714,-0.2452641768652647,-0.02650980890805954,0.012236869762105584,-0.06678186913779416,0.0,70.0,255.0,255.0,255.0
74,3.7,-7.695785443028546,-10.417439367858922,-0.46069236951825904,-0.10558537670743107,0.04452844089225749,-0.24863967560723732,-0.026630023545770598,0.01282008206597851,-0.06792183698249854,0.0,70.0,255.0,255.0,255.0
75,3.75,-7.7010979259207755,-10.415196834174793,-0.473209538911773,-0.10692254699367965,0.045181845473507565,-0.25205636056351455,-0.0269954778204351,0.0131368194752568,-0.06816147699224562,0.0,70.0,255.0,255.0,255.0
76,3.8000000000000003,-7.706477697727914,-10.412921183311571,-0.4858980055746105,-0.10828492448947458,0.04584212283978317,-0.2554558233064619,-0.02761666763850812,0.013086348454294239,-0.06724454871763208,0.0,70.0,255.0,255.0,255.0
77,3.85,-7.711926418369723,-10.410612621890815,-0.49875512124241916,-0.10968421375753046,0.04649048031893699,-0.25878081543527776,-0.028371087899170533,0.012724664599161883,-0.06548732399670465,0.0,70.0,255.0,255.0,255.0
78,3.9000000000000004,-7.717446119103667,-10.408272135279677,-0.5117760871181383,-0.11112203327939163,0.04711458929969936,-0.26200455570613235,-0.029049045002693674,0.012180633911107464,-0.06350211893644264,0.0,70.0,255.0,255.0,255.0
79,3.95,-7.723038621697662,-10.405901162960845,-0.5249555768130324,-0.11258911825779983,0.047708543710047735,-0.265131027328922,-0.029437851803759685,0.011584034987244252,-0.06190114143087566,0.0,70.0,255.0,255.0,255.0
80,4.0,-7.728705030929447,-10.403501280908673,-0.5382891898510305,-0.1140658184597676,0.048272992798423786,-0.2681946698492199,-0.02932597701335027,0.011053794744775303,-0.06129302883391974,0.0,70.0,255.0,255.0,255.0
81,4.05,-7.734445203543639,-10.401073863681003,-0.5517750437979544,-0.11552171595913485,0.048813923184525265,-0.271260330212314,-0.02862184772727261,0.010662807276951014,-0.06197931697565773,0.0,70.0,255.0,255.0,255.0
82,4.1000000000000005,-7.740257202525361,-10.39861988859022,-0.5654152228722619,-0.11692800323249486,0.04933927352611889,-0.2743926015467857,-0.027500375196343185,0.010439196458555955,-0.0636453350115751,0.0,70.0,255.0,255.0,255.0
83,4.15,-7.746138003866888,-10.39613993632839,-0.579214303952633,-0.11827175347876917,0.04985784283038086,-0.2776248637134715,-0.026289442316240752,0.010405070118579829,-0.06566410733095385,0.0,70.0,255.0,255.0,255.0
84,4.2,-7.752084377873238,-10.393634104307182,-0.593177709243609,-0.11955694746411893,0.05037978053797687,-0.28095901227988107,-0.025324117023917125,0.010583265164676448,-0.06740767654812574,0.0,70.0,255.0,255.0,255.0
85,4.25,-7.7580936986133,-10.391101958274593,-0.6073102051806211,-0.12080416518116088,0.050916169346848505,-0.2843656313682841,-0.02492858615514848,0.011003992221603198,-0.06826249158811137,0.0,70.0,255.0,255.0,255.0
86,4.3,-7.764164794391354,-10.388542487372497,-0.6216142723804374,-0.12204980607963378,0.05148017976013719,-0.2877852614386922,-0.025263027700361818,0.011663448077570138,-0.06791174981327641,0.0,70.0,255.0,255.0,255.0
87,4.3500000000000005,-7.770298679221264,-10.38595394029858,-0.6360887313244903,-0.12333046795119706,0.05208251415460552,-0.2911568063496117,-0.026177527865201,0.012437710405777125,-0.06658755973318886,0.0,70.0,255.0,255.0,255.0
88,4.4,-7.776497841186473,-10.383334235957037,-0.6507299530153986,-0.12466755886615388,0.0527239508007149,-0.2944440174120111,-0.027362230021221734,0.013118246454624227,-0.06478522796359298,0.0,70.0,255.0,255.0,255.0
89,4.45,-7.782765435107879,-10.380681545218508,-0.6655331330656914,-0.12606669095331924,0.05339433880006794,-0.297635329145971,-0.028499619494137818,0.01349064328142191,-0.06300129922987008,0.0,70.0,255.0,255.0,255.0
90,4.5,-7.789104510281805,-10.37799480207703,-0.6804934859299957,-0.12751752081556766,0.054073015128857094,-0.3007441473349981,-0.029287697014446223,0.013338255016392964,-0.06171294886948564,0.0,70.0,255.0,255.0,255.0
91,4.55,-7.795517187189436,-10.375274243705622,-0.6956075477991912,-0.12899546065476386,0.05472816430170724,-0.3038066240329196,-0.02955998086582312,0.012569088058000943,-0.06118580498324366,0.0,70.0,255.0,255.0,255.0
92,4.6000000000000005,-7.802004056347282,-10.37252198564686,-0.7108741483332877,-0.13047351890214998,0.05532992393465719,-0.30686272783332247,-0.029358557631908866,0.011376209004332338,-0.061351745403004365,0.0,70.0,255.0,255.0,255.0
93,4.65,-7.808564539079651,-10.369741251312156,-0.7262938205825235,-0.13193131641795475,0.05586578520214047,-0.30994179857322,-0.028811754149149493,0.010117375299145692,-0.06200933978912637,0.0,70.0,255.0,255.0,255.0
94,4.7,-7.815197187989077,-10.366935407126645,-0.7418683281906097,-0.13335469431706493,0.05634166146457176,-0.3130636618122351,-0.02805120453297505,0.009159709495953905,-0.06295952746485645,0.0,70.0,255.0,255.0,255.0
95,4.75,-7.821900008511357,-10.3641070851657,-0.757600186763747,-0.13473643687125225,0.05678175615173586,-0.31623775131970566,-0.02720062578562832,0.008870959740292506,-0.06401373158195778,0.0,70.0,255.0,255.0,255.0
96,4.800000000000001,-7.828670831676202,-10.361257231511471,-0.7734921033225802,-0.13607475689562776,0.05722875743860101,-0.3194650349704309,-0.026348797088182607,0.00942728593713582,-0.06504050810917095,0.0,70.0,255.0,255.0,255.0
97,4.8500000000000005,-7.83550748420092,-10.358384209421839,-0.78954669026079,-0.1373713165800705,0.057724484745449445,-0.32274180213062276,-0.025585444405873403,0.010607570126808241,-0.06592918825849559,0.0,70.0,255.0,255.0,255.0
98,4.9,-7.842407963334209,-10.355484783036927,-0.8057662835356425,-0.1386333013362151,0.05828951445128183,-0.32605795379628044,-0.025036068068029493,0.011981296638197136,-0.06653032663284097,0.0,70.0,255.0,255.0,255.0
99,4.95,-7.8493708143345415,-10.35255525797671,-0.8221524856404181,-0.13987492338687346,0.05892261440926916,-0.32939483479390685,-0.02483402391133538,0.01311117141575835,-0.06668264219277242,0.0,70.0,255.0,255.0,255.0
100,5.0,-7.856395455672897,-10.349592521596,-0.8387057670150332,-0.14111670372734864,0.05960063159285767,-0.3327262180155577,-0.02510979984187145,0.013557952641995996,-0.06623212480271201,0.0,70.0,255.0,255.0,255.0
101,5.050000000000001,-7.863482484707276,-10.346595194817425,-0.8554251074419739,-0.1423859033710606,0.06027840967346876,-0.33601804727417806,-0.025906369243688943,0.013101908053947398,-0.06513011129793966,0.0,70.0,255.0,255.0,255.0
102,5.1000000000000005,-7.870634046010003,-10.343564680628653,-0.872307571742451,-0.14370734065171753,0.06091082239825241,-0.33923922914535165,-0.027054350060229382,0.011964326339075626,-0.06357858781004255,0.0,70.0,255.0,255.0,255.0
103,5.15,-7.877853218772448,-10.3405041125776,-0.889349030356509,-0.14509133837708355,0.06147484230737632,-0.3423759060551823,-0.02824677078177018,0.010586622296671067,-0.061945624075854244,0.0,70.0,255.0,255.0,255.0
104,5.2,-7.885143179847711,-10.337417196397915,-0.9065451623479692,-0.14653201772989455,0.06196948462791951,-0.3454337915529371,-0.029160951569284776,0.009408751694373052,-0.06062113919527157,0.0,70.0,255.0,255.0,255.0
105,5.25,-7.892506420545438,-10.334307164114808,-0.9238924095118027,-0.14800743353401202,0.062415717476813626,-0.34843801997470947,-0.029480174846341356,0.008865155101211997,-0.05998177853120401,0.0,70.0,255.0,255.0,255.0
106,5.300000000000001,-7.899943923201112,-10.331175624650234,-0.9413889643454402,-0.14948003521452868,0.06285600013804071,-0.3514319694060575,-0.029051926403500516,0.009178228700790214,-0.06021284623287659,0.0,70.0,255.0,255.0,255.0
107,5.3500000000000005,-7.9074544240668905,-10.328021564101004,-0.9590356064524085,-0.15091262617436207,0.06333354034689265,-0.3544593045979971,-0.028047038802458957,0.010164308664073474,-0.06114387308873148,0.0,70.0,255.0,255.0,255.0
108,5.4,-7.915035185818549,-10.324842270615544,-0.9768348948052399,-0.15228473909477458,0.06387243100444806,-0.3575463567149306,-0.026807804515982525,0.011443030025759526,-0.06241892531556603,0.0,70.0,255.0,255.0,255.0
109,5.45,-7.922682897976368,-10.321634321000559,-0.9947902421239015,-0.15359340662596033,0.0644778433494686,-0.36070119712955373,-0.02568823041864121,0.012633961668306881,-0.06366674042007636,0.0,70.0,255.0,255.0,255.0
110,5.5,-7.930394526481145,-10.318394486280598,-1.0129050145181953,-0.1548535621366387,0.06513582717127875,-0.36391303075693826,-0.025041482124610326,0.013361473573425542,-0.06452477039646798,0.0,70.0,255.0,255.0,255.0
111,5.550000000000001,-7.938168254190032,-10.315120738283431,-1.0311815451995954,-0.15609755483842136,0.06581399070681115,-0.36715367416920053,-0.02505198574764833,0.013425829822821811,-0.06479295598501578,0.0,70.0,255.0,255.0,255.0
112,5.6000000000000005,-7.946004281964987,-10.311813087209917,-1.0496203819351153,-0.15735876071140353,0.06647841015356093,-0.37039232635543984,-0.02558845044031699,0.012947483292791162,-0.06453589652493097,0.0,70.0,255.0,255.0,255.0
113,5.65,-7.953904130261172,-10.308472897268075,-1.0682207778351394,-0.15865639988245306,0.06710873903609027,-0.3736072638216936,-0.02637189460461542,0.012191374150027912,-0.06392701965025616,0.0,70.0,255.0,255.0,255.0
114,5.7,-7.961869921953232,-10.305102213306307,-1.0869811083172847,-0.15999595017186508,0.06769754756856372,-0.37678502832046545,-0.027125753797019314,0.01142248788017497,-0.06313949819198861,0.0,70.0,255.0,255.0,255.0
115,5.75,-7.969903725278359,-10.301703142511219,-1.105899280667186,-0.161368975262155,0.06825098782410777,-0.3799212136408925,-0.027577952599155964,0.010916922634152115,-0.062347111910865394,0.0,70.0,255.0,255.0,255.0
116,5.800000000000001,-7.978006819479448,-10.298277114523897,-1.124973229681374,-0.16275374543178067,0.06878923983197893,-0.383019739511552,-0.027580783285596766,0.010823999793529993,-0.061660364792226474,0.0,70.0,255.0,255.0,255.0
117,5.8500000000000005,-7.986179099821537,-10.29482421852802,-1.144201254618341,-0.16412705359071467,0.06933338780346077,-0.38608725012011513,-0.02720549976285014,0.011041189399563223,-0.06110974360873378,0.0,70.0,255.0,255.0,255.0
118,5.9,-7.994419524838519,-10.29134377574355,-1.1635819546933854,-0.16547429540806569,0.06989335877193525,-0.38913071387242537,-0.026617437578568826,0.011357720459415077,-0.06071831076877032,0.0,70.0,255.0,255.0,255.0
119,5.95,-8.002726529362343,-10.287834882650827,-1.1831143260055836,-0.16678879734857155,0.07046915984940227,-0.39215908119699217,-0.02597584064032432,0.011575201029678794,-0.060520441637246236,0.0,70.0,255.0,255.0,255.0
120,6.0,-8.011098404573376,-10.28429685975861,-1.2027978628130847,-0.16807187947209812,0.07105087887490313,-0.39518275803615,-0.025430670183101967,0.011482910483806563,-0.06053880993197591,0.0,70.0,255.0,255.0,255.0
121,6.050000000000001,-8.019533717309553,-10.280729794763337,-1.2226326018091986,-0.16933186436688175,0.07161745089778293,-0.39821296219018976,-0.025070941716087702,0.010978310864651064,-0.0607733237737218,0.0,70.0,255.0,255.0,255.0
122,6.1000000000000005,-8.028031591010064,-10.277135114668832,-1.2426191590321036,-0.1705789736437069,0.07214870996136824,-0.4012600904135222,-0.02490591414421317,0.010210463070414733,-0.06118158591661427,0.0,70.0,255.0,255.0,255.0
123,6.15,-8.036591614673924,-10.2735149237672,-1.2627586108505509,-0.17182245578130306,0.0726384972048244,-0.4043311207818512,-0.024922830605511592,0.009455040048145236,-0.06168160207651319,0.0,70.0,255.0,255.0,255.0
124,6.2,-8.045213836588195,-10.26987126494835,-1.2830522711102887,-0.17307125670425805,0.07309421396618276,-0.4074282506211735,-0.02511037082193468,0.008976568140184327,-0.06217304761344522,0.0,70.0,255.0,255.0,255.0
125,6.25,-8.05389874034435,-10.266205502370582,-1.3035014359126682,-0.17433349286349653,0.07353615401884284,-0.4105484255431957,-0.02545535734430615,0.009039360839402377,-0.06255760174120883,0.0,70.0,255.0,255.0,255.0
126,6.300000000000001,-8.062647185874544,-10.262517649546465,-1.3241071136646083,-0.17561679243868866,0.073998150050123,-0.4136840107952944,-0.025936475490517807,0.009763642530558059,-0.06278013964662321,0.0,70.0,255.0,255.0,255.0
127,6.3500000000000005,-8.071460419588218,-10.25880568736557,-1.3448698369921976,-0.1769271404125483,0.07451251827189864,-0.416826439507858,-0.026490004499635234,0.010950711231849652,-0.0628475490885183,0.0,70.0,255.0,255.0,255.0
128,6.4,-8.0803398999158,-10.255066397719276,-1.3657897576153941,-0.17826579288865219,0.07509322117330797,-0.4199687657041462,-0.027010400838811677,0.01222668811156069,-0.06279080540056992,0.0,70.0,255.0,255.0,255.0
129,6.45,-8.089286998877084,-10.251296365248239,-1.3868667135626123,-0.17962818049642948,0.07573518708305471,-0.423105520047915,-0.027383701713468156,0.013212978623400318,-0.06264788072933847,0.0,70.0,255.0,255.0,255.0
130,6.5,-8.098302717965442,-10.24749287901097,-1.4081003096201856,-0.181004163059999,0.076414519035648,-0.42623355377708005,-0.027503891115721046,0.013531674131428417,-0.062474792427247294,0.0,70.0,255.0,255.0,255.0
131,6.550000000000001,-8.107387415183084,-10.243654913344674,-1.4294900689403203,-0.18237856960800158,0.07708835449619755,-0.42935299929063975,-0.027322643500049537,0.013000032767429559,-0.062305091998848816,0.0,70.0,255.0,255.0,255.0
132,6.6000000000000005,-8.116540574926242,-10.23978404356135,-1.4510356095492496,-0.18373642741000396,0.07771452231239095,-0.43246406297696494,-0.026898543381115303,0.0118365754511629,-0.06210905689021384,0.0,70.0,255.0,255.0,255.0
133,6.65,-8.125761057924084,-10.235883461113435,-1.4727364752380168,-0.18506842394611311,0.07827201204131384,-0.43556390497966113,-0.0263519296765935,0.010469163215454103,-0.06183601548204187,0.0,70.0,255.0,255.0,255.0
134,6.7,-8.135047417320854,-10.231956842357219,-1.4945920000472157,-0.1863716203776633,0.07876143863393636,-0.4386476645251691,-0.025814309504035293,0.009330864684820028,-0.06144783040151758,0.0,70.0,255.0,255.0,255.0
135,6.75,-8.14439821996185,-10.228007317250041,-1.5166012416905337,-0.18764985489651664,0.07920509850979585,-0.4417086880198129,-0.025417096840207876,0.008853896015459384,-0.060891293817944,0.0,70.0,255.0,255.0,255.0
136,6.800000000000001,-8.153812402810505,-10.22403633250624,-1.538762868849197,-0.1889133300616841,0.0796468282354823,-0.4447367939069635,-0.0252324376884161,0.009256086541320485,-0.06015240611096928,0.0,70.0,255.0,255.0,255.0
137,6.8500000000000005,-8.163289552968019,-10.220042634426493,-1.56107492108123,-0.19017309866535825,0.0801307071639279,-0.4477239286309098,-0.025232185611834268,0.01033217111370277,-0.05935529094960312,0.0,70.0,255.0,255.0,255.0
138,6.9,-8.172829712677041,-10.216023261789847,-1.583535261712288,-0.19143654862286752,0.08068004534685258,-0.45067232300192384,-0.025346355980104818,0.01166747487637565,-0.05870690423306346,0.0,70.0,255.0,255.0,255.0
139,6.95,-8.182433207830305,-10.211974629891808,-1.6061421533814224,-0.19270773426336874,0.08129745465156546,-0.45359461905421616,-0.025505260737190838,0.01285041578356072,-0.058406858270565465,0.0,70.0,255.0,255.0,255.0
140,7.0,-8.192100486103378,-10.20789351632469,-1.6288947236177096,-0.1939870746965866,0.08196508692520865,-0.4565130088289804,-0.02563574017013792,0.013484816398623423,-0.05865597635703601,0.0,70.0,255.0,255.0,255.0
141,7.050000000000001,-8.201831915299964,-10.203778121199287,-1.6517934542643204,-0.19527130828038253,0.0826459362914278,-0.45946021668991976,-0.025694831854039535,0.013362474213884923,-0.05953339544553238,0.0,70.0,255.0,255.0,255.0
142,7.1000000000000005,-8.211627616931416,-10.199628922695547,-1.6748407452867016,-0.19655655788199056,0.08330133434659714,-0.4624663483735336,-0.02569364657318829,0.01260555594573276,-0.06082446462580826,0.0,70.0,255.0,255.0,255.0
143,7.15,-8.221487571088163,-10.195447987764627,-1.6980400891016738,-0.19784067293770136,0.08390649188600108,-0.4655426631525006,-0.02566087484137114,0.011490121427648603,-0.06213916478847725,0.0,70.0,255.0,255.0,255.0
144,7.2,-8.231411684225186,-10.191238273506947,-1.7213950116019516,-0.19912264536612767,0.084450346489362,-0.46868026485238135,-0.02561844708068861,0.01029404560775049,-0.06307970155121634,0.0,70.0,255.0,255.0,255.0
145,7.25,-8.241399835624776,-10.187002953115691,-1.744908115586912,-0.20040251764577022,0.08493589644677613,-0.4718506333076222,-0.025587914505642573,0.009278819742597477,-0.06325682872596605,0.0,70.0,255.0,255.0,255.0
146,7.300000000000001,-8.251451935989763,-10.18274468386227,-1.7685800749327139,-0.20168143681669193,0.08537822846362175,-0.47500594772497795,-0.02558152160982985,0.008599564388056535,-0.062486413039453126,0.0,70.0,255.0,255.0,255.0
147,7.3500000000000005,-8.261567979306445,-10.178465130269329,-1.7924087103594097,-0.2029606698067532,0.08579585288558178,-0.47809927461156754,-0.025593228096632004,0.008278332375688535,-0.06099850555874031,0.0,70.0,255.0,255.0,255.0
148,7.4,-8.271748002970439,-10.174165098573711,-1.8163900023938706,-0.20424075962635513,0.0862060617011906,-0.481105798280852,-0.02561014465367606,0.008300990461584945,-0.05924645992301247,0.0,70.0,255.0,255.0,255.0
149,7.45,-8.28199205526908,-10.16984452409921,-1.840519290187495,-0.2055216842721208,0.08662595193174027,-0.4840239206038688,-0.02562095093896488,0.008652376145157348,-0.05769317002337626,0.0,70.0,255.0,255.0,255.0
150,7.5,-8.29230017139765,-10.165502503380537,-1.8647923944542575,-0.20680285472025162,0.08707129931570634,-0.4868751152831896,-0.02561260180709013,0.009311885984253365,-0.05678067144301302,0.0,70.0,255.0,255.0,255.0
151,7.550000000000001,-8.302672340741106,-10.161137394167639,-1.889206801715814,-0.20808294445282982,0.08755714053016561,-0.4897019877481701,-0.025579081708393403,0.010241319514747715,-0.05674081253672636,0.0,70.0,255.0,255.0,255.0
152,7.6000000000000005,-8.313108465842934,-10.15674678932752,-1.9137625932290745,-0.20936076289109096,0.08809543126718111,-0.49254919653686224,-0.025533441039904403,0.011319436228696134,-0.05744799332578765,0.0,70.0,255.0,255.0,255.0
153,7.65,-8.323608417030215,-10.152327851040921,-1.9384617213695001,-0.21063628855682026,0.08868908415303522,-0.49544678708074885,-0.02549854654194661,0.012344238404793373,-0.05860851533270317,0.0,70.0,255.0,255.0,255.0
154,7.7,-8.334172094698616,-10.147877880912217,-1.9633072719371494,-0.21191061754528562,0.08932985510766045,-0.49841004807013256,-0.025497749163960748,0.013098501093722348,-0.05992104492840156,0.0,70.0,255.0,255.0,255.0
155,7.75,-8.344799478784743,-10.143394865530155,-1.9883027261765134,-0.21318606347321634,0.08999893426240746,-0.501438891573589,-0.025561678267393972,0.013385617672945216,-0.061104494826280664,0.0,70.0,255.0,255.0,255.0
156,7.800000000000001,-8.355490701045937,-10.138877987485976,-2.0134511610945083,-0.21446678537202502,0.09066841687495497,-0.5045204975527606,-0.025702151557105424,0.013114131911784455,-0.06198530184911011,0.0,70.0,255.0,255.0,255.0
157,7.8500000000000005,-8.366246157321946,-10.13432802384266,-2.0387547759317894,-0.21575627862892688,0.0913103474535859,-0.5076374217585,-0.02587300774337109,0.012372873759147751,-0.062497726266186326,0.0,70.0,255.0,255.0,255.0
158,7.9,-8.37706632890883,-10.129746952740618,-2.0642149032703583,-0.21705408614636212,0.09190570425086975,-0.5107702701793793,-0.025995669177625302,0.011354783192274454,-0.06258875613509574,0.0,70.0,255.0,255.0,255.0
159,7.95,-8.387951565936582,-10.125137453417572,-2.0898318029497274,-0.2183558455466894,0.09244582577281335,-0.5138962973720096,-0.025994765691628174,0.010272593837790112,-0.062204188724424014,0.0,70.0,255.0,255.0,255.0
160,8.0,-8.398901913463499,-10.120502370163337,-2.1156045330075592,-0.21965356271552494,0.09293296363464876,-0.5169906890518217,-0.02579271309617326,0.00932168062028893,-0.06128936790004147,0.0,70.0,255.0,255.0,255.0
161,8.05,-8.409916922208135,-10.115844157054108,-2.1415308718549095,-0.22093511685630673,0.09337799383484224,-0.5200252341620137,-0.02535851253053778,0.008621127196484224,-0.0598554159643605,0.0,70.0,255.0,255.0,255.0
162,8.1,-8.42099542514913,-10.111164570779852,-2.1676070564237606,-0.22218941396857872,0.09379507635429718,-0.5229762306482577,-0.024776299548356917,0.008221796008101023,-0.0581245514927442,0.0,70.0,255.0,255.0,255.0
163,8.15,-8.432135863604993,-10.106464649418678,-2.1938284949197353,-0.22341274681114243,0.09420017343565235,-0.5258376893112882,-0.0241978443455082,0.008165579875729634,-0.05647720604757822,0.0,70.0,255.0,255.0,255.0
164,8.200000000000001,-8.443336699830244,-10.101744553436287,-2.2201908253548894,-0.22460919840312954,0.09461163434187014,-0.5286239512530155,-0.023775961962080316,0.008490097911995065,-0.055312922784889196,0.0,70.0,255.0,255.0,255.0
165,8.25,-8.454596783445306,-10.09700348598449,-2.246690890045037,-0.22579034300735046,0.09504918322685185,-0.5313689815897771,-0.023659450699753393,0.009239641198632853,-0.055018033573883685,0.0,70.0,255.0,255.0,255.0
166,8.3,-8.465915734130979,-10.092239635113602,-2.273327723513867,-0.22697514347310488,0.09553559846173343,-0.5341257546104039,-0.023917597854605788,0.010403410585269057,-0.05576785946814766,0.0,70.0,255.0,255.0,255.0
167,8.35,-8.477294297792616,-10.087449926138317,-2.3001034655060772,-0.22818210279281104,0.09608952428537876,-0.5369457675365918,-0.024457318540349604,0.011778263886341733,-0.05731064118905671,0.0,70.0,255.0,255.0,255.0
168,8.4,-8.48873394441026,-10.082630682685064,-2.3270223002675263,-0.22942087532713984,0.0967134248503676,-0.5398568187293096,-0.02509658980365259,0.01302121898305586,-0.05915332876536006,0.0,70.0,255.0,255.0,255.0
169,8.450000000000001,-8.50023638532533,-10.07777858365328,-2.354089147379008,-0.2306917617731763,0.09739164618368434,-0.5428611004131279,-0.02564861256484363,0.013775779081548478,-0.06077908517121422,0.0,70.0,255.0,255.0,255.0
170,8.5,-8.511803120587578,-10.072891518066696,-2.381308410308839,-0.2319857365836242,0.09809100275852245,-0.545934727246431,-0.025933493428453858,0.013683763910421476,-0.0616784978046514,0.0,70.0,255.0,255.0,255.0
171,8.55,-8.523434958983692,-10.067969483377428,-2.4086826201036513,-0.23328511111602168,0.09876002257472649,-0.549028950193593,-0.025857809338525328,0.012590405289536477,-0.06158708555692449,0.0,70.0,255.0,255.0,255.0
172,8.6,-8.53513163169918,-10.063015515809223,-2.4362113053281984,-0.23457151751747674,0.0993500432874761,-0.5520934358021234,-0.025479834217101427,0.010795871055613304,-0.06068733596529263,0.0,70.0,255.0,255.0,255.0
173,8.65,-8.54689211073544,-10.05803447904868,-2.4638919636838637,-0.23583309453773182,0.09983960968028782,-0.5550976837901223,-0.02493038851660856,0.008861339063059859,-0.0593741875157594,0.0,70.0,255.0,255.0,255.0
174,8.700000000000001,-8.558714941152953,-10.053031554841194,-2.4917210737072106,-0.2370645563691376,0.10023617719378208,-0.5580308545536994,-0.024342874490557165,0.007365107441259511,-0.05805110949066439,0.0,70.0,255.0,255.0,255.0
175,8.75,-8.570598566372354,-10.048010861329303,-2.5196950491392336,-0.23826738198678754,0.10057612042441377,-0.5609027947391887,-0.0238425662605124,0.006889265862852767,-0.05713193791145876,0.0,70.0,255.0,255.0,255.0
176,8.8,-8.582541679351632,-10.042973942798753,-2.5478113531811295,-0.23944881299518883,0.10092510378006736,-0.5637440483448453,-0.023503938684754644,0.0077153412163966095,-0.05684211998260302,0.0,70.0,255.0,255.0,255.0
177,8.85,-8.594543447671873,-10.037918350951296,-2.576069453973718,-0.240617775855263,0.10134765454605343,-0.566587006737449,-0.023339708228320433,0.00950296051698274,-0.057051809821162536,0.0,70.0,255.0,255.0,255.0
178,8.9,-8.606603456937158,-10.032839177344147,-2.6044700538548744,-0.24178278381802087,0.10187539983176563,-0.5694492293269615,-0.023346331654217067,0.011587876979568534,-0.05748064378217066,0.0,70.0,255.0,255.0,255.0
179,8.950000000000001,-8.618721726053675,-10.02773081096812,-2.6330143769064143,-0.2429524090206847,0.10250644224401029,-0.5723350711156661,-0.023519376651215396,0.013297870407846801,-0.05786179155169435,0.0,70.0,255.0,255.0,255.0
180,9.0,-8.630898697839227,-10.022588533119746,-2.661703560966441,-0.24413472148314241,0.10320518687255031,-0.575235408482131,-0.023852232205712198,0.01395525655372154,-0.057913843789725306,0.0,70.0,255.0,255.0,255.0
181,9.05,-8.643135198201989,-10.017410292280864,-2.6905379177546274,-0.24533763224125593,0.10390196789938244,-0.5781264554946386,-0.024327461565221142,0.013221796277385067,-0.057491800480447,0.0,70.0,255.0,255.0,255.0
182,9.1,-8.655432461063352,-10.012198336329808,-2.719516206515905,-0.24656746763966453,0.10452736650028882,-0.5809845885301756,-0.02488049370867884,0.011448510653266908,-0.05674906111376998,0.0,70.0,255.0,255.0,255.0
183,9.15,-8.667791944965956,-10.006957555630835,-2.748636376607645,-0.24782568161212382,0.10504681896470913,-0.5838013616060156,-0.025403445703808814,0.009330929243311914,-0.0559787618306995,0.0,70.0,255.0,255.0,255.0
184,9.200000000000001,-8.680215029224565,-10.001693654433337,-2.7778963426765064,-0.2491078122100454,0.10546045942462001,-0.5865824647132456,-0.025780644545037035,0.007563131205934326,-0.05545538397622174,0.0,70.0,255.0,255.0,255.0
185,9.25,-8.69270272618696,-9.996411509688373,-2.8072946230789695,-0.2504037460666275,0.10580313208530256,-0.5893469000036378,-0.025904495593565002,0.0068415960337020465,-0.05544858436548061,0.0,70.0,255.0,255.0,255.0
186,9.3,-8.705255403831227,-9.991113341224807,-2.83683103267687,-0.2516982617694019,0.10614461902799022,-0.5921273231497937,-0.025725702234602466,0.007517193954953427,-0.05608485058954393,0.0,70.0,255.0,255.0,255.0
187,9.35,-8.7178725523639,-9.985797047785574,-2.866507355393949,-0.25297631629008777,0.10655485148079791,-0.5949553850625922,-0.025302792461445733,0.009246773094062632,-0.05718569863768508,0.0,70.0,255.0,255.0,255.0
188,9.4,-8.730553035460236,-9.980457856076727,-2.8963265711831294,-0.2542285410155465,0.10706929633739648,-0.5978458930135622,-0.024756249165491795,0.011344629823994978,-0.05840887765984348,0.0,70.0,255.0,255.0,255.0
189,9.450000000000001,-8.743295406465455,-9.975090118151835,-2.926291944695305,-0.25545194120663695,0.1076893144631974,-0.6007962728285765,-0.024217532348203008,0.013129884488272126,-0.05941112475795762,0.0,70.0,255.0,255.0,255.0
190,9.5,-8.7560982295809,-9.969688924630407,-2.956406198465987,-0.2566502942503668,0.10838228478622369,-0.6037870054893579,-0.023817804069459214,0.013926471198288937,-0.05986384672009848,0.0,70.0,255.0,255.0,255.0
191,9.55,-8.768960435890492,-9.964251889673212,-2.986670645244241,-0.25783372161358287,0.1090819615830263,-0.6067826575005864,-0.02362921667629081,0.013389707623545632,-0.05960171091397015,0.0,70.0,255.0,255.0,255.0
192,9.600000000000001,-8.781881601742258,-9.958780728472105,-3.0170844642160457,-0.25901321591799586,0.10972125554857826,-0.609747176580755,-0.02362470008172579,0.011820620746760824,-0.05875802778523287,0.0,70.0,255.0,255.0,255.0
193,9.65,-8.794861757482291,-9.953279764118355,-3.0476453629023164,-0.26019619162175545,0.11026402365770238,-0.6126584602791096,-0.02373603315746209,0.00983432768464354,-0.05761668324097968,0.0,70.0,255.0,255.0,255.0
194,9.700000000000001,-8.807901220904434,-9.947754326106335,-3.0783503102439567,-0.2613868192337421,0.11070468831704261,-0.6155088449048529,-0.023895426527786867,0.008043764408149912,-0.0564728908854395,0.0,70.0,255.0,255.0,255.0
195,9.75,-8.821000439405665,-9.94220929528665,-3.1091962473928016,-0.26258573427453413,0.11106840009851737,-0.6183057493676536,-0.024032306776433643,0.0070564352563806665,-0.05562003807835225,0.0,70.0,255.0,255.0,255.0
196,9.8,-8.834159794331887,-9.936647486096483,-3.140180885180722,-0.26379004991138544,0.11141033184268068,-0.6210708487126881,-0.02410465716806698,0.0071898962964667135,-0.05522056682645271,0.0,70.0,255.0,255.0,255.0
197,9.850000000000001,-8.847379444396804,-9.931068262102382,-3.1713033322640705,-0.26499619999134083,0.11178738972816404,-0.6238278060502989,-0.024119339614614432,0.008216291704421508,-0.05521491749376217,0.0,70.0,255.0,255.0,255.0
198,9.9,-8.860659414331021,-9.925468747123666,-3.202563665785752,-0.2662019838728469,0.11223196101312283,-0.6265923404620644,-0.024097846642945342,0.009653350813287886,-0.05545334042507122,0.0,70.0,255.0,255.0,255.0
199,9.950000000000001,-8.873999642784089,-9.91984506600107,-3.233962566310277,-0.26740598465563536,0.11275272480949283,-0.629373140092806,-0.024054561073327818,0.01102139820687853,-0.05578971263315857,0.0,70.0,255.0,255.0,255.0
200,10.0,-8.887400012796585,-9.914193474642717,-3.2655009797950325,-0.26860743998017966,0.11333410083381068,-0.6321713117253802,-0.024000940851820474,0.011835853043962175,-0.0560720382626112,0.0,70.0,255.0,255.0,255.0
201,10.05,-8.900860386782107,-9.908511655917689,-3.297179697482815,-0.2698060787408174,0.11393631011388905,-0.6349803439190671,-0.023945441364148223,0.011838585977486105,-0.05621047399437806,0.0,70.0,255.0,255.0,255.0
202,10.100000000000001,-8.914380620670666,-9.902799843631328,-3.328999014186939,-0.2710019841165945,0.11451795943155929,-0.637792359124818,-0.02389794146093749,0.01120418912385901,-0.05622416704191835,0.0,70.0,255.0,255.0,255.0
203,10.15,-8.927960585193766,-9.897059859974533,-3.3609589333952967,-0.27219587288691116,0.11505672902627495,-0.6406027606232589,-0.023872580271699917,0.010300614050073875,-0.05616641193508798,0.0,70.0,255.0,255.0,255.0
204,10.200000000000001,-8.941600207959358,-9.8912941707287,-3.393059290249265,-0.2733892421437645,0.11554802083656668,-0.6434090003183268,-0.02388632917789124,0.00948481526013012,-0.05607585764897394,0.0,70.0,255.0,255.0,255.0
205,10.25,-8.955299509408142,-9.885505057890876,-3.4252998334271294,-0.2745845058047003,0.11600521055228796,-0.6462103463881563,-0.02396392981580675,0.009124068652255346,-0.05598775292727787,0.0,70.0,255.0,255.0,255.0
206,10.3,-8.969058658539828,-9.879693649673472,-3.4576803248880807,-0.27578563512534515,0.11646042770179221,-0.6490077756110546,-0.02411357737592823,0.00940839382650438,-0.05592411062287361,0.0,70.0,255.0,255.0,255.0
207,10.350000000000001,-8.982878072920677,-9.873859015120697,-3.490200610988235,-0.2769958635422931,0.1169460499349384,-0.6518027574504437,-0.024288894541868444,0.010160611472542769,-0.05588841433881164,0.0,70.0,255.0,255.0,255.0
208,10.4,-8.996758244894057,-9.867999044679978,-3.522860600633125,-0.278214524579532,0.11747648884904649,-0.6545966170449358,-0.024411832270310185,0.011031372472736223,-0.05588101183433558,0.0,70.0,255.0,255.0,255.0
209,10.450000000000001,-9.01069952537863,-9.862111366235792,-3.5556602726927284,-0.2794370467693241,0.11804918718221202,-0.6573908586338773,-0.024406835500201396,0.01168568107914325,-0.05590685677039353,0.0,70.0,255.0,255.0,255.0
210,10.5,-9.02470194957099,-9.856194125961757,-3.588599686496513,-0.28065520812955214,0.11864505695696081,-0.6601873027219751,-0.02419536785698284,0.011787965586762539,-0.05597695002861336,0.0,70.0,255.0,255.0,255.0
211,10.55,-9.038765046191585,-9.850246860540096,-3.621679002964926,-0.2818565835550224,0.11922798374088828,-0.6629885536367386,-0.023746449599748587,0.011174179044104449,-0.05609308351464115,0.0,70.0,255.0,255.0,255.0
212,10.600000000000001,-9.052887607926491,-9.844271327587668,-3.6548985418601867,-0.283029853089527,0.11976247486137126,-0.6657966110734392,-0.02314825193234782,0.010040544474065882,-0.056222175602593794,0.0,70.0,255.0,255.0,255.0
213,10.65,-9.067068031500538,-9.83827061305396,-3.68825866407227,-0.2841714087482572,0.12023203818829487,-0.668610771196998,-0.022559158245805122,0.008767555732269727,-0.05630954072706196,0.0,70.0,255.0,255.0,255.0
214,10.700000000000001,-9.081304748801317,-9.832248123768839,-3.7217596189798865,-0.2852857689141075,0.12063923043459823,-0.6714275651461454,-0.022139102714646697,0.007731807741606644,-0.05630342855647008,0.0,70.0,255.0,255.0,255.0
215,10.75,-9.095596608391949,-9.8262066900105,-3.7554014205868844,-0.28638531901972186,0.12100521896245553,-0.674241114052645,-0.022046580109602587,0.0073000130562661525,-0.05615647493075748,0.0,70.0,255.0,255.0,255.0
216,10.8,-9.10994328070329,-9.820147601872593,-3.789183730385151,-0.28749042692506777,0.12136923174022485,-0.6770432126392212,-0.022354423759196607,0.007655262958650155,-0.05584975578436513,0.0,70.0,255.0,255.0,255.0
217,10.850000000000001,-9.124345651084456,-9.814069766836477,-3.8231057418508065,-0.2886207613956415,0.12177074525832055,-0.6798260896310815,-0.02295362220312569,0.008627327181898181,-0.05542465481238601,0.0,70.0,255.0,255.0,255.0
218,10.9,-9.138805356842854,-9.807970527346761,-3.857166339348259,-0.28978578914538033,0.12223196445841467,-0.6825856781204598,-0.02363517111074742,0.009867448886424768,-0.05495989285666525,0.0,70.0,255.0,255.0,255.0
219,10.950000000000001,-9.153324229998994,-9.801846570390635,-3.8913643096628525,-0.29098427850671627,0.12275749014696302,-0.685322078916748,-0.024183979748038098,0.01102102734815702,-0.05453891618336648,0.0,70.0,255.0,255.0,255.0
220,11.0,-9.167903784693525,-9.795694778332065,-3.925698547239934,-0.29220418712018414,0.12333406719323037,-0.6880395697387964,-0.024382321028326714,0.011740000836901743,-0.05424115957257669,0.0,70.0,255.0,255.0,255.0
221,11.05,-9.182544648711012,-9.789513163671312,-3.960168266636732,-0.29342251060954894,0.1239314902306532,-0.6907461948740057,-0.024122568651741005,0.011838708513955964,-0.05410789334763244,0.0,70.0,255.0,255.0,255.0
222,11.100000000000001,-9.19724603575448,-9.783301629309,-3.9947731667273345,-0.29461644398535825,0.12451793804462596,-0.6934503590735597,-0.02352266717995377,0.011419191086758929,-0.054116501184697796,0.0,70.0,255.0,255.0,255.0
223,11.15,-9.212006293109548,-9.77706136986685,-4.029513302544088,-0.2957747773275443,0.1250734093393291,-0.6961578449924755,-0.022814749384281185,0.010712765273623859,-0.05421359180934893,0.0,70.0,255.0,255.0,255.0
224,11.200000000000001,-9.226823513487235,-9.770794288375066,-4.064388951226582,-0.29689791892378636,0.12558921457198835,-0.6988717182544946,-0.022231551720430787,0.009951169113442404,-0.054340906710503845,0.0,70.0,255.0,255.0,255.0
225,11.25,-9.241696085001927,-9.764502448409651,-4.099400474369538,-0.2979979324995874,0.12606852625067333,-0.7015919356635258,-0.022008098481940408,0.009367955624917101,-0.05443487745457887,0.0,70.0,255.0,255.0,255.0
226,11.3,-9.256623306737193,-9.75818743575,-4.134548144792935,-0.2990987287719804,0.12652601013448006,-0.7043152059999525,-0.022261875060003433,0.009095450770324476,-0.05445918364568314,0.0,70.0,255.0,255.0,255.0
227,11.350000000000001,-9.271605957879125,-9.751849847396203,-4.169831994969533,-0.30022412000558774,0.12697807132770578,-0.7070378540280942,-0.022870301151201033,0.009091339704703216,-0.054430272849881334,0.0,70.0,255.0,255.0,255.0
228,11.4,-9.286645718737752,-9.745489628617229,-4.205251930195744,-0.3013857588871005,0.12743514410495038,-0.7097582332849406,-0.02359123927675455,0.00924773710622162,-0.05438396834405168,0.0,70.0,255.0,255.0,255.0
229,11.450000000000001,-9.301744533767835,-9.739106332985708,-4.240807818298027,-0.3025832439332632,0.12790284503832794,-0.7124762508624993,-0.02418323994390903,0.009466697131088608,-0.0543512565082338,0.0,70.0,255.0,255.0,255.0
230,11.5,-9.316904043131078,-9.732699344113396,-4.276499555281994,-0.3038040828814914,0.12838181381805924,-0.715193358935764,-0.02440132234156067,0.009648223283775792,-0.05436730263692624,0.0,70.0,255.0,255.0,255.0
231,11.55,-9.332124942055984,-9.726268151603902,-4.312327154191603,-0.30502337616741926,0.12886766736670552,-0.717912981126192,-0.02412335768209317,0.009733427799751837,-0.054448658783634585,0.0,70.0,255.0,255.0,255.0
232,11.600000000000001,-9.34740638074782,-9.719812577376725,-4.348290853394613,-0.30621641864970073,0.12935515659803443,-0.7206382248141274,-0.023481536140046444,0.00973638249437414,-0.05456240741557039,0.0,70.0,255.0,255.0,255.0
233,11.65,-9.362746583920954,-9.713332635944099,-4.384390976673016,-0.3073715297814239,0.12984130561614293,-0.723369221867749,-0.02273488558177661,0.00969451473853411,-0.05465053481401583,0.0,70.0,255.0,255.0,255.0
234,11.700000000000001,-9.378143533725963,-9.706828446815111,-4.420627775581388,-0.3084899072078784,0.13032460807188784,-0.726103278295529,-0.022142061930097157,0.009635841895416775,-0.05466078054352508,0.0,70.0,255.0,255.0,255.0
235,11.75,-9.393595574641742,-9.70030017513691,-4.457001304502569,-0.3095857359744336,0.1308048898056846,-0.7288352999221015,-0.021970574856666758,0.009587123268950393,-0.054547939969129544,0.0,70.0,255.0,255.0,255.0
236,11.8,-9.409102107323406,-9.693747957834542,-4.493511305573598,-0.31068696469354506,0.13128332039878288,-0.731558072292442,-0.02235126763867612,0.00956412474515389,-0.05429238168597195,0.0,70.0,255.0,255.0,255.0
237,11.850000000000001,-9.424664271111096,-9.687171843097031,-4.530157111731813,-0.31182086273830123,0.1317613022802,-0.7342645380906987,-0.02311814636346554,0.009563130316436741,-0.05392186905011087,0.0,70.0,255.0,255.0,255.0
238,11.9,-9.440284193597236,-9.680571827606522,-4.566937759382668,-0.3129987793298916,0.13223963343042655,-0.736950259197453,-0.023954626320765726,0.009574203939344272,-0.05349295999952375,0.0,70.0,255.0,255.0,255.0
239,11.950000000000001,-9.455964149044085,-9.673947879753989,-4.603852137651558,-0.3142163253703778,0.13271872267413443,-0.7396138340906511,-0.02454865219529978,0.009589935287124263,-0.053065108497474256,0.0,70.0,255.0,255.0,255.0
240,12.0,-9.471705826134274,-9.667299955339109,-4.640899142791733,-0.3154536445494216,0.13319862695913898,-0.7422567700472005,-0.024584443500508257,0.009603283640657878,-0.052684946809478106,0.0,70.0,255.0,255.0,255.0
241,12.05,-9.487509513499027,-9.660628017058075,-4.6780778146562785,-0.31667476972042863,0.13367905103820021,-0.7448823287715989,-0.02391119880353898,0.009610073219690207,-0.052381814471846866,0.0,70.0,255.0,255.0,255.0
242,12.100000000000001,-9.503373303106317,-9.653932050235289,-4.715387375668893,-0.3178447644297755,0.134159634281108,-0.7474949514943852,-0.022733057892487807,0.009611096239403594,-0.05218741242174474,0.0,70.0,255.0,255.0,255.0
243,12.15,-9.519293989942005,-9.647212053629964,-4.752827309805717,-0.3189480755096774,0.13464016066214057,-0.7501010700137734,-0.021440268808703422,0.009608669505034584,-0.05214032915139555,0.0,70.0,255.0,255.0,255.0
244,12.200000000000001,-9.535268110657285,-9.640468034169075,-4.79039748267027,-0.31998879131064584,0.13512050123161146,-0.7527089844095247,-0.020422676609221924,0.00960441695614378,-0.0522720721801484,0.0,70.0,255.0,255.0,255.0
245,12.25,-9.55129286907307,-9.633700003506803,-4.8280982082466695,-0.3209903431705996,0.13560060235775495,-0.7553282772317882,-0.020067595196060495,0.009599742168830971,-0.05261623549630556,0.0,70.0,255.0,255.0,255.0
246,12.3,-9.567367144974344,-9.6269079739333,-4.865930310393449,-0.3219955508302519,0.13608047544849455,-0.7579706079591553,-0.020564310107218375,0.009595582375787615,-0.053174672780542664,0.0,70.0,255.0,255.0,255.0
247,12.350000000000001,-9.583492424156095,-9.620091955961954,-4.903895269042585,-0.32304677418132144,0.1365601605953337,-0.7606457445098425,-0.021699738617542152,0.009592484725118311,-0.053847642102233806,0.0,70.0,255.0,255.0,255.0
248,12.4,-9.599671822392477,-9.613251957873766,-4.9419948848444335,-0.3241655246920061,0.13703972392100638,-0.7633553721693787,-0.023053342733980742,0.009591118040219726,-0.05446488423430651,0.0,70.0,255.0,255.0,255.0
249,12.450000000000001,-9.615908976625295,-9.606387983569853,-4.980230806259523,-0.3253521084547195,0.13751927239935569,-0.7660922329332731,-0.02420129404843152,0.009592396887825316,-0.05485434170964254,0.0,70.0,255.0,255.0,255.0
250,12.5,-9.632207033237949,-9.59950003063383,-5.018604108137761,-0.32658565409684925,0.13799896360978892,-0.7688408063403429,-0.02472522233283314,0.009597747686029834,-0.054858129852952686,0.0,70.0,255.0,255.0,255.0
251,12.55,-9.64856754203498,-9.592588087208874,-5.057114886893557,-0.3278246306880028,0.13847904716795867,-0.7715780459185684,-0.024411700627879895,0.009607597277394575,-0.05440518205137579,0.0,70.0,255.0,255.0,255.0
252,12.600000000000001,-9.664989496306749,-9.585652125917035,-5.095761912729618,-0.32902682415963724,0.13895972333752837,-0.7742813245454805,-0.023438803489383986,0.009618964857871504,-0.05358826625636581,0.0,70.0,255.0,255.0,255.0
253,12.65,-9.681470224450944,-9.578692114875121,-5.134543019348105,-0.3301685110369412,0.13944094365374582,-0.776936872544205,-0.02217554440573366,0.009626858334321753,-0.052595565147495194,0.0,70.0,255.0,255.0,255.0
254,12.700000000000001,-9.698006347410443,-9.57170803155166,-5.173455599984038,-0.3312443786002106,0.13992240917096055,-0.77954088106023,-0.020992007338449525,0.009625995493145467,-0.05162953533970338,0.0,70.0,255.0,255.0,255.0
255,12.75,-9.714594662310965,-9.564699873958025,-5.212497107454128,-0.3322677117707862,0.14040354320306037,-0.7820998260781753,-0.020251468850318588,0.009609267087817841,-0.05088327306301821,0.0,70.0,255.0,255.0,255.0
256,12.8,-9.731233118587522,-9.557667677231354,-5.251665582591856,-0.33326952548524247,0.14088333587974233,-0.7846292083665318,-0.02014823470020133,0.009574028515224597,-0.05046408619335807,0.0,70.0,255.0,255.0,255.0
257,12.850000000000001,-9.74792161485949,-9.550611540370051,-5.290960028290781,-0.3342825352408063,0.14136094605458283,-0.7871462346975111,-0.02057600313651875,0.009531655842387465,-0.05035295254698369,0.0,70.0,255.0,255.0,255.0
258,12.9,-9.764661372111602,-9.543531582625896,-5.330380206061607,-0.33532712579889434,0.14183650146398108,-0.7896645036212302,-0.021294363091861612,0.009501448622550868,-0.05048003466319173,0.0,70.0,255.0,255.0,255.0
259,12.950000000000001,-9.781454327439379,-9.536427890223653,-5.369926478652904,-0.3364119715499925,0.1423110909168379,-0.7921942381638303,-0.022063590352061624,0.009503621139117513,-0.05076700411041912,0.0,70.0,255.0,255.0,255.0
260,13.0,-9.798302569266601,-9.529300473534212,-5.40959962987799,-0.3375334848341005,0.14278686357789283,-0.7947412040322721,-0.022640930238360113,0.0095651839622235,-0.05112075924653681,0.0,70.0,255.0,255.0,255.0
261,13.05,-9.815207675922789,-9.522149203865863,-5.449400599056132,-0.3386760645738285,0.14326760931306026,-0.797306314088484,-0.022889812784931962,0.009696288663718633,-0.05148001163712834,0.0,70.0,255.0,255.0,255.0
262,13.100000000000001,-9.832170175723984,-9.514973712602906,-5.489330261286838,-0.3398224661125937,0.1437564924442647,-0.7998892051959849,-0.02286175272860902,0.009854411773346783,-0.051840016796322885,0.0,70.0,255.0,255.0,255.0
263,13.15,-9.849189922534048,-9.507773554621437,-5.52938951957573,-0.3409622398466894,0.14425305049039494,-0.8024903157681162,-0.022680756139514813,0.009967347174644203,-0.052201685476660487,0.0,70.0,255.0,255.0,255.0
264,13.200000000000001,-9.866266399708653,-9.500548407553866,-5.56957929286365,-0.3420905417265452,0.14475322716172911,-0.805109373743651,-0.022461230321901837,0.009966233235836341,-0.05255056010646797,0.0,70.0,255.0,255.0,255.0
265,13.25,-9.883398976706703,-9.493298231905264,-5.609900456950095,-0.34320836287887957,0.14524967381397857,-0.807745371778763,-0.02232476357679758,0.009782025034432706,-0.052885624682552645,0.0,70.0,255.0,255.0,255.0
266,13.3,-9.900587235996541,-9.486023440172469,-5.650353830041526,-0.34432301808422494,0.14573142966517239,-0.8103979362119063,-0.022338574765257135,0.009387017296980105,-0.053202440684607666,0.0,70.0,255.0,255.0,255.0
267,13.350000000000001,-9.917831278515125,-9.478725088938747,-5.690940250571286,-0.3454422203554053,0.14618837554367659,-0.8130656158472238,-0.022456053548403077,0.008852468626052712,-0.05344968423077745,0.0,70.0,255.0,255.0,255.0
268,13.4,-9.935131458032082,-9.471404602618101,-5.7316603916262485,-0.34656862343906525,0.14661667652777766,-0.815742904634984,-0.022584383912338524,0.00830823027762051,-0.05355051946764888,0.0,70.0,255.0,255.0,255.0
269,13.450000000000001,-9.952488140859032,-9.46406342128597,-5.772514541034784,-0.34770065874663914,0.14701919857143864,-0.8184206677939887,-0.02264440211341423,0.007884219811593596,-0.05344418203740986,0.0,70.0,255.0,255.0,255.0
270,13.5,-9.969901523906746,-9.456702682760957,-5.813502458405647,-0.34883306365040667,0.14740509850893702,-0.821087322838725,-0.022564071398534224,0.007698697251790065,-0.053084807291003955,0.0,70.0,255.0,255.0,255.0
271,13.55,-9.987371447224072,-9.449322911435075,-5.854623273318657,-0.34995706588649256,0.14778906829661764,-0.8237291485230891,-0.022308801907300335,0.007809441680350915,-0.05246211373624021,0.0,70.0,255.0,255.0,255.0
272,13.600000000000001,-10.004897230495395,-9.441923775931295,-5.895875373257956,-0.3510639438411367,0.1481860426769721,-0.826333534212349,-0.02191580463968279,0.008171238198251274,-0.05164385700338059,0.0,70.0,255.0,255.0,255.0
273,13.65,-10.022477841608186,-9.434504307167378,-5.937256626739892,-0.35214864635046084,0.14860619211644277,-0.8288935342234272,-0.021460775810666632,0.008683368080042442,-0.05075614341292223,0.0,70.0,255.0,255.0,255.0
274,13.700000000000001,-10.040112095130441,-9.427063156719651,-5.978764726680299,-0.35321002142220337,0.14905437948497635,-0.8314091485536412,-0.021020648403968778,0.00923740033886844,-0.04993788656921794,0.0,70.0,255.0,255.0,255.0
275,13.75,-10.057798843750406,-9.41959886921888,-6.020397541595256,-0.3542507111908577,0.14952993215032961,-0.833887322880349,-0.020662960150730214,0.009735167309443682,-0.04931519277260321,0.0,70.0,255.0,255.0,255.0
276,13.8,-10.075537166249527,-9.412110163504618,-6.062153458968334,-0.3552763174372764,0.15002789621592072,-0.8363406678309016,-0.020426217604985197,0.010115728800563772,-0.04895581765733681,0.0,70.0,255.0,255.0,255.0
277,13.850000000000001,-10.093326475494134,-9.404596079597288,-6.104031608378346,-0.35629333295135623,0.150541505030386,-0.8387829046460826,-0.020318023932297535,0.010346214945222698,-0.04884947983061494,0.0,70.0,255.0,255.0,255.0
278,13.9,-10.111166499544662,-9.39705601300158,-6.146031749432942,-0.35730811983050614,0.151062517710443,-0.841225615813963,-0.02033521680857575,0.010393821879084442,-0.048950314805562556,0.0,70.0,255.0,255.0,255.0
279,13.950000000000001,-10.129057287477185,-9.389489827826244,-6.188154169959742,-0.3583268546322138,0.15158088721829444,-0.8436779361266389,-0.020466290982668056,0.010226691653336673,-0.04919755839987161,0.0,70.0,255.0,255.0,255.0
280,14.0,-10.146999185007884,-9.38189792427975,-6.230399543045606,-0.35935474892877295,0.15208518687577666,-0.8461453716539502,-0.020688050701167526,0.009804642833977084,-0.049514374998960164,0.0,70.0,255.0,255.0,255.0
281,14.05,-10.164992762370062,-9.374281309138667,-6.272768707125137,-0.36039565970233056,0.15256135150169214,-0.8486293736265349,-0.0209806400278012,0.009126617474919385,-0.04984944080854703,0.0,70.0,255.0,255.0,255.0
282,14.100000000000001,-10.183038750978117,-9.36664178912958,-6.3152624804082595,-0.36145281293155307,0.1529978486232686,-0.8511303157348049,-0.021331260471768587,0.008324741181198192,-0.050198316913352414,0.0,70.0,255.0,255.0,255.0
283,14.15,-10.201138043663217,-9.35898152427634,-6.357881738698618,-0.3625287857495074,0.15339382561981196,-0.8536492053178701,-0.021717517793540253,0.007622183566269314,-0.05055998664174055,0.0,70.0,255.0,255.0,255.0
284,14.200000000000001,-10.219291629553068,-9.3513024065676,-6.400627400940047,-0.3636245647109071,0.15376006697989553,-0.856186314398979,-0.022108500017914423,0.007248094121514725,-0.05091999172091022,0.0,70.0,255.0,255.0,255.0
285,14.25,-10.237500500134308,-9.34360551757835,-6.443500370138516,-0.36473963575129886,0.15411863503196344,-0.8587412044899612,-0.02248879974917628,0.0074382427060371015,-0.05127924196450806,0.0,70.0,255.0,255.0,255.0
286,14.3,-10.255765593128197,-9.335890543064403,-6.486501521389043,-0.3658734446858247,0.15450389125049924,-0.8613142385954298,-0.02284450899860957,0.00829211365260818,-0.051632992534678124,0.0,70.0,255.0,255.0,255.0
287,14.350000000000001,-10.27408784460289,-9.3281551284533,-6.529631793998059,-0.3670240866511598,0.15494784639722425,-0.863904503743429,-0.02311963814296547,0.009588573243135556,-0.05191995647750858,0.0,70.0,255.0,255.0,255.0
288,14.4,-10.292468001793313,-9.32039575842468,-6.572891971763386,-0.36818540850012127,0.1554627485748128,-0.8665062342431806,-0.023232008054030473,0.010922012621428223,-0.052047034663527114,0.0,70.0,255.0,255.0,255.0
289,14.450000000000001,-10.310906385452903,-9.312608853595819,-6.616282417422377,-0.36934728745656287,0.15604004765936708,-0.8691092072097817,-0.023113135518926242,0.011882097362914124,-0.051935901290711683,0.0,70.0,255.0,255.0,255.0
290,14.5,-10.32940273053897,-9.304791753658744,-6.659802892484364,-0.3704967220520139,0.1566509583111042,-0.8716998243722518,-0.022704815569518644,0.012066442285529888,-0.05151672241181515,0.0,70.0,255.0,255.0,255.0
291,14.55,-10.347956057658104,-9.296943757764708,-6.703452399859602,-0.37161776901351473,0.15724669188792006,-0.8742608794509632,-0.021993212089377323,0.011284042133574701,-0.05077047716470773,0.0,70.0,255.0,255.0,255.0
292,14.600000000000001,-10.366564507440321,-9.289067084469952,-6.74722898042946,-0.3726960432609516,0.15777936252446167,-0.8767768720887226,-0.02107279767979975,0.009772620857795289,-0.04980446789923931,0.0,70.0,255.0,255.0,255.0
293,14.65,-10.3852256619842,-9.281165821512262,-6.791130087068474,-0.3737250487814947,0.1582239539736996,-0.8792413262408871,-0.020114356751399498,0.007999789257873147,-0.04881178146387555,0.0,70.0,255.0,255.0,255.0
294,14.700000000000001,-10.40393701231847,-9.273244689072582,-6.835153113053549,-0.3747074789360916,0.158579341450249,-0.8816580502351101,-0.01929741944497465,0.006442350925972562,-0.047994864654210545,0.0,70.0,255.0,255.0,255.0
295,14.75,-10.422696409877808,-9.265307887367237,-6.879295892091985,-0.37565479072599217,0.15886818906629685,-0.8840408127063082,-0.018779956621450822,0.0055599508552717225,-0.047541887035862374,0.0,70.0,255.0,255.0,255.0
296,14.8,-10.44150249139107,-9.257357870165952,-6.92355719432418,-0.37658547459823666,0.15913533653577616,-0.8864122389386964,-0.01864315546384887,0.005591577953545368,-0.047545611628585505,0.0,70.0,255.0,255.0,255.0
297,14.850000000000001,-10.460354957337632,-9.24939435371366,-6.967937115985855,-0.37751910627237706,0.1594273468616514,-0.8887953738691667,-0.01886199164875535,0.006387423513132262,-0.04793499243866961,0.0,70.0,255.0,255.0,255.0
298,14.9,-10.479254402018308,-9.241415135479787,-7.012436731711096,-0.3784716737631122,0.1597740788870894,-0.8912057381825633,-0.019356905267819968,0.007612350159647008,-0.04855217980619386,0.0,70.0,255.0,255.0,255.0
299,14.950000000000001,-10.498202124713943,-9.23341694582495,-7.057057689804111,-0.37945479679915906,0.1601885818776161,-0.8936505918497861,-0.0200309862355752,0.008921925507010542,-0.049225152912235615,0.0,70.0,255.0,255.0,255.0
300,15.0,-10.517199881698224,-9.225396277292026,-7.101801790896075,-0.3804747723866697,0.16066627143779044,-0.8961282534737869,-0.02079130200076662,0.009977763617285973,-0.04978370147217248,0.0,70.0,255.0,255.0,255.0
301,15.05,-10.53624960195261,-9.217350318681172,-7.14667051515149,-0.3815339269992357,0.16118635823934468,-0.8986289619970034,-0.021568991230935808,0.010584611085739937,-0.05012810196358686,0.0,70.0,255.0,255.0,255.0
302,15.100000000000001,-10.555353274398147,-9.209277641468091,-7.191664687095775,-0.3826316715097633,0.16172473254636444,-0.9011410636701456,-0.022282032925780015,0.010765890218422669,-0.05026013111173455,0.0,70.0,255.0,255.0,255.0
303,15.15,-10.574512769103587,-9.201177845426535,-7.236784621518504,-0.3837621302918137,0.16226294726118695,-0.9036549751081768,-0.02281270749069364,0.01062008749386223,-0.05021325222429596,0.0,70.0,255.0,255.0,255.0
304,15.200000000000001,-10.593729487427328,-9.193051346741973,-7.282030184606593,-0.38491294225883266,0.16278674129575066,-0.9061623888925752,-0.023040174074573372,0.010238058934319838,-0.050018836050114146,0.0,70.0,255.0,255.0,255.0
305,15.25,-10.61300406332947,-9.18489917129696,-7.327400860407762,-0.38606614769927106,0.16328675315461894,-0.9086568587131882,-0.02285483537587396,0.009712957378127385,-0.049715288426543935,0.0,70.0,255.0,255.0,255.0
306,15.3,-10.632336102197256,-9.17672267142651,-7.372895870477912,-0.38719842579642005,0.1637580370335634,-0.9111339177352296,-0.022219341152052152,0.009115012666605082,-0.04933424159023758,0.0,70.0,255.0,255.0,255.0
307,15.350000000000001,-10.651723905909112,-9.168523367593604,-7.418514252181285,-0.38828808181447627,0.16419825442127944,-0.913590282872212,-0.021255191333047208,0.008508922374339534,-0.04890532227603828,0.0,70.0,255.0,255.0,255.0
308,15.4,-10.671164910378703,-9.160302845984383,-7.464254898765133,-0.3893239449297248,0.16460892927099735,-0.9160244499628334,-0.020189467566389396,0.007989910589856208,-0.04847565045729141,0.0,70.0,255.0,255.0,255.0
309,15.450000000000001,-10.690656300402084,-9.152062474666504,-7.510116697177568,-0.3903070285711152,0.16499724548026506,-0.9184378479179411,-0.019266779004567525,0.007671013580079489,-0.04810519053295437,0.0,70.0,255.0,255.0,255.0
310,15.5,-10.710195613235815,-9.143803121436356,-7.556098683556927,-0.3912506228301815,0.1653760306290053,-0.9208349690161288,-0.01872138446739058,0.007666444165543851,-0.04785118211678707,0.0,70.0,255.0,255.0,255.0
311,15.55,-10.729781362685102,-9.135524871603604,-7.602200194079181,-0.39217916701785427,0.16576388989681945,-0.9232229661296198,-0.018673644162525704,0.008022564354703832,-0.04774164496312849,0.0,70.0,255.0,255.0,255.0
312,15.600000000000001,-10.7494135299376,-9.127226732446674,-7.648420980169889,-0.3931179872464341,0.16617828706447568,-0.9256091335124417,-0.019049089855371903,0.008633944759495193,-0.04775587582201979,0.0,70.0,255.0,255.0,255.0
313,15.65,-10.769093161409746,-9.118907042897156,-7.694761107430425,-0.39408407600339146,0.16662728437276897,-0.9279985537118218,-0.01967753413101292,0.009303906512236892,-0.04784684990779553,0.0,70.0,255.0,255.0,255.0
314,15.700000000000001,-10.78882193753794,-9.110564004009397,-7.741220835541071,-0.3950857406595354,0.16710867771569937,-0.9303938185032212,-0.0203794231921961,0.009825112852013262,-0.047960401818425424,0.0,70.0,255.0,255.0,255.0
315,15.75,-10.8086017354757,-9.102196175125586,-7.787800489280747,-0.39612201832261107,0.1676097956579703,-0.9327945938936644,-0.02097962675424725,0.00998527528324189,-0.04803597378275626,0.0,70.0,255.0,255.0,255.0
316,15.8,-10.8284341393702,-9.0938030244436,-7.834500294930438,-0.3971837033349601,0.16810720524402356,-0.9351974158814969,-0.021373821127390613,0.009681443201792206,-0.04803969137787689,0.0,70.0,255.0,255.0,255.0
317,15.850000000000001,-10.848320105809195,-9.085385454601184,-7.881320230868897,-0.39825940043535013,0.16857793997814952,-0.9375985630314521,-0.021553018011033487,0.009040706511420638,-0.047992106836858284,0.0,70.0,255.0,255.0,255.0
318,15.9,-10.868260079413735,-9.076945230445785,-7.928260151233583,-0.39933900513606346,0.16901127589516562,-0.9399966265651827,-0.02153414882180016,0.00830905543658389,-0.04793517834951189,0.0,70.0,255.0,255.0,255.0
319,15.950000000000001,-10.888254006322802,-9.068484327011667,-7.975319893525415,-0.40041281531753015,0.1694088455218079,-0.9423920808664032,-0.021329840579475956,0.0077351084394550185,-0.04790700172749851,0.0,70.0,255.0,255.0,255.0
320,16.0,-10.908301360945488,-9.060004345893605,-8.022499359320223,-0.40147198919401106,0.16978478673911113,-0.9447873267379325,-0.02095208986663266,0.007576417404386859,-0.047952894780234345,0.0,70.0,255.0,255.0,255.0
321,16.05,-10.928401205242203,-9.051505848337756,-8.069798626199209,-0.4025080243041934,0.1701664872622466,-0.9471873703444267,-0.020423332400554273,0.00795823626535963,-0.048092876237948445,0.0,70.0,255.0,255.0,255.0
322,16.1,-10.948552163375908,-9.04298769716738,-8.117218096354666,-0.4035143224340665,0.1705806103656471,-0.9495966143617274,-0.01981967726347733,0.00871782126914411,-0.0482756968308351,0.0,70.0,255.0,255.0,255.0
323,16.150000000000002,-10.96875263748561,-9.034447787301191,-8.164758287635381,-0.40448999203054115,0.171038269389161,-0.9520149400275102,-0.01926670974299327,0.00954527966534613,-0.04841243669524431,0.0,70.0,255.0,255.0,255.0
324,16.2,-10.989001162578962,-9.025883870228464,-8.212419590357417,-0.4054409934083658,0.1715351383321817,-0.9544378580312518,-0.01890018884758149,0.01013459325225341,-0.04841830455735163,0.0,70.0,255.0,255.0,255.0
325,16.25,-11.009296736826446,-9.017294273467973,-8.260202073438506,-0.4063800109152993,0.17205172871438634,-0.9568567704832454,-0.01885602310274237,0.010177120367771408,-0.04820447506759251,0.0,70.0,255.0,255.0,255.0
326,16.3,-11.029639163670492,-9.008678697357025,-8.308105267405741,-0.40732659571864005,0.17255285036895884,-0.9592583055380111,-0.01919336209006417,0.009525238774443778,-0.04773500413630671,0.0,70.0,255.0,255.0,255.0
327,16.35,-11.05002939639831,-9.000038988431077,-8.356127903992308,-0.4082993471243057,0.17300425259183072,-0.961630270896876,-0.019803797410666846,0.008375187899645198,-0.04710687740132613,0.0,70.0,255.0,255.0,255.0
328,16.400000000000002,-11.070469098382922,-8.991378272097842,-8.404268294495429,-0.40930697545970673,0.17339036915892336,-0.9639689932781437,-0.020482648571906736,0.007103485575932211,-0.04649414247008821,0.0,70.0,255.0,255.0,255.0
329,16.45,-11.09096009394428,-8.982699951515185,-8.452524803320122,-0.4103476119814964,0.17371460114942394,-0.9662796851438848,-0.02101663013647226,0.006085865872051954,-0.046072553935694316,0.0,70.0,255.0,255.0,255.0
330,16.5,-11.111503859581072,-8.9740068119829,-8.500896263009817,-0.41140863847335396,0.17399895574612856,-0.9685762486717131,-0.02118782704538802,0.005691045180711285,-0.04602118629968288,0.0,70.0,255.0,255.0,255.0
331,16.55,-11.132100957791616,-8.965300055940572,-8.549382428187293,-0.4124663946860352,0.17428370566749507,-0.9708818037738531,-0.0208899325276235,0.006101181595496996,-0.0464209067510879,0.0,70.0,255.0,255.0,255.0
332,16.6,-11.152750499049676,-8.95657844141615,-8.597984443387203,-0.4134976317261163,0.17460907390567826,-0.9732183393468219,-0.02025054102006152,0.00713154368323643,-0.04713231804025497,0.0,70.0,255.0,255.0,255.0
333,16.650000000000002,-11.173450720964228,-8.947839148550004,-8.646704262121975,-0.41449144878804134,0.1749968600358187,-0.9755950355778786,-0.01951728804385766,0.008409822319599414,-0.04789462978838088,0.0,70.0,255.0,255.0,255.0
334,16.7,-11.19419964392848,-8.939078755412568,-8.69554394694499,-0.4154493605305021,0.1754500561376382,-0.97800780232566,-0.018939864031608522,0.009555882652989567,-0.04844541909356792,0.0,70.0,255.0,255.0,255.0
335,16.75,-11.214995657017278,-8.93029414293624,-8.744505042354541,-0.4163854351912022,0.17595244830111767,-0.9804395774872354,-0.01877663141911512,0.010186717558546832,-0.048526817029426184,0.0,70.0,255.0,255.0,255.0
336,16.8,-11.2358381874476,-8.921483510582457,-8.793587904693714,-0.4173270236724136,0.17646872789349288,-0.9828604840286026,-0.019153481227718316,0.010103974236841395,-0.04801428261380636,0.0,70.0,255.0,255.0,255.0
337,16.85,-11.25672835938452,-8.912647270146891,-8.842791090757402,-0.418300783313974,0.1769628457248018,-0.9852410057486161,-0.0199086305842755,0.00946768165697165,-0.04705102992410559,0.0,70.0,255.0,255.0,255.0
338,16.900000000000002,-11.277668265778997,-8.903787226009976,-8.892112005268576,-0.41931788673084114,0.17741549605919005,-0.9875655870210132,-0.020733607177447766,0.008607341695920923,-0.045920998047854766,0.0,70.0,255.0,255.0,255.0
339,16.95,-11.298660148057603,-8.894905720540972,-8.941547649459503,-0.4203741440317188,0.1778235798943939,-0.9898331055534015,-0.02132405359578371,0.007850976475154425,-0.0449118302972451,0.0,70.0,255.0,255.0,255.0
340,17.0,-11.31970568018217,-8.886004868020537,-8.991095315823916,-0.4214502920904195,0.1782005937067055,-0.9920567700507377,-0.021373712545802448,0.00753802864235098,-0.04429951761206752,0.0,70.0,255.0,255.0,255.0
341,17.05,-11.340805177266645,-8.877085661170302,-9.040753326464577,-0.42251151528629904,0.178577382758629,-0.9942630573146083,-0.020735769602708842,0.007842268776769856,-0.04422853621992573,0.0,70.0,255.0,255.0,255.0
342,17.1,-11.361956831710799,-8.868147129744674,-9.090521621555377,-0.4235238690506904,0.17898482058438248,-0.9964796236727302,-0.019602116129391334,0.008591389362244684,-0.044615450374685395,0.0,70.0,255.0,255.0,255.0
343,17.150000000000002,-11.383157564171714,-8.859187179111863,-9.14040128883185,-0.4244717268992382,0.17943652169485347,-0.9987246023520768,-0.018341942919519738,0.009447990385069716,-0.045269489907795446,0.0,70.0,255.0,255.0,255.0
344,17.2,-11.404404004400723,-8.850203477575189,-9.190394081790584,-0.42535806334264237,0.17992961962288945,-1.0010065726635098,-0.01732326890575564,0.010086551772126029,-0.045993973004065936,0.0,70.0,255.0,255.0,255.0
345,17.25,-11.425693370505979,-8.841194217149575,-9.2405019460982,-0.42620405378981374,0.18044517687206607,-1.0033239996524834,-0.016904462453481983,0.010181261110808748,-0.0465951125237396,0.0,70.0,255.0,255.0,255.0
346,17.3,-11.447024409779704,-8.832158959887982,-9.290726481755833,-0.42704850958799057,0.18094774573397032,-1.0056660839158837,-0.0172638133218328,0.009573290981634841,-0.046959311434413564,0.0,70.0,255.0,255.0,255.0
347,17.35,-11.468398221464778,-8.823099442576178,-9.34106855448979,-0.427930435121997,0.18140250597022956,-1.0080199307959248,-0.018233021448210707,0.008453940381691893,-0.04709173734056549,0.0,70.0,255.0,255.0,255.0
348,17.400000000000002,-11.489817453291904,-8.81401870929096,-9.391528474835425,-0.42887181173281164,0.1817931397721395,-1.0103752576499403,-0.019467665434014236,0.007194356438766647,-0.04703479523406884,0.0,70.0,255.0,255.0,255.0
349,17.45,-11.511285402638059,-8.804920128598964,-9.442106080254783,-0.42987720166539845,0.18212194161410622,-1.0127234103193317,-0.020616810174978184,0.006162163754908079,-0.04682659004036083,0.0,70.0,255.0,255.0,255.0
350,17.5,-11.532805173458444,-8.795806515129549,-9.492800815867358,-0.43093349275030945,0.18240935614763032,-1.0150579166539764,-0.021336456286746852,0.0057128709693543556,-0.04651201364609392,0.0,70.0,255.0,255.0,255.0
351,17.55,-11.55437875191309,-8.7866791929842,-9.54361187192018,-0.43201084729407313,0.18269322871104166,-1.017374611683941,-0.02144291650427732,0.006024940256565969,-0.04612647911557133,0.0,70.0,255.0,255.0,255.0
352,17.6,-11.576006258187851,-8.777537192258444,-9.594538277035753,-0.4330777844007372,0.18301185017328692,-1.0196705645655335,-0.021034842368550244,0.006942965661416167,-0.04569843942370255,0.0,70.0,255.0,255.0,255.0
353,17.650000000000002,-11.597686530353164,-8.768378007966872,-9.645578928376734,-0.43411433153092815,0.18338752527718327,-1.0219444556263113,-0.02033751189483013,0.00814362815120262,-0.0452721683165791,0.0,70.0,255.0,255.0,255.0
354,17.7,-11.619417691340944,-8.759198439730726,-9.696732722598384,-0.4351115355902202,0.18382621298840718,-1.0241977813971914,-0.01957657663904655,0.009298732601514814,-0.04490535447860822,0.0,70.0,255.0,255.0,255.0
355,17.75,-11.641197683912186,-8.749995386668031,-9.747998706516453,-0.4360719891948328,0.18431739853733475,-1.0264349910741721,-0.018977684426424446,0.010095273658627946,-0.04465287018771136,0.0,70.0,255.0,255.0,255.0
356,17.8,-11.663024890260427,-8.740766699876993,-9.799376221705801,-0.43700930403286264,0.18483574035426997,-1.0286630684159626,-0.018670068448578547,0.010360887387150797,-0.044541485390681146,0.0,70.0,255.0,255.0,255.0
357,17.85,-11.684898614315472,-8.731511812632604,-9.85086501335805,-0.43793899603969066,0.18535348727604983,-1.0308891396132402,-0.01862304031430284,0.010143241261673097,-0.04455180100162437,0.0,70.0,255.0,255.0,255.0
358,17.900000000000002,-11.706818789864396,-8.722231351149388,-9.902465135667125,-0.43887160806429293,0.18585006448043728,-1.033118248516125,-0.018748534072265954,0.009581247507028934,-0.04463923546378368,0.0,70.0,255.0,255.0,255.0
359,17.95,-11.728785775121901,-8.71292680618456,-9.954176838209662,-0.43981384944691726,0.18631161202675273,-1.0353530631596186,-0.018969284199421566,0.008816705372893807,-0.04475199204527769,0.0,70.0,255.0,255.0,255.0
360,18.0,-11.750800174809088,-8.703600189946712,-10.006000441983087,-0.4407685364842351,0.18673173501772666,-1.0375934477206528,-0.01921285262795891,0.00798603439555734,-0.04483249627789121,0.0,70.0,255.0,255.0,255.0
361,18.05,-11.772862628770325,-8.694253632682788,-10.057936182981727,-0.44173513470971315,0.18711021546630846,-1.0398363127874077,-0.019430749097537614,0.007183258446552543,-0.04484809214169161,0.0,70.0,255.0,255.0,255.0
362,18.1,-11.79497368828006,-8.684889168400082,-10.109984073261828,-0.44271161139398885,0.18745006086238192,-1.042078256934822,-0.019593928774774838,0.00648127208968674,-0.044815288970312395,0.0,70.0,255.0,255.0,255.0
363,18.150000000000002,-11.817133789909724,-8.67550862659655,-10.16214400867521,-0.44369452758719063,0.18775834267527713,-1.044317841684439,-0.01966658025285284,0.005976696505882728,-0.044769118268384034,0.0,70.0,255.0,255.0,255.0
364,18.2,-11.839343141038778,-8.666113334132554,-10.214415857430271,-0.44467826941927413,0.1880477305129702,-1.0465551687616603,-0.01960679938282084,0.005772907443279962,-0.04474047687583749,0.0,70.0,255.0,255.0,255.0
365,18.25,-11.861601616851651,-8.656703853545253,-10.266799525551376,-0.4456552075254727,0.18833563341960513,-1.0487918893720227,-0.01937090506327621,0.005960588758568974,-0.04476511672759642,0.0,70.0,255.0,255.0,255.0
366,18.3,-11.883908661791326,-8.647279770790593,-10.319295046367474,-0.44661535992560175,0.1886437893888271,-1.05103168043442,-0.018946422342303038,0.006567617289121586,-0.04485943275280846,0.0,70.0,255.0,255.0,255.0
367,18.35,-11.906263152844211,-8.63783947460637,-10.371902693594818,-0.447549849759703,0.1889923951485173,-1.0532778326473036,-0.01840301614564055,0.007486355695718316,-0.044987043117394876,0.0,70.0,255.0,255.0,255.0
368,18.400000000000002,-11.928663646767296,-8.628380531275742,-10.424622829632204,-0.4484556615401658,0.18939242495839892,-1.0555303847461595,-0.0178642125137074,0.008514763672629044,-0.045084291465258275,0.0,70.0,255.0,255.0,255.0
369,18.45,-11.951108718998228,-8.61890023211053,-10.477455732069433,-0.44933627101107376,0.1898438715157802,-1.0577862617938294,-0.017456292163586795,0.009433203313946592,-0.045092813738101256,0.0,70.0,255.0,255.0,255.0
370,18.5,-11.973597273868403,-8.609396144124164,-10.530401455811587,-0.4502012907565245,0.19033574528979358,-1.0600396661199696,-0.017295508473402776,0.010039582597798358,-0.04495906478325651,0.0,70.0,255.0,255.0,255.0
371,18.55,-11.99612884807388,-8.59986665758155,-10.58345969868143,-0.45106582185841404,0.19084782977556003,-1.062282168272155,-0.017437361067962343,0.010226272397417802,-0.04466037731187811,0.0,70.0,255.0,255.0,255.0
372,18.6,-12.018703856054245,-8.590311361146608,-10.636629672638803,-0.4519450268633207,0.19135837252953536,-1.0645057038511574,-0.017829531115687303,0.01002141701675896,-0.04423831012196899,0.0,70.0,255.0,255.0,255.0
373,18.650000000000002,-12.041323350760212,-8.580730820328597,-10.689910269066546,-0.45284877496998277,0.19184997147723593,-1.066705999284352,-0.018360206054701678,0.009516136916687401,-0.04377278347185154,0.0,70.0,255.0,255.0,255.0
374,18.7,-12.063988733551243,-8.571126363998884,-10.743300272567238,-0.4537810474687909,0.1923099862212041,-1.0688829821983425,-0.01890854478485693,0.008814279299151906,-0.04334775535053126,0.0,70.0,255.0,255.0,255.0
375,18.75,-12.086701455507091,-8.561499821706477,-10.79679856728638,-0.45473962944846846,0.19273139940715112,-1.071040774819405,-0.01935904239580566,0.008013108820392745,-0.04304263346206483,0.0,70.0,255.0,255.0,255.0
376,18.8,-12.10946269649609,-8.551853224058169,-10.850404350049178,-0.45571695170837145,0.19311129710324337,-1.073187245544549,-0.01964464620751727,0.007185754661165333,-0.04289905799907956,0.0,70.0,255.0,255.0,255.0
377,18.85,-12.132273150677928,-8.542188691996152,-10.904117291840835,-0.4567040940692202,0.19344997487326765,-1.075330680619313,-0.019762495754882536,0.006425179036817497,-0.04289701243127553,0.0,70.0,255.0,255.0,255.0
378,18.900000000000002,-12.155133105903012,-8.532508226570842,-10.95793741811111,-0.4576932012838597,0.19375381500692512,-1.0774769467876766,-0.019730487741043135,0.005866003345822435,-0.04298727861193896,0.0,70.0,255.0,255.0,255.0
379,18.95,-12.178042470806314,-8.52281331049546,-11.011864986519603,-0.4586771428433245,0.1940365752078499,-1.079629408480507,-0.01957004151762476,0.005648141026348696,-0.043116164860990125,0.0,70.0,255.0,255.0,255.0
380,19.0,-12.201000820187344,-8.513104569050057,-11.06590035895916,-0.4596502054356222,0.19431862910956,-1.0817885632737756,-0.019312331268039884,0.0059079821193464,-0.04322639204286105,0.0,70.0,255.0,255.0,255.0
381,19.05,-12.224007491349877,-8.503381447584504,-11.12004384284698,-0.4606083759701285,0.19462737341978453,-1.083952047684793,-0.018983028461327933,0.006692247419337605,-0.04328390351222566,0.0,70.0,255.0,255.0,255.0
382,19.1,-12.247061657784357,-8.493641831708079,-11.17429556372764,-0.461548508281755,0.19498785385149375,-1.0861169536249982,-0.018601325024647508,0.007832552152287064,-0.043294572554053445,0.0,70.0,255.0,255.0,255.0
383,19.150000000000002,-12.270162342178052,-8.483882662199354,-11.22865553820948,-0.46246850847259324,0.19541062863501324,-1.0882815049401984,-0.018198682141346012,0.009022646903389386,-0.04327633051861568,0.0,70.0,255.0,255.0,255.0
384,19.200000000000003,-12.293308508631617,-8.474100768844577,-11.28312371422166,-0.4633683764958896,0.1958901185418327,-1.0904445866768597,-0.01781697679241745,0.009941408343117075,-0.04324138474096628,0.0,70.0,255.0,255.0,255.0
385,19.25,-12.316499179827641,-8.464293650345171,-11.337699996877166,-0.464250206151835,0.19640476946932495,-1.092605643414295,-0.017487669829030494,0.010274962702006007,-0.04319977039450862,0.0,70.0,255.0,255.0,255.0
386,19.3,-12.3397335292468,-8.454460291897645,-11.392384278563089,-0.4651171434787926,0.1969176148120333,-1.0947645637163106,-0.017229953231634454,0.0098714561266533,-0.04315861466466231,0.0,70.0,255.0,255.0,255.0
387,19.35,-12.36301089417552,-8.444601888863968,-11.447176453248797,-0.46597320147499843,0.19739191508199028,-1.0969215048807612,-0.01706950018220965,0.008894495804234737,-0.043124697351437646,0.0,70.0,255.0,255.0,255.0
388,19.400000000000002,-12.3863308493943,-8.434721100389446,-11.502076429051165,-0.4668240934970136,0.19780706439245677,-1.0990770334514544,-0.017037487656956785,0.007674364752219276,-0.043107399313768724,0.0,70.0,255.0,255.0,255.0
389,19.450000000000003,-12.409693303525222,-8.424821182424722,-11.557084156593943,-0.4676769502406941,0.1981593515572122,-1.101232244812138,-0.01715533802837399,0.006552286206762403,-0.0431182961765586,0.0,70.0,255.0,255.0,255.0
390,19.5,-12.43309854441837,-8.414905165233725,-11.612199653532379,-0.468539627299851,0.198462293013133,-1.1033888630691102,-0.017440952119684994,0.005864148425516191,-0.043174526377853795,0.0,70.0,255.0,255.0,255.0
391,19.55,-12.456547266255207,-8.404974953123409,-11.667423042900854,-0.4694210454526626,0.19874576639976382,-1.1055496974499235,-0.01789147096449284,0.005787988680516776,-0.043281637829650776,0.0,70.0,255.0,255.0,255.0
392,19.6,-12.480040648963636,-8.395030588593748,-11.722754623277371,-0.4703287743963003,0.19904109188118468,-1.1077170268520753,-0.018439835087846745,0.006220420340241617,-0.04340663804054401,0.0,70.0,255.0,255.0,255.0
393,19.650000000000002,-12.503580143694837,-8.38507084393529,-11.778194745586061,-0.4712650289614473,0.19936780843378799,-1.1098903612539779,-0.018970528069139903,0.0069297775359800085,-0.04349407222576929,0.0,70.0,255.0,255.0,255.0
394,19.700000000000003,-12.52716715185978,-8.37509380775037,-11.833743659402769,-0.47222582720321427,0.19973406963478268,-1.1120664340746522,-0.01936269673290525,0.0076823605839493325,-0.04349214383925215,0.0,70.0,255.0,255.0,255.0
395,19.75,-12.550802726415158,-8.365097436971812,-11.889401388993527,-0.4732012986347378,0.20013604449218292,-1.114239575637903,-0.019504512370716043,0.0082404715701756,-0.043354152065155915,0.0,70.0,255.0,255.0,255.0
396,19.8,-12.574487281723254,-8.355080203301151,-11.94516761696656,-0.47417627844028587,0.20055811679180024,-1.1164018492811678,-0.019343650090597464,0.008471041364899179,-0.04306103448374898,0.0,70.0,255.0,255.0,255.0
397,19.85,-12.598220354259187,-8.345041625292632,-12.001041573921643,-0.47513566364379756,0.20098314862867284,-1.118545679086278,-0.018935634989958317,0.008428391597625762,-0.042650522049036965,0.0,70.0,255.0,255.0,255.0
398,19.900000000000002,-12.622000848087634,-8.334981888438284,-12.057022184875187,-0.4760698419392817,0.20140095595156282,-1.1206669014860715,-0.018396763701389318,0.008240278017268565,-0.042195379382548026,0.0,70.0,255.0,255.0,255.0
399,19.950000000000003,-12.645827338453115,-8.324901529697476,-12.11310826407025,-0.4769753400139365,0.2018071764303997,-1.1227652170245328,-0.017853362218644975,0.008025870526928713,-0.041772615644397604,0.0,70.0,255.0,255.0,255.0
400,20.0,-12.669698382089027,-8.314801170795244,-12.16929870657764,-0.4778551781611462,0.2022035430042557,-1.1248441630505113,-0.01742901704773203,0.00791391867505098,-0.04145287468553249,0.0,70.0,255.0,255.0,255.0
401,20.05,-12.69361285626923,-8.30468117539705,-12.225592680375302,-0.4787182417187097,0.2025985682979048,-1.126910504493086,-0.017193415854954708,0.007973906464364688,-0.04127422423643168,0.0,70.0,255.0,255.0,255.0
402,20.1,-12.717570206260898,-8.294541313965453,-12.281989757026949,-0.47957451974664167,0.20300093365069216,-1.1289715854741544,-0.017133988587403337,0.008145080867549837,-0.04122856979957845,0.0,70.0,255.0,255.0,255.0
403,20.150000000000002,-12.741570308243894,-8.284381082031981,-12.338489838922717,-0.48043164057745,0.20341307638465977,-1.131033361473044,-0.017206892646370875,0.008310881957207528,-0.041287114208188314,0.0,70.0,255.0,255.0,255.0
404,20.200000000000003,-12.765613370318643,-8.274200006326987,-12.395093093174253,-0.48129520901127876,0.20383202184641291,-1.1331002968949733,-0.017370054859711104,0.008367071062664877,-0.041417393583209616,0.0,70.0,255.0,255.0,255.0
405,20.25,-12.789699829145022,-8.26399787984734,-12.451799868612214,-0.48216864606342114,0.20424978349092626,-1.1351751008313649,-0.017587438088462193,0.00820790967441809,-0.04159033986645966,0.0,70.0,255.0,255.0,255.0
406,20.3,-12.813830234924986,-8.253775027977895,-12.50861060325739,-0.483053952820125,0.20465281281385472,-1.1372593308816192,-0.01782991259631217,0.007786246528951324,-0.041782581389959716,0.0,70.0,255.0,255.0,255.0
407,20.35,-12.838005224427034,-8.243532598565954,-12.565525801700376,-0.48395163732305235,0.2050284081438214,-1.1393533589703608,-0.018049343061221634,0.007193056492837968,-0.04195613115562935,0.0,70.0,255.0,255.0,255.0
408,20.400000000000002,-12.86222539865729,-8.233272187163513,-12.622545939154426,-0.48485888712624714,0.20537211846313852,-1.1414549439971822,-0.018173894150663727,0.0065952617521958246,-0.04205439222602081,0.0,70.0,255.0,255.0,255.0
409,20.450000000000003,-12.886491113139659,-8.22299538671964,-12.679671296100095,-0.4857690267381187,0.20568793431904098,-1.143558798192963,-0.018126931163031657,0.006158619116192199,-0.042018322842451994,0.0,70.0,255.0,255.0,255.0
410,20.5,-12.910802301331103,-8.212703393731609,-12.736901818973722,-0.4866715802425503,0.20598798037475774,-1.1456567762814274,-0.01782123059914653,0.0060464239812318965,-0.041785765846569234,0.0,70.0,255.0,255.0,255.0
411,20.55,-12.935158271163914,-8.202396588682165,-12.794236973728237,-0.4875511497980334,0.20629257671716417,-1.1477373747776198,-0.01722642093895388,0.006334906952965014,-0.041334937381343195,0.0,70.0,255.0,255.0,255.0
412,20.6,-12.959557416310906,-8.192074136059892,-12.851675556451484,-0.4883942223364457,0.20662147107005424,-1.1497902700195617,-0.01647041072825317,0.0069182176352100555,-0.04074867714081165,0.0,70.0,255.0,255.0,255.0
413,20.650000000000002,-12.983997693397558,-8.18173444157516,-12.909216000730193,-0.4891981908708587,0.20698439848068517,-1.151812242491701,-0.015776598349503956,0.007591707397303082,-0.04017438448897792,0.0,70.0,255.0,255.0,255.0
414,20.700000000000003,-13.008477235397992,-8.171375696211824,-12.966856780700654,-0.4899718821713961,0.20738064180978455,-1.1538077084684595,-0.015368281094652048,0.008145678580717686,-0.03976208893927691,0.0,70.0,255.0,255.0,255.0
415,20.75,-13.032994881614698,-8.16099637739418,-13.02459677157704,-0.4907350189803239,0.20779896633875694,-1.1557884513856287,-0.015467592896101223,0.008370403725344033,-0.039658578098134,0.0,70.0,255.0,255.0,255.0
416,20.8,-13.057550737296024,-8.150595799577948,-13.082435625839217,-0.4915186414610062,0.20821768218231895,-1.1577735662782729,-0.016172002716174916,0.008160838945414639,-0.03993146861702712,0.0,70.0,255.0,255.0,255.0
417,20.85,-13.082146745760799,-8.140174609175949,-13.140374128204867,-0.4923522192519414,0.2086150502332984,-1.1597815982473314,-0.01730276693763244,0.007619480890852515,-0.040484684757657874,0.0,70.0,255.0,255.0,255.0
418,20.900000000000002,-13.106785959221218,-8.129734294554618,-13.19841378566395,-0.49324891815476946,0.2089796302714042,-1.1618220347540387,-0.018524281214737925,0.006952500733525824,-0.04113170618342821,0.0,70.0,255.0,255.0,255.0
419,20.950000000000003,-13.131471637576276,-8.119276646148808,-13.25655633168027,-0.4942046473734152,0.209310300306651,-1.1638947688656742,-0.01949439667363606,0.006365239988248561,-0.04168054750657291,0.0,70.0,255.0,255.0,255.0
420,21.0,-13.15620642395856,-8.108803264523953,-13.314803262550518,-0.49519835782213306,0.20961615427022906,-1.165990089504696,-0.019880425791107825,0.006055923820191822,-0.041943931083565644,0.0,70.0,255.0,255.0,255.0
421,21.05,-13.180991473358489,-8.098315030721785,-13.37315534063074,-0.49619268995252597,0.20991589268867017,-1.1680891619740308,-0.019518481949098998,0.006128310691799754,-0.04182590143724241,0.0,70.0,255.0,255.0,255.0
422,21.1,-13.205825692953812,-8.087811675255086,-13.43161217874792,-0.49715020601704296,0.21022898533940904,-1.1701726796484202,-0.018568404969165897,0.0065184508770244065,-0.041397991754621444,0.0,70.0,255.0,255.0,255.0
423,21.150000000000002,-13.230706493960193,-8.077292132187845,-13.490172608595582,-0.49804953044944256,0.2105677377763726,-1.172228961149493,-0.01735723250373411,0.007083697594012506,-0.04081338285342184,0.0,70.0,255.0,255.0,255.0
424,21.200000000000003,-13.255630645998757,-8.066754901477449,-13.54883507486287,-0.4988859292674164,0.2109373550988103,-1.1742540179337624,-0.016220192816795986,0.007680074752514088,-0.04022900774867111,0.0,70.0,255.0,255.0,255.0
425,21.25,-13.280595086886935,-8.056198396677964,-13.607598010388958,-0.49967154973112216,0.21133574525162402,-1.17625186192436,-0.015482685291878795,0.008169910317867846,-0.03980168824142538,0.0,70.0,255.0,255.0,255.0
426,21.3,-13.305597800971869,-8.045621326952286,-13.666460261055306,-0.5004341977966043,0.21175434613059707,-1.178234186757905,-0.015320130093243733,0.00847314439518243,-0.039617699524896466,0.0,70.0,255.0,255.0,255.0
427,21.35,-13.330638506666595,-8.035022962064904,-13.725421429064749,-0.5012035627404465,0.21218305969114226,-1.1802136318768497,-0.015654568895051568,0.008590351964343768,-0.03963971186156101,0.0,70.0,255.0,255.0,255.0
428,21.400000000000002,-13.355718157245914,-8.024403020983172,-13.784481624242991,-0.5019996546861094,0.21261338132703145,-1.182198157944061,-0.016296672221649544,0.008548233365424096,-0.03977923792977123,0.0,70.0,255.0,255.0,255.0
429,21.450000000000003,-13.380838472135206,-8.0137616239322,-13.843641244859155,-0.5028332299626115,0.21303788302768467,-1.1841915556698268,-0.017057745813531255,0.008374973822800058,-0.03994962196482987,0.0,70.0,255.0,255.0,255.0
430,21.5,-13.406001480242175,-8.003099232680404,-13.902900779809974,-0.5037054292674625,0.21345087870931145,-1.186193120140544,-0.017760861013194074,0.008108444233023704,-0.040057334596887983,0.0,70.0,255.0,255.0,255.0
431,21.55,-13.431209015061953,-7.99241653606127,-13.96226055687321,-0.5046093160639309,0.21384872745098704,-1.1881972891295156,-0.01829544989053744,0.007778086086140945,-0.04005052657021224,0.0,70.0,255.0,255.0,255.0
432,21.6,-13.456462411848568,-7.981714359935305,-14.021720508722925,-0.5055349742565163,0.21422868731792555,-1.1901981727975652,-0.018617888213334766,0.0074009804260199985,-0.039964093200772766,0.0,70.0,255.0,255.0,255.0
433,21.650000000000002,-13.481762512487604,-7.970993667329477,-14.081280374152966,-0.5064711048852644,0.21458882549358904,-1.1921936984495929,-0.01868983152455428,0.007004208106042853,-0.03986789386658529,0.0,70.0,255.0,255.0,255.0
434,21.700000000000003,-13.507109522337094,-7.960255477385946,-14.140939878567885,-0.5074039574089717,0.21492910812852983,-1.1941849621842238,-0.018469849571900454,0.006625717602215531,-0.03982630392496134,0.0,70.0,255.0,255.0,255.0
435,21.75,-13.532502908228501,-7.949500756516624,-14.200698870371388,-0.5083180898424544,0.2152513972538106,-1.196176328842089,-0.017917879980089424,0.006292350044834194,-0.03991694539831059,0.0,70.0,255.0,255.0,255.0
436,21.8,-13.55794133132134,-7.938730337660565,-14.260557511452093,-0.5091957454069806,0.21555834313301325,-1.1981766567240548,-0.017036531882297368,0.00602122454624876,-0.0401734809079457,0.0,70.0,255.0,255.0,255.0
437,21.85,-13.5834224827692,-7.927944922203323,-14.320516536043794,-0.5100217430306841,0.21585351970843547,-1.2001936769328836,-0.015956488972612703,0.005843022369589335,-0.04050391533496622,0.0,70.0,255.0,255.0,255.0
438,21.900000000000002,-13.608943505624408,-7.917144985689721,-14.380576879145382,-0.5107913943042419,0.2161426453699722,-1.2022270482575514,-0.014903908439478641,0.0057976381747870676,-0.04074918660421645,0.0,70.0,255.0,255.0,255.0
439,21.950000000000003,-13.634501622199624,-7.9063306576663255,-14.440739240869549,-0.511512133874632,0.21643328352591418,-1.2042685955933052,-0.014114604151593824,0.005915442481541078,-0.040758588908573756,0.0,70.0,255.0,255.0,255.0
440,22.0,-13.660094719011871,-7.89550165733713,-14.501003738704712,-0.5122028547194013,0.2167341896181263,-1.2063029071484088,-0.013803609743945344,0.006226118289998084,-0.040378939754148746,0.0,70.0,255.0,255.0,255.0
441,22.05,-13.685721907671564,-7.884657238704513,-14.56136953158439,-0.5128924948490265,0.21705589535491399,-1.20830648956872,-0.014072734934167386,0.006731328082398846,-0.03954795073148887,0.0,70.0,255.0,255.0,255.0
442,22.1,-13.711383968496774,-7.8737960678016385,-14.621834387661584,-0.513610128212818,0.21740732242636618,-1.2102577022215577,-0.014827204846845632,0.0073460909352007775,-0.038423788581809504,0.0,70.0,255.0,255.0,255.0
443,22.150000000000002,-13.737082920492846,-7.862916506461876,-14.682395301806546,-0.5143752153337111,0.21779050444843406,-1.212148868426901,-0.015861807444572662,0.00792440003483108,-0.0372934949146142,0.0,70.0,255.0,255.0,255.0
444,22.200000000000003,-13.762821490030145,-7.852017017356795,-14.743049274504274,-0.5151963089572753,0.2181997624298493,-1.2139870517130191,-0.016952759461474898,0.00831353811241442,-0.03644488822818204,0.0,70.0,255.0,255.0,255.0
445,22.25,-13.788602551388573,-7.841096530218891,-14.803794006977848,-0.5160704912798586,0.2186218582596755,-1.2157933572497193,-0.01789164374894625,0.008359167470661788,-0.036151258288619204,0.0,70.0,255.0,255.0,255.0
446,22.3,-13.814428539158131,-7.830154831530828,-14.864628610229246,-0.5169854733321699,0.21903567917691547,-1.217602177541881,-0.018553554023270635,0.00799295030402547,-0.03654231523224638,0.0,70.0,255.0,255.0,255.0
447,22.35,-13.84030109872179,-7.8191929623012,-14.925554224732036,-0.5179258466821857,0.21942115329007805,-1.219447588772944,-0.018901964366158097,0.00733708941469402,-0.03747197928838375,0.0,70.0,255.0,255.0,255.0
448,22.400000000000002,-13.86622112382635,-7.80821271620182,-14.98657336910654,-0.5188756697687857,0.21976938811838487,-1.2213493754707194,-0.01891991073250665,0.006621125322414656,-0.0386441064666343,0.0,70.0,255.0,255.0,255.0
449,22.450000000000003,-13.892188665698669,-7.797216023489361,-15.047689162279108,-0.5198178377554363,0.22008326582231952,-1.2233119994196073,-0.01859538364499258,0.006083178961091562,-0.03974959710770776,0.0,70.0,255.0,255.0,255.0
450,22.5,-13.918202907601893,-7.786204389619588,-15.108904569048502,-0.520735208133285,0.22037770601449402,-1.2253243351814902,-0.017917833909031344,0.005973202502751462,-0.04049201776474831,0.0,70.0,255.0,255.0,255.0
451,22.55,-13.944262186511997,-7.775178252887912,-15.170221595797257,-0.5216096211463395,0.22068058607259466,-1.2273612011960822,-0.016910997689834062,0.0064101574150932095,-0.04071001444589939,0.0,70.0,255.0,255.0,255.0
452,22.6,-13.970363869716527,-7.764136331012328,-15.23164068916811,-0.5224263079022684,0.22101872175600334,-1.2293953366260801,-0.015726616009104077,0.00722014348095712,-0.04045733855466693,0.0,70.0,255.0,255.0,255.0
453,22.650000000000002,-13.996504817302224,-7.7530763807123115,-15.293161129459865,-0.5231822827472499,0.22140260042069038,-1.2314069350515489,-0.014620227946693376,0.008076506600751543,-0.03988019576848245,0.0,70.0,255.0,255.0,255.0
454,22.700000000000003,-14.022682097991252,-7.741996070970259,-15.354781382673265,-0.5238883306969377,0.2218263724160785,-1.2333833562029284,-0.013863654677948034,0.008653885903253666,-0.03913052287423113,0.0,70.0,255.0,255.0,255.0
455,22.75,-14.048893650371918,-7.730893743470704,-15.416499465080157,-0.5245686482150447,0.22226798901101574,-1.235319987338972,-0.01372503926262425,0.008616087785995319,-0.03836067065208226,0.0,70.0,255.0,255.0,255.0
456,22.8,-14.075138962812757,-7.719769272069158,-15.478313381407162,-0.5252608346232002,0.22268798119467803,-1.2372194232681366,-0.014323480857214577,0.007806047075309408,-0.03766937523632663,0.0,70.0,255.0,255.0,255.0
457,22.85,-14.101419733834238,-7.708624945351236,-15.540221407406971,-0.5260009963007661,0.22304859371854668,-1.2390869248626046,-0.015462620549122619,0.0064695161494654485,-0.03709586929137032,0.0,70.0,255.0,255.0,255.0
458,22.900000000000002,-14.127739062442833,-7.697464412697303,-15.602222073893422,-0.5268070966781124,0.22333493280962458,-1.2409290101972736,-0.016766450210425887,0.005066507948114918,-0.03668042514508585,0.0,70.0,255.0,255.0,255.0
459,22.950000000000003,-14.154100443502049,-7.686291452070273,-15.664314308426698,-0.5276776413218087,0.22355524451335818,-1.2427549673771132,-0.01784444985748479,0.004053911457457815,-0.036473486219890106,0.0,70.0,255.0,255.0,255.0
460,23.0,-14.180506826575014,-7.675108888245967,-15.726497570631134,-0.5285915416638609,0.22374032395537036,-1.2445763588192627,-0.0183100276855086,0.0038863624379104067,-0.03651732759841764,0.0,70.0,255.0,255.0,255.0
461,23.05,-14.206959597668435,-7.663917419674736,-15.788771944308625,-0.5295086440903596,0.22394388075714922,-1.246406700136955,-0.017968505454213357,0.004779826778733565,-0.03682022353732606,0.0,70.0,255.0,255.0,255.0
462,23.1,-14.23345769098405,-7.652714500170252,-15.85113824064483,-0.5303883922092822,0.2242183066332437,-1.2482583811729953,-0.016993717646052175,0.006450136909030846,-0.03731564115661001,0.0,70.0,255.0,255.0,255.0
463,23.150000000000002,-14.259998436889363,-7.641495589011412,-15.913597782425924,-0.5312080158549648,0.2245888944480523,-1.250138264252616,-0.015743155364233985,0.008347438296318899,-0.03787996845296959,0.0,70.0,255.0,255.0,255.0
464,23.200000000000003,-14.286578492569546,-7.630255610725447,-15.97615206707009,-0.5319627077457056,0.2250530504628756,-1.2520463780182922,-0.01457840603205085,0.009918347054238552,-0.038376557887787044,0.0,70.0,255.0,255.0,255.0
465,23.25,-14.313194707663934,-7.6189902839651245,-16.038802420227753,-0.5326658564581699,0.22558072915347616,-1.2539759200413947,-0.013854803371948776,0.010626527731005808,-0.03868200030510138,0.0,70.0,255.0,255.0,255.0
466,23.3,-14.339845078215363,-7.6076975378100995,-16.10154965907423,-0.5333481880829005,0.22611570323597618,-1.2559145780488024,-0.013761844645365784,0.010200986136688073,-0.038729730613873414,0.0,70.0,255.0,255.0,255.0
467,23.35,-14.366529526472224,-7.596378713641527,-16.164393878032634,-0.5340420409227065,0.22660082776714496,-1.257848893102782,-0.014193464577338943,0.008865227589271996,-0.038526974007879744,0.0,70.0,255.0,255.0,255.0
468,23.400000000000002,-14.393249282307634,-7.585037455033385,-16.22733454838451,-0.5347675345406344,0.22700222599490338,-1.2597672754495903,-0.014910811783686029,0.007089286652117721,-0.03811429311753045,0.0,70.0,255.0,255.0,255.0
469,23.450000000000003,-14.420006279926287,-7.5736784910420365,-16.290370605577593,-0.5355331221010751,0.22730975643235674,-1.261660322414535,-0.015674839768387017,0.005352047644802127,-0.03754028222964223,0.0,70.0,255.0,255.0,255.0
470,23.5,-14.446802594517742,-7.562306479390149,-16.353500580625962,-0.5363350185174731,0.2275374307593836,-1.2635213036725546,-0.01624278679734914,0.0041154986658575865,-0.03684268982873107,0.0,70.0,255.0,255.0,255.0
471,23.55,-14.473639781778035,-7.550924747966098,-16.416722735944848,-0.53715740078081,0.2277213062989425,-1.2653445913974082,-0.016478568178435182,0.0036350631740234007,-0.03605982836596411,0.0,70.0,255.0,255.0,255.0
472,23.6,-14.500518334595823,-7.539534348760255,-16.480035039765703,-0.5379828753353166,0.22790093707678594,-1.267127286509151,-0.016436992808621653,0.0038362720813367446,-0.035294598010793266,0.0,70.0,255.0,255.0,255.0
473,23.650000000000002,-14.527438069311566,-7.5281346542584195,-16.543435464595763,-0.5388011000616721,0.22810493350707617,-1.2688740511984875,-0.01624735041563241,0.004509774069205719,-0.03470640220086807,0.0,70.0,255.0,255.0,255.0
474,23.700000000000003,-14.55439844460199,-7.5167238554095475,-16.60692244488555,-0.5396076103768799,0.2283519144837065,-1.2705979267292378,-0.016029833963493445,0.005445863298447762,-0.03445457426565213,0.0,70.0,255.0,255.0,255.0
475,23.75,-14.581398830349254,-7.505299462810049,-16.670495257268687,-0.5404040834580215,0.22864951983692094,-1.2723195086250527,-0.015914002817751793,0.006439496253030086,-0.034695212406887777,0.0,70.0,255.0,255.0,255.0
476,23.8,-14.608438852947792,-7.493858903425855,-16.734154395748057,-0.541199010658655,0.22899586410900952,-1.2740674479699265,-0.015969943246041396,0.007354239023626974,-0.035485781098287816,0.0,70.0,255.0,255.0,255.0
477,23.85,-14.63551873141512,-7.482399876399148,-16.79790200206568,-0.5420010777826256,0.22938494373928364,-1.2758680867348815,-0.016137631787138673,0.008113413689248006,-0.036649319264014935,0.0,70.0,255.0,255.0,255.0
478,23.900000000000002,-14.662638960726055,-7.470920409051927,-16.861741204421545,-0.5428127738373689,0.22980720547793432,-1.277732379896328,-0.016301558117426396,0.008624530823375665,-0.037862895279516806,0.0,70.0,255.0,255.0,255.0
479,23.950000000000003,-14.689800008798857,-7.4594191558513545,-16.925675240055313,-0.5436312335943683,0.2302473968216212,-1.2796543762628332,-0.016358738131039274,0.008779837156946968,-0.03878967245611875,0.0,70.0,255.0,255.0,255.0
480,24.0,-14.717002084085491,-7.447895669369765,-16.989706642047828,-0.5444486476504729,0.23068518919362901,-1.28161134714194,-0.01620525787355831,0.008474488349818898,-0.039096460544385536,0.0,70.0,255.0,255.0,255.0
481,24.05,-14.744244873563904,-7.436350636931992,-17.053836374769507,-0.5452517593817241,0.2310948456566031,-1.2835640223172717,-0.01579457259062167,0.007679728983589484,-0.03862324770764758,0.0,70.0,255.0,255.0,255.0
482,24.1,-14.771527260023664,-7.424786184804105,-17.118063044279555,-0.546028104909535,0.23145316209198796,-1.2854736719127047,-0.015214251604867002,0.006555387847217986,-0.037558008382987396,0.0,70.0,255.0,255.0,255.0
483,24.150000000000002,-14.798847684054858,-7.413205320722793,-17.182383741960777,-0.5467731845422108,0.2317503844413249,-1.2873198231555705,-0.014625484713270964,0.005389305434366776,-0.03627297238999461,0.0,70.0,255.0,255.0,255.0
484,24.200000000000003,-14.826204578477885,-7.401611146359972,-17.246795026595112,-0.5474906533808621,0.23199209263542464,-1.2891009691517041,-0.014187987405556157,0.004486536326187007,-0.03515279651651326,0.0,70.0,255.0,255.0,255.0
485,24.25,-14.853596749392944,-7.39000611145925,-17.311293838875947,-0.5481919832827664,0.2321990380739436,-1.2908351028072218,-0.014056947038909584,0.0041425503474634695,-0.034590926768274244,0.0,70.0,255.0,255.0,255.0
486,24.3,-14.881023776806162,-7.378391242552578,-17.375878536875835,-0.5488963480847531,0.232406347670171,-1.2925600618285316,-0.014305565925099017,0.004500644574800816,-0.03478728867740699,0.0,70.0,255.0,255.0,255.0
487,24.35,-14.908486384201419,-7.366765476692233,-17.4405498450588,-0.5496225398752763,0.23264910253142368,-1.2943138316749625,-0.014840886270661713,0.005415151471410695,-0.035549602916162826,0.0,70.0,255.0,255.0,255.0
488,24.400000000000002,-14.93598603079369,-7.355126332299435,-17.50530992004333,-0.5503804367118192,0.23294786281731206,-1.2961150221201478,-0.015480139392920478,0.006587291728621381,-0.03649509861105571,0.0,70.0,255.0,255.0,255.0
489,24.450000000000003,-14.963524427872601,-7.343470690410502,-17.570161347270815,-0.5511705538145684,0.23330783170428582,-1.297963341536068,-0.016036538353070284,0.007707956933344917,-0.03724548180521481,0.0,70.0,255.0,255.0,255.0
490,24.5,-14.991103086175146,-7.331795549129007,-17.635106254196938,-0.5519840905471263,0.23371865851064655,-1.2998395703006693,-0.016330963294031164,0.008483328908237553,-0.037415916296623664,0.0,70.0,255.0,255.0,255.0
491,24.55,-15.018722836927314,-7.320098824559437,-17.700145304300882,-0.5528036501439715,0.23415616459510957,-1.3017049331657304,-0.016269876995167465,0.008751632110470808,-0.036814450729139025,0.0,70.0,255.0,255.0,255.0
492,24.6,-15.046383451189543,-7.308379932669496,-17.76527674751351,-0.553611078246643,0.23459382172169363,-1.3035210153735832,-0.01590761124017348,0.008553050555892838,-0.0356516918419203,0.0,70.0,255.0,255.0,255.0
493,24.650000000000002,-15.074083944751978,-7.296639442387268,-17.83049740583824,-0.5543944112679888,0.23501146965069886,-1.3052701023499225,-0.015368549791183739,0.008011644201744161,-0.03433852127656678,0.0,70.0,255.0,255.0,255.0
494,24.700000000000003,-15.101822892316342,-7.284878785704426,-17.895803757748503,-0.5551479332257614,0.23539498614186805,-1.30695486750124,-0.014779145893761836,0.007255435474728955,-0.03327842311513507,0.0,70.0,255.0,255.0,255.0
495,24.75,-15.129598738074554,-7.273099943773081,-17.961192892588365,-0.555872325857365,0.23573701319817175,-1.308597944661436,-0.014255190458278832,0.0064041340187337426,-0.032869324128270705,0.0,70.0,255.0,255.0,255.0
496,24.8,-15.157410124902079,-7.261305084384609,-18.026663552214647,-0.5565734522715893,0.23603539954374142,-1.310241799914067,-0.013867699986391813,0.005544575235028049,-0.033308568080769874,0.0,70.0,255.0,255.0,255.0
497,24.85,-15.185256083301713,-7.249496403818707,-18.09221707257977,-0.5572590958560042,0.23629147072167456,-1.311928801469513,-0.013645032408504676,0.004769849103336554,-0.03439374626665881,0.0,70.0,255.0,255.0,255.0
498,24.900000000000002,-15.213136034487679,-7.237675937312441,-18.157856432361598,-0.5579379555124397,0.23651238445407508,-1.3136811745407329,-0.013610136969255393,0.0042114461495046385,-0.03571986057124832,0.0,70.0,255.0,255.0,255.0
499,24.950000000000003,-15.241049878852957,-7.2258451653733,-18.223585190033845,-0.5586201095529297,0.23671261533662502,-1.3155007875266378,-0.013786365248691368,0.004008762705520752,-0.0368814784163618,0.0,70.0,255.0,255.0,255.0
500,25.0,-15.268998045442972,-7.214004675778779,-18.28940651111426,-0.5593165920373089,0.23691326072462715,-1.317369322382369,-0.014204265546524653,0.0043001350167770624,-0.03748683380884188,0.0,70.0,255.0,255.0,255.0
501,25.05,-15.296981538056688,-7.202153839300837,-18.35532212227208,-0.5600405361075822,0.23714262883830273,-1.319249470907522,-0.014860348701972725,0.0051316054110905895,-0.03733141680761776,0.0,70.0,255.0,255.0,255.0
502,25.1,-15.32500209905373,-7.1902904128949485,-18.421331458205014,-0.5608026269075062,0.2374264212657362,-1.3211024640631308,-0.015631419966766202,0.006322238346090359,-0.03654413894231823,0.0,70.0,255.0,255.0,255.0
503,25.150000000000002,-15.353061800747438,-7.178411197174263,-18.487432368678395,-0.5616036781042588,0.23777485267291176,-1.3229038848017538,-0.016310063170266176,0.0075453684029724855,-0.03541122058692281,0.0,70.0,255.0,255.0,255.0
504,25.200000000000003,-15.381162466864156,-7.166512927627657,-18.55362184668519,-0.5624336332245328,0.23818095810603346,-1.324643586121823,-0.016683132038153303,0.008457765450842203,-0.03422223664877322,0.0,70.0,255.0,255.0,255.0
505,25.25,-15.409305164069892,-7.15459310136366,-18.619896727290577,-0.5632719913080741,0.23862062921799598,-1.3263261084666311,-0.01653576600393336,0.008715325913755123,-0.03325532198665826,0.0,70.0,255.0,255.0,255.0
506,25.3,-15.437489665994963,-7.142650864705858,-18.686254457531852,-0.5640872098249261,0.23905249069740897,-1.327969118320489,-0.015776592852745353,0.008155203586923676,-0.032671312472132286,0.0,70.0,255.0,255.0,255.0
507,25.35,-15.465713885052384,-7.130687852293919,-18.752693639122626,-0.5648496505933487,0.23943614957668835,-1.3295932397138444,-0.014595534810446509,0.006991080962848173,-0.032462425239287995,0.0,70.0,255.0,255.0,255.0
508,25.400000000000002,-15.493974631054298,-7.118707249748189,-18.819213781503237,-0.5655467633059708,0.2397515987936938,-1.3312153608444177,-0.013345041583257,0.005638035949484532,-0.032564208131447,0.0,70.0,255.0,255.0,255.0
509,25.450000000000003,-15.522268561382981,-7.10671269241455,-18.885815175207068,-0.5661841547516744,0.2399999531716368,-1.332849660526989,-0.012386654384677342,0.004519522810841892,-0.03291526263424771,0.0,70.0,255.0,255.0,255.0
510,25.5,-15.550593046529466,-7.094707254431025,-18.952498747555936,-0.5667854287444385,0.24020355107477798,-1.3345068871078425,-0.0120806424654063,0.004058514708304983,-0.03345588756467066,0.0,70.0,255.0,255.0,255.0
511,25.55,-15.578947104257425,-7.082692337307072,-19.019265863917852,-0.567392218998215,0.2404058046424673,-1.3361952492834561,-0.01260036613288662,0.004467440381006327,-0.03413158505196634,0.0,70.0,255.0,255.0,255.0
512,25.6,-15.607332268429287,-7.0706666739667785,-19.08611827248428,-0.5680454653577272,0.2406502951128786,-1.3379200456130391,-0.013736557342980404,0.0055426219522480835,-0.03484625334309044,0.0,70.0,255.0,255.0,255.0
513,25.650000000000002,-15.635751650793198,-7.058627307795784,-19.153057868479156,-0.568765874732513,0.2409600668376921,-1.3396798746177652,-0.015078814787017336,0.0068733036489021515,-0.03544933616410617,0.0,70.0,255.0,255.0,255.0
514,25.700000000000003,-15.664208855902539,-7.046570667283009,-19.220086259946058,-0.5695533468364289,0.24133762547776882,-1.3414649792294497,-0.016210903104152408,0.008050996451824943,-0.035778251277562845,0.0,70.0,255.0,255.0,255.0
515,25.75,-15.69270698547684,-7.034493545248007,-19.2872043664021,-0.5703869650429283,0.2417651664828746,-1.3432576997455214,-0.016721710753309083,0.008682689845329605,-0.035677118427912546,0.0,70.0,255.0,255.0,255.0
516,25.8,-15.721247552406831,-7.022394150634722,-19.35441202992061,-0.5712255179117598,0.24220589446230179,-1.345032691072241,-0.016402082474620272,0.008561888036240362,-0.035081321677310484,0.0,70.0,255.0,255.0,255.0
517,25.85,-15.749829537268017,-7.010272955801777,-19.421707635509325,-0.5720271732903903,0.24262135528649864,-1.3467658319132525,-0.015429051669180183,0.00780924707957098,-0.03411880847750126,0.0,70.0,255.0,255.0,255.0
518,25.900000000000002,-15.77845026973587,-6.998132015106072,-19.489088613111935,-0.5727684230786778,0.24298681917025888,-1.3484445719199911,-0.014168883419252154,0.006697933603927453,-0.03303387844866279,0.0,70.0,255.0,255.0,255.0
519,25.950000000000003,-15.807106379575885,-6.985974273884751,-19.556552092701324,-0.5734440616323155,0.2432911486468914,-1.3500692197581188,-0.012989593338730288,0.005503064808287661,-0.032083993328058114,0.0,70.0,255.0,255.0,255.0
520,26.0,-15.835794675899102,-6.973802900241383,-19.624095535087747,-0.5740673824125508,0.24353712565108765,-1.351652971252797,-0.012252467900353281,0.004482707261921348,-0.031515638722012795,0.0,70.0,255.0,255.0,255.0
521,26.05,-15.86451311781714,-6.961620561319642,-19.691717389826604,-0.5746693084223509,0.24373941937308352,-1.35322078363032,-0.012150651287790026,0.0037905552587425007,-0.03145641495372331,0.0,70.0,255.0,255.0,255.0
522,26.1,-15.893261606741337,-6.9494289583040745,-19.75941761345078,-0.5752824475413298,0.2439161811769619,-1.3547986127481693,-0.012578191691048346,0.0034531170026497193,-0.031830400859433894,0.0,70.0,255.0,255.0,255.0
523,26.150000000000002,-15.922041362571273,-6.937228943201946,-19.82719725110142,-0.5759271275914557,0.2440847310733485,-1.3564038237162634,-0.013295534986035307,0.003463912985779416,-0.03246326192645199,0.0,70.0,255.0,255.0,255.0
524,26.200000000000003,-15.950854319500483,-6.92502048519674,-19.895057995822405,-0.5766120010399334,0.24426257247553984,-1.3580449389408145,-0.014063637293659781,0.0038157186745380045,-0.03317248869763034,0.0,70.0,255.0,255.0,255.0
525,26.25,-15.979702562675266,-6.912802685954392,-19.963001744995502,-0.5773334913208217,0.2444663029408023,-1.3597210725860265,-0.014640445617608577,0.004498462457913632,-0.03378032668557296,0.0,70.0,255.0,255.0,255.0
526,26.3,-16.008587668632565,-6.900573854902659,-20.031030103081008,-0.5780760456016942,0.2447124187213312,-1.3614229716093718,-0.014889764587877607,0.0054779422092643415,-0.03418075743581994,0.0,70.0,255.0,255.0,255.0
527,26.35,-16.037510167235435,-6.888331444082259,-20.09914404215644,-0.5788224677796094,0.24501409716172873,-1.3631391483296085,-0.014862750330202346,0.0066166065883166425,-0.0343641568470332,0.0,70.0,255.0,255.0,255.0
528,26.400000000000002,-16.066469915410526,-6.8760724451864865,-20.16734401791397,-0.5795623206347145,0.24537407938016287,-1.364859387294075,-0.014682729551651619,0.007684736133128922,-0.03434682675660383,0.0,70.0,255.0,255.0,255.0
529,26.450000000000003,-16.095466399298907,-6.863794036144243,-20.235629980885847,-0.5802907407347746,0.24578257077504162,-1.3665738310052689,-0.014463456554736354,0.008436111776255473,-0.034140364238055554,0.0,70.0,255.0,255.0,255.0
530,26.5,-16.124498989484003,-6.851494188108982,-20.304001401014496,-0.5810086662901881,0.24621769055778842,-1.3682734237178806,-0.01432570301034275,0.008635424257530389,-0.0337550358906924,0.0,70.0,255.0,255.0,255.0
531,26.55,-16.153567265927926,-6.839172267088464,-20.372457323257635,-0.5817233110358089,0.24664611320079466,-1.369949334594338,-0.014336350965749034,0.008176650262203822,-0.03321281637482798,0.0,70.0,255.0,255.0,255.0
532,26.6,-16.182671320587584,-6.826829576788903,-20.44099633447393,-0.582442301386763,0.2470353555840088,-1.3715947053553634,-0.014449874586475175,0.007209407693498093,-0.032593810909631316,0.0,70.0,255.0,255.0,255.0
533,26.650000000000002,-16.211811496066602,-6.814468731530063,-20.50961679379317,-0.5831682984944564,0.24736705397014447,-1.3732087156853012,-0.01457531837125714,0.006029869754708983,-0.03203027020681759,0.0,70.0,255.0,255.0,255.0
534,26.700000000000003,-16.24098815043703,-6.8020928713918885,-20.57831720604246,-0.5838998332238887,0.2476383425594797,-1.3747977323760452,-0.014635450238742465,0.004952095292409808,-0.03166502871465582,0.0,70.0,255.0,255.0,255.0
535,26.75,-16.27020147938899,-6.789704897274115,-20.647096567030776,-0.5846318435183306,0.24786226349938545,-1.3763752185567668,-0.014560798283724807,0.004283849835928777,-0.03164353907649797,0.0,70.0,255.0,255.0,255.0
536,26.8,-16.299451334788863,-6.77730664504195,-20.715954727898136,-0.5853559130522612,0.24806672754307257,-1.377962086283695,-0.014317745302960816,0.004188230634660783,-0.0320284898805312,0.0,70.0,255.0,255.0,255.0
