idx,t,px,py,pz,vx,vy,vz,ax,ay,az,yaw,mode,ledr,ledg,ledb
0,0.0,10.5,-4.500000000000001,7.845582115685684e-19,0.0001161955456296937,-4.1278778439846064e-05,0.0015715230422518548,0.014958696362654678,0.004275191856351057,-0.04034348694834565,0.0,70.0,255.0,255.0,255.0
1,0.05,10.500005809777281,-4.500002063938923,7.857615211259353e-05,0.0008641303637624276,0.0001724808143777068,-0.0004456513051654277,0.022668207498632853,0.006378388802463775,-0.06027229455397528,0.0,70.0,255.0,255.0,255.0
2,0.1,10.500086413036376,-4.499982751918563,-4.456513051654198e-05,0.002383016295492979,0.0005965601018065314,-0.004455706413145673,0.0308380445439127,0.008412787784362052,-0.0797152304225185,0.0,70.0,255.0,255.0,255.0
3,0.15000000000000002,10.50024411140683,-4.499942407928742,-0.00036699448920197384,0.003947934818153698,0.001013759592813912,-0.008417174347417278,0.03175869636482531,0.008275191855044994,-0.0787434869483498,0.0,70.0,255.0,255.0,255.0
4,0.2,10.500481206518192,-4.499881375959282,-0.0008862825652582699,0.00555888593197551,0.0014240792873110308,-0.012330055107980655,0.03268523598372042,0.008134709299145726,-0.07776478382087375,0.0,70.0,255.0,255.0,255.0
5,0.25,10.500800000000028,-4.499800000000011,-0.0016000000000000395,0.0072164584165257395,0.0018272305227284846,-0.016193652729504654,0.033645630450429564,0.007977628635202905,-0.0767460626868895,0.0,70.0,255.0,255.0,255.0
6,0.30000000000000004,10.501202852359844,-4.499698652907009,-0.0025056478382087352,0.008923448977018467,0.0022218421508313213,-0.020004661376669605,0.03464887502495628,0.007799539732911143,-0.0756766907427522,0.0,70.0,255.0,255.0,255.0
7,0.35000000000000003,10.50169234489773,-4.499577815784928,-0.003600466137667,0.010681345919021368,0.002607184496019599,-0.023761321803779874,0.035618264749359696,0.007638048939462294,-0.07464733680511905,0.0,70.0,255.0,255.0,255.0
8,0.4,10.502270986951746,-4.499437934457407,-0.004881780018586723,0.012485275451954436,0.0029856470447775507,-0.02746939505718151,0.0364313006608441,0.007553214153954713,-0.0738028003274534,0.0,70.0,255.0,255.0,255.0
9,0.45,10.502940872442926,-4.49927925108045,-0.006347405643385151,0.014324475985105778,0.00336250591141507,-0.031141601836525215,0.03698644141376661,0.007597979064577487,-0.07326677428457398,0.0,70.0,255.0,255.0,255.0
10,0.5,10.503703434550257,-4.499101683866265,-0.007995940202239244,0.016183919593331098,0.0037454449512352994,-0.03479607248563891,0.03720860513265478,0.007824167766390389,-0.07314542428664153,0.0,70.0,255.0,255.0,255.0
11,0.55,10.504559264402259,-4.498904706585327,-0.009827012891949042,0.018045336498371256,0.004144922688054109,-0.03845614426518937,0.03707295404513644,0.008248786446252154,-0.07347371116187357,0.0,70.0,255.0,255.0,255.0
12,0.6000000000000001,10.505507968200094,-4.49868719159746,-0.011841554628758182,0.01989121499784474,0.004570323595860515,-0.042143443601826265,0.036643556349780226,0.008799246833834928,-0.07412813842166292,0.0,70.0,255.0,255.0,255.0
13,0.65,10.506548385902043,-4.498447674225741,-0.014041357252131669,0.02170969213334928,0.005024847371437602,-0.04586895810735566,0.0360502649034089,0.009346124724007865,-0.07487893269810461,0.0,70.0,255.0,255.0,255.0
14,0.7000000000000001,10.507678937413429,-4.498184706860316,-0.016428450439493748,0.023496241488185632,0.005504936068261301,-0.049631336871636726,0.03544910968305004,0.009757736209525802,-0.07547137843259034,0.0,70.0,255.0,255.0,255.0
15,0.75,10.508898010050862,-4.4978971806189145,-0.019004490939295342,0.025254603101654283,0.006000620992390182,-0.053416095950614695,0.0350016633847261,0.00991134758292489,-0.0756342469093766,0.0,70.0,255.0,255.0,255.0
16,0.8,10.510204397723594,-4.497584644761077,-0.021770060034555217,0.026996407826658242,0.00649607082655379,-0.05719476156257439,0.03479759752593736,0.009748628321215591,-0.07523530449024644,0.0,70.0,255.0,255.0,255.0
17,0.8500000000000001,10.511597650833528,-4.497247573536259,-0.02472396709555278,0.02873436285424802,0.006975483824511741,-0.06093962639963934,0.03480294108832993,0.009329439249672333,-0.07444644983457219,0.0,70.0,255.0,255.0,255.0
18,0.9,10.51307783400902,-4.496887096378626,-0.02786402267451915,0.030476701935491235,0.007429014751521024,-0.0646394065460316,0.03493388681015119,0.008778650586105385,-0.07359428939295136,0.0,70.0,255.0,255.0,255.0
19,0.9500000000000001,10.514645321027077,-4.496504672061107,-0.03118790775015594,0.03222775153526314,0.00785334888312228,-0.06829905533893448,0.035109520784359916,0.008230563276789837,-0.07300137165872495,0.0,70.0,255.0,255.0,255.0
20,1.0,10.516300609162545,-4.496101761490314,-0.0346939282084126,0.033987654013927227,0.008252071079200007,-0.0719395437119041,0.03524478794894037,0.007818460550357287,-0.07299749483575674,0.0,70.0,255.0,255.0,255.0
21,1.05,10.51804408642847,-4.495679464953187,-0.03838186212134635,0.035752230330157175,0.008635194938158008,-0.07559880482251015,0.0352905952466287,0.0076161874483560155,-0.07373873055080318,0.0,70.0,255.0,255.0,255.0
22,1.1,10.519875832195561,-4.495238241996498,-0.04225380869066361,0.037516713538590096,0.009013689824035609,-0.07931341676698442,0.03526561169806541,0.007599359803212025,-0.07499888275287192,0.0,70.0,255.0,255.0,255.0
23,1.1500000000000001,10.521795757782328,-4.4947780959707835,-0.046313203798044794,0.03927879149996372,0.009395130918479211,-0.08309869309779734,0.03521241629353966,0.0077037484564890235,-0.07635025005643253,0.0,70.0,255.0,255.0,255.0
24,1.2000000000000002,10.523803711345558,-4.49429872890465,-0.05056367800044335,0.04103795516794406,0.009784064669684511,-0.08694844177262767,0.035166606714120974,0.007866211149742952,-0.07737050089987735,0.0,70.0,255.0,255.0,255.0
25,1.25,10.525899553299123,-4.493799689503815,-0.05500804797530756,0.042795452171375814,0.010181752033453506,-0.09083574318778508,0.03516715684828142,0.008022828863030185,-0.07765185766367699,0.0,70.0,255.0,255.0,255.0
26,1.3,10.528083256562695,-4.493280553701305,-0.059647252319221855,0.044554670852772205,0.01058634755598753,-0.09471362753899537,0.03523330820041082,0.00813384799229766,-0.07699560081236914,0.0,70.0,255.0,255.0,255.0
27,1.35,10.5303550203844,-4.492741054748216,-0.0644794107292071,0.046318782991416896,0.010995136832683272,-0.09853530326902199,0.03533461211748801,0.008194053938481716,-0.07560967416559983,0.0,70.0,255.0,255.0,255.0
28,1.4000000000000001,10.532715134861837,-4.492181040018036,-0.06950078264612405,0.048088132064521005,0.011405752949835701,-0.10227459495555535,0.035416448014480295,0.008204584027371453,-0.07391473369134649,0.0,70.0,255.0,255.0,255.0
29,1.4500000000000002,10.535163833590852,-4.491600479453233,-0.07470687022476263,0.049860427792864925,0.011815595235420417,-0.10592677663815664,0.035430765647603835,0.00815839165850818,-0.07234217252731351,0.0,70.0,255.0,255.0,255.0
30,1.5,10.537701177641123,-4.490999480494494,-0.08009346030993972,0.05163120862928139,0.01222159211568652,-0.1095088122082867,0.03533861263189664,0.008038196024529043,-0.07131106518551283,0.0,70.0,255.0,255.0,255.0
31,1.55,10.54032695445378,-4.490378320241664,-0.0856577514455913,0.05339428905605459,0.012619414837873322,-0.11305788315670792,0.035122372418250336,0.007841707294975464,-0.0710449268057814,0.0,70.0,255.0,255.0,255.0
32,1.6,10.543040606546729,-4.489737539010707,-0.09139924862561051,0.05514344587110642,0.013005762845184066,-0.11661330488886484,0.034797711391831854,0.007624424442731481,-0.0714306723329991,0.0,70.0,255.0,255.0,255.0
33,1.6500000000000001,10.545841299040891,-4.489077743957146,-0.09731908193447779,0.056874060195237774,0.01338185728214647,-0.12020095039000783,0.03440085924601988,0.0074779154352278,-0.07220340259077723,0.0,70.0,255.0,255.0,255.0
34,1.7000000000000002,10.548728012566253,-4.488399353282492,-0.1034193436646113,0.05858353179570841,0.013753554388706846,-0.12383364514794257,0.03396981787524567,0.007493508930167536,-0.07309372274378473,0.0,70.0,255.0,255.0,255.0
35,1.75,10.551699652220462,-4.487702388518275,-0.10970244644927205,0.06027104198276234,0.014131208175163223,-0.1275103226643863,0.033522401949603875,0.007772359066038348,-0.07383190024227021,0.0,70.0,255.0,255.0,255.0
36,1.8,10.554755116764529,-4.486986232464976,-0.11617037593104992,0.0619357719906688,0.01453079029531068,-0.1312168351721696,0.033077202128239946,0.008353122361004495,-0.0742596569994633,0.0,70.0,255.0,255.0,255.0
37,1.85,10.557893229419529,-4.486249309488744,-0.122824129966489,0.06357876219558634,0.014966520411263673,-0.13493628836433263,0.032711838351495715,0.009106476728693025,-0.07439313766793576,0.0,70.0,255.0,255.0,255.0
38,1.9000000000000001,10.561112992984087,-4.48548958042385,-0.1296640047674832,0.06520695582581837,0.015441437968179983,-0.13865614893896316,0.032542818963143816,0.009804686633252402,-0.0743036372975292,0.0,70.0,255.0,255.0,255.0
39,1.9500000000000002,10.56441392500211,-4.484705165691926,-0.13668974486038532,0.06683304409190072,0.015946989074588913,-0.14236665209408556,0.03267653627787581,0.010221512014929601,-0.07405104838564547,0.0,70.0,255.0,255.0,255.0
40,2.0,10.567796297393278,-4.483894881516391,-0.14390066997689174,0.06847460945360595,0.016463589169672943,-0.1460612537775277,0.03322371430236615,0.010132414330854544,-0.0737012872253473,0.0,70.0,255.0,255.0,255.0
41,2.0500000000000003,10.571261385947471,-4.483058806774959,-0.1512958702381381,0.07015541552213733,0.016960230507674368,-0.14973678081662029,0.034216930957953196,0.009438204193035205,-0.07330199298191398,0.0,70.0,255.0,255.0,255.0
42,2.1,10.574811838945491,-4.482198858465623,-0.15887434805855377,0.07189630254940127,0.017407409588976464,-0.1533914530757191,0.03547232447793647,0.008315915728829282,-0.07287761615611399,0.0,70.0,255.0,255.0,255.0
43,2.15,10.578451016202411,-4.481318065816061,-0.16663501554571,0.07370264796993098,0.017791822080557296,-0.15702454243223168,0.036667958141123336,0.007098769267965821,-0.07246288737994822,0.0,70.0,255.0,255.0,255.0
44,2.2,10.582182103742484,-4.480419676257568,-0.17457680230177694,0.0755630983635136,0.018117286515773046,-0.16063774181371393,0.03747900204995602,0.006125990795879943,-0.07210777135931434,0.0,70.0,255.0,255.0,255.0
45,2.25,10.586007326038763,-4.479506337164484,-0.1826987897270814,0.07745054817492658,0.01840442116014529,-0.16423531956816312,0.037598778137137856,0.0057259556381694665,-0.07185898815237346,0.0,70.0,255.0,255.0,255.0
46,2.3000000000000003,10.589927158559977,-4.478579234141553,-0.19100033425859325,0.07932297617722739,0.018689882079589992,-0.16782364062895128,0.036886962150717295,0.006061147113545218,-0.07173908435960108,0.0,70.0,255.0,255.0,255.0
47,2.35,10.593939623656485,-4.477637348956525,-0.19948115378997652,0.08113924438999831,0.019010535871499812,-0.17140922800412323,0.03552958634625014,0.00697997690570773,-0.07173369374490757,0.0,70.0,255.0,255.0,255.0
48,2.4000000000000004,10.598041082998977,-4.476678180554403,-0.20814125705900557,0.0828759348118524,0.019387879770160765,-0.17499701000344203,0.03389714334378624,0.008169280584535699,-0.07180751714537803,0.0,70.0,255.0,255.0,255.0
49,2.45,10.60222721713767,-4.475698560979509,-0.21698085479032073,0.08452895872437693,0.01982746392995338,-0.17858997971866103,0.03237920377596737,0.009308464196422506,-0.07191786617709306,0.0,70.0,255.0,255.0,255.0
50,2.5,10.606493978871415,-4.474695434161408,-0.22600025503087168,0.08611385518944914,0.020318726189803016,-0.18218879662115134,0.03134919179839102,0.010091781764032248,-0.07201875084116016,0.0,70.0,255.0,255.0,255.0
51,2.5500000000000003,10.610838602656615,-4.473666688360528,-0.23519973445243586,0.08766387790421604,0.020836642106356607,-0.18579185480277705,0.031007994330600752,0.010351146745879447,-0.07208218240020992,0.0,70.0,255.0,255.0,255.0
52,2.6,10.615260366661836,-4.472611769950772,-0.24457944051114938,0.08921465462250922,0.02135384086439096,-0.18939701486117233,0.031277581884836536,0.010133220937191822,-0.07210854126518118,0.0,70.0,255.0,255.0,255.0
53,2.6500000000000004,10.619760068118866,-4.471531304274089,-0.2541394359385531,0.09079163609269969,0.02184996420007579,-0.19300270892929516,0.03195605589692008,0.009574224944230991,-0.07210527247675791,0.0,70.0,255.0,255.0,255.0
54,2.7,10.624339530271106,-4.470426773530765,-0.2638797114040789,0.09241026021220122,0.02231126335881406,-0.19660754210884812,0.03283038331272081,0.008813951953179355,-0.07207456346612351,0.0,70.0,255.0,255.0,255.0
55,2.75,10.629001094140087,-4.469300177938208,-0.2738001901494379,0.09407467442397177,0.022731359395393724,-0.20021016527590751,0.033680445344863585,0.007986917305835561,-0.07201398051096541,0.0,70.0,255.0,255.0,255.0
56,2.8000000000000003,10.633746997713503,-4.468153637591225,-0.28390072793166965,0.09577830474668758,0.023109955089397616,-0.20380894015994466,0.034369825094771045,0.00718601415394815,-0.07192547275282068,0.0,70.0,255.0,255.0,255.0
57,2.85,10.638578924614755,-4.466989182429268,-0.29418108416543237,0.09751165693344888,0.02344996081078854,-0.20740271255118958,0.03488381571923327,0.00648434214234328,-0.07183214119436121,0.0,70.0,255.0,255.0,255.0
58,2.9000000000000004,10.643498163406848,-4.465808641510146,-0.3046409991867886,0.09926668631861091,0.023758389303631944,-0.21099215427938078,0.03523154682216756,0.0059791343238302375,-0.07177139294761714,0.0,70.0,255.0,255.0,255.0
59,2.95,10.648505593246616,-4.464613343498905,-0.31528029959337045,0.10103481161566563,0.024047874243171563,-0.2145798518459513,0.03540788767999459,0.005774189530249885,-0.07178387995843138,0.0,70.0,255.0,255.0,255.0
60,3.0,10.653601644568415,-4.463403854085829,-0.32609898437138374,0.10280747508661037,0.024335808256656932,-0.21817054227522392,0.03542497087725138,0.005960549012318239,-0.0719253271149689,0.0,70.0,255.0,255.0,255.0
61,3.0500000000000003,10.658786340755277,-4.462179762673239,-0.33709735382089284,0.10457730870339077,0.024643929144403387,-0.2217723845574482,0.0352982530769097,0.00656633509938942,-0.07221592658849807,0.0,70.0,255.0,255.0,255.0
62,3.1,10.664059375438754,-4.460939461171389,-0.34827622282712856,0.10633730039430134,0.024992441766595874,-0.22539213493407373,0.03503069836305883,0.007484095808774072,-0.07256289395738968,0.0,70.0,255.0,255.0,255.0
63,3.1500000000000004,10.669420070794708,-4.4596805184965795,-0.3596365673143002,0.10808037853969665,0.025392338725280794,-0.22902867395318716,0.034635892011891656,0.008512034963104043,-0.07280915573278368,0.0,70.0,255.0,255.0,255.0
64,3.2,10.674867413292723,-4.458400227298861,-0.37117909022244727,0.1098008895954905,0.02584364526290628,-0.2326730505073521,0.034150466897919785,0.009430828387202439,-0.0728033432735753,0.0,70.0,255.0,255.0,255.0
65,3.25,10.680400159754257,-4.457096153970289,-0.3829038723650354,0.11149542522948863,0.026335421564001038,-0.23630900828054469,0.03361174573939252,0.010038858672523077,-0.07238876697320817,0.0,70.0,255.0,255.0,255.0
66,3.3000000000000003,10.686016955815672,-4.455766685142461,-0.39480999105050174,0.11316206416942975,0.026847531130158586,-0.23991192720467291,0.03304956353158417,0.010228645448595586,-0.07150322182558622,0.0,70.0,255.0,255.0,255.0
67,3.35,10.6917163661712,-4.454411400857273,-0.4068950650855027,0.11480038158264705,0.027358286108860597,-0.2434593304631033,0.03251152602512519,0.010027386511257674,-0.07031982609961851,0.0,70.0,255.0,255.0,255.0
68,3.4000000000000004,10.697496993973937,-4.453030856531575,-0.41915592409681207,0.11641321677194227,0.027850269781284354,-0.24694390981463477,0.03206842825296263,0.009524613935862902,-0.06915011931937776,0.0,70.0,255.0,255.0,255.0
69,3.45,10.703357687848394,-4.451626373879145,-0.4315894560669662,0.11800722440794331,0.028310747502446887,-0.2503743423950411,0.031789219088373954,0.008822496920490863,-0.0683082947328495,0.0,70.0,255.0,255.0,255.0
70,3.5,10.709297716414731,-4.45019978178133,-0.4441933583363162,0.11959213868077967,0.02873251947333344,-0.2537747392879197,0.031728046165291346,0.008016044268632783,-0.06810356769615944,0.0,70.0,255.0,255.0,255.0
71,3.5500000000000003,10.715316901716472,-4.448753121931811,-0.45696692999575816,0.12118002902447245,0.029112351929310165,-0.257184699164657,0.031904518437109175,0.0071775446449429126,-0.06867878517670123,0.0,70.0,255.0,255.0,255.0
72,3.6,10.721415719317179,-4.447288546588399,-0.4699118282527819,0.12278259052449059,0.02945027393782773,-0.26064261780558984,0.032279654413081005,0.006403560944168163,-0.06982885059517718,0.0,70.0,255.0,255.0,255.0
73,3.6500000000000004,10.72759516076892,-4.4458080945380285,-0.48303119177631715,0.12440799446578055,0.02975270802372698,-0.26416758422417475,0.03277225977846854,0.005834823978911885,-0.07115763971698996,0.0,70.0,255.0,255.0,255.0
74,3.7,10.733856518763757,-4.444313275786026,-0.49632858667519936,0.12605981650233744,0.03003375633571892,-0.26775838177728883,0.03328696910216422,0.005617645469069288,-0.07225793000952274,0.0,70.0,255.0,255.0,255.0
75,3.75,10.740201142419155,-4.442804718904457,-0.509807029954046,0.12773669137599697,0.03031447257063391,-0.271393377225127,0.03373602297855882,0.005896964252372072,-0.07272498089019308,0.0,70.0,255.0,255.0,255.0
76,3.8000000000000003,10.746630187901356,-4.441281828528963,-0.5234679243977121,0.12943341880019332,0.030623452760956127,-0.27503087986630814,0.034066162254475785,0.006722714433227139,-0.0723550640409687,0.0,70.0,255.0,255.0,255.0
77,3.85,10.753144484299174,-4.439742373628361,-0.5373101179406768,0.13114330760144455,0.030986744013956624,-0.2786288836292239,0.03425349268724176,0.007913055027408689,-0.07133558737048018,0.0,70.0,255.0,255.0,255.0
78,3.9000000000000004,10.7597445186615,-4.438183154127567,-0.5513308127606344,0.1328587680689175,0.031414758263696996,-0.28216443860335616,0.03427805710849441,0.009138887351145542,-0.07004850596192824,0.0,70.0,255.0,255.0,255.0
79,3.95,10.766430361106066,-4.436600897801991,-0.5655265618010125,0.134571113312294,0.03190063274907118,-0.2856337342254167,0.03412341732271784,0.010055172951162206,-0.06887984536898539,0.0,70.0,255.0,255.0,255.0
80,4.0,10.77320162999273,-4.43499309085266,-0.5798941861831761,0.13627110980118928,0.032420275558813216,-0.2890524231402547,0.03377187124478098,0.01031609872210737,-0.06821646212296084,0.0,70.0,255.0,255.0,255.0
81,4.05,10.780057472086185,-4.43335887024611,-0.5944318041150379,0.1379483004367721,0.032932242621281915,-0.2924553804377128,0.03322980690505517,0.009757798088561032,-0.06826030597859578,0.0,70.0,255.0,255.0,255.0
82,4.1000000000000005,10.786996460036407,-4.431699866590532,-0.6091397242269474,0.1395940904916948,0.03339605536766932,-0.2958784537381143,0.03258721399834741,0.008594102395953485,-0.06885975563386548,0.0,70.0,255.0,255.0,255.0
83,4.15,10.794016881135354,-4.430019264709343,-0.6240196494888494,0.14120702183660683,0.033791652860877264,-0.29934135600109935,0.03199635094830455,0.007240582326861755,-0.0696982198853835,0.0,70.0,255.0,255.0,255.0
84,4.2,10.801117162220068,-4.428320701304444,-0.6390738598270573,0.14279372558652526,0.034120113600355495,-0.3028482757266526,0.03161833596614372,0.00612101004584531,-0.07046231555417615,0.0,70.0,255.0,255.0,255.0
85,4.25,10.808296253694007,-4.4266072533493075,-0.6543044770615146,0.1443688554332212,0.034403753865461795,-0.30638758755651696,0.031620501365736686,0.005658594239754677,-0.07083322656191715,0.0,70.0,255.0,255.0,255.0
86,4.3,10.81555404776339,-4.424880325917898,-0.669712618582709,0.14595577572309892,0.03468597302433096,-0.30993159838284434,0.03207512294594039,0.006065953352241138,-0.0706443647252808,0.0,70.0,255.0,255.0,255.0
87,4.3500000000000005,10.822891831266316,-4.423138656046874,-0.6852976368997991,0.14757636772781524,0.03501034920068591,-0.31345202402904504,0.03283317579558798,0.007139719537452294,-0.07003173042040567,0.0,70.0,255.0,255.0,255.0
88,4.4,10.830311684536172,-4.421379290997829,-0.7010578209856135,0.14923909330265772,0.03539994497807619,-0.3169347714248849,0.03362017546226781,0.008469599192029165,-0.06927143500938815,0.0,70.0,255.0,255.0,255.0
89,4.45,10.837815740596582,-4.419598661549067,-0.7169911140422875,0.15093838527404202,0.035857309119888825,-0.32037916752998385,0.0341571782053407,0.009647640013188408,-0.06863126537467457,0.0,70.0,255.0,255.0,255.0
90,4.5,10.845405523063576,-4.4177935600858405,-0.7330957377386119,0.1526548111231918,0.03636470897939503,-0.32379789796235237,0.03416216058820254,0.01028159891092173,-0.06838256636132467,0.0,70.0,255.0,255.0,255.0
91,4.55,10.853081221708901,-4.415962190651127,-0.7493709038385228,0.15435460133286227,0.036885469010981,-0.3272174241661163,0.03350261506529506,0.010165241648696366,-0.06866209526017464,0.0,70.0,255.0,255.0,255.0
92,4.6000000000000005,10.860840983196862,-4.414105013184742,-0.7658174801552236,0.1560050726297213,0.03738123314426467,-0.33066410748836983,0.03236726230699816,0.00941783530521434,-0.0693279147590764,0.0,70.0,255.0,255.0,255.0
93,4.65,10.868681728971874,-4.412224067336701,-0.7824373145873598,0.1575913275635621,0.03782725254150243,-0.33415021564202396,0.031116606876402386,0.008310205054229414,-0.07010144800245754,0.0,70.0,255.0,255.0,255.0
94,4.7,10.876600115953218,-4.410322287930592,-0.799232501719426,0.15911673331736154,0.03821225364968761,-0.3376742522886156,0.030112298530937665,0.0071150033281064395,-0.0707127628072679,0.0,70.0,255.0,255.0,255.0
95,4.75,10.88459340230361,-4.408402841971732,-0.8162047398162213,0.16060255741665586,0.038538752874313076,-0.34122149192275075,0.029706800336981587,0.006086991468468028,-0.07090457326089927,0.0,70.0,255.0,255.0,255.0
96,4.800000000000001,10.892660371694884,-4.406468412643161,-0.833354650911701,0.1620874133510597,0.038820952796534414,-0.3447647096147055,0.03007478975316502,0.005378627838314998,-0.0705468812736254,0.0,70.0,255.0,255.0,255.0
97,4.8500000000000005,10.900802143638716,-4.404520746692079,-0.8506812107776919,0.16361003639197236,0.039076615658144576,-0.3482761800501133,0.03104789152672538,0.005021666514348766,-0.06974379003041875,0.0,70.0,255.0,255.0,255.0
98,4.9,10.909021375334081,-4.402560751077346,-0.8681822689167124,0.16519220250373223,0.03932311944796929,-0.3517390886177474,0.03228244132156277,0.005018531640033075,-0.06871643265450311,0.0,70.0,255.0,255.0,255.0
99,4.95,10.917321363889089,-4.400588434747282,-0.8858551196394666,0.16683828052412863,0.03957846882214788,-0.3551478233155636,0.03342756706494754,0.005371321033198484,-0.06769045728900469,0.0,70.0,255.0,255.0,255.0
100,5.0,10.925705203386494,-4.398602904195132,-0.9036970512482687,0.168534959210227,0.03986025155128914,-0.35850813434664786,0.03413865671184624,0.006082416567121385,-0.06687914059507749,0.0,70.0,255.0,255.0,255.0
101,5.050000000000001,10.934174859810112,-4.396602409592153,-0.9217059330741314,0.17025214619531326,0.04018671047886002,-0.36183573737507135,0.034232165314662666,0.0071222982809260316,-0.06640315353817483,0.0,70.0,255.0,255.0,255.0
102,5.1000000000000005,10.942730418006025,-4.3945842331472456,-0.9398806249857758,0.17195817574169325,0.04057248137938174,-0.36514844970046534,0.03381021587500754,0.00833382031579788,-0.06625058479284851,0.0,70.0,255.0,255.0,255.0
103,5.15,10.951370677384281,-4.392545161454215,-0.9582207780441779,0.173633167782814,0.04102009251043981,-0.3684607958543562,0.03310374438818542,0.009453990063423845,-0.06636000086664984,0.0,70.0,255.0,255.0,255.0
104,5.2,10.960093734784307,-4.390482223896202,-0.9767267045712115,0.1752685501805118,0.041517880385724126,-0.3717844497871303,0.03234451945672845,0.01020176382127147,-0.06666489521618413,0.0,70.0,255.0,255.0,255.0
105,5.25,10.968897532402332,-4.388393373415642,-0.995399223022891,0.17686761972848686,0.04204026889256696,-0.3751272853759746,0.0317665448445581,0.01029532361496166,-0.06709084571073776,0.0,70.0,255.0,255.0,255.0
106,5.300000000000001,10.977780496757156,-4.386278197006945,-1.014239433108809,0.1784452046649676,0.04254741274722029,-0.3784935343582041,0.03150209677187377,0.009611153396971162,-0.0675820430352636,0.0,70.0,255.0,255.0,255.0
107,5.3500000000000005,10.986742052868829,-4.38413863214092,-1.0332485764587114,0.18001782940567423,0.04300138423226407,-0.381885489679501,0.03150667620701597,0.00837200327143961,-0.06809396403835155,0.0,70.0,255.0,255.0,255.0
108,5.4,10.995782279697723,-4.3819780585837185,-1.052427982076759,0.1815958722856692,0.04338461307436425,-0.38530293076203925,0.03166882821457051,0.00699823537901878,-0.06856095315634914,0.0,70.0,255.0,255.0,255.0
109,5.45,11.004901640097396,-4.379800170833484,-1.0717788695349153,0.18318471222713129,0.04370120777016595,-0.3887415849951359,0.031886756042354136,0.005927171467501324,-0.06890478702101799,0.0,70.0,255.0,255.0,255.0
110,5.5,11.014100750920436,-4.377607937806702,-1.0913021405762726,0.18478454788990462,0.043977330221114386,-0.39219340946414105,0.03205521052915827,0.005608270324763964,-0.06906143926586061,0.0,70.0,255.0,255.0,255.0
111,5.550000000000001,11.023380094886386,-4.375402437811372,-1.1109982104813294,0.1863902332800471,0.04426203480264235,-0.39564772892172195,0.03211338698996258,0.0062596615578058845,-0.06900144821360144,0.0,70.0,255.0,255.0,255.0
112,5.6000000000000005,11.03273977424844,-4.373181734326438,-1.1308669134684448,0.18799588658890087,0.044603296376894974,-0.3990935542855012,0.03208401169683128,0.007607350747473873,-0.06873803457823069,0.0,70.0,255.0,255.0,255.0
113,5.65,11.042179683545276,-4.370942108173683,-1.1509075659098795,0.18959863444973024,0.045022769877389734,-0.402521532379545,0.0320191711926654,0.009123884271300398,-0.06831255014447812,0.0,70.0,255.0,255.0,255.0
114,5.7,11.051699637693414,-4.368679457338699,-1.1711190667063993,0.1911978037081674,0.045515684804025014,-0.405924809299949,0.03196225590897939,0.01028311674273752,-0.06778215716596314,0.0,70.0,255.0,255.0,255.0
115,5.75,11.061299463916093,-4.36639053969328,-1.1915000468398744,0.19279486004062818,0.046051081551663486,-0.40929974809614134,0.031960585067025704,0.010555697650094231,-0.06720344384563148,0.0,70.0,255.0,255.0,255.0
116,5.800000000000001,11.070979123697477,-4.364074349183532,-1.2120490415160134,0.19439386221486998,0.04657125456903444,-0.41264515368451216,0.03203764197987624,0.009683253985048879,-0.0666178517559235,0.0,70.0,255.0,255.0,255.0
117,5.8500000000000005,11.08073885013758,-4.361733414236377,-1.2327645622083256,0.1959986242386158,0.047019406950168374,-0.4159615332717337,0.032157277005495644,0.007971181151056328,-0.06607203284694219,0.0,70.0,255.0,255.0,255.0
118,5.9,11.090578986121338,-4.3593724084885155,-1.2536451948431868,0.19760958991541955,0.04736837268414007,-0.4192523569692064,0.03225448701567046,0.006014479283855678,-0.06563238938954719,0.0,70.0,255.0,255.0,255.0
119,5.95,11.100499809129122,-4.356996576967963,-1.2746897979052463,0.19922407294018285,0.04762085487855394,-0.4225247722106884,0.03227093360802513,0.004406282307378717,-0.06536555867402427,0.0,70.0,255.0,255.0,255.0
120,6.0,11.110501393415356,-4.35461032300066,-1.2958976720642557,0.20083668327622206,0.04780900091487794,-0.4257889128366088,0.03215447717561659,0.003728845834505279,-0.06532478535130615,0.0,70.0,255.0,255.0,255.0
121,6.050000000000001,11.120583477456744,-4.352215676876475,-1.3172686891889072,0.2024395206577445,0.04799373946200447,-0.429057250745819,0.03188224555703556,0.004274268889226107,-0.06552817040383907,0.0,70.0,255.0,255.0,255.0
122,6.1000000000000005,11.130745345481131,-4.34981094905446,-1.3388033971388376,0.20402490783192562,0.04823642780380055,-0.4323417298769927,0.031488651843147863,0.005772633273259942,-0.06593029091064295,0.0,70.0,255.0,255.0,255.0
123,6.15,11.140985968239937,-4.347392034096095,-1.3605028621766064,0.2055883858420593,0.048571002789330464,-0.4356502798368833,0.031041948343535353,0.007672650807233339,-0.0664397570993236,0.0,70.0,255.0,255.0,255.0
124,6.2,11.151304184065337,-4.344953848775527,-1.382368425122526,0.20712910266627915,0.049003692884523886,-0.43898570558692507,0.030613496836551235,0.009419119994369396,-0.06694992049209869,0.0,70.0,255.0,255.0,255.0
125,6.25,11.161698878506565,-4.342491664807643,-1.404401432735299,0.20864973552571442,0.049512914788767404,-0.4423452718860932,0.030265515555960576,0.010472974956243775,-0.06735736812886195,0.0,70.0,255.0,255.0,255.0
126,6.300000000000001,11.172169157617908,-4.34000255729665,-1.4266029523111352,0.2101556542218752,0.050050990380148264,-0.44572144239981126,0.03003337579254861,0.010547036426000744,-0.06760326616275236,0.0,70.0,255.0,255.0,255.0
127,6.3500000000000005,11.182714443928752,-4.337486565769628,-1.44897357697528,0.21165307310496928,0.05056761843136748,-0.4491055985023684,0.029925411658204837,0.00979273797048208,-0.06769043987424617,0.0,70.0,255.0,255.0,255.0
128,6.4,11.193334464928405,-4.334945795453513,-1.471513512161372,0.2131481953876957,0.05103026417719647,-0.4524904863872359,0.029940423574181807,0.008559626111992458,-0.06764410668858023,0.0,70.0,255.0,255.0,255.0
129,6.45,11.204029263467522,-4.332383539351908,-1.4942226256140037,0.21464711546238746,0.051423581042566724,-0.45587000917122644,0.03006836575831784,0.007197610674847255,-0.06749527217797535,0.0,70.0,255.0,255.0,255.0
130,6.5,11.214799176474644,-4.329803437349256,-1.5171005130784947,0.21615503196352748,0.0517500252446812,-0.4592400136050334,0.030287423304109495,0.006043217044560123,-0.06728975145713356,0.0,70.0,255.0,255.0,255.0
131,6.550000000000001,11.225644766663875,-4.32720853682744,-1.540146626974507,0.2176758577927984,0.052027902747022736,-0.4625989843169398,0.03057856362680411,0.005295907086200202,-0.06705773930419934,0.0,70.0,255.0,255.0,255.0
132,6.6000000000000005,11.236566762253924,-4.324600647074554,-1.5633604115101887,0.2192128883262079,0.05227961595330122,-0.46594578753545335,0.03092886236313319,0.0049682097164271966,-0.06678878875328031,0.0,70.0,255.0,255.0,255.0
133,6.65,11.247566055496495,-4.32198057523211,-1.5867412057280523,0.22076874402911173,0.052524723718665456,-0.46927786319226783,0.031315518200791814,0.005019567355279975,-0.06646465530721901,0.0,70.0,255.0,255.0,255.0
134,6.7,11.258643636656835,-4.319348174702688,-1.6102881978294155,0.22234444014628707,0.052781572688829215,-0.47259225306617525,0.03170735248332335,0.005415612131187686,-0.06608139172827876,0.0,70.0,255.0,255.0,255.0
135,6.75,11.269800499511124,-4.316702417963227,-1.6340004310346699,0.22393947927744406,0.053066284931784224,-0.4758860023650957,0.032088753930281655,0.006118166188873175,-0.06563169131055258,0.0,70.0,255.0,255.0,255.0
136,6.800000000000001,11.28103758458458,-4.314041546209509,-1.657876798065925,0.22555331553931524,0.05339338930771653,-0.4791554221972305,0.032445656414381574,0.007078099798540904,-0.06511869037355567,0.0,70.0,255.0,255.0,255.0
137,6.8500000000000005,11.292355831065056,-4.311363079032455,-1.681915973254393,0.22718404491888222,0.053774094911638315,-0.4823978714024513,0.032721842852900807,0.008172744842838142,-0.06459347271179361,0.0,70.0,255.0,255.0,255.0
138,6.9,11.303755989076468,-4.308664136718345,-1.7061165852061702,0.22882549982460532,0.054210663792000346,-0.48561476946840987,0.03283479966071923,0.009200426144850837,-0.06413904364428458,0.0,70.0,255.0,255.0,255.0
139,6.95,11.315238381047516,-4.305942012653255,-1.730477450201234,0.23046752488495414,0.0546941375261234,-0.48881177576687973,0.03271565088027728,0.009941992081508033,-0.06383193480159477,0.0,70.0,255.0,255.0,255.0
140,7.0,11.326802741564963,-4.303194722965733,-1.7549977627828581,0.23209706491263304,0.05520486300015115,-0.49199796294856935,0.032305626241679875,0.010196099551418314,-0.06373145532849733,0.0,70.0,255.0,255.0,255.0
141,7.050000000000001,11.33844808753878,-4.30042152635324,-1.7796772464960908,0.23369808750912213,0.05571374748126523,-0.49518492129972946,0.03159069882823218,0.009870668079337008,-0.06386181155597637,0.0,70.0,255.0,255.0,255.0
142,7.1000000000000005,11.350172550315875,-4.2976233482176065,-1.804516254912831,0.23525613479545626,0.05619192980808485,-0.498384144104167,0.030666376948396135,0.009069761962177125,-0.06419377727624465,0.0,70.0,255.0,255.0,255.0
143,7.15,11.361973701018325,-4.294802333372432,-1.8295156609065075,0.23676472520396175,0.05662072367748294,-0.5016042990273539,0.02970518991727289,0.008011455337619822,-0.06466103491751252,0.0,70.0,255.0,255.0,255.0
144,7.2,11.373849022836271,-4.291961275849858,-1.8546766848155665,0.23822665378718355,0.05699307534184683,-0.5048502475959182,0.028888505533508635,0.00693539390104192,-0.06518518141946927,0.0,70.0,255.0,255.0,255.0
145,7.25,11.385796366397043,-4.289103025838247,-1.8800006856660993,0.2396535757573126,0.057314263067587135,-0.5081228171693009,0.028376759749981773,0.006073472901757526,-0.06570244075534415,0.0,70.0,255.0,255.0,255.0
146,7.300000000000001,11.397814380412003,-4.2862298495430995,-1.9054889665324966,0.24106432976218173,0.057600422632022585,-0.5114204916714526,0.028252061093070324,0.0055582022429945255,-0.06616786293647259,0.0,70.0,255.0,255.0,255.0
147,7.3500000000000005,11.409902799373262,-4.283342983575045,-1.9311427348332446,0.24247878186661964,0.05787008329188659,-0.5147396034629481,0.028485469866446067,0.0053809345812005915,-0.066515054547156,0.0,70.0,255.0,255.0,255.0
148,7.4,11.422062258598665,-4.280442841213911,-1.9569629268787914,0.24391287674882633,0.058138516090142645,-0.5180719971261682,0.028990780996807075,0.005482703554271495,-0.06665234116101093,0.0,70.0,255.0,255.0,255.0
149,7.45,11.434294087048144,-4.2775291319660305,-1.9829499345458614,0.24537785996630035,0.05841835364731374,-0.5214048375790492,0.029664126518724743,0.005802119960218732,-0.06649456562735079,0.0,70.0,255.0,255.0,255.0
150,7.5,11.446600044595295,-4.2746010058491795,-2.0091034106366963,0.2468792894006988,0.05871872808616452,-0.5247214536889033,0.03040327881418392,0.006274018165264295,-0.06595481894633437,0.0,70.0,255.0,255.0,255.0
151,7.550000000000001,11.458982015988214,-4.271657259157414,-2.0354220799147518,0.24841818784771874,0.059045755463840166,-0.5280003194736826,0.031135881975608015,0.006844774696634914,-0.06501191152354924,0.0,70.0,255.0,255.0,255.0
152,7.6000000000000005,11.471441863380067,-4.268696430302795,-2.0619034425840645,0.2499928775982596,0.05940320555582801,-0.5312226448412583,0.03179454078949817,0.007446592953197495,-0.06382861525788819,0.0,70.0,255.0,255.0,255.0
153,7.65,11.48398130374804,-4.265716938601831,-2.0885443443988776,0.25159764192666856,0.059790414759159916,-0.5343831809994715,0.03228637140875179,0.007975119723191426,-0.06268950719841015,0.0,70.0,255.0,255.0,255.0
154,7.7,11.496601627572733,-4.2627173888268794,-2.1153417606840117,0.2532215147391348,0.06020071752814715,-0.5374915955610993,0.03251652685172246,0.00831095143283278,-0.06188830432245496,0.0,70.0,255.0,255.0,255.0
155,7.75,11.509303455221954,-4.2596968668490165,-2.1422935039549875,0.2548492946118408,0.060621509902443194,-0.540572011431717,0.03241012499479723,0.008334417140787309,-0.0617142741350829,0.0,70.0,255.0,255.0,255.0
156,7.800000000000001,11.522086557033917,-4.256655237836635,-2.1693989618271834,0.2564625272386145,0.06103415924222588,-0.5436630229746076,0.031942872544554746,0.00799547286360891,-0.062298803323956875,0.0,70.0,255.0,255.0,255.0
157,7.8500000000000005,11.534949707945815,-4.253593450924794,-2.1966598062524483,0.2580435818662963,0.061421057188804085,-0.5468018917641126,0.031181681660363836,0.007397169130562986,-0.06344153337254355,0.0,70.0,255.0,255.0,255.0
158,7.9,11.547890915220547,-4.250513132117755,-2.2240791510035947,0.2595806954046509,0.06177387615528218,-0.5500071763118619,0.030260936163983843,0.006733181188955939,-0.06475690277270019,0.0,70.0,255.0,255.0,255.0
159,7.95,11.56090777748628,-4.247416063309266,-2.2516605238836345,0.26106967548269466,0.06209437530769968,-0.5532775820413827,0.029334940899516937,0.006206848201095738,-0.06584666929723149,0.0,70.0,255.0,255.0,255.0
160,8.0,11.573997882768817,-4.244303694586985,-2.279406909207733,0.2625141894946026,0.062394560975391755,-0.5565918432415851,0.02854027715155638,0.006024303947071985,-0.06631610316079062,0.0,70.0,255.0,255.0,255.0
161,8.05,11.58715919643574,-4.2411766072117265,-2.307319708207793,0.2639237031978503,0.06269680570240688,-0.5599091923574617,0.027958828312257822,0.00628662056216811,-0.06596630175397244,0.0,70.0,255.0,255.0,255.0
162,8.1,11.600390253088602,-4.238034014016744,-2.335397828443479,0.26531007232582837,0.06302322303160857,-0.5631884734169823,0.027632392243326365,0.006879322600017446,-0.06497606710316184,0.0,70.0,255.0,255.0,255.0
163,8.15,11.613690203668323,-4.234874284908566,-2.363638555549491,0.26668694242218294,0.06338473796240862,-0.5664067990677779,0.027597063422213353,0.0075775634462260655,-0.0637120658600665,0.0,70.0,255.0,255.0,255.0
164,8.200000000000001,11.62705894733082,-4.231695540220503,-2.392038508350257,0.2680697786680497,0.06378097937623117,-0.569559680002989,0.027876483442135225,0.008155082335470354,-0.06254487862862312,0.0,70.0,255.0,255.0,255.0
165,8.25,11.640497181535128,-4.2284961869709425,-2.42059452354979,0.26947459076639646,0.06420024619595566,-0.5726612869306402,0.028488719779673488,0.008384404366967857,-0.061841266601270206,0.0,70.0,255.0,255.0,255.0
166,8.3,11.65400640640746,-4.225275515600908,-2.449304637043321,0.27091865064601706,0.06461941981292796,-0.575743806663116,0.02941715220128316,0.008151471461559368,-0.061795336979253435,0.0,70.0,255.0,255.0,255.0
167,8.35,11.66758904659973,-4.22203424498965,-2.4781689042161017,0.2724163059865248,0.0650153933421116,-0.5788408206285656,0.030527071044694765,0.0075709483953190215,-0.06228515392616707,0.0,70.0,255.0,255.0,255.0
168,8.4,11.681248037006112,-4.2187739762666965,-2.5071887191061775,0.27397135775048653,0.06537651465245986,-0.5819723220557327,0.03158913182570444,0.006871157100629688,-0.06304471723703742,0.0,70.0,255.0,255.0,255.0
169,8.450000000000001,11.694986182374778,-4.215496593524404,-2.536366136421675,0.2755752191690952,0.06570250905217456,-0.5851452923522693,0.032361176614159604,0.006279395883179717,-0.06381344322807792,0.0,70.0,255.0,255.0,255.0
170,8.5,11.708805558923022,-4.212203725361479,-2.5657032483414044,0.2772074754119025,0.06600445424077783,-0.5883536663785405,0.03261682508295394,0.006022041289011071,-0.06434288637806596,0.0,70.0,255.0,255.0,255.0
171,8.55,11.722706929915969,-4.208896148100326,-2.595201503059529,0.2788369016773906,0.06630471318107567,-0.5915795809900759,0.03225153723978025,0.006214067018284197,-0.06449300300954697,0.0,70.0,255.0,255.0,255.0
172,8.6,11.73668924909076,-4.2055732540433715,-2.624861206440412,0.2804326291358805,0.06662586094260625,-0.5948029666794952,0.03138827462638716,0.006751475893285175,-0.06428965751847926,0.0,70.0,255.0,255.0,255.0
173,8.65,11.750750192829557,-4.202233562006065,-2.6546817997274785,0.28197572914002933,0.06697986077040419,-0.5980085467419238,0.03027913654936043,0.007423216076585248,-0.06382188570457359,0.0,70.0,255.0,255.0,255.0
174,8.700000000000001,11.764886822004764,-4.198875267966331,-2.6846620611146044,0.28346054279081656,0.06736818255026478,-0.6011851552499525,0.029197784459356058,0.00802076070556268,-0.06317514799309976,0.0,70.0,255.0,255.0,255.0
175,8.75,11.779096247108638,-4.195496743751039,-2.714800315252474,0.28489550758596494,0.06778193684096046,-0.6043260615412338,0.02842001718459386,0.00834346777329742,-0.062423178562376336,0.0,70.0,255.0,255.0,255.0
176,8.8,11.79337637276336,-4.192097074282235,-2.7450946672687278,0.28630254450927595,0.06820252932759452,-0.6074274731061902,0.02809567319843609,0.008285687038167566,-0.06162491205503606,0.0,70.0,255.0,255.0,255.0
177,8.85,11.807726501559566,-4.188676490818279,-2.775543062563093,0.28770507490580854,0.06861050554477721,-0.6104885527467374,0.028152557721661253,0.007908555956692709,-0.06087435119792595,0.0,70.0,255.0,255.0,255.0
178,8.9,11.822146880253941,-4.185236023727757,-2.8061435225434015,0.28911780028144207,0.06899338492326379,-0.6135149082259828,0.028423273025524054,0.007350570668052114,-0.06031128306753786,0.0,70.0,255.0,255.0,255.0
179,8.950000000000001,11.83663828158771,-4.181777152325953,-2.836894553385691,0.29054740220836095,0.06934556261158242,-0.6165196810534912,0.028740086481171545,0.006750848007897048,-0.06007822587190681,0.0,70.0,255.0,255.0,255.0
180,9.0,11.851201620474777,-4.178301467466599,-2.8677954906487506,0.2919918089295592,0.0696684697240535,-0.6195227308131734,0.02891914347653568,0.006240078294084128,-0.06031237140096124,0.0,70.0,255.0,255.0,255.0
181,9.05,11.865837462480666,-4.174810305353548,-2.8988468264670084,0.2934393165560145,0.06996957044099084,-0.6225509181935873,0.028860222180782102,0.00589595872169113,-0.061062173945325426,0.0,70.0,255.0,255.0,255.0
182,9.1,11.880545552130378,-4.1713045104225,-2.9300505824681093,0.29487783114763744,0.07025806559622261,-0.625628948207706,0.028643359286917303,0.005730663915759493,-0.06216762300406131,0.0,70.0,255.0,255.0,255.0
183,9.15,11.89532524559543,-4.167784498793925,-2.961409721287779,0.29630365248470625,0.07054263683256679,-0.6287676804939935,0.028424228225354398,0.00573897677584867,-0.06333577922799094,0.0,70.0,255.0,255.0,255.0
184,9.200000000000001,11.910175917378849,-4.164250246739243,-2.9929273505175087,0.2977202539701729,0.07083196327380747,-0.6319625261305051,0.02834275539775888,0.005915334442452291,-0.06426020026788493,0.0,70.0,255.0,255.0,255.0
185,9.25,11.925097270992447,-4.160701302466545,-3.0246059739008295,0.29913792802448214,0.07113417027681201,-0.635193700520782,0.028547324993688505,0.006252209726564928,-0.0646473358339783,0.0,70.0,255.0,255.0,255.0
186,9.3,11.940089710181297,-4.157136829711562,-3.056446720569587,0.3005749864695417,0.07145718424646397,-0.6384272597139029,0.029103811038133642,0.006731503715950993,-0.06435259262969062,0.0,70.0,255.0,255.0,255.0
187,9.35,11.955154769639401,-4.153555584041898,-3.08844869987222,0.3020483091282955,0.07180732064840711,-0.641628959783751,0.029872233567118656,0.0072879492188704376,-0.06350504023515668,0.0,70.0,255.0,255.0,255.0
188,9.4,11.970294541094127,-4.149956097646721,-3.120609616547962,0.3035622098262536,0.07218597916835101,-0.6447777637374186,0.030600746476139307,0.007812683067953685,-0.06237655573175793,0.0,70.0,255.0,255.0,255.0
189,9.450000000000001,11.985510990622027,-4.146336986125063,-3.1529264762459617,0.30510838377590943,0.07258858895520248,-0.6478666153569268,0.031042831323446762,0.008188839863532138,-0.061253746949763155,0.0,70.0,255.0,255.0,255.0
190,9.5,12.000805379471718,-4.142697238751201,-3.1853962780836547,0.30666649295859827,0.07300486315470422,-0.6509031384323949,0.030951603167572728,0.008307073475588567,-0.060422294586715,0.0,70.0,255.0,255.0,255.0
191,9.55,12.016177639917887,-4.139036499809593,-3.218016790089201,0.3082035440926667,0.07341929630276134,-0.6539088448155983,0.03021693459661634,0.008117513594374515,-0.060039716607995786,0.0,70.0,255.0,255.0,255.0
192,9.600000000000001,12.031625733880984,-4.135355309120925,-3.2507871625652145,0.3096881864182599,0.07381661451414168,-0.6569071100931945,0.029033953528845302,0.007682014733045861,-0.06004494332807475,0.0,70.0,255.0,255.0,255.0
193,9.65,12.047146458559713,-4.131654838358179,-3.2837075010985206,0.31110693944555123,0.07418749777606592,-0.6599133391484058,0.02776821710863686,0.007126654588329728,-0.06028694889410602,0.0,70.0,255.0,255.0,255.0
194,9.700000000000001,12.06273642782554,-4.127936559343318,-3.316778496480055,0.3124650081291236,0.07452927997297465,-0.6629358049826051,0.02679146709709812,0.006588793283412997,-0.06061721286565458,0.0,70.0,255.0,255.0,255.0
195,9.75,12.078392959372625,-4.124201910360881,-3.350001081596781,0.31378608615526105,0.07484637710440722,-0.6659750604349712,0.026474234363504934,0.006207515019251986,-0.060879523114998335,0.0,70.0,255.0,255.0,255.0
196,9.8,12.094115036441066,-4.120451921632878,-3.383376002523552,0.3151124315654741,0.07515003147489985,-0.6690237572941049,0.026995536819462984,0.0060579290855677925,-0.06098299315278055,0.0,70.0,255.0,255.0,255.0
197,9.850000000000001,12.109904202529172,-4.116686907213391,-3.4169034573261916,0.31648563983720734,0.075452170012964,-0.6720733597502493,0.028142068865477654,0.006100355485028075,-0.06095705125441775,0.0,70.0,255.0,255.0,255.0
198,9.9,12.125763600424786,-4.112906704631581,-3.450583338498577,0.31792663845202185,0.07576006702340266,-0.6751194624195467,0.029495429380688165,0.0062451741031921415,-0.06087210556819933,0.0,70.0,255.0,255.0,255.0
199,9.950000000000001,12.141696866374375,-4.109110900511051,-3.4844154035681463,0.31943518277527616,0.07607668742328322,-0.6781605703070692,0.03063195297112742,0.0064021874690567415,-0.06078500065527237,0.0,70.0,255.0,255.0,255.0
200,10.0,12.157707118702314,-4.105299035889253,-3.518399395529284,0.3209898337491346,0.07640028577030833,-0.6811979624850739,0.031131505998693854,0.006470885095755108,-0.06075555700939539,0.0,70.0,255.0,255.0,255.0
201,10.05,12.173795849749288,-4.10147087193402,-3.5525351998166537,0.32254833337514555,0.07672377593285873,-0.6842361260080088,0.030781057983730875,0.006397996171170206,-0.060814884207438524,0.0,70.0,255.0,255.0,255.0
202,10.100000000000001,12.189961952039829,-4.097626658295967,-3.586823008130085,0.3240679395475077,0.07704008538742535,-0.6872794509058178,0.029768586858658352,0.006237495727212661,-0.06092685165395295,0.0,70.0,255.0,255.0,255.0
203,10.15,12.206202643704039,-4.0937668633952775,-3.6212631449072354,0.3255251920610114,0.07734752550558,-0.6903288111734041,0.02847924951900893,0.006090877436548681,-0.06102462883315063,0.0,70.0,255.0,255.0,255.0
204,10.200000000000001,12.22251447124593,-4.089891905745409,-3.6558558892474253,0.32691586449940857,0.07764917313108022,-0.6933819137891328,0.027300581157696513,0.0060495430878049206,-0.06104949780021407,0.0,70.0,255.0,255.0,255.0
205,10.25,12.23889423015398,-4.0860019460821695,-3.6906013362861487,0.32825525017678103,0.07795247981436049,-0.6964337609534255,0.02661969502160133,0.006204888653904561,-0.06095027681936038,0.0,70.0,255.0,255.0,255.0
206,10.3,12.255339996263608,-4.082096657763973,-3.725499265342768,0.3295778340015687,0.07826966199647067,-0.6994769414710689,0.02663957856512411,0.0065971724769298135,-0.06070367048338632,0.0,70.0,255.0,255.0,255.0
207,10.350000000000001,12.271852013554136,-4.078174979882522,-3.7605490304332556,0.33091920803329344,0.07861219706205347,-0.7025041280017641,0.02721453941099128,0.0071478900439458926,-0.06033731369163853,0.0,70.0,255.0,255.0,255.0
208,10.4,12.288431917066937,-4.074235438057768,-3.7957496781429443,0.33229928794266783,0.07898445100086526,-0.7055106728402327,0.02803745599457841,0.007712248551605683,-0.05990844669865325,0.0,70.0,255.0,255.0,255.0
209,10.450000000000001,12.305081942348403,-4.070276534782436,-3.831100097717279,0.3337229536327513,0.07938342191721404,-0.7084949726716294,0.028805349436034078,0.008146866287628285,-0.059476495323362855,0.0,70.0,255.0,255.0,255.0
210,10.5,12.321804212430212,-4.066297095866046,-3.8665991754101072,0.33517982288627124,0.07979913762962809,-0.711458322372569,0.029213769858138505,0.008317578936267722,-0.05908734503679014,0.0,70.0,255.0,255.0,255.0
211,10.55,12.33859992463703,-4.062296621019473,-3.902245929954536,0.33664433061856514,0.08021517981084081,-0.7144037071753084,0.029101280437338062,0.008159514386552047,-0.05877043385900116,0.0,70.0,255.0,255.0,255.0
212,10.600000000000001,12.355468645492069,-4.058275577884962,-3.938039546127638,0.33808995093000505,0.0806150890682833,-0.7173353657584691,0.028579595824140824,0.007735419622001416,-0.058561189616890275,0.0,70.0,255.0,255.0,255.0
213,10.65,12.37240891973003,-4.054235112112645,-3.9739794665303827,0.3395022902009792,0.08098872177304095,-0.7202598261369975,0.027883747016588245,0.007176491994353995,-0.05850428833489296,0.0,70.0,255.0,255.0,255.0
214,10.700000000000001,12.389418874512167,-4.050176705707658,-4.010065528741338,0.34087832563166387,0.0813327382677187,-0.7231857945919584,0.027238394057960136,0.006622478940698784,-0.05863780761981019,0.0,70.0,255.0,255.0,255.0
215,10.75,12.406496752293197,-4.046101838285873,-4.0462980459895785,0.34222612960677523,0.08165096966711083,-0.7261236068989785,0.026857160276883008,0.006212814248218734,-0.059004305737131446,0.0,70.0,255.0,255.0,255.0
216,10.8,12.423641487472844,-4.042011608740947,-4.082677889431236,0.34356404165935217,0.08195401969254057,-0.7290862251656716,0.026855159825345254,0.006024257156589385,-0.05960890643486039,0.0,70.0,255.0,255.0,255.0
217,10.850000000000001,12.440853156459132,-4.037906436316619,-4.119206668506146,0.34491164558930976,0.08225339538276977,-0.7320844975424645,0.027181669367415395,0.006026795105285032,-0.06033708868020682,0.0,70.0,255.0,255.0,255.0
218,10.9,12.458132652031775,-4.03378626920267,-4.155886339185482,0.3462822085960937,0.08255669920306907,-0.7351199340336922,0.027712963865944573,0.0061462589956207125,-0.060993560800781665,0.0,70.0,255.0,255.0,255.0
219,10.950000000000001,12.475481377318742,-4.029650766396312,-4.192718661909515,0.3476829419759042,0.08286802128233184,-0.7381838536225427,0.02832778761803212,0.006309418414573997,-0.06138001312541164,0.0,70.0,255.0,255.0,255.0
220,11.0,12.492900946229366,-4.025499467074437,-4.229704724547736,0.3491149873578969,0.08318764104452647,-0.7412579353462334,0.02892159835692354,0.006439182718231962,-0.06130345066308607,0.0,70.0,255.0,255.0,255.0
221,11.05,12.510392876054532,-4.021332002291859,-4.266844455444138,0.35057510181159657,0.08351193955415503,-0.7443141986888513,0.029425306369468274,0.006490683094906302,-0.060679628047211054,0.0,70.0,255.0,255.0,255.0
222,11.100000000000001,12.527958456410525,-4.017148273119021,-4.3041361444166215,0.35205751799484375,0.0838367093540171,-0.7473258981509545,0.029777363070415674,0.0064783323587391806,-0.059656702747901136,0.0,70.0,255.0,255.0,255.0
223,11.15,12.545598627854016,-4.012948331356458,-4.341577045259234,0.35355283811863814,0.08415977279002895,-0.7502798689636414,0.029899921995735212,0.00643670046160949,-0.05851689969720297,0.0,70.0,255.0,255.0,255.0
224,11.200000000000001,12.56331374022239,-4.0087322958400184,-4.379164131312986,0.35504751019441727,0.08448037940017805,-0.7531775881206748,0.029717681575469612,0.006393646933933184,-0.05755440095125408,0.0,70.0,255.0,255.0,255.0
225,11.25,12.581103378873458,-4.00450029341644,-4.416894804071301,0.3565246062761851,0.08479913748342227,-0.7560353090587668,0.02915248358998923,0.006378426906294976,-0.05706189161092112,0.0,70.0,255.0,255.0,255.0
226,11.3,12.598966200850008,-4.000252382091676,-4.454767662218862,0.3579627585534162,0.08511822209080755,-0.7588837772817669,0.02818878952517423,0.0064062971770972865,-0.05718586808933779,0.0,70.0,255.0,255.0,255.0
227,11.350000000000001,12.6168996547288,-3.995988471207359,-4.492783181799478,0.3593434852287025,0.085439767201132,-0.7617538958677006,0.026991489074923436,0.006459875460373965,-0.057787988439450544,0.0,70.0,255.0,255.0,255.0
228,11.4,12.634900549372878,-3.991708405371563,-4.530943051805632,0.36066190746090854,0.08576420963684495,-0.764662576125712,0.02584725490901718,0.006506939158512637,-0.05858695229896682,0.0,70.0,255.0,255.0,255.0
229,11.450000000000001,12.65296584547489,-3.9874120502436745,-4.569249439412049,0.36192821071960424,0.08609046111698326,-0.7676125910975973,0.025053234329419638,0.006515993849331991,-0.05929580964343373,0.0,70.0,255.0,255.0,255.0
230,11.5,12.671093370444838,-3.9830993592598647,-4.607704310915392,0.3631672308938505,0.08641580902177814,-0.7705921570900554,0.02490445795846341,0.006447109656226857,-0.05962101086529614,0.0,70.0,255.0,255.0,255.0
231,11.55,12.689282568564275,-3.9787704693414967,-4.646308655121055,0.3644186565154506,0.08673517208260595,-0.7735746921841269,0.0255338478867273,0.006284128196476502,-0.0594108389891268,0.0,70.0,255.0,255.0,255.0
232,11.600000000000001,12.707535236096383,-3.974425842051604,-4.685061780133805,0.36572061568252323,0.0870442218414258,-0.776533240988968,0.026727729582276538,0.006082165799670136,-0.058797683819999946,0.0,70.0,255.0,255.0,255.0
233,11.65,12.725854630132527,-3.970066047157354,-4.723961979219951,0.36709142947367823,0.08734338866257296,-0.7794544605661269,0.02807833109468305,0.0059355429050445,-0.05804811161986834,0.0,70.0,255.0,255.0,255.0
234,11.700000000000001,12.744244379043751,-3.965691503185347,-4.7630072261904175,0.36852844879199154,0.08763777613193025,-0.7823380521509549,0.029163833320211552,0.00593566438253923,-0.05742273343587456,0.0,70.0,255.0,255.0,255.0
235,11.75,12.762707475011727,-3.961302269544161,-4.802195784435047,0.3700078128056994,0.08793695510082689,-0.7851967339097143,0.02955770322365936,0.006181106496150335,-0.05718599966000326,0.0,70.0,255.0,255.0,255.0
236,11.8,12.781245160324321,-3.956897807675264,-4.841526899581389,0.3714842191143575,0.08825588678154528,-0.7880566521169552,0.029049245502932308,0.006710989570413162,-0.05747063609353731,0.0,70.0,255.0,255.0,255.0
237,11.850000000000001,12.799855896923162,-3.9524766808660066,-4.881001449646742,0.3729127373559926,0.0886080540578682,-0.7909437975190681,0.027868408447240256,0.007409689779347417,-0.05813586835508033,0.0,70.0,255.0,255.0,255.0
238,11.9,12.81853643405992,-3.9480370022694773,-4.920621279333296,0.3742710599590815,0.08899685575948002,-0.7938702389524632,0.026468604861129563,0.008071821622213093,-0.058906009147641214,0.0,70.0,255.0,255.0,255.0
239,11.950000000000001,12.83728300291907,-3.9435769952900586,-4.960388473541989,0.3755595978421056,0.08941523622008951,-0.7968343984338322,0.025304579243368153,0.008495288014698232,-0.05951339647278786,0.0,70.0,255.0,255.0,255.0
240,12.0,12.856092393844131,-3.9390954786474683,-5.000304719176679,0.3768015178834183,0.08984638456094984,-0.799821578599742,0.024832654553641476,0.00848851097918768,-0.05970305576203927,0.0,70.0,255.0,255.0,255.0
241,12.05,12.874963154707412,-3.9345923568339636,-5.040370631401963,0.3780428632974697,0.09026408731800828,-0.8028047040100361,0.02528231695322347,0.007964314454023125,-0.05934624367673891,0.0,70.0,255.0,255.0,255.0
242,12.100000000000001,12.893896680173878,-3.9300690699156675,-5.080585189577683,0.37932974957874066,0.09064281600635216,-0.8057562029674159,0.02642782077835193,0.007045322169352275,-0.05854602224744099,0.0,70.0,255.0,255.0,255.0
243,12.15,12.912896129665286,-3.9255280752333284,-5.1209462516987045,0.3806856453753049,0.0909686195349435,-0.8086593062347802,0.027818065313489626,0.005972601841497394,-0.057521511463232144,0.0,70.0,255.0,255.0,255.0
244,12.200000000000001,12.931965244711408,-3.920972207962173,-5.161451120201161,0.3821115561100896,0.0912400761905019,-0.8115083541137391,0.02900470285336354,0.004995444631283874,-0.05649645456520247,0.0,70.0,255.0,255.0,255.0
245,12.25,12.951107285276295,-3.916404067614278,-5.2020970871100785,0.38358611566064127,0.0914681639980719,-0.8143089516913005,0.029543753152339036,0.004344849587223365,-0.055681777291116674,0.0,70.0,255.0,255.0,255.0
246,12.3,12.970323856277473,-3.911825391562366,-5.242882015370291,0.3850659314253235,0.09167456114922423,-0.8170765318428508,0.02920833982997806,0.0041450393262199015,-0.055197163092834955,0.0,70.0,255.0,255.0,255.0
247,12.350000000000001,12.989613878418828,-3.9072366114993557,-5.2838047402943635,0.3865069496436391,0.09188266793069388,-0.819828668000584,0.02819112428991133,0.004360909655254375,-0.05503370232950999,0.0,70.0,255.0,255.0,255.0
248,12.4,13.008974551241836,-3.9026371247692966,-5.324864882170349,0.38788504385431466,0.09211065211474967,-0.8225799020758018,0.026888318035744874,0.004885882899952065,-0.055135124486138665,0.0,70.0,255.0,255.0,255.0
249,12.450000000000001,13.02840238280426,-3.898025546287881,-5.366062730501944,0.38919578144721356,0.09237125622068909,-0.8253421804491978,0.025696469485758655,0.005602933460036041,-0.05544027244610561,0.0,70.0,255.0,255.0,255.0
250,12.5,13.047894129386558,-3.8933999991472277,-5.407399100215269,0.3904546908028905,0.09267094546075327,-0.8281239293204123,0.025012286216963275,0.006400062699896125,-0.05588181642552925,0.0,70.0,255.0,255.0,255.0
251,12.55,13.067447851884548,-3.8887584517418055,-5.448875123433985,0.3916970100689099,0.0930112624906787,-0.8309303620917508,0.025043671043256666,0.007197066702380184,-0.0564066424134424,0.0,70.0,255.0,255.0,255.0
252,12.600000000000001,13.087063830393449,-3.88409887289816,-5.490492136424444,0.3929590579072162,0.09339065213099129,-0.8337645935617566,0.0256386377721185,0.007913836412720698,-0.0569592616747272,0.0,70.0,255.0,255.0,255.0
253,12.65,13.10674375767527,-3.8794193865287063,-5.532251582790161,0.39426087384612174,0.09380264613195077,-0.8366262882592235,0.026478545994201852,0.008438551873490852,-0.05745537986934224,0.0,70.0,255.0,255.0,255.0
254,12.700000000000001,13.126489917778061,-3.8747186082849647,-5.574154765250366,0.3956069125066364,0.09423450731834038,-0.8395101315486908,0.027249046243582598,0.008654359989845872,-0.057797280825511166,0.0,70.0,255.0,255.0,255.0
255,12.75,13.146304448925934,-3.8699959357968723,-5.61620259594503,0.39698577847048,0.09466808213093536,-0.8424060163417746,0.027631157924723482,0.008454899613408173,-0.05789491971057714,0.0,70.0,255.0,255.0,255.0
256,12.8,13.166188495625109,-3.865251800071871,-5.658395366884544,0.3983700282991087,0.0950799972796812,-0.8452996235197485,0.02745762867650825,0.0078051554029290315,-0.05770904114603681,0.0,70.0,255.0,255.0,255.0
257,12.850000000000001,13.186141451755844,-3.860487936068904,-5.7007325582970045,0.3997315413381308,0.09544859767122826,-0.8481769204563783,0.02686066494721473,0.006829059379143132,-0.057293726495988295,0.0,70.0,255.0,255.0,255.0
258,12.9,13.206161649758922,-3.8557069403047484,-5.7432130589301815,0.4010560947938302,0.09576290321759551,-0.8510289961693474,0.02611031850090484,0.005757112403115272,-0.05675971967313842,0.0,70.0,255.0,255.0,255.0
259,12.950000000000001,13.226247061235227,-3.8509116457471446,-5.785835457913939,0.4023425731882213,0.09602430891153979,-0.8538528924236921,0.025467718499605496,0.004838088118797046,-0.056230091432052376,0.0,70.0,255.0,255.0,255.0
260,13.0,13.246395907077744,-3.8461045094135944,-5.828598348172551,0.40360286664379075,0.09624671202947521,-0.8566520053125526,0.02519501681703673,0.004312366818437496,-0.05582652337974281,0.0,70.0,255.0,255.0,255.0
261,13.05,13.266607347899606,-3.841286974544197,-5.8715006584451945,0.404862074869925,0.09645554559338354,-0.8594355447616664,0.025425674390611164,0.004302311686510407,-0.05561668018128074,0.0,70.0,255.0,255.0,255.0
262,13.100000000000001,13.286882114564737,-3.836458954854256,-5.914541902648717,0.40614543408285186,0.09667694319812625,-0.8622136733306807,0.02603329451247305,0.004721814182850892,-0.05558219597743275,0.0,70.0,255.0,255.0,255.0
263,13.15,13.307221891307892,-3.8316192802243845,-5.957722025778263,0.4074654043211723,0.09692772701166863,-0.8649937643594097,0.026765587928601065,0.0053811104015810685,-0.055670216963044084,0.0,70.0,255.0,255.0,255.0
264,13.200000000000001,13.327628654996854,-3.826766182153089,-6.001041279084658,0.40882199287571197,0.09721505423828436,-0.8677806950269851,0.0273735063322178,0.006080000821695464,-0.055828553912729006,0.0,70.0,255.0,255.0,255.0
265,13.25,13.348104090595463,-3.821897774800556,-6.044500095280961,0.41020275495439407,0.09753572709383818,-0.8705766197506826,0.027604812103199095,0.006615633112927455,-0.056007005417857414,0.0,70.0,255.0,255.0,255.0
266,13.3,13.368648930492293,-3.8170126094437054,-6.088098941059727,0.4115824740860319,0.0978766175495771,-0.8733813955687708,0.027333100334203664,0.006873336778667749,-0.05617146423606556,0.0,70.0,255.0,255.0,255.0
267,13.350000000000001,13.389262338004066,-3.8121101130455983,-6.131838234837838,0.41293606498781443,0.09822306077170495,-0.8761937661742891,0.026691564928071898,0.00688825265413584,-0.0562984219951268,0.0,70.0,255.0,255.0,255.0
268,13.4,13.409942536991075,-3.807190303366535,-6.1757183176771555,0.41425163057883907,0.09856544281499069,-0.8790112377682835,0.025941921859207184,0.006752198904047546,-0.056357640913162754,0.0,70.0,255.0,255.0,255.0
269,13.450000000000001,13.43068750106195,-3.8022535687640993,-6.2197393586146665,0.41553025717373515,0.0988982806621097,-0.8818295302656054,0.025344829598950014,0.006549507662167997,-0.05631620573787188,0.0,70.0,255.0,255.0,255.0
270,13.5,13.451495562708448,-3.797300475300324,-6.263901270703716,0.41678611353873407,0.09922039358120749,-0.8846428583420707,0.025169697474325403,0.006365054110313295,-0.05614545494854184,0.0,70.0,255.0,255.0,255.0
271,13.55,13.472366112415823,-3.7923315294059785,-6.308203644448874,0.4180472269211677,0.09953478607314103,-0.8874440757604596,0.02554849769733636,0.006250401804486216,-0.05583695005402234,0.0,70.0,255.0,255.0,255.0
272,13.600000000000001,13.493300285400565,-3.78734699669301,-6.352645678279762,0.4193409633084677,0.09984543376165611,-0.8902265533474729,0.026315037848689826,0.006204242799245918,-0.0554258876032776,0.0,70.0,255.0,255.0,255.0
273,13.65,13.51430020874667,-3.782346986029813,-6.397226299783621,0.4206787307060367,0.10015521035306563,-0.8929866645207873,0.027152132560459563,0.006211865544036854,-0.05497828698342033,0.0,70.0,255.0,255.0,255.0
274,13.700000000000001,13.535368158471169,-3.777331475657703,-6.441944344731841,0.42205617656451366,0.1004666203160598,-0.895724382045815,0.02774731513373041,0.00626816899589322,-0.054566110316045524,0.0,70.0,255.0,255.0,255.0
275,13.75,13.556505826403122,-3.772300323998207,-6.486798737988202,0.4234534622194097,0.10078202725265495,-0.8984432755523919,0.027784463267366277,0.00637617841823257,-0.05425518411179553,0.0,70.0,255.0,255.0,255.0
276,13.8,13.57771350469311,-3.7672532729324377,-6.53178867228708,0.4248346228912503,0.10110423815788305,-0.9011499004569945,0.027112535916273828,0.0065317692902411295,-0.05408073554784565,0.0,70.0,255.0,255.0,255.0
277,13.850000000000001,13.598989288692247,-3.7621899001824186,-6.576913728033902,0.4261647158110371,0.10143520418167906,-0.9038513491071765,0.025935463165183137,0.0066947761483859836,-0.05403532362944219,0.0,70.0,255.0,255.0,255.0
278,13.9,13.620329976274213,-3.75710975251427,-6.622173807197798,0.4274281692077686,0.10177371577272165,-0.9065534328199387,0.02464320757056271,0.006800338919665805,-0.05409191511533962,0.0,70.0,255.0,255.0,255.0
279,13.950000000000001,13.641732105613023,-3.7520125286051464,-6.667569071315896,0.42862903656809337,0.10211523807364564,-0.9092605406187104,0.023625257185067028,0.006784529641290504,-0.05421935299763092,0.0,70.0,255.0,255.0,255.0
280,14.0,13.663192879931023,-3.7468982287069053,-6.713099861259669,0.4297906949262753,0.1024521687368507,-0.9119753681197018,0.02326839351436405,0.0065822601888143595,-0.05438979928085175,0.0,70.0,255.0,255.0,255.0
281,14.05,13.684711175105651,-3.7417673117314614,-6.758766608127866,0.4309558759195298,0.10277346409252708,-0.9146995205467956,0.02376173159959194,0.006168721500809937,-0.05458062057561719,0.0,70.0,255.0,255.0,255.0
282,14.100000000000001,13.706288467522976,-3.7366208822976525,-6.804569813314348,0.4321668680862345,0.1030690408869317,-0.9174334301772635,0.024893226039601757,0.005618424168929437,-0.05475375028032303,0.0,70.0,255.0,255.0,255.0
283,14.15,13.727927861914274,-3.731460407642768,-6.850509951145592,0.43344519852348995,0.10333530650942002,-0.9201748955748279,0.02624408144402679,0.00506584637625096,-0.05485228099244566,0.0,70.0,255.0,255.0,255.0
284,14.200000000000001,13.749632987375325,-3.7262873516467105,-6.896587302871831,0.4347912762306372,0.10357562552455679,-0.9229186582765081,0.027392308806284404,0.004646486332049449,-0.054816990513106845,0.0,70.0,255.0,255.0,255.0
285,14.25,13.771406989537338,-3.7211028450903125,-6.942801816973243,0.4361844294041184,0.10379995514262497,-0.9256565946261386,0.02792200929704336,0.0044867621784572265,-0.05458561876503509,0.0,70.0,255.0,255.0,255.0
286,14.3,13.793251430315737,-3.715907356132448,-6.989152962334445,0.4375834771603415,0.10402430174240251,-0.9283772201530116,0.027620677546025263,0.0046471442401774254,-0.05413626932986304,0.0,70.0,255.0,255.0,255.0
287,14.350000000000001,13.815165337253372,-3.7107004149160723,-7.035639538988544,0.4389464971587209,0.10426466956664271,-0.9310702215591249,0.026662448526160176,0.0050670516514195185,-0.0535514468118059,0.0,70.0,255.0,255.0,255.0
288,14.4,13.837146080031609,-3.7054808891757838,-7.082259984490357,0.44024972201295753,0.10453100690754447,-0.9337323648341922,0.02540965080264357,0.005619911938792299,-0.052978028513273046,0.0,70.0,255.0,255.0,255.0
289,14.450000000000001,13.859190309454668,-3.700247314225318,-7.129012775471963,0.4414874622389853,0.10482666076052194,-0.9363680244104522,0.02422536772908046,0.006170037851349619,-0.05256545884204655,0.0,70.0,255.0,255.0,255.0
290,14.5,13.881294826255507,-3.6949982230997316,-7.1758967869314025,0.4426722587858656,0.10514801069267943,-0.9389889107183969,0.023463522676969717,0.006582672449484406,-0.05245970701075464,0.0,70.0,255.0,255.0,255.0
291,14.55,13.903457535333255,-3.68973251315605,-7.222911666543803,0.44383381450668224,0.10548492800547038,-0.9416139951115277,0.023314905536864217,0.006783214358740963,-0.052728101638965796,0.0,70.0,255.0,255.0,255.0
292,14.600000000000001,13.925678207706175,-3.6844497302991845,-7.270058186442555,0.445003749339552,0.10582633212855352,-0.9442617208822934,0.023687935567906493,0.006797005588987659,-0.05327598694870872,0.0,70.0,255.0,255.0,255.0
293,14.65,13.94795791026721,-3.6791498799431945,-7.3173378386320325,0.4462026080634729,0.10616462856436915,-0.9469415938063985,0.024367198794017497,0.006690030344147502,-0.05391924131812331,0.0,70.0,255.0,255.0,255.0
294,14.700000000000001,13.970298468512523,-3.6738332674427476,-7.364752345823195,0.44744046921895375,0.10649533516296827,-0.9496536450141058,0.025139134029217303,0.006527161796210379,-0.05446840022544919,0.0,70.0,255.0,255.0,255.0
295,14.75,13.992701957189105,-3.6685003464268977,-7.412303203133443,0.4487165214663946,0.10681734474399018,-0.9523884338289434,0.02579592796845276,0.00637452937533034,-0.05473956251575984,0.0,70.0,255.0,255.0,255.0
296,14.8,14.015170120659162,-3.6631515329683486,-7.4599911892060895,0.450020062015799,0.10713278810050131,-0.9551276012656817,0.026214152521397693,0.0062727722177413625,-0.05463803740095585,0.0,70.0,255.0,255.0,255.0
297,14.850000000000001,14.037703963390685,-3.6577870676168476,-7.507815963260011,0.4513379367185344,0.10744462196576432,-0.957852237569039,0.026390377965590517,0.006223993591980559,-0.054230013319056525,0.0,70.0,255.0,255.0,255.0
298,14.9,14.060303914331016,-3.652407070771772,-7.555776412962993,0.4526590998123581,0.10775518745969936,-0.9605506025975874,0.026355306934533473,0.00622173824647021,-0.05365959828900202,0.0,70.0,255.0,255.0,255.0
299,14.950000000000001,14.08296987337192,-3.6470115488708776,-7.60387102351977,0.45397346741198774,0.10806679579041134,-0.9632181973979392,0.026132408510193272,0.006267515429803083,-0.05307422696958497,0.0,70.0,255.0,255.0,255.0
300,15.0,14.105701261072214,-3.641600391192731,-7.652098232702787,0.4552723406633774,0.10838193900267967,-0.9658580252945459,0.025744746801947826,0.0063712380209413055,-0.052618033602502834,0.0,70.0,255.0,255.0,255.0
301,15.05,14.128497107438259,-3.6361733549706097,-7.7004568260492245,0.4565479420921825,0.10870391959250547,-0.9684800007581895,0.025220745446929982,0.00653241005719174,-0.05237252264924663,0.0,70.0,255.0,255.0,255.0
302,15.100000000000001,14.151356055281433,-3.6307299992334805,-7.748946232778606,0.4577944152080704,0.10903518000839885,-0.9710952775594706,0.024631391729457164,0.00670702004348378,-0.05232032341098147,0.0,70.0,255.0,255.0,255.0
303,15.15,14.174276548959066,-3.62526983696977,-7.797566353805172,0.45901108126512824,0.10937462159685385,-0.9737120330992877,0.024092412631304683,0.006823016669654791,-0.05240684105114468,0.0,70.0,255.0,255.0,255.0
304,15.200000000000001,14.197257163407945,-3.619792537073795,-7.846317436088535,0.4602036564712009,0.10971748167536433,-0.976335961664585,0.023730206290650813,0.006809489771075761,-0.052580892363529586,0.0,70.0,255.0,255.0,255.0
305,15.25,14.220296914606186,-3.6142980888022334,-7.89519994997163,0.4613841018941933,0.11005557057396143,-0.9789701223356406,0.02366909414615037,0.006592546513273234,-0.052796321721615413,0.0,70.0,255.0,255.0,255.0
306,15.3,14.243395573597365,-3.608786980016399,-7.944214448322099,0.4625705658858159,0.11037673632669165,-0.9816155938367466,0.023963378509073152,0.006143788019530305,-0.05301909810722094,0.0,70.0,255.0,255.0,255.0
307,15.350000000000001,14.266553971194767,-3.603260415169564,-7.993361509355305,0.46378043974510064,0.11066994937591446,-0.9842720321463627,0.024519579593018648,0.005549697795625974,-0.0532096254380221,0.0,70.0,255.0,255.0,255.0
308,15.4,14.289773617571875,-3.5977199850788075,-8.042641651536735,0.4650225238451178,0.11093170610625425,-0.9869365563805488,0.025158678905512488,0.0049652626741281125,-0.0533112659465651,0.0,70.0,255.0,255.0,255.0
309,15.450000000000001,14.313056223579279,-3.5921672445589388,-8.09205516499336,0.4662963076356519,0.11116647564332727,-0.9896031587410192,0.025693992434483448,0.004547299378998559,-0.053262716397739496,0.0,70.0,255.0,255.0,255.0
310,15.5,14.33640324833544,-3.586603337514475,-8.141601967410837,0.4675919230885661,0.1113864360441541,-0.9922628280203227,0.025942885937091376,0.00445055727800181,-0.05299667950922071,0.0,70.0,255.0,255.0,255.0
311,15.55,14.359815415888136,-3.5810286009545234,-8.191281447795392,0.468890596229361,0.11161153137112745,-0.9949028266919413,0.025812453801954405,0.00474623739807889,-0.05249057209990582,0.0,70.0,255.0,255.0,255.0
312,15.600000000000001,14.383292307958376,-3.575442184377362,-8.241092250080031,0.47017316846876156,0.11186105978396199,-0.9975118852303133,0.02537569782354865,0.0053297132495799815,-0.05184294640052656,0.0,70.0,255.0,255.0,255.0
313,15.65,14.406832732735012,-3.569842494976127,-8.291032636318423,0.4714281660117159,0.11214450269608545,-1.000087121331994,0.02478746382301722,0.005999568997827609,-0.051227162763467504,0.0,70.0,255.0,255.0,255.0
314,15.700000000000001,14.430435124559548,-3.5642277341077535,-8.34110096221323,0.4726519148510633,0.11246101668374475,-1.00263460150666,0.024207110686269573,0.006548538820050354,-0.05082101593689714,0.0,70.0,255.0,255.0,255.0
315,15.75,14.454097924220118,-3.5585963933077527,-8.39129609646909,0.47384887708034285,0.11279935657809048,-1.0051692229256837,0.023795352780986434,0.006769233698644683,-0.050808941590752,0.0,70.0,255.0,255.0,255.0
316,15.8,14.477820012267582,-3.5529477984499445,-8.4416178845058,0.4750314501291619,0.11313794005360922,-1.0077154956657353,0.023639580174084074,0.006557975674770233,-0.05127241302744778,0.0,70.0,255.0,255.0,255.0
317,15.850000000000001,14.501601069233034,-3.5472825993023918,-8.492067646035663,0.47621283509775125,0.1134551541455675,-1.0102964642284284,0.02369399274826378,0.006016857131418973,-0.05205411343833788,0.0,70.0,255.0,255.0,255.0
318,15.9,14.525441295777357,-3.5416022830353877,-8.542647530928642,0.4774008494039883,0.11373962576675112,-1.012920907009569,0.0238559413270778,0.005351053409352602,-0.052863719363926975,0.0,70.0,255.0,255.0,255.0
319,15.950000000000001,14.549341154173433,-3.5359086367257166,-8.59335973673662,0.47859842923045903,0.11399025948650277,-1.0155828361648211,0.02402376528873873,0.004765118767036114,-0.05340715924635475,0.0,70.0,255.0,255.0,255.0
320,16.0,14.573301138700403,-3.5302032570867374,-8.644205814545124,0.4798032259328622,0.11421613764345473,-1.0182616229342045,0.02408372158804184,0.00445647063176402,-0.05338359142204041,0.0,70.0,255.0,255.0,255.0
321,16.05,14.59732147676672,-3.524487022961371,-8.69518589903004,0.4810068013892632,0.11443590654967917,-1.0209211953070252,0.02397645160669981,0.0045284333296979895,-0.0526526895447077,0.0,70.0,255.0,255.0,255.0
322,16.1,14.62140181883933,-3.5187596664317695,-8.746297934075827,0.48220087109353216,0.11466898097642453,-1.0235268918886753,0.02376926358333975,0.004917450298780324,-0.05142777933517806,0.0,70.0,255.0,255.0,255.0
323,16.150000000000002,14.645541563876073,-3.5130201248637287,-8.797538588218908,0.4833837277475972,0.1149276515795572,-1.026063973240543,0.023586999308733425,0.005481625290171266,-0.050111619454185075,0.0,70.0,255.0,255.0,255.0
324,16.2,14.669740191614089,-3.507266901273814,-8.848904331399881,0.4845595710244055,0.11521714350544165,-1.0285380538340938,0.023544914406237183,0.006077699398421288,-0.049109694396953785,0.0,70.0,255.0,255.0,255.0
325,16.25,14.693997520978513,-3.5014984105131846,-8.900392393602317,0.4857382191882209,0.11553542151939933,-1.0309749426802384,0.023765704921352437,0.006568893098535256,-0.04883263677584182,0.0,70.0,255.0,255.0,255.0
326,16.3,14.718314013532911,-3.495713359121874,-8.952001825667905,0.48693614151654074,0.11587403281529518,-1.033421317511678,0.02430169964604545,0.006875517113913432,-0.04947720175341175,0.0,70.0,255.0,255.0,255.0
327,16.35,14.742691135130167,-3.489911007231655,-9.003734525353485,0.48816838915282545,0.11622297323079067,-1.0359226628555795,0.025027181358083794,0.006996978036921675,-0.0507848857729698,0.0,70.0,255.0,255.0,255.0
328,16.400000000000002,14.767130852448194,-3.484091061798795,-9.055594091953463,0.4894388596523491,0.11657373061898735,-1.038499806088975,0.02571699383970838,0.006957969905352357,-0.05225884710764461,0.0,70.0,255.0,255.0,255.0
329,16.45,14.791635021095402,-3.4782536341697563,-9.107584505962382,0.4907400885367963,0.11691877022132591,-1.041148547566344,0.026150516478651298,0.006784596459619152,-0.05340142913308199,0.0,70.0,255.0,255.0,255.0
330,16.5,14.816204861301873,-3.472399184776662,-9.159708946710097,0.49205391130021425,0.11725219026494926,-1.0438399490022832,0.026113505346359034,0.006511966298106131,-0.053717936067521066,0.0,70.0,255.0,255.0,255.0
331,16.55,14.840840412225424,-3.4665284151432614,-9.21196850086261,0.4933514390714322,0.11756996685113652,-1.0465203411730961,0.025509150742131226,0.006168472573797601,-0.052964843766467595,0.0,70.0,255.0,255.0,255.0
332,16.6,14.865540005209017,-3.4606421880915486,-9.264360980827407,0.4946048263744274,0.11786903752232902,-1.04913643337893,0.024488258070221036,0.005775476714875438,-0.05140526498639275,0.0,70.0,255.0,255.0,255.0
333,16.650000000000002,14.890300894862866,-3.4547415113910285,-9.316882144200504,0.4958002648784543,0.11814751452262406,-1.0516608676717354,0.023340456567133572,0.00536733424927327,-0.04956124386357175,0.0,70.0,255.0,255.0,255.0
334,16.7,14.915120031696862,-3.448827436639286,-9.36952706759458,0.49693887203114073,0.11840577094725635,-1.054092557765287,0.02236528075023614,0.004989602408311811,-0.047957223102024216,0.0,70.0,255.0,255.0,255.0
335,16.75,14.93999478206598,-3.442900934296303,-9.422291399977032,0.4980367929534779,0.11864647476345525,-1.0564565899819378,0.021860273694329635,0.004679279005115333,-0.047107553687375514,0.0,70.0,255.0,255.0,255.0
336,16.8,14.96492371099221,-3.4369627891629406,-9.475172726592774,0.4991248994005737,0.11887369884776788,-1.0588033131340246,0.021974984099237815,0.004457305877636486,-0.047276570033716325,0.0,70.0,255.0,255.0,255.0
337,16.85,14.989907272006038,-3.431013564411526,-9.528171731290435,0.5002342913634017,0.1190922053512189,-1.0611842469853094,0.022571674472082748,0.004338411140825116,-0.048260534467736704,0.0,70.0,255.0,255.0,255.0
338,16.900000000000002,15.01494714012855,-3.4250535686278187,-9.581291151291305,0.501382066847782,0.1193075399618504,-1.0636293665807983,0.023369291779928858,0.004335397060328816,-0.04962969725212929,0.0,70.0,255.0,255.0,255.0
339,16.95,15.040045478690816,-3.419082810415341,-9.634534667948515,0.5025712205413946,0.11952574505725178,-1.0661472167105224,0.02408178709405462,0.004450280620504898,-0.050949818317569395,0.0,70.0,255.0,255.0,255.0
340,17.0,15.06520426218269,-3.4131009941220936,-9.687905872962357,0.5037902455571874,0.11975256802390088,-1.0687243484125553,0.024417427849598994,0.004674880385202584,-0.05178788647928201,0.0,70.0,255.0,255.0,255.0
341,17.05,15.090424503246535,-3.407107553612951,-9.74140710278977,0.5050129633263545,0.11999323309577203,-1.0713260053584506,0.024224852255549933,0.004996616269936638,-0.05191004160050028,0.0,70.0,255.0,255.0,255.0
342,17.1,15.115705558515325,-3.4011016708125164,-9.795038473498202,0.5062127307827424,0.12025222965089455,-1.0739153525726053,0.023631384368094643,0.0053900395612593854,-0.05144257383324913,0.0,70.0,255.0,255.0,255.0
343,17.150000000000002,15.141045776324809,-3.3950823306478615,-9.84879863804703,0.507376101763164,0.12053223705189797,-1.0764702627417755,0.022895196824990194,0.0058102383482250275,-0.05066831211735234,0.0,70.0,255.0,255.0,255.0
344,17.2,15.166443168691641,-3.3890484471073266,-9.90268549977238,0.5085022504652414,0.12083325348571705,-1.0789821837843405,0.02226794383268782,0.006203587463993188,-0.04986438940655091,0.0,70.0,255.0,255.0,255.0
345,17.25,15.191896001371333,-3.3829990052992898,-9.956696856425465,0.5096028961464327,0.12115259579829729,-1.0814567016824306,0.022001949640859664,0.006525162158110831,-0.049316844449798225,0.0,70.0,255.0,255.0,255.0
346,17.3,15.217403458306284,-3.376933187527497,-10.010831169940623,0.5107024454293274,0.12148576970152813,-1.0839138682293203,0.022225467018088807,0.006749515755677393,-0.049182098064370905,0.0,70.0,255.0,255.0,255.0
347,17.35,15.242966245914266,-3.370850428329137,-10.065088243248397,0.5118254428482416,0.12182754737386503,-1.0863749114888677,0.022817380128437037,0.006864134577222458,-0.04936460143589727,0.0,70.0,255.0,255.0,255.0
348,17.400000000000002,15.268586002591109,-3.3647504327901103,-10.11946866108951,0.5129841834421711,0.12217218315925038,-1.08885032837291,0.023535328845447623,0.00686094558433048,-0.04966330136539909,0.0,70.0,255.0,255.0,255.0
349,17.45,15.294264664258483,-3.358633210013212,-10.173973276085688,0.5141789757327864,0.12251364193229808,-1.0913412416254076,0.024139864149219648,0.00674208280995181,-0.04989173827389948,0.0,70.0,255.0,255.0,255.0
350,17.5,15.320003900164387,-3.3524990685968805,-10.22860278525205,0.5153981698570931,0.12284639144024556,-1.0938395022003,0.024390810884433733,0.006520508278073933,-0.049856810311155186,0.0,70.0,255.0,255.0,255.0
351,17.55,15.345804481244192,-3.3463485708691874,-10.283357226305718,0.5166180568212297,0.12316569276010547,-1.096326922656523,0.024166706245232206,0.0062110083530075855,-0.049461706003128825,0.0,70.0,255.0,255.0,255.0
352,17.6,15.37166570584651,-3.34018249932087,-10.338235477517703,0.5178148404816163,0.12346749227554632,-1.098785672800613,0.023584503042251015,0.005834261291015608,-0.04882172438822607,0.0,70.0,255.0,255.0,255.0
353,17.650000000000002,15.397585965292354,-3.3340018216416327,-10.393235793585779,0.5189765071254548,0.12374911888920703,-1.1012090950953457,0.0228780798682493,0.005426818475706696,-0.04815577845871388,0.0,70.0,255.0,255.0,255.0
354,17.7,15.423563356559056,-3.3278075874319493,-10.448356387027237,0.5201026484684412,0.12401017412311699,-1.1036012506464843,0.022279172997308194,0.0050337689416313225,-0.04767523092326087,0.0,70.0,255.0,255.0,255.0
355,17.75,15.449596230139198,-3.321600804229321,-10.503595918650428,0.5212044244251857,0.12425249578337016,-1.1059766181876718,0.022018769525722348,0.004688842025180051,-0.047595867684613324,0.0,70.0,255.0,255.0,255.0
356,17.8,15.475683799001574,-3.3153823378536122,-10.558954048846005,0.5223045254210135,0.124479058325635,-1.1083608374149456,0.02221428142803461,0.004413164118854951,-0.04801816417074889,0.0,70.0,255.0,255.0,255.0
357,17.85,15.5018266826813,-3.3091528983967575,-10.614432002391922,0.5234258525679891,0.12469381219525566,-1.1107784346047467,0.02275919977670071,0.004236116296318926,-0.04878402548804672,0.0,70.0,255.0,255.0,255.0
358,17.900000000000002,15.528026384258373,-3.3029129566340867,-10.67003189230648,0.5245804453986835,0.12490266995526689,-1.1132392399637503,0.023437759606714792,0.004194484475927851,-0.049597221163821814,0.0,70.0,255.0,255.0,255.0
359,17.95,15.554284727221168,-3.296662631401231,-10.725755926388297,0.5257696285286606,0.12511326064284845,-1.1157381567211289,0.02403687043432967,0.004316128136627739,-0.050161277425786466,0.0,70.0,255.0,255.0,255.0
360,18.0,15.58060334711124,-3.290401630569802,-10.781605707978592,0.5269841324421165,0.12533428276892966,-1.118255367706329,0.024350148310148256,0.004628086324931502,-0.05017575624481907,0.0,70.0,255.0,255.0,255.0
361,18.05,15.60698314046538,-3.284129203124338,-10.83758146315893,0.5282046433596754,0.1255760692753416,-1.1207557323456108,0.024269594616832535,0.005130647525675158,-0.049498551066662344,0.0,70.0,255.0,255.0,255.0
362,18.1,15.633423811447207,-3.2778440236422677,-10.893681281213153,0.5294110919037998,0.12584734752149718,-1.1232052228129952,0.023864105774329403,0.005740434363232794,-0.0483293531488016,0.0,70.0,255.0,255.0,255.0
363,18.150000000000002,15.65992424965576,-3.271544468372188,-10.94990198544023,0.5305910539371084,0.12615011271166487,-1.125588667660491,0.02328547377938861,0.006314404460194822,-0.04704899656040595,0.0,70.0,255.0,255.0,255.0
364,18.2,15.686482916840918,-3.265229012371101,-11.006240147979202,0.5317396392817386,0.12647878796751666,-1.1279101224690358,0.022686631977819616,0.006702744152553564,-0.04603900669106764,0.0,70.0,255.0,255.0,255.0
365,18.25,15.713098213583933,-3.2588965895754365,-11.062692997687133,0.5328597171348903,0.12682038712692023,-1.1301925683295977,0.022216627909621423,0.006754803350617067,-0.04567705139226774,0.0,70.0,255.0,255.0,255.0
366,18.3,15.739768888554407,-3.252546973658409,-11.119259404812162,0.5339613020727008,0.12715426830257837,-1.1324778276082625,0.021960113999597297,0.006403732957904751,-0.04614800452369394,0.0,70.0,255.0,255.0,255.0
367,18.35,15.766494343791203,-3.2461811627451786,-11.17594078044796,0.5350557285348501,0.1274607604227107,-1.134807368781967,0.021900740762426096,0.0057666217758267635,-0.047248678466260685,0.0,70.0,255.0,255.0,255.0
368,18.400000000000002,15.793274461407892,-3.239800897616138,-11.232740141690359,0.5361513761489434,0.12773093048016104,-1.1372026954548886,0.021984820799936244,0.005064261319942531,-0.048575836884090506,0.0,70.0,255.0,255.0,255.0
369,18.45,15.820109481406098,-3.2334080696971625,-11.289661049993448,0.5372542106148437,0.12796718655470496,-1.1396649524703761,0.022162802119041203,0.0045256691453055,-0.04972334849036031,0.0,70.0,255.0,255.0,255.0
370,18.5,15.846999882469376,-3.2270041789606676,-11.346706636937396,0.5383676563608475,0.1281834973946916,-1.1421750303039246,0.02239135869768205,0.0043886909483870085,-0.05029608480651149,0.0,70.0,255.0,255.0,255.0
371,18.55,15.873946247042182,-3.2205897199576934,-11.40387855302384,0.5394933464846119,0.12840605564954366,-1.1446945609510273,0.02263717549375599,0.00476770735646781,-0.05008957069989606,0.0,70.0,255.0,255.0,255.0
372,18.6,15.900949217117837,-3.2141635733957132,-11.461176093032499,0.5406313739102231,0.12866026813033837,-1.1471839873739142,0.02285386357900876,0.0055076706078516224,-0.04924674883639568,0.0,70.0,255.0,255.0,255.0
373,18.650000000000002,15.928009384433205,-3.2077236931446595,-11.518596951761232,0.5417787328425128,0.12895682271032882,-1.1496192358346669,0.022973471459586392,0.006313958185355517,-0.0480768400523246,0.0,70.0,255.0,255.0,255.0
374,18.7,15.955127090402089,-3.2012678911246804,-11.576138016615966,0.5429287210561817,0.12929166394887392,-1.1519916713791467,0.022922672364344976,0.006894719126648852,-0.04689417277354835,0.0,70.0,255.0,255.0,255.0
375,18.75,15.982302256538823,-3.194794526749772,-11.633796118899147,0.5440710000789473,0.1296462946229937,-1.1543086531120217,0.022617937298896607,0.006958498123754708,-0.04601059073312541,0.0,70.0,255.0,255.0,255.0
376,18.8,16.009534190409983,-3.188303261662381,-11.691568881927168,0.5451905147860714,0.1299875137612494,-1.1565927304524593,0.022030671205719443,0.006365064655966535,-0.0455992604635469,0.0,70.0,255.0,255.0,255.0
377,18.85,16.03682130801743,-3.181795775373647,-11.749455391944393,0.5462740671995192,0.13028280108859036,-1.1588685791583764,0.02128557648184426,0.005289875279812506,-0.04559705345972276,0.0,70.0,255.0,255.0,255.0
378,18.900000000000002,16.064161597129935,-3.175274981553522,-11.807455739843006,0.5473190724342558,0.13051650128923065,-1.1611524357984315,0.020600360962674813,0.004073565612250363,-0.04584575395512047,0.0,70.0,255.0,255.0,255.0
379,18.95,16.091553215260856,-3.168744125244724,-11.865570635524236,0.5483341032957867,0.1306901576498154,-1.1634531545538884,0.02019256903196265,0.0030548016678899614,-0.04619236134910665,0.0,70.0,255.0,255.0,255.0
380,19.0,16.118995007459514,-3.1622059657885404,-11.923801055298394,0.5493383293374521,0.13082198145601964,-1.1657716719333422,0.02027684548444597,0.0025532606120481915,-0.046477589556026544,0.0,70.0,255.0,255.0,255.0
381,19.05,16.1464870481946,-3.155661927099122,-11.98214780271757,0.5503617878442313,0.13094548371102022,-1.168100913509491,0.02094773874929956,0.002732406979744084,-0.04660783966023985,0.0,70.0,255.0,255.0,255.0
382,19.1,16.174031186243937,-3.1491114174174384,-12.040611146649344,0.551433103212382,0.13109522215399405,-1.1704324558993662,0.022037583407552574,0.003482944823662848,-0.04660690212663354,0.0,70.0,255.0,255.0,255.0
383,19.150000000000002,16.20163035851584,-3.142552404883723,-12.099191048307507,0.5525655461849865,0.1312937781933865,-1.1727616037221544,0.023229653456979804,0.0045608236547867165,-0.04653660100348844,0.0,70.0,255.0,255.0,255.0
384,19.200000000000003,16.229287740862436,-3.1359820395980997,-12.157887307021559,0.55375606855808,0.13155130451947272,-1.175086115999715,0.024201503724086137,0.005713300308629599,-0.04644398089794777,0.0,70.0,255.0,255.0,255.0
385,19.25,16.257005965371647,-3.1293972744317755,-12.216699659907478,0.5549856965573952,0.13186510822424946,-1.1774060018119492,0.024646708733655487,0.00670445010366727,-0.04637499509936305,0.0,70.0,255.0,255.0,255.0
386,19.3,16.284786310518175,-3.122795528775675,-12.275627907202754,0.5562207394314456,0.13222174952983945,-1.1797236155096513,0.024411287549241933,0.007393046352976995,-0.046355954322585546,0.0,70.0,255.0,255.0,255.0
387,19.35,16.31262803931479,-3.1161750994787916,-12.334672021458443,0.5574268253123194,0.13260441285954716,-1.1820415972442078,0.02361397333707771,0.0077456181533097634,-0.046375338032866864,0.0,70.0,255.0,255.0,255.0
388,19.400000000000002,16.340528993049407,-3.10953508748972,-12.393832066927175,0.5585821367651533,0.13299631134517043,-1.184361149312938,0.022511980919404095,0.0077541887193888215,-0.04640784203093773,0.0,70.0,255.0,255.0,255.0
389,19.450000000000003,16.368486252991307,-3.1028754683442745,-12.453108136389737,0.5596780234042598,0.13337983173148604,-1.1866823814473015,0.021374189963196955,0.00741302273850053,-0.046431715059469525,0.0,70.0,255.0,255.0,255.0
390,19.5,16.396496795389833,-3.0961971043165715,-12.512500305071905,0.560719555761473,0.13373761361902048,-1.189004320818885,0.020460328904903236,0.006716957621444308,-0.04642243004546742,0.0,70.0,255.0,255.0,255.0
391,19.55,16.424558208567454,-3.0895017069823725,-12.572008568471626,0.5617240562947501,0.13405152749363047,-1.1913246244518483,0.01991937212899586,0.005693356326030852,-0.04636834304889703,0.0,70.0,255.0,255.0,255.0
392,19.6,16.452669201019308,-3.0827919515672084,-12.63163276751709,0.5627114929743726,0.13430694925162356,-1.1936411551237747,0.01973925051821368,0.0044962608845899865,-0.04629174574333206,0.0,70.0,255.0,255.0,255.0
393,19.650000000000002,16.48082935786489,-3.07607101205721,-12.691372683984003,0.5636979813465715,0.13450115358208947,-1.1959537990261815,0.019851373912516124,0.003384099789593975,-0.0462320308741937,0.0,70.0,255.0,255.0,255.0
394,19.700000000000003,16.509038999153965,-3.0693418362089995,-12.751228147419708,0.5646966303656242,0.13464535923058296,-1.198264358211194,0.02018742406484364,0.0026325574558949683,-0.046229158864186104,0.0,70.0,255.0,255.0,255.0
395,19.75,16.537299020901454,-3.062606476134152,-12.811199119805122,0.5657167237530558,0.13476440932767897,-1.2005767149126,0.020675984969287242,0.002515738058450623,-0.04633528471664761,0.0,70.0,255.0,255.0,255.0
396,19.8,16.56561067152927,-3.0558653952762316,-12.871285818910968,0.566764228862553,0.13489693303642802,-1.2028978866828588,0.021259475687074314,0.0031545539831867586,-0.046570673479884306,0.0,70.0,255.0,255.0,255.0
397,19.85,16.59397544378771,-3.049116782830509,-12.931488908473408,0.5678426713217632,0.13507986472599764,-1.2052337822605885,0.021869117833617224,0.004340387259116341,-0.0468576789954156,0.0,70.0,255.0,255.0,255.0
398,19.900000000000002,16.622394938661447,-3.042357408803632,-12.991809197137027,0.5689511406459147,0.13533097176233966,-1.2075836545824004,0.02239991270798214,0.005676684850186575,-0.04706403447460872,0.0,70.0,255.0,255.0,255.0
399,19.950000000000003,16.6508705578523,-3.035583685654275,-13.052247273931648,0.5700826625925615,0.1356475332110163,-1.2099401857080494,0.022730938950488166,0.006751199653143303,-0.0470650760563629,0.0,70.0,255.0,255.0,255.0
400,20.0,16.679403204920703,-3.02879265548253,-13.112803215707832,0.5712242345409635,0.136006091727654,-1.2122901621880366,0.02273969391985986,0.00714810879220984,-0.04674048703119382,0.0,70.0,255.0,255.0,255.0
401,20.05,16.707992981306397,-3.0219830764815097,-13.173476290150452,0.5723566319845474,0.1363623440902373,-1.2146142344111688,0.022375499016291656,0.00666185431419386,-0.046041363965620974,0.0,70.0,255.0,255.0,255.0
402,20.1,16.736638868119158,-3.0151564210735065,-13.234264639148948,0.5734617844425927,0.13667227715907337,-1.2168942985845987,0.021748753673378474,0.005513005930080084,-0.045081081398024025,0.0,70.0,255.0,255.0,255.0
403,20.150000000000002,16.765339159750656,-3.0083158487656023,-13.295165720008912,0.5745315073518853,0.1369136446832453,-1.2191223425509712,0.02106533889225659,0.004138344958759532,-0.0440699664244093,0.0,70.0,255.0,255.0,255.0
404,20.200000000000003,16.794092018854347,-3.001465056605182,-13.356176873404046,0.5755683183318183,0.13708611165494933,-1.2213012952270397,0.0205415940264686,0.002975790784942589,-0.04322279798198991,0.0,70.0,255.0,255.0,255.0
405,20.25,16.822895991583838,-2.9946072376001074,-13.417295849531616,0.5765856667545322,0.13721122376173955,-1.2234446223491702,0.020401230026578787,0.0024597521807390166,-0.042738757834470675,0.0,70.0,255.0,255.0,255.0
406,20.3,16.8517505855298,-2.987743934229008,-13.478521335638963,0.5776084413344762,0.13733208687302323,-1.2255751710104867,0.02075181496046241,0.002811175612871253,-0.042717670193681556,0.0,70.0,255.0,255.0,255.0
407,20.35,16.880656835717286,-2.980874028912805,-13.539853366632665,0.5786608482505784,0.13749234132302668,-1.2277163893685383,0.02145045954691227,0.003836773169929586,-0.043090815924884396,0.0,70.0,255.0,255.0,255.0
408,20.400000000000002,16.909616670354858,-2.9739947000967053,-13.601292974575816,0.5797534872891674,0.1377157641900162,-1.2298842526029752,0.02222413964716452,0.005140751165466639,-0.04370244015188263,0.0,70.0,255.0,255.0,255.0
409,20.450000000000003,16.938632184446202,-2.9671024524938034,-13.662841791892962,0.5808832622152948,0.13800641643957334,-1.2320866333837266,0.022802824803491717,0.006325777066917837,-0.04438424483694803,0.0,70.0,255.0,255.0,255.0
410,20.5,16.967704996576387,-2.960194058452748,-13.724501637914189,0.5820337697695166,0.13834834189670797,-1.23432267708667,0.022923451242462534,0.006992929105065215,-0.04497245365975289,0.0,70.0,255.0,255.0,255.0
411,20.55,16.996835561423154,-2.9532676183041326,-13.786274059601629,0.5831756073395411,0.13870570935007986,-1.2365838787497019,0.022456868183695633,0.0069340959151009685,-0.04536898089941843,0.0,70.0,255.0,255.0,255.0
412,20.6,17.02602255731034,-2.94632348751774,-13.84816002578916,0.5842794565878862,0.13904175148821807,-1.2388595751766118,0.021536587626869164,0.0063089456790788034,-0.04556022366752899,0.0,70.0,255.0,255.0,255.0
413,20.650000000000002,17.055263507081943,-2.939363443155311,-13.91016001711929,0.585329266102228,0.13933660391798774,-1.2411399011164548,0.020431762192174574,0.005448766929472271,-0.04555402588319879,0.0,70.0,255.0,255.0,255.0
414,20.700000000000003,17.084555483920564,-2.932389827125941,-13.972274015900805,0.5863226328071036,0.1395866281811653,-1.2434149777649317,0.019413167365556205,0.0046814739079970025,-0.04535453502363396,0.0,70.0,255.0,255.0,255.0
415,20.75,17.113895770362653,-2.9254047803371943,-14.034501514895783,0.5872705828387836,0.13980475130878744,-1.2456753546188182,0.01873293702949752,0.004344475454942653,-0.04496340887794048,0.0,70.0,255.0,255.0,255.0
416,20.8,17.143282542204442,-2.9184093519950625,-14.096841551362687,0.5881959265100534,0.14002107572665956,-1.2479113186527258,0.01852728572977469,0.004611788045716381,-0.044398667281164705,0.0,70.0,255.0,255.0,255.0
417,20.85,17.17271536301366,-2.9114026727645284,-14.159292646761056,0.5891233114117611,0.14026593011335908,-1.2501152213469346,0.01875507805948473,0.005321103787325754,-0.04374912856572877,0.0,70.0,255.0,255.0,255.0
418,20.900000000000002,17.20219487334562,-2.9043827589837266,-14.22185307349738,0.5900714343160018,0.14055318610539214,-1.2522862315092986,0.019296923473532956,0.006151360604489398,-0.04316229547676187,0.0,70.0,255.0,255.0,255.0
419,20.950000000000003,17.23172250644526,-2.897347354153989,-14.284521269911986,0.5910530037591144,0.14088106617380802,-1.2544314508946108,0.020024505732862963,0.006794667627607609,-0.04279658942767384,0.0,70.0,255.0,255.0,255.0
420,21.0,17.26130017372153,-2.8902946523663458,-14.347296218586841,0.5920738848892881,0.1412326528681529,-1.256565890452066,0.02081277266547943,0.006949262314659421,-0.04281792015170538,0.0,70.0,255.0,255.0,255.0
421,21.05,17.290929894934187,-2.883224088867174,-14.410177858957192,0.5931342810256623,0.14157599240527396,-1.2587132429097814,0.021575527357242663,0.006465092228058467,-0.04329686279742617,0.0,70.0,255.0,255.0,255.0
422,21.1,17.320613601824096,-2.8761370531258184,-14.47316754287782,0.5942314376250124,0.14187916209095874,-1.2608955767318086,0.022245897341122145,0.005493818658930394,-0.04407878654539843,0.0,70.0,255.0,255.0,255.0
423,21.150000000000002,17.35035303869669,-2.869036172658078,-14.536267416630373,0.5953588707597746,0.142125374271167,-1.2631211215643212,0.022735229230619325,0.004339450326851235,-0.044880428572646736,0.0,70.0,255.0,255.0,255.0
424,21.200000000000003,17.380149488900074,-2.8619245156987017,-14.599479655034251,0.5965049605480743,0.14231310712364387,-1.2653836195890733,0.022950348163774947,0.0033059161876014542,-0.04541304666023649,0.0,70.0,255.0,255.0,255.0
425,21.25,17.410003534751496,-2.8548048619457136,-14.66280577858928,0.5976539055761521,0.14245596588992715,-1.2676624262303449,0.022815972308265486,0.0026864473137599987,-0.04538094781043611,0.0,70.0,255.0,255.0,255.0
426,21.3,17.43991487945769,-2.847678919109709,-14.726245897657286,0.5987865577789009,0.14258175185501987,-1.269921714370117,0.02230906638018837,0.002634416468705325,-0.044646795281622076,0.0,70.0,255.0,255.0,255.0
427,21.35,17.469882190529386,-2.8405466867602116,-14.789797950026292,0.5998848122141709,0.14271940753679768,-1.272127105758507,0.021506647263436207,0.0030555096892648237,-0.043422904740708645,0.0,70.0,255.0,255.0,255.0
428,21.400000000000002,17.499903360679106,-2.833406978356029,-14.853458608233137,0.6009372225052445,0.14288730282394635,-1.2742640048441878,0.020559362399552583,0.003738949976206385,-0.04210964990605248,0.0,70.0,255.0,255.0,255.0
429,21.450000000000003,17.52997591277991,-2.826257956477817,-14.917224350510711,0.6019407484541262,0.14309330253441832,-1.2763380707491123,0.019639276436222985,0.004468380908351222,-0.04111057125086859,0.0,70.0,255.0,255.0,255.0
430,21.5,17.56009743552452,-2.8190976481025873,-14.981092415308048,0.6029011501488668,0.14333414091478147,-1.2783750619692746,0.018907394045797332,0.005024948429888099,-0.040834232662234626,0.0,70.0,255.0,255.0,255.0
431,21.55,17.590266027794797,-2.811924542386339,-15.045061856707639,0.6038314878587059,0.14359579737740713,-1.2804214940153358,0.018454407586432353,0.005284980824926677,-0.04147632903457321,0.0,70.0,255.0,255.0,255.0
432,21.6,17.62048058431039,-2.8047380683648466,-15.109134564709581,0.60474659090751,0.14386263899727414,-1.282522694872732,0.018281173279532936,0.005288711349260566,-0.04277971104116318,0.0,70.0,255.0,255.0,255.0
433,21.650000000000002,17.65074068688555,-2.7975382784866114,-15.173314126194912,0.6056596051866592,0.1441246685123332,-1.284699465119452,0.018354500658546158,0.0051385026822003965,-0.0442500160938053,0.0,70.0,255.0,255.0,255.0
434,21.700000000000003,17.681046544829055,-2.7903256015136133,-15.237604511221527,0.6065820409733647,0.14437648926549418,-1.2869476964821125,0.018632033269838644,0.004928159246242458,-0.04539203430535821,0.0,70.0,255.0,255.0,255.0
435,21.75,17.711398890982885,-2.783100629560062,-15.302008895843123,0.607522808513643,0.14461748443695743,-1.289238668549988,0.01906643286098131,0.004753712346516892,-0.04571419613252914,0.0,70.0,255.0,255.0,255.0
436,21.8,17.74179882568042,-2.7758638530699176,-15.366528378076525,0.6084886842594628,0.14485186050014587,-1.2915191160953654,0.019614841736625976,0.0046717208375568475,-0.044974228905481084,0.0,70.0,255.0,255.0,255.0
437,21.85,17.77224775940883,-2.7686154435100474,-15.43116080745266,0.6094842926873056,0.14508465652071312,-1.293736091440536,0.020208752857797663,0.004668712512945206,-0.043430838506886005,0.0,70.0,255.0,255.0,255.0
438,21.900000000000002,17.80274725494915,-2.7613553874178463,-15.495901987220579,0.6105095595452426,0.1453187317514404,-1.295862199946054,0.02074002424343746,0.004708810856790535,-0.0415985374671024,0.0,70.0,255.0,255.0,255.0
439,21.950000000000003,17.833298715363355,-2.7540835703349034,-15.560747027447265,0.6115582951116494,0.14555553760639217,-1.2978959451872463,0.021087415660048237,0.004765182572796789,-0.03999392556082171,0.0,70.0,255.0,255.0,255.0
440,22.0,17.863903084460315,-2.746799833657207,-15.625691581739304,0.6126183011112474,0.14579525000872007,-1.2998615925021362,0.02113083721333453,0.00481223015640353,-0.039120917540280686,0.0,70.0,255.0,255.0,255.0
441,22.05,17.89456054547448,-2.7395040453340314,-15.690733186697479,0.6136713788329828,0.14603676062203252,-1.3018080369412743,0.020818999362504087,0.00483484911151244,-0.03923990219654172,0.0,70.0,255.0,255.0,255.0
442,22.1,17.925270222343613,-2.732196157595004,-15.755872385433431,0.6147002010474978,0.1462787349198713,-1.3037855827217903,0.02024829081506141,0.004836438598765369,-0.04016341511725585,0.0,70.0,255.0,255.0,255.0
443,22.150000000000002,17.95603056557923,-2.7248761718420442,-15.821111744969658,0.615696207914489,0.14652040448190906,-1.305824378453,0.019601766000221232,0.004826253890577448,-0.04148935385224206,0.0,70.0,255.0,255.0,255.0
444,22.200000000000003,17.986839843135062,-2.717544117146813,-15.886454823278731,0.6166603776475199,0.14676136030892906,-1.3079345181070146,0.01907107798224672,0.0048111104625991885,-0.0428124033110322,0.0,70.0,255.0,255.0,255.0
445,22.25,18.017696603343982,-2.7102000358111513,-15.95190519678036,0.6176033157127137,0.14700151552816898,-1.3101056187841031,0.018846208962486344,0.004797367028253063,-0.043738171001628245,0.0,70.0,255.0,255.0,255.0
446,22.3,18.048600174706333,-2.702843965593996,-16.01746538515714,0.6185449985437685,0.14724109701175436,-1.3123083352071774,0.019022447529337683,0.004788882716200149,-0.04404732781022602,0.0,70.0,255.0,255.0,255.0
447,22.35,18.07955110319836,-2.695475926109976,-16.083136030301077,0.6195055604656474,0.147480403799789,-1.3145103515651257,0.019512675958210934,0.004785533091933303,-0.04380547771347665,0.0,70.0,255.0,255.0,255.0
448,22.400000000000002,18.110550730752898,-2.688095925214017,-16.148916420313654,0.6204962661395896,0.1477196503209477,-1.316688882978525,0.020138319675666594,0.004786173581061703,-0.04319239211270087,0.0,70.0,255.0,255.0,255.0
449,22.450000000000003,18.141600729812318,-2.680703961077881,-16.21480491859893,0.6215193924332141,0.14795902115789517,-1.3188295907763958,0.020721698982484327,0.004790375576479988,-0.04238406026324526,0.0,70.0,255.0,255.0,255.0
450,22.5,18.17270266999622,-2.6733000230982276,-16.280799379391294,0.6225684360378381,0.1481986878785957,-1.3209272890048496,0.021100364234527547,0.004798301730790655,-0.041554370480056946,0.0,70.0,255.0,255.0,255.0
451,22.55,18.2038575734161,-2.6658840922900215,-16.346897647499414,0.6236294288566668,0.14843885133097423,-1.3229850278244015,0.021184637094151526,0.004809620023760175,-0.04081582152579699,0.0,70.0,255.0,255.0,255.0
452,22.6,18.235065612881886,-2.65845613796513,-16.413097882173734,0.6246868997472532,0.1486796498809717,-1.3250088711574293,0.02098641327847872,0.004821429033485813,-0.04021187682603511,0.0,70.0,255.0,255.0,255.0
453,22.650000000000002,18.266326263390827,-2.6510161273019244,-16.479398534615157,0.6257280701845147,0.1489209942343228,-1.327006215507005,0.020559547370169184,0.004829051785204541,-0.0397863923851105,0.0,70.0,255.0,255.0,255.0
454,22.700000000000003,18.297638419900338,-2.643564038541698,-16.545798503724434,0.6267428544842701,0.14916255505949216,-1.3289875103959403,0.019962126088302057,0.0048273872312432076,-0.03959653046088363,0.0,70.0,255.0,255.0,255.0
455,22.75,18.329000548839254,-2.636099871795975,-16.61229728565475,0.6277242827933449,0.14940373295744713,-1.3309658685530934,0.019240352749250178,0.004809426048701937,-0.03969637504859236,0.0,70.0,255.0,255.0,255.0
456,22.8,18.360410848179672,-2.628623665245953,-16.678895090579744,0.6286668897591952,0.14964349766436236,-1.3329571479007996,0.018437978452467974,0.004772637188565909,-0.04009712501478191,0.0,70.0,255.0,255.0,255.0
457,22.85,18.391867237815173,-2.621135522029539,-16.74559300044483,0.6295680806385917,0.14988099667630372,-1.3349755810545716,0.017659806125536193,0.004728750773885793,-0.040703471858805074,0.0,70.0,255.0,255.0,255.0
458,22.900000000000002,18.42336765624353,-2.6136355655783228,-16.8123926486852,0.6304328703717488,0.15011637274175094,-1.33702749508668,0.017067033967066436,0.004697619278415388,-0.041343903150803385,0.0,70.0,255.0,255.0,255.0
459,22.950000000000003,18.454910524852348,-2.606123884755364,-16.8792957499535,0.6312747840352984,0.15035075860414526,-1.339109971369652,0.016822057737897467,0.004700075498798029,-0.04183084353570621,0.0,70.0,255.0,255.0,255.0
460,23.0,18.48649513464706,-2.5986004897179082,-16.946303645822166,0.6321150761455385,0.15058638029163074,-1.3412105794402507,0.01708619679661183,0.004763994074252764,-0.04197211067378248,0.0,70.0,255.0,255.0,255.0
461,23.05,18.518122032466902,-2.5910652467262008,-17.013416807897524,0.6329834037149595,0.15082715801157054,-1.3433071824370302,0.017918274269845824,0.004899831221560902,-0.041675678411934314,0.0,70.0,255.0,255.0,255.0
462,23.1,18.549793475018557,-2.583517773916751,-17.08063436406587,0.6339069035725231,0.15107636341378683,-1.3453781472814441,0.019129047533184007,0.005063567871088637,-0.041059643666940815,0.0,70.0,255.0,255.0,255.0
463,23.150000000000002,18.581512722824154,-2.575957610384822,-17.14795462262567,0.6348963084682779,0.1513335147986794,-1.3474131468037243,0.020375113965442893,0.005180471101473572,-0.0403525870915189,0.0,70.0,255.0,255.0,255.0
464,23.200000000000003,18.613283105865385,-2.5683844224368833,-17.21537567874624,0.6359444149690674,0.1515944105239342,-1.349413405990596,0.02129789470899368,0.005179024060275594,-0.03978666882353821,0.0,70.0,255.0,255.0,255.0
465,23.25,18.64510716432106,-2.5607981693324287,-17.28289596322473,0.6370260979391773,0.15185141720470696,-1.351391813686078,0.021534860061578343,0.0049866256261577036,-0.03959914495546002,0.0,70.0,255.0,255.0,255.0
466,23.3,18.676985715659303,-2.5531992807164126,-17.35051486011485,0.6380979009752252,0.15209307308654996,-1.353373320486142,0.020915124935072527,0.004574238391263918,-0.03990673476117479,0.0,70.0,255.0,255.0,255.0
467,23.35,18.708916954418584,-2.5455888620237737,-17.418233295273343,0.6391176104326846,0.15230884104383335,-1.3553824871621956,0.019673887194215922,0.004018749303646985,-0.04057254554936662,0.0,70.0,255.0,255.0,255.0
468,23.400000000000002,18.74089747670257,-2.537968396612029,-17.48605310883107,0.6400652896946468,0.15249494801691466,-1.3574305750410787,0.018263465881673824,0.0034595639149426205,-0.04133115641167251,0.0,70.0,255.0,255.0,255.0
469,23.450000000000003,18.77292348338805,-2.530339367222082,-17.55397635277745,0.6409439570208519,0.15265479743532762,-1.3595156028033628,0.0171457107430939,0.003036602152972634,-0.041922621030465734,0.0,70.0,255.0,255.0,255.0
470,23.5,18.804991872404656,-2.5227029168684965,-17.622004669111405,0.6417798607689562,0.15279860823221192,-1.3616228371441252,0.016794316336543602,0.0028814847726987836,-0.04209937476993275,0.0,70.0,255.0,255.0,255.0
471,23.55,18.837101469464944,-2.515059506398861,-17.690138636491863,0.6426233886545063,0.1529429459125975,-1.363725540280356,0.017441086131597672,0.0030570147470765363,-0.041737009583187046,0.0,70.0,255.0,255.0,255.0
472,23.6,18.869254211270107,-2.5074086222772367,-17.75837722313944,0.643523969382116,0.15310430970691957,-1.365796538102444,0.01880458783993788,0.0034969593902367535,-0.04093735362218354,0.0,70.0,255.0,255.0,255.0
473,23.650000000000002,18.901453866403156,-2.499749075428169,-17.826718290302107,0.6445038474385001,0.15329264185162117,-1.3678192756425744,0.020341838358106656,0.004064909602385924,-0.03991644693570606,0.0,70.0,255.0,255.0,255.0
474,23.700000000000003,18.933704596013957,-2.4920793580920746,-17.895159150703698,0.6455581532179266,0.15351080066715816,-1.3697881827960146,0.021512828752889845,0.004615080148706596,-0.03889562094769872,0.0,70.0,255.0,255.0,255.0
475,23.75,18.966009681724948,-2.4843979953614532,-17.96369710858171,0.6466551303137891,0.15375414986649183,-1.3717088377373443,0.02177197715731438,0.004999416634898779,-0.038083355964246834,0.0,70.0,255.0,255.0,255.0
476,23.8,18.998370109045336,-2.4767039431054254,-18.032330034477432,0.6477353509336581,0.15401074233064804,-1.3735965183924392,0.02085358414980476,0.005138215440148031,-0.03759800080018749,0.0,70.0,255.0,255.0,255.0
477,23.85,19.030783216818314,-2.4689969211283884,-18.101056760420953,0.6487404887287695,0.15426797141050663,-1.375468637817363,0.01908034885644838,0.005077049499124797,-0.037431699634993265,0.0,70.0,255.0,255.0,255.0
478,23.900000000000002,19.063244157918213,-2.4612771459643747,-18.16987689825917,0.6496433858193029,0.15451844728056052,-1.3773396883559386,0.017077432434930984,0.004916322151649055,-0.037530235332994266,0.0,70.0,255.0,255.0,255.0
479,23.950000000000003,19.095747555400244,-2.4535450764003324,-18.238790729256547,0.6504482319722626,0.15475960362567154,-1.3792216613506625,0.015468894993730942,0.004756876786293773,-0.037834382358425955,0.0,70.0,255.0,255.0,255.0
480,24.0,19.12828898111544,-2.4458011856018076,-18.307799064394235,0.651190275318676,0.1549941349591899,-1.3811231265917812,0.01487768179373461,0.004712830039110827,-0.03827918272421016,0.0,70.0,255.0,255.0,255.0
481,24.05,19.160866582932112,-2.4380456629044134,-18.376903041915725,0.6519360001516361,0.15523088662958262,-1.3830495796230835,0.01561152365354701,0.004842897384804701,-0.03881252567801141,0.0,70.0,255.0,255.0,255.0
482,24.1,19.193482581130603,-2.4302780969388493,-18.446104022356543,0.6527514276840307,0.15547842469767037,-1.3850043791595823,0.017338725359294926,0.005073910212560762,-0.039375941076613685,0.0,70.0,255.0,255.0,255.0
483,24.150000000000002,19.226141725700515,-2.4224978204346463,-18.515403479831683,0.6536698726875656,0.1557382776508387,-1.3869871737307449,0.019402884118946417,0.005271573352771952,-0.0398800010103173,0.0,70.0,255.0,255.0,255.0
484,24.200000000000003,19.25884956839936,-2.4147042691737655,-18.584802739729618,0.6546917160959254,0.15600558203294757,-1.388992379260614,0.021145670525513083,0.005310326459317949,-0.04022167479682537,0.0,70.0,255.0,255.0,255.0
485,24.25,19.291610897310107,-2.4068972622313516,-18.654302717757744,0.6557844397401169,0.1562693102967705,-1.3910093412104274,0.02191337958166173,0.005053319152947822,-0.04030387584279538,0.0,70.0,255.0,255.0,255.0
486,24.3,19.32442801237337,-2.3990773381440884,-18.72390367385066,0.6568830540540915,0.15651091394824235,-1.3930227668448936,0.021373887670250724,0.004443108773344306,-0.040084670376927534,0.0,70.0,255.0,255.0,255.0
487,24.35,19.357299202715517,-2.3912461708365274,-18.793604994442234,0.657921828507142,0.15671362117410492,-1.3950178082481202,0.019820973483319904,0.003629081212208618,-0.0396290115819653,0.0,70.0,255.0,255.0,255.0
488,24.400000000000002,19.390220195224085,-2.383405976026678,-18.863405454675473,0.6588651514024235,0.1568738220694632,-1.39698566800309,0.017854807313000265,0.0028764520364266133,-0.0390661242654744,0.0,70.0,255.0,255.0,255.0
489,24.450000000000003,19.42318571785576,-2.375558788629581,-18.933303561242543,0.659707309238442,0.15700126637774758,-1.3989244206746676,0.016074856471703924,0.002447877982625357,-0.038538405635790696,0.0,70.0,255.0,255.0,255.0
490,24.5,19.45619092614793,-2.367705849388903,-19.00329789674294,0.6604726370495939,0.15711860986772574,-1.4008395085666692,0.015072715964237204,0.002613846728838354,-0.03819333255208335,0.0,70.0,255.0,255.0,255.0
491,24.55,19.48923298156072,-2.3598469276428085,-19.07338751209921,0.6612145808348657,0.15726265105063142,-1.402743753929876,0.01515884641101195,0.003492266589333326,-0.03810827999117805,0.0,70.0,255.0,255.0,255.0
492,24.6,19.522312384231416,-2.35197958428384,-19.143572272135927,0.6619885216906951,0.15746783652665908,-1.404650336565787,0.016122928492023902,0.004843517852437529,-0.03822437622957864,0.0,70.0,255.0,255.0,255.0
493,24.650000000000002,19.555431833729788,-2.3441001439901425,-19.21385254575579,0.6628268736840681,0.15774700283587517,-1.4065661915528338,0.017513178005756913,0.00622718726592808,-0.03841997745475112,0.0,70.0,255.0,255.0,255.0
494,24.700000000000003,19.588595071599823,-2.3362048840002525,-19.28422889129121,0.6637398394912708,0.15809055525325189,-1.408492334311262,0.01888124391449253,0.007199327111351295,-0.038577616414414706,0.0,70.0,255.0,255.0,255.0
495,24.75,19.621805817678915,-2.3282910884648174,-19.354701779186914,0.6647149980755174,0.1584669355470103,-1.4104239531942753,0.01978382182734606,0.007315349875769428,-0.03858284056725836,0.0,70.0,255.0,255.0,255.0
496,24.8,19.655066571407374,-2.3203581904455515,-19.425271286610638,0.6657182216740054,0.15882209024082883,-1.412350618367988,0.019978605473269795,0.006366939088531254,-0.03837563623179108,0.0,70.0,255.0,255.0,255.0
497,24.85,19.688377639846316,-2.3124088794407345,-19.495936841023713,0.6667128586228444,0.15910362945586343,-1.4142615168174544,0.019577289238981166,0.004648502389725806,-0.037996187461786235,0.0,70.0,255.0,255.0,255.0
498,24.900000000000002,19.72173785726966,-2.304447827499965,-19.566697438292383,0.6676759505979035,0.1592869404798014,-1.4161502371141665,0.018840825654464766,0.0027248222100428876,-0.03753126195249479,0.0,70.0,255.0,255.0,255.0
499,24.950000000000003,19.755145234906106,-2.2964801853927543,-19.63755186473513,0.6685969411882908,0.15937611167686772,-1.4180146430127039,0.018021053651295915,0.0011669347843135114,-0.037064415420928754,0.0,70.0,255.0,255.0,255.0
500,25.0,19.788597551388488,-2.2885102163322784,-19.708498902593654,0.6694780559630331,0.15940363395823276,-1.4198566786562594,0.01736794077800141,0.0005366884995972043,-0.03666728652937934,0.0,70.0,255.0,255.0,255.0
501,25.05,19.82209304050241,-2.280539821996931,-19.779537532600756,0.670333735266091,0.15942978052682744,-1.4216813716656418,0.017025566194206476,0.0011136367301212147,-0.036382461796335974,0.0,70.0,255.0,255.0,255.0
502,25.1,19.855630924915097,-2.2725672382795956,-19.850667039760218,0.6711806125824538,0.15951499763124488,-1.423494924835893,0.016963345789733353,0.0026271812134215367,-0.036228169962626566,0.0,70.0,255.0,255.0,255.0
503,25.150000000000002,19.889211101760655,-2.2645883222338066,-19.921887025084345,0.6720300698450643,0.1596924986481696,-1.4253041886619044,0.017089766463485034,0.004527976108636977,-0.036217678694683286,0.0,70.0,255.0,255.0,255.0
504,25.200000000000003,19.922833931899603,-2.2565979884147787,-19.99319745862641,0.6728895892288023,0.15996779524210858,-1.4271166927053613,0.017326942412765334,0.006260299719196283,-0.036358008614811865,0.0,70.0,255.0,255.0,255.0
505,25.25,19.956500060683535,-2.2485915427095957,-20.06459869435488,0.6737627640863408,0.16031852862008922,-1.4289399895233856,0.017604461680420513,0.007281952069249087,-0.03665197602131798,0.0,70.0,255.0,255.0,255.0
506,25.3,19.990210208308238,-2.2405661355527697,-20.136091457578747,0.6746500353968443,0.1606959904490335,-1.4307818903074931,0.017873069145935006,0.007305879957852923,-0.037088828938180995,0.0,70.0,255.0,255.0,255.0
507,25.35,20.02396506422322,-2.2325219436646924,-20.20767688338563,0.6755500710009343,0.1610491166158745,-1.4326488724172037,0.01809026000252345,0.0064972249712802466,-0.03761029352595813,0.0,70.0,255.0,255.0,255.0
508,25.400000000000002,20.05776521540833,-2.2244612238911823,-20.279356344820467,0.6764590613970967,0.1613457129461615,-1.434542919660089,0.018198336927355285,0.0052279819805711725,-0.038117184104891066,0.0,70.0,255.0,255.0,255.0
509,25.450000000000003,20.09161097036293,-2.216387372370076,-20.35113117535164,0.6773699046936699,0.16157191481393163,-1.4364605908276928,0.018131689519407246,0.0038722392995182986,-0.03850457576213273,0.0,70.0,255.0,255.0,255.0
510,25.5,20.125502205877698,-2.208304032409789,-20.423002403903237,0.6782722303490374,0.16173293687611334,-1.4383933772363022,0.017814212500510962,0.0027994659269836575,-0.038680800063417564,0.0,70.0,255.0,255.0,255.0
511,25.55,20.159438193397833,-2.200214078682465,-20.49497051307527,0.679151325943721,0.16185186140663,-1.4403286708340346,0.01722164440032259,0.0022211651165449098,-0.03860170963001508,0.0,70.0,255.0,255.0,255.0
512,25.6,20.19341733847207,-2.192118846269126,-20.56703527098664,0.6799943947890696,0.16195505338776783,-1.4422535481993037,0.016477385762669883,0.0020957137734978204,-0.03829513145809926,0.0,70.0,255.0,255.0,255.0
513,25.650000000000002,20.22743763287674,-2.184018573343688,-20.6391958678952,0.680799064519988,0.16206143278397978,-1.4441581839798445,0.01579595342633411,0.002290818580164,-0.03782994852201682,0.0,70.0,255.0,255.0,255.0
514,25.700000000000003,20.26149724492407,-2.175912702990728,-20.711451089384624,0.6815739901317031,0.16218413524578423,-1.4460365430515054,0.015392360115740189,0.002682631194517171,-0.0372898888031159,0.0,70.0,255.0,255.0,255.0
515,25.75,20.29559503188991,-2.1678001598191097,-20.78379952220035,0.682338300531562,0.1623296959034315,-1.4478871728601561,0.015478641698862816,0.003136221518618143,-0.036764870345251666,0.0,70.0,255.0,255.0,255.0
516,25.8,20.329731074977225,-2.159679733400385,-20.85623980667064,0.6831218543015893,0.16249775739764605,-1.4497130300860306,0.016147952318945613,0.003564424610891237,-0.03631002018700258,0.0,70.0,255.0,255.0,255.0
517,25.85,20.36390721732007,-2.151550384079345,-20.928770825208954,0.6839530957634565,0.16268613836452062,-1.4515181748788564,0.017233949857953235,0.003960013174708621,-0.03592731583879072,0.0,70.0,255.0,255.0,255.0
518,25.900000000000002,20.39812638455357,-2.143411119563933,-21.001391624158526,0.6848452492873847,0.1628937587151169,-1.4533057616699097,0.018422418134633745,0.0043261329762511735,-0.03560656493100112,0.0,70.0,255.0,255.0,255.0
519,25.950000000000003,20.432391742248807,-2.1352610082078334,-21.074101401375945,0.6857953375769199,0.16311875166214573,-1.4550788313719565,0.0193933222348619,0.00464534781050574,-0.035341556672463526,0.0,70.0,255.0,255.0,255.0
520,26.0,20.466705918311263,-2.1270992443977184,-21.14689950729572,0.6867845815108709,0.16335829349616748,-1.456839917337156,0.01984324867301268,0.00490758273059555,-0.03511174652750526,0.0,70.0,255.0,255.0,255.0
521,26.05,20.501070200399894,-2.1189251788582166,-21.21978539310966,0.6877796624442212,0.1636095099352053,-1.458590006024707,0.019619460074338235,0.00510770986661413,-0.03490543572688409,0.0,70.0,255.0,255.0,255.0
522,26.1,20.535483884555685,-2.110738293404198,-21.292758507898192,0.6887465275183047,0.1638690644828289,-1.4603304609098444,0.018836698254176554,0.005226937490121486,-0.03475383362214757,0.0,70.0,255.0,255.0,255.0
523,26.150000000000002,20.569944853151725,-2.1025382724099337,-21.365818439200645,0.6896633322696388,0.16413220368421744,-1.4620653893869218,0.017745329749985217,0.005241945552159066,-0.03470472415791903,0.0,70.0,255.0,255.0,255.0
524,26.200000000000003,20.60445021778265,-2.094325073035776,-21.438965046836884,0.6905210604933032,0.1643932590380448,-1.4638009333256363,0.016607124842238363,0.005142690850368226,-0.03479097075675952,0.0,70.0,255.0,255.0,255.0
525,26.25,20.638996959201055,-2.0860989465061293,-21.51219853253321,0.6913240447538627,0.16464647276925426,-1.4655444864625977,0.015672372929032008,0.0049294848549319426,-0.03504007827430655,0.0,70.0,255.0,255.0,255.0
526,26.3,20.673582622258035,-2.0778604257588507,-21.585519495483144,0.6920882977862064,0.164886207523538,-1.467304941153067,0.015086468452096824,0.004610423567985578,-0.035455835972797445,0.0,70.0,255.0,255.0,255.0
527,26.35,20.708205788979676,-2.0696103257537755,-21.658929026648515,0.6928326915990723,0.16510751512605282,-1.4690900700598775,0.014851984398234208,0.004213076025738616,-0.035976510513435755,0.0,70.0,255.0,255.0,255.0
528,26.400000000000002,20.742865891417942,-2.0613496742462454,-21.73242850248913,0.6935734962260298,0.16530751512611186,-1.4709025922044106,0.014925213917749147,0.003786923976489831,-0.03649369927742896,0.0,70.0,255.0,255.0,255.0
529,26.450000000000003,20.77756313860228,-2.0530795742411643,-21.806019285868956,0.6943252129908473,0.1654862075237018,-1.4727394399876204,0.015263866044179508,0.0033895764335767353,-0.03689558593968911,0.0,70.0,255.0,255.0,255.0
530,26.5,20.812298412717027,-2.044801053493875,-21.879702446487894,0.6950998828304478,0.16564647276946953,-1.4745921507983795,0.01583126893365261,0.003070515145253694,-0.03708393104986385,0.0,70.0,255.0,255.0,255.0
531,26.55,20.847073126885324,-2.0365149269642173,-21.953478500948794,0.6959083398842125,0.16579325903822717,-1.4764478330926067,0.016582917863416924,0.002857309148041054,-0.03701070756392255,0.0,70.0,255.0,255.0,255.0
532,26.6,20.881889246705448,-2.0282217275900525,-22.027347229797154,0.6967581746167895,0.16593220368427364,-1.4782932215547717,0.017395457390634306,0.0027580544443850386,-0.03670459985016805,0.0,70.0,255.0,255.0,255.0
533,26.650000000000002,20.916748944347002,-2.01992170659579,-22.10130782310427,0.697647885623276,0.16606906448266567,-1.4801182930776235,0.018071203856351303,0.0027730625049571245,-0.03623684236657709,0.0,70.0,255.0,255.0,255.0
534,26.700000000000003,20.951654035267776,-2.011614821141786,-22.175359059104917,0.6985652950024246,0.16620950993476935,-1.4819169057914294,0.018398949444176083,0.002892290128575503,-0.03569288594924558,0.0,70.0,255.0,255.0,255.0
535,26.75,20.986605473847245,-2.003300755602313,-22.249499513683414,0.6994877805676936,0.16635829349552322,-1.483687581672548,0.018158542013679835,0.0030924172677249118,-0.03516424414833352,0.0,70.0,255.0,255.0,255.0
536,26.8,21.021602813324545,-1.9949789917922336,-22.32372781727217,0.7003811492037926,0.16651875166154184,-1.4854333302062628,0.017260834451349183,0.0033546521942540153,-0.03470702141896709,0.0,70.0,255.0,255.0,255.0
537,26.85,21.056643588767624,-1.9866488804361588,-22.39804284670404,0.7012138640128285,0.16669375871494863,-1.4871582838144448,0.015932433126764067,0.0036738670360136894,-0.034323225283117154,0.0,70.0,255.0,255.0,255.0
538,26.900000000000002,21.091724199725828,-1.9783096159207387,-22.472443645653616,0.701974392516469,0.1668861383651432,-1.4888656527345745,0.01458540189567259,0.004039986842818699,-0.03400247437674864,0.0,70.0,255.0,255.0,255.0
539,26.950000000000003,21.12684102801927,-1.9699602665996445,-22.546929411977498,0.7026724042023957,0.1670977573992305,-1.4905585312521197,0.013639170675716628,0.0044355754063696295,-0.03373855790655966,0.0,70.0,255.0,255.0,255.0
540,27.0,21.161991440146068,-1.9615998401808157,-22.621499498778828,0.7033383095840406,0.16732969590578017,-1.4922395085252305,0.013510507065817023,0.00486377848767372,-0.033511120332008204,0.0,70.0,255.0,255.0,255.0
541,27.05,21.197174858977675,-1.9532272970090665,-22.69615336283002,0.7040234549089774,0.16758413524799787,-1.4939096432853205,0.014394630110814433,0.005317368788282373,-0.03330843287052687,0.0,70.0,255.0,255.0,255.0
542,27.1,21.232393785636965,-1.944841426656016,-22.77089046310736,0.7047777725951221,0.1678614327846084,-1.4955703518122831,0.016023155093591868,0.005709181374435879,-0.03316072745320753,0.0,70.0,255.0,255.0,255.0
