idx,t,px,py,pz,vx,vy,vz,ax,ay,az,yaw,mode,ledr,ledg,ledb
0,0.0,4.5,1.5000000000000016,0.0,5.171280378135634e-05,-0.00012347968854964364,9.917946277345524e-05,-0.0003447520251498304,0.004556531257016161,-0.016127863085156346,0.0,70.0,255.0,255.0,255.0
1,0.05,4.500002585640189,1.499993826015574,4.958973138672762e-06,3.447520252386482e-05,0.0001043468743011644,-0.0007072136914843622,-0.00047403403460322124,0.006865230478347861,-0.02437581174208998,0.0,70.0,255.0,255.0,255.0
2,0.1,4.500003447520252,1.5000104346874317,-7.072136914843623e-05,4.309400321034218e-06,0.0005630433592851425,-0.002338401711435543,-0.0005171280378135634,0.009234796885437824,-0.03299179462773453,0.0,70.0,255.0,255.0,255.0
3,0.15000000000000002,4.500003016580221,1.5000501303515026,-0.00022888119800488154,-1.723760125749152e-05,0.0010278265628449468,-0.004006393154257815,-0.0003447520240840163,0.009356531257287415,-0.03372786308515831,0.0,70.0,255.0,255.0,255.0
4,0.2,4.500001723760127,1.5001132173437162,-0.0004713606845742178,-3.016580208736741e-05,0.001498696485013884,-0.005711188019951374,-0.0001687597314337097,0.009480819496743287,-0.03447266025147758,0.0,70.0,255.0,255.0,255.0
5,0.25,4.500000000000012,1.500200000000004,-0.000800000000000019,-3.411357440086249e-05,0.0019759085125192755,-0.007453659179405573,2.8026168674699647e-05,0.009619792476178723,-0.035267647493950484,0.0,70.0,255.0,255.0,255.0
6,0.30000000000000004,4.4999983124026866,1.500310808194968,-0.001216726602514775,-2.7363185219897446e-05,0.0024606757326317563,-0.009237952769346422,0.000251130553241552,0.009777351939588286,-0.03612616034006543,0.0,70.0,255.0,255.0,255.0
7,0.35000000000000003,4.4999972636814904,1.5004460675732672,-0.0017237952769346614,-9.000519076707292e-06,0.002953643706478104,-0.011066275213412117,0.0004534413291956696,0.009920226662618603,-0.0369344831100247,0.0,70.0,255.0,255.0,255.0
8,0.4,4.499997412350779,1.500606172565616,-0.002323354123855987,1.7980947699669514e-05,0.0034526983988936166,-0.012931401080348893,0.0005597197797690967,0.009995282003472106,-0.037511010165940974,0.0,70.0,255.0,255.0,255.0
9,0.45,4.49999906177626,1.5007913374131565,-0.0030169353849695507,4.697145890020238e-05,0.003953171906825315,-0.014817376230006214,0.0005019427399943766,0.009956451312098658,-0.03769548805075174,0.0,70.0,255.0,255.0,255.0
10,0.5,4.500002109496669,1.5010014897562984,-0.0038050917468566083,6.817522169910717e-05,0.004448343530103482,-0.016700949885424067,0.00020712620241170043,0.009761560530163749,-0.037330448542109165,0.0,70.0,255.0,255.0,255.0
11,0.55,4.50000587929843,1.5012361717661669,-0.0046870303735119575,6.768407914137242e-05,0.0049293279598416895,-0.01855042108421713,-0.00034862717814831967,0.009396746203949036,-0.03636422306453401,0.0,70.0,255.0,255.0,255.0
12,0.6000000000000001,4.500008877904583,1.5014944225522826,-0.005660133855278322,3.33125038842752e-05,0.005388018150498386,-0.020337372191877468,-0.001052273974799789,0.008916146914872414,-0.03501839241115731,0.0,70.0,255.0,255.0,255.0
13,0.65,4.500009210548819,1.5017749735812167,-0.006720767592699704,-3.754331833860647e-05,0.005820942651328931,-0.022052260325332862,-0.0017063701908348605,0.00841816624741476,-0.03368764524346382,0.0,70.0,255.0,255.0,255.0
14,0.7000000000000001,4.500005123572749,1.5020765168174155,-0.007865359887811608,-0.00013732451519921085,0.006229834775239862,-0.02370613671622385,-0.002114196079627817,0.008001766716270176,-0.03278051439319866,0.0,70.0,255.0,255.0,255.0
15,0.75,4.499995478097299,1.5023979570587407,-0.00909138126432209,-0.00024896292630138817,0.006621119322955948,-0.025330311764652728,-0.0020885514297575014,0.007745739231679316,-0.03270617785953549,0.0,70.0,255.0,255.0,255.0
16,0.8,4.499980227280119,1.502738628749711,-0.01039839106427688,-0.000346179658174961,0.0070044086984077936,-0.0269767545021774,-0.0015454064938857925,0.007692016646276834,-0.03365327517829402,0.0,70.0,255.0,255.0,255.0
17,0.8500000000000001,4.499960860131481,1.5030983979285815,-0.01178905671453983,-0.0004035035756899674,0.007390320987583632,-0.02869563928248213,-0.0006105925160149184,0.00785071015332317,-0.03534029223369161,0.0,70.0,255.0,255.0,255.0
18,0.9,4.49993987692255,1.5034776608484695,-0.013267954992525094,-0.00040723890977645283,0.007789479713740111,-0.03051078372554656,0.00047032974768157487,0.008215689370127954,-0.037228385550180376,0.0,70.0,255.0,255.0,255.0
19,0.9500000000000001,4.499920136240504,1.5038773458999555,-0.014840135087094485,-0.00035647060092180993,0.008211889924596427,-0.03241847783750017,0.0014425805064277597,0.008770281356551557,-0.038770333164333745,0.0,70.0,255.0,255.0,255.0
20,1.0,4.499904229862458,1.504298849840929,-0.01650980277627511,-0.00026298085913367686,0.008666507849395266,-0.034387817041979934,0.002067079516798742,0.009515435923268534,-0.039432905287814374,0.0,70.0,255.0,255.0,255.0
21,1.05,4.49989383815459,1.504743996684895,-0.01827891679129248,-0.00014976264924193572,0.00916343351692328,-0.036361768366281605,0.002216966440382606,0.01042949956546746,-0.0389490165486301,0.0,70.0,255.0,255.0,255.0
22,1.1,4.499889253597534,1.5052151931926214,-0.02014597961290327,-4.1284215095416243e-05,0.009709457805942012,-0.038282718696842945,0.0019427559269757921,0.011362877273879413,-0.03755573002936739,0.0,70.0,255.0,255.0,255.0
23,1.1500000000000001,4.499889709733081,1.5057149424654892,-0.022107188660976773,4.4512943455643494e-05,0.010299721244311222,-0.040117341369218344,0.0013769393119034135,0.012075533148325768,-0.035744360341363746,0.0,70.0,255.0,255.0,255.0
24,1.2000000000000002,4.499893704891879,1.5062451653170525,-0.024157713749825106,9.64097160949251e-05,0.010917011120774589,-0.04185715473097932,0.000663874053863367,0.012331560071743297,-0.034017500268816725,0.0,70.0,255.0,255.0,255.0
25,1.25,4.49989935070469,1.5068066435775667,-0.026292904134074705,0.00011090034884198019,0.011532877251485552,-0.04351909139610002,-4.7738665465146823e-05,0.011896573019298806,-0.03287017301717883,0.0,70.0,255.0,255.0,255.0
26,1.3,4.499904794926763,1.507398453042201,-0.028509622889435107,9.163584954841042e-05,0.01210666842270447,-0.0451441720326972,-0.0006639977290667787,0.01068136038329115,-0.032569493126019186,0.0,70.0,255.0,255.0,255.0
27,1.35,4.499908514289645,1.508017310419837,-0.030807321337344425,4.450057593530232e-05,0.012601013289814667,-0.046776040708701935,-0.001163228394851501,0.008944866998317202,-0.032984106996157905,0.0,70.0,255.0,255.0,255.0
28,1.4000000000000001,4.499909244984357,1.5086585543711826,-0.0331872269603053,-2.468698993673968e-05,0.01300115512253619,-0.04844258273231299,-0.001532772309964514,0.007158448432953435,-0.03380853205872253,0.0,70.0,255.0,255.0,255.0
29,1.4500000000000002,4.499906045590651,1.5093174259320907,-0.035651579610575725,-0.00010877665506114909,0.01331685813311001,-0.05015689391457419,-0.0017529018967898935,0.005808000501028587,-0.034738779979514786,0.0,70.0,255.0,255.0,255.0
30,1.5,4.499898367318851,1.5099902401844936,-0.03820291635176272,-0.00019997717961572903,0.013581955172639049,-0.05191646073026447,-0.001824096882607762,0.005370253351255627,-0.035466449263520106,0.0,70.0,255.0,255.0,255.0
31,1.55,4.49988604787269,1.5106756214493546,-0.04084322568360217,-0.0002911863433219253,0.013853883468235573,-0.0537035388409262,-0.001753236595813945,0.006072657968969608,-0.03581468926897244,0.0,70.0,255.0,255.0,255.0
32,1.6,4.499869248684519,1.5113756285313171,-0.04357327023585534,-0.00037530083919712354,0.01418922096953601,-0.055497929657161715,-0.001533385471841342,0.007643295758708035,-0.035833343151502745,0.0,70.0,255.0,255.0,255.0
33,1.6500000000000001,4.49984851778877,1.5120945435463082,-0.04639301864931834,-0.0004445248905060595,0.014618213044106376,-0.05728687315607647,-0.0011639852707467924,0.00954335377245652,-0.03565349277572724,0.0,70.0,255.0,255.0,255.0
34,1.7000000000000002,4.499824796195468,1.5128374498357278,-0.04930195755146299,-0.0004916993662718028,0.015143556346781661,-0.05906327893473444,-0.0006646673985422069,0.011217603425262013,-0.03538877841452112,0.0,70.0,255.0,255.0,255.0
35,1.75,4.499799347852143,1.5136088991809864,-0.05229934654279179,-0.0005109916303602802,0.015739973386632578,-0.060825750997528585,-4.7948395565100554e-05,0.01211444154769481,-0.03515195533667012,0.0,70.0,255.0,255.0,255.0
36,1.8,4.499773697032432,1.514411447174391,-0.055384532651215845,-0.0004964942058283128,0.016355000501551142,-0.06257847446840145,0.000664543179951238,0.01194866042137921,-0.035011097117439854,0.0,70.0,255.0,255.0,255.0
37,1.85,4.49974969843156,1.5152443992311415,-0.05855719398963193,-0.00044453731236515637,0.0169348394287705,-0.06432686070927257,0.0013786350832489802,0.010936402181460636,-0.03496158799689633,0.0,70.0,255.0,255.0,255.0
38,1.9000000000000001,4.4997292433011955,1.516104931117268,-0.0618172187221431,-0.0003586306975034148,0.017448640719697206,-0.06607463326809108,0.0019451702688577654,0.009532845101900556,-0.03497926840014265,0.0,70.0,255.0,255.0,255.0
39,1.9500000000000002,4.49971383536181,1.5169892633031112,-0.06516465731644104,-0.0002500202854793798,0.017888123938960554,-0.06782478754928684,0.002219310419615539,0.008195245471398493,-0.03505230682859864,0.0,70.0,255.0,255.0,255.0
40,2.0,4.499704241272648,1.5178937435111641,-0.06859969747707179,-0.00013669965554186092,0.018268165266837055,-0.06957986395095095,0.0020679184373761927,0.00738391519017334,-0.035177757361826156,0.0,70.0,255.0,255.0,255.0
41,2.0500000000000003,4.499700165396256,1.518816079829795,-0.07212264371153614,-4.322844174176055e-05,0.018626515457977888,-0.07134256328546945,0.0014402387006562378,0.007344821557753178,-0.03534763554798731,0.0,70.0,255.0,255.0,255.0
42,2.1,4.499699918428473,1.519756395056962,-0.07573395380561873,7.324214523762862e-06,0.019002647422612373,-0.07311462750574968,0.00046415982346559304,0.007921118825215956,-0.035520304860908736,0.0,70.0,255.0,255.0,255.0
43,2.15,4.499700897817708,1.5207163445720562,-0.0794341064621111,3.1875406047987553e-06,0.019418627340499484,-0.07489459377156032,-0.0006194930073810667,0.008776920831476964,-0.03562943362370036,0.0,70.0,255.0,255.0,255.0
44,2.2,4.499700237182534,1.5216982577910119,-0.08322341318277476,-5.462508621434381e-05,0.01988033950576007,-0.07667757086811972,-0.001554112740276281,0.009587242195019385,-0.03560870755780071,0.0,70.0,255.0,255.0,255.0
45,2.25,4.4996954353090866,1.5227043785226322,-0.08710186354892308,-0.00015222373342282935,0.020377351560001422,-0.0784554645273404,-0.00209169738196735,0.010025981607730827,-0.03538904318805686,0.0,70.0,255.0,255.0,255.0
46,2.3000000000000003,4.499685014809192,1.523735992947012,-0.0910689596355088,-0.0002637948244110788,0.020882937666533152,-0.0802164751869254,-0.002105497983428961,0.009919419315052025,-0.03494456115681471,0.0,70.0,255.0,255.0,255.0
47,2.35,4.4996690558266454,1.5247926722892855,-0.09512351106761562,-0.00036277353176572547,0.021369293491506625,-0.08194992064302187,-0.001683386265227682,0.009385462844213599,-0.0343589641212394,0.0,70.0,255.0,255.0,255.0
48,2.4000000000000004,4.499648737456015,1.5258729222961627,-0.09926395169981099,-0.00043213345093384703,0.021821483950954512,-0.08365237159904934,-0.0010190863513059867,0.008672292085032396,-0.03378206470412565,0.0,70.0,255.0,255.0,255.0
49,2.45,4.499625842481552,1.526974820684381,-0.10348874822752055,-0.00046468216689632413,0.022236522700009864,-0.08532812711343443,-0.0003161461714640268,0.008016158708645804,-0.03336563683297156,0.0,70.0,255.0,255.0,255.0
50,2.5,4.499602269239325,1.5280965745661637,-0.10779676441115443,-0.0004637480680802497,0.022623099821819093,-0.0869889352823465,0.00021887109120655168,0.007644093110714678,-0.03325805123793185,0.0,70.0,255.0,255.0,255.0
51,2.5500000000000003,4.499579467674744,1.5292371306665629,-0.1121876417557552,-0.00044279505777566897,0.023000932011081332,-0.08865393223722762,0.0004694921603487501,0.007677361321944964,-0.033527919358561364,0.0,70.0,255.0,255.0,255.0
52,2.6,4.499557989733548,1.5303966677672718,-0.1166621576348772,-0.0004167988520453747,0.02339083595401359,-0.09034172721820263,0.0004739540017340005,0.008051621872628978,-0.03407936312965487,0.0,70.0,255.0,255.0,255.0
53,2.6500000000000004,4.4995377877895395,1.5315762142619642,-0.12122181447757546,-0.0003953996576022689,0.02380609419834423,-0.0920618685501931,0.0003295913262313377,0.008619318753932959,-0.03472594392342071,0.0,70.0,255.0,255.0,255.0
54,2.7,4.499518449767788,1.5327772771871062,-0.1258683444898965,-0.00038383971942224093,0.024252767829406885,-0.0938143216105447,0.0001262964936188382,0.009234836257032697,-0.035275971217532676,0.0,70.0,255.0,255.0,255.0
55,2.75,4.499499403817597,1.534001491044905,-0.13060324663862993,-0.0003827700082403851,0.0247295778240475,-0.09558946567194637,-4.383360225901356e-05,0.009761655273266001,-0.03554276118423738,0.0,70.0,255.0,255.0,255.0
56,2.8000000000000003,4.4994801727669635,1.535250234969511,-0.13542729105709114,-0.0003882230796481423,0.025228933356733485,-0.09736859772896844,-0.00012641005229241387,0.01011836150439649,-0.03543047469565519,0.0,70.0,255.0,255.0,255.0
57,2.85,4.4994605815096325,1.5365243843805783,-0.14034010641152678,-0.0003954110134696265,0.02574141397448715,-0.09913251314151189,-0.00013336214310655237,0.01029168602912911,-0.03500899128553725,0.0,70.0,255.0,255.0,255.0
58,2.9000000000000004,4.499440631665617,1.5378243763669597,-0.14534054237124233,-0.0004015592939587975,0.026258101959646396,-0.10086949685752217,-9.750739158320698e-05,0.010285957374911447,-0.034428751676782166,0.0,70.0,255.0,255.0,255.0
59,2.95,4.499420425580237,1.539150194576543,-0.150427056097279,-0.0004051617526279472,0.026770009711978293,-0.10257538830919011,-4.283933661142214e-05,0.01010500908349421,-0.0338437650101886,0.0,70.0,255.0,255.0,255.0
60,3.0,4.499400115490354,1.5405013773381575,-0.15559808120216134,-0.00040584322761993974,0.027268602867995817,-0.10425387335854103,8.491290248713312e-06,0.009753295120118466,-0.03340689470111846,0.0,70.0,255.0,255.0,255.0
61,3.0500000000000003,4.499379841257475,1.5418770548633425,-0.1608524434331331,-0.00040431262360307585,0.02774533922399014,-0.10591607777930195,4.286133474806775e-05,0.009248167019526576,-0.03320295575159615,0.0,70.0,255.0,255.0,255.0
62,3.1,4.4993596842279935,1.5432759112605565,-0.16618968898009154,-0.00040155709414513296,0.028193419569948475,-0.10757416893370064,5.949456971521272e-05,0.008662473171705543,-0.03320103536456065,0.0,70.0,255.0,255.0,255.0
63,3.1500000000000004,4.49933968554806,1.5446963968203373,-0.17160986032650316,-0.0003983631666315546,0.028611586541160694,-0.10923618131575802,6.043824054557945e-05,0.008117690907316621,-0.03332352489393009,0.0,70.0,255.0,255.0,255.0
64,3.2,4.49931984791133,1.5461370699146726,-0.17711330711166734,-0.000395513270090575,0.029005188660680137,-0.11090652142309365,4.506085407030014e-05,0.007744101767892531,-0.03349516920790052,0.0,70.0,255.0,255.0,255.0
65,3.25,4.499300134221051,1.5475969156864053,-0.18270051246881253,-0.00039385708122452456,0.029385996717949947,-0.11258569823654807,9.868442063520888e-06,0.0076691735703793285,-0.033637678659304004,0.0,70.0,255.0,255.0,255.0
66,3.3000000000000003,4.499280462203208,1.5490756695864676,-0.18837187693532215,-0.00039452642588422293,0.02977210601771807,-0.11427028928902405,-4.5035288120942596e-05,0.007949483238012256,-0.03370492840520656,0.0,70.0,255.0,255.0,255.0
67,3.35,4.499260681578463,1.5505741262881771,-0.19412754139771493,-0.0003983606100366188,0.030180945041751173,-0.11595619107706873,-0.00010461613682011262,0.00849394575939133,-0.03370779965715942,0.0,70.0,255.0,255.0,255.0
68,3.4000000000000004,4.499240626142204,1.5520937640906427,-0.19996749604302902,-0.0004049880395662342,0.030621500593657203,-0.11764106925474,-0.0001442455690892075,0.00912691535954746,-0.03367537718571567,0.0,70.0,255.0,255.0,255.0
69,3.45,4.499220182774506,1.5536362763475429,-0.20589164832318893,-0.00041278516694553957,0.03109363657770592,-0.1193237287956403,-0.0001374040787816,0.009665809952053017,-0.03362935769199993,0.0,70.0,255.0,255.0,255.0
70,3.5,4.49919934762551,1.5552031277484133,-0.21189986892259305,-0.0004187284474443942,0.031588081588862504,-0.12100400502393999,-4.7965058946886074e-05,0.009934019922397397,-0.03359036268963389,0.0,70.0,255.0,255.0,255.0
71,3.5500000000000003,4.4991783099297615,1.5567950845064291,-0.21799204882558293,-0.0004175816728402282,0.03208703856994566,-0.12268276506460368,0.0001372798170251599,0.009840613315392766,-0.033570617340875075,0.0,70.0,255.0,255.0,255.0
72,3.6,4.499157589458226,1.5584118316054079,-0.22416814542905342,-0.0004050004657418782,0.03257214292040178,-0.1243610667580275,0.0003589699772099664,0.009447151716046598,-0.03356776600679512,0.0,70.0,255.0,255.0,255.0
73,3.6500000000000004,4.499137809883187,1.5600522987984693,-0.23042815550138568,-0.00038168467511923154,0.03303175374155032,-0.1260395416652832,0.0005165440369658825,0.00888923972881539,-0.03357496636319235,0.0,70.0,255.0,255.0,255.0
74,3.7,4.499119420990714,1.561715006979563,-0.23677209959558174,-0.00035334606204528995,0.03346106689328332,-0.12771856339434673,0.0005112687483155298,0.008305945137165871,-0.03358740002413485,0.0,70.0,255.0,255.0,255.0
75,3.75,4.499102475276983,1.5633984054877976,-0.24320001184082035,-0.00033055780028767856,0.033862348255266905,-0.12939828166769668,0.0002340197647221487,0.007830737416192335,-0.03360087058214556,0.0,70.0,255.0,255.0,255.0
76,3.8000000000000003,4.499086365210685,1.5651012418050896,-0.2497119277623514,-0.0003299440855730751,0.03424414063490255,-0.13107865045256129,-0.00035788351411270014,0.00754083739329392,-0.03361260223125606,0.0,70.0,255.0,255.0,255.0
77,3.85,4.4990694808684255,1.5668228195512879,-0.2563078768860765,-0.0003663461516989486,0.0346164319945963,-0.13275954189082229,-0.001129492209894778,0.007433811012869107,-0.03362113631568686,0.0,70.0,255.0,255.0,255.0
78,3.9000000000000004,4.499049730595515,1.5685628850045492,-0.26298788195143363,-0.0004428933065625529,0.034987521736189464,-0.13444076408412997,-0.001842862980083737,0.007480601249598706,-0.033624757361538915,0.0,70.0,255.0,255.0,255.0
79,3.95,4.499025191537769,1.5703215717249068,-0.2697519532944895,-0.0005506324497073223,0.03536449211955617,-0.13612201762697618,-0.0022616103085404404,0.007649896678563195,-0.033621042211468,0.0,70.0,255.0,255.0,255.0
80,4.0,4.498994667350544,1.5720993342165048,-0.27660008371413125,-0.0006690543374165969,0.035752511404045784,-0.13780286830527677,-0.0021481606195195013,0.007899021088797475,-0.033606154981752345,0.0,70.0,255.0,255.0,255.0
81,4.05,4.498958286104028,1.5738968228653114,-0.28353224012501715,-0.0007654485116592724,0.036154394228435915,-0.1394826331251514,-0.0013981466929102737,0.00819706275259069,-0.03357897373408303,0.0,70.0,255.0,255.0,255.0
82,4.1000000000000005,4.498918122499378,1.5757147736393484,-0.2905483470266464,-0.0008088690067076243,0.03657221767930485,-0.14116076567868507,-0.00020724822382689467,0.008536765071798236,-0.03354768873048419,0.0,70.0,255.0,255.0,255.0
83,4.15,4.498877399203357,1.577554044633242,-0.29764831669288566,-0.0007861733340419619,0.03700807073561574,-0.14283740199819983,0.0010594766472138417,0.008907516111911207,-0.033526004190681524,0.0,70.0,255.0,255.0,255.0
84,4.2,4.498839505165974,1.57941558071291,-0.3048320872264664,-0.0007029213419862401,0.03746296929049597,-0.14451336609775323,0.002029624699506627,0.009288780502703098,-0.0335284311299866,0.0,70.0,255.0,255.0,255.0
85,4.25,4.498807107069158,1.5813003415622915,-0.312099653302661,-0.0005832108640912992,0.03793694878588605,-0.1461902451111985,0.0023306506863995935,0.009677140932695671,-0.03357450949080798,0.0,70.0,255.0,255.0,255.0
86,4.3,4.498781184079565,1.5832092755914986,-0.3194511117375862,-0.00046985627334628077,0.03843068338376554,-0.14787081704683402,0.0017833840397329936,0.010064198309711614,-0.03367150283242193,0.0,70.0,255.0,255.0,255.0
87,4.3500000000000005,4.498760121441824,1.585143409900668,-0.3268867350073444,-0.0004048724601179998,0.03894336861685721,-0.14955739539444068,0.0006083685549107543,0.010381832662487156,-0.0337881087624059,0.0,70.0,255.0,255.0,255.0
88,4.4,4.498740696833553,1.5871036124531843,-0.3344068512770303,-0.00040901941785520535,0.039468866650014256,-0.15124962792307461,-0.0007640878986414634,0.010526630339890986,-0.033871225875736766,0.0,70.0,255.0,255.0,255.0
89,4.45,4.498719219500038,1.5890902965656695,-0.34201169779965185,-0.00048128124998214616,0.03999603165084631,-0.15294451798201436,-0.0018975411708588297,0.010408407884021642,-0.033871946555275034,0.0,70.0,255.0,255.0,255.0
90,4.5,4.498692568708555,1.591103215618269,-0.34970130307523173,-0.0005987735349410883,0.04050970743841642,-0.15463682257860212,-0.002354488745481831,0.009940480448800137,-0.033747835027042594,0.0,70.0,255.0,255.0,255.0
91,4.55,4.498659342146544,1.593141267309511,-0.35747538005751206,-0.0007167301245303292,0.04099007969572632,-0.15631930148471862,-0.0019155293250250338,0.009098032120569144,-0.0334812154024533,0.0,70.0,255.0,255.0,255.0
92,4.6000000000000005,4.498620895696102,1.5952022235878416,-0.3653332332237036,-0.0007903264674435917,0.041419510650473335,-0.15798494411884745,-0.000797041846656299,0.008018515000607351,-0.03310164778166369,0.0,70.0,255.0,255.0,255.0
93,4.65,4.4985803094998,1.5972832183745584,-0.3732738744693968,-0.0007964343091959591,0.04179193119578706,-0.159629466262885,0.0005676907970375566,0.006945869288421669,-0.032668159905452354,0.0,70.0,255.0,255.0,255.0
94,4.7,4.498541252265182,1.5993814167074203,-0.3812961798499921,-0.000733557387739836,0.0421140975793155,-0.16125176010939268,0.0017473931303690904,0.00612933621306766,-0.03224326982839143,0.0,70.0,255.0,255.0,255.0
95,4.75,4.498506953761026,1.60149462813249,-0.3893990504803361,-0.0006216949961590501,0.042404864817093824,-0.16285379324572413,0.0023193788885045308,0.005796927947998576,-0.031878159724962885,0.0,70.0,255.0,255.0,255.0
96,4.800000000000001,4.4984790827655665,1.6036219031891297,-0.3975815591745645,-0.000501619498889383,0.04269379037411536,-0.16443957608188897,0.0020655864073404473,0.0060579855624354195,-0.03160363555779755,0.0,70.0,255.0,255.0,255.0
97,4.8500000000000005,4.498456791811137,1.6057640071699015,-0.40584300808852497,-0.0004151363554250054,0.043010663373337366,-0.1660141568015039,0.0011506146818440754,0.006815156286288371,-0.03144259614832334,0.0,70.0,255.0,255.0,255.0
98,4.9,4.498437569130024,1.6079229695264634,-0.4141829748547149,-0.0003865580307049754,0.043375306002744196,-0.1675838356967213,-7.74911406153933e-05,0.007857165233482455,-0.03141883846511928,0.0,70.0,255.0,255.0,255.0
99,4.95,4.498418136008066,1.610101537770176,-0.4226013916581971,-0.0004228854694865447,0.04379637989668561,-0.16915604064801582,-0.0012721712104202254,0.008955272904609402,-0.031548260844399545,0.0,70.0,255.0,255.0,255.0
100,5.0,4.498395280583075,1.612302607516132,-0.4310985789195165,-0.000513775151746998,0.044270833293205136,-0.17073866178116126,-0.0021030734279392505,0.00989577046324186,-0.031843488777061335,0.0,70.0,255.0,255.0,255.0
101,5.050000000000001,4.4983667584928915,1.6145286210994965,-0.4396752578363132,-0.0006331928122804698,0.0447859569430098,-0.17234038952572195,-0.002387468984998975,0.010551051270946132,-0.03229855472069443,0.0,70.0,255.0,255.0,255.0
102,5.1000000000000005,4.498331961301847,1.616781203210433,-0.44833261787208867,-0.0007525220502468954,0.04532593842029975,-0.1739685172532307,-0.002174461170323383,0.01088813258158794,-0.032847128464214004,0.0,70.0,255.0,255.0,255.0
103,5.15,4.498291506287867,1.6190612149415264,-0.4570721095616363,-0.000850638929312808,0.04587477020116859,-0.17562510237214335,-0.001607842784778768,0.010896518728320537,-0.03337564707320828,0.0,70.0,255.0,255.0,255.0
104,5.2,4.498246897408916,1.6213686802305498,-0.465895128109303,-0.0009133063287247722,0.0464155902931318,-0.17730608196055153,-0.0008325078220572379,0.010570597809445026,-0.03376471243508039,0.0,70.0,255.0,255.0,255.0
105,5.25,4.498200175654994,1.6237027739708396,-0.47480271775769145,-0.0009338897115185318,0.046931829982113094,-0.1790015736156514,1.2914823610543635e-05,0.009908008847370198,-0.03390387584275012,0.0,70.0,255.0,255.0,255.0
106,5.300000000000001,4.498153508437764,1.6260618632287611,-0.48379528547086814,-0.0009120148463637179,0.04740639117786882,-0.18069646954482654,0.0008325412802712151,0.008935758071770827,-0.03374163273887065,0.0,70.0,255.0,255.0,255.0
107,5.3500000000000005,4.498108974170358,1.6284434130886265,-0.4928723647121741,-0.0008506355834914103,0.047825405789290176,-0.18237573688953845,0.0015500272017021643,0.007793991708848758,-0.03333336551935018,0.0,70.0,255.0,255.0,255.0
108,5.4,4.498068444879415,1.6308444038076901,-0.502032859159822,-0.0007570121261935014,0.0481857903487537,-0.18402980609676156,0.0020635475948438398,0.006718438174857511,-0.03279493687844415,0.0,70.0,255.0,255.0,255.0
109,5.45,4.498033272957739,1.6332619921235019,-0.5112753453218503,-0.0006442808240070264,0.04849724960677593,-0.18565523057738287,0.002263740960284366,0.005960284575579067,-0.03225237659474356,0.0,70.0,255.0,255.0,255.0
110,5.5,4.498004016797014,1.6356941287683677,-0.5205983822175603,-0.0005306380301650648,0.048781818806311605,-0.18725504375623592,0.0020514141338523473,0.005760212795391517,-0.031829026499885504,0.0,70.0,255.0,255.0,255.0
111,5.550000000000001,4.497980209154722,1.638140174004133,-0.5300008496974739,-0.0004391394106217916,0.04907327088631508,-0.18883813322737142,0.0013957654027230149,0.006226942082965259,-0.03159440150329873,0.0,70.0,255.0,255.0,255.0
112,5.6000000000000005,4.497960102855952,1.6406014558569992,-0.5394821955402974,-0.00039106148989276335,0.04940451301460813,-0.1904144839065658,0.0004196670483125331,0.007206949533800078,-0.03153577309483735,0.0,70.0,255.0,255.0,255.0
113,5.65,4.497941103005733,1.6430806253055938,-0.5490422980881304,-0.0003971727057905383,0.04979396583969509,-0.19199171053685515,-0.0006491447978262954,0.008397001299620399,-0.03160908093753356,0.0,70.0,255.0,255.0,255.0
114,5.7,4.497920385585373,1.6455808524409687,-0.5586813665939829,-0.0004559759696753929,0.05024421314457017,-0.19357539200031915,-0.001563994480502373,0.009476002816288798,-0.0317719816520845,0.0,70.0,255.0,255.0,255.0
115,5.75,4.497895505408765,1.6481050466200509,-0.5683998372881623,-0.0005535721538407756,0.05074156612132397,-0.1951689087020636,-0.0020865433866035232,0.010127130647163973,-0.03198803680565243,0.0,70.0,255.0,255.0,255.0
116,5.800000000000001,4.497865028369989,1.6506550090531011,-0.5781982574641893,-0.0006646303083357452,0.05125692620928657,-0.1967741956808844,-0.0020956028907725965,0.01018369970344768,-0.03222798735516008,0.0,70.0,255.0,255.0,255.0
117,5.8500000000000005,4.497829042377932,1.6532307392409795,-0.5880772568562508,-0.0007631324429180353,0.051759936091668735,-0.1983917074375796,-0.00167680728333508,0.009747254444603115,-0.03244447450233556,0.0,70.0,255.0,255.0,255.0
118,5.9,4.497788715125697,1.655831002662268,-0.5980374282079473,-0.0008323110366692532,0.05223165165374688,-0.20001864313111795,-0.001018856516132871,0.00904367317680066,-0.0325669678097551,0.0,70.0,255.0,255.0,255.0
119,5.95,4.497745811274265,1.6584539044063542,-0.6080791211693626,-0.0008650180945313224,0.0526643034093488,-0.20164840421855512,-0.00032104975158375737,0.008302790406711225,-0.03252020961738156,0.0,70.0,255.0,255.0,255.0
120,6.0,4.497702213316244,1.661097433003203,-0.6182022686298028,-0.000864416011827629,0.053061930694418,-0.2032706640928561,0.00021475941309745394,0.007759236644044876,-0.03221882627735262,0.0,70.0,255.0,255.0,255.0
121,6.050000000000001,4.497659369673082,1.663760097475796,-0.6284061875786482,-0.000843542153221577,0.05344022707375329,-0.20487028684629038,0.0004743850885446932,0.007543806888632432,-0.031633136255493355,0.0,70.0,255.0,255.0,255.0
122,6.1000000000000005,4.497617859100922,1.6664414557105782,-0.6386892973144318,-0.0008169775029731596,0.053816311383281246,-0.20643397771840544,0.0004921308493166521,0.007599463923058103,-0.030888100457671097,0.0,70.0,255.0,255.0,255.0
123,6.15,4.497577671922785,1.6691417286141241,-0.6490495853504887,-0.0007943290682899118,0.0542001734660591,-0.2079590968920575,0.0003583237757176505,0.007794553079643052,-0.03020211542263951,0.0,70.0,255.0,255.0,255.0
124,6.2,4.497538426194093,1.6718614730571841,-0.6594852070036376,-0.0007811451254013946,0.05459576669124555,-0.2094541892606694,0.00015579255476794174,0.008005236489228018,-0.029793240484454753,0.0,70.0,255.0,255.0,255.0
125,6.25,4.4974995574102445,1.6746013052832487,-0.6699950042765557,-0.0007787498128131176,0.0550006971149819,-0.21093842094050297,-3.2540885541720854e-05,0.008095969396570979,-0.02987661146477416,0.0,70.0,255.0,255.0,255.0
126,6.300000000000001,4.497460551212812,1.6773615427686823,-0.6805790490976878,-0.0007843992139555667,0.05540536363090265,-0.2124418504071468,-0.0001558768575549152,0.00799501213613052,-0.030547066690433944,0.0,70.0,255.0,255.0,255.0
127,6.3500000000000005,4.497421117488849,1.680141841646339,-0.6912391893172704,-0.0007943374985686091,0.05580019832859495,-0.21399312760954636,-0.00021264851559621434,0.0077758222640555985,-0.03163687658079839,0.0,70.0,255.0,255.0,255.0
128,6.4,4.497381117462955,1.6829415626015418,-0.7019783618586425,-0.0008056640655151881,0.05618294585730821,-0.21560553806522664,-0.0002126670252344809,0.007576342942905434,-0.03282913926431208,0.0,70.0,255.0,255.0,255.0
129,6.45,4.4973405510822975,1.6857601362320698,-0.712799743123793,-0.0008156042010920572,0.056557832622885496,-0.21727604153597757,-0.00015592000046638077,0.007523349883475916,-0.033801280659206956,0.0,70.0,255.0,255.0,255.0
130,6.5,4.497299557042846,1.6885973458638304,-0.7237059660122402,-0.0008212560655618262,0.0569352808456558,-0.21898566613114734,-3.2567898244906246e-05,0.007752829825435903,-0.03424675583548753,0.0,70.0,255.0,255.0,255.0
131,6.550000000000001,4.497258425475741,1.6914536643166354,-0.7346983097369078,-0.0008188609909165478,0.057333115605429086,-0.22070071711952632,0.00015583562777976567,0.008323230813900295,-0.03401151073572084,0.0,70.0,255.0,255.0,255.0
132,6.6000000000000005,4.497217670943754,1.6943306574243733,-0.7457760377241929,-0.0008056725027838496,0.05776760392704583,-0.22238681720471942,0.00035846321235766254,0.009095475458997804,-0.03321427666910237,0.0,70.0,255.0,255.0,255.0
133,6.65,4.497177858225463,1.69723042470934,-0.7569369914573797,-0.0007830146696807816,0.058242663151328866,-0.22402214478643656,0.0004923443254867266,0.00982100754973736,-0.03211228323108939,0.0,70.0,255.0,255.0,255.0
134,6.7,4.497139369476786,1.7001549237395062,-0.7681782522028365,-0.000756438070235177,0.058749704682019566,-0.22559804552782836,0.00047460073417937565,0.010255303370820812,-0.03097441077142271,0.0,70.0,255.0,255.0,255.0
135,6.75,4.497102214418439,1.703105395177542,-0.7794967960101625,-0.000735554596262844,0.05926819348841095,-0.22711958586357883,0.00021484045102937444,0.010152757921622069,-0.030060374517204558,0.0,70.0,255.0,255.0,255.0
136,6.800000000000001,4.4970658140171595,1.7060817430883473,-0.7908902107891944,-0.0007349540251322395,0.05976498047418177,-0.22860408297954882,-0.0003212651872530614,0.009404465540718832,-0.029519151438961444,0.0,70.0,255.0,255.0,255.0
137,6.8500000000000005,4.497028719015926,1.70908189322496,-0.8023572043081174,-0.0007676811149881502,0.06020864004248283,-0.23007150100747498,-0.0010194327725088215,0.008208522986286049,-0.029338744015638962,0.0,70.0,255.0,255.0,255.0
138,6.9,4.496989045905661,1.7121026070925955,-0.8138973608899419,-0.0008368973023831217,0.06058583277281038,-0.2315379573811127,-0.0016776426782882936,0.0069350580935712,-0.029450678860387658,0.0,70.0,255.0,255.0,255.0
139,6.95,4.496945029285688,1.715140476502241,-0.8255110000462287,-0.0009354453828169795,0.06090214585183995,-0.23301656889351374,-0.0020964223301334073,0.005960984418873494,-0.02978676390066326,0.0,70.0,255.0,255.0,255.0
140,7.0,4.496895501367379,1.7181928216777795,-0.8371990177792933,-0.0010465395353964624,0.06118193121469773,-0.23451663377117904,-0.0020868405247398414,0.005664110515835041,-0.030275755419562067,0.0,70.0,255.0,255.0,255.0
141,7.050000000000001,4.496840375332148,1.7212586696237109,-0.8489626634233466,-0.0011441294352909637,0.061468556903423455,-0.23604414443546995,-0.0015631758110146166,0.0062259932699371134,-0.030860135256738364,0.0,70.0,255.0,255.0,255.0
142,7.1000000000000005,4.49678108842385,1.7243396773681219,-0.8608034322228403,-0.001202857116497924,0.06180453054169144,-0.23760264729685288,-0.0006469792094065951,0.007420549146153199,-0.03147084050861837,0.0,70.0,255.0,255.0,255.0
143,7.15,4.496720089620498,1.72743912267788,-0.8727229281530319,-0.0012088273562316232,0.062210611818038775,-0.2391912284863318,0.0004227951516888595,0.008807804365495997,-0.03200239060483501,0.0,70.0,255.0,255.0,255.0
144,7.2,4.496660205688227,1.7305607385499258,-0.8847225550714735,-0.001160577601329038,0.06268531097824104,-0.24080288635733638,0.0013988275144427575,0.009941411634351027,-0.03233335880057364,0.0,70.0,255.0,255.0,255.0
145,7.25,4.4966040318603655,1.7337076537757041,-0.8968032167887655,-0.0010689446047873474,0.06320475298147388,-0.24242456436638915,0.002052521648643335,0.010370846634799591,-0.032340566508315405,0.0,70.0,255.0,255.0,255.0
146,7.300000000000001,4.496553311227748,1.7368812138480731,-0.9089650115081124,-0.0009553254364647046,0.063722395641721,-0.24403694300816792,0.0022606817177361904,0.009871701239383412,-0.031973081426905914,0.0,70.0,255.0,255.0,255.0
147,7.3500000000000005,4.496508499316719,1.7400798933398762,-0.9212069110895823,-0.0008428764330137284,0.06419192310541222,-0.24562187250907974,0.002055461497540989,0.008680096279922722,-0.03134236947457403,0.0,70.0,255.0,255.0,255.0
148,7.4,4.496469023584447,1.7433004061586144,-0.9335271987590203,-0.0007497792867106057,0.06459040526971327,-0.24717117995562532,0.0015383501834165259,0.007262908594007911,-0.030656122356642612,0.0,70.0,255.0,255.0,255.0
149,7.45,4.496433521388048,1.7465389338668476,-0.9459240290851448,-0.0006890414146720758,0.06491821396481301,-0.248687484744744,0.0008211122731971443,0.006086515896996936,-0.030132574789665245,0.0,70.0,255.0,255.0,255.0
150,7.5,4.4964001194429795,1.7497922275550957,-0.9583959472334947,-0.0006676680593908912,0.06519905685941296,-0.25018443743459184,8.781902138821351e-06,0.00562042835279275,-0.02999796922315001,0.0,70.0,255.0,255.0,255.0
151,7.550000000000001,4.496366754582109,1.7530588395527889,-0.970942472828604,-0.0006881632244581937,0.06548025680009228,-0.251687281667059,-0.0008210895221516523,0.00610034862562614,-0.030360825748998455,0.0,70.0,255.0,255.0,255.0
152,7.6000000000000005,4.496331303120534,1.756340253235105,-0.9835646754002006,-0.0007497770116060565,0.06580909172197558,-0.2532205200094917,-0.0015776639832765227,0.00728824988336374,-0.031074273667697216,0.0,70.0,255.0,255.0,255.0
153,7.65,4.496291776880948,1.7596397487249864,-0.9962645248295532,-0.0008459296227858459,0.06620908178842866,-0.2547947090338287,-0.002130881200113066,0.00871137710936054,-0.031858527893979804,0.0,70.0,255.0,255.0,255.0
154,7.7,4.496246710158255,1.7629611614139478,-1.0090441463035835,-0.0009628651316173631,0.06668022943291163,-0.25640637279888967,-0.002344815069132977,0.009899377924460495,-0.03243648190086601,0.0,70.0,255.0,255.0,255.0
155,7.75,4.4961954903677865,1.7663077716682776,-1.0219051621094422,-0.0010804111296991437,0.06719901958087471,-0.2580383572239153,-0.0020876492565768956,0.010379514545921786,-0.03253562186713577,0.0,70.0,255.0,255.0,255.0
156,7.800000000000001,4.496138669045285,1.7696810633720352,-1.034847982025975,-0.0011716300572750526,0.06771818088750381,-0.25965993498560325,-0.0013147851672279387,0.009913757404933499,-0.032023242616796566,0.0,70.0,255.0,255.0,255.0
157,7.8500000000000005,4.496078327362059,1.773079589757028,-1.0478711556080025,-0.0012118896464219375,0.06819039532136806,-0.261240681485595,-0.00019012025047615566,0.008737720037554908,-0.031047715341880888,0.0,70.0,255.0,255.0,255.0
158,7.9,4.496017480080643,1.776500102904172,-1.0609720501745346,-0.0011906420823226682,0.0685919528912593,-0.26276470651979134,0.000987971819199629,0.007320767117779958,-0.02990342574111793,0.0,70.0,255.0,255.0,255.0
159,7.95,4.495959263153827,1.7799387850461539,-1.0741476262599816,-0.0011130924645019746,0.06892247203314605,-0.2642310240597068,0.001906399752105159,0.0061291192583912135,-0.02888755821279787,0.0,70.0,255.0,255.0,255.0
160,8.0,4.495906170834193,1.7833923501074866,-1.0873951525805052,-0.0010000021071121523,0.06920486481709842,-0.2656534623410711,0.002261815124882105,0.005629438871457282,-0.028287515336100633,0.0,70.0,255.0,255.0,255.0
161,8.05,4.4958592629431156,1.7868592715278637,-1.1007129724940887,-0.0008869109520137641,0.06948541592029178,-0.26705977559331684,0.001906430656539726,0.0060577686075813375,-0.02825277721043573,0.0,70.0,255.0,255.0,255.0
162,8.1,4.495817479738991,1.7903408916995158,-1.114101130139837,-0.0008093590414581797,0.06981064167785656,-0.2684787400621147,0.0009880284349783608,0.0071900541154690245,-0.028686753076878624,0.0,70.0,255.0,255.0,255.0
163,8.15,4.49577832703897,1.7938403356956494,-1.1275608465003002,-0.000788108108515928,0.07020442133183868,-0.2699284509010047,-0.0001900503648677443,0.008576370270563238,-0.029375881029691797,0.0,70.0,255.0,255.0,255.0
164,8.200000000000001,4.49573866892814,1.7973613338326997,-1.1410939752299374,-0.0008283640779449541,0.07066827870491288,-0.2714163281650839,-0.0013147233335786268,0.009770998189084779,-0.03009999853456069,0.0,70.0,255.0,255.0,255.0
165,8.25,4.495695490631175,1.8009071635661407,-1.1547024793168086,-0.0009195804418737907,0.07118152115074716,-0.27293845075446077,-0.002087629891533993,0.010334804560252486,-0.030634316788513694,0.0,70.0,255.0,255.0,255.0
166,8.3,4.495646710883952,1.8044794859477744,-1.1683878203053835,-0.0010371270670983535,0.07170175916093813,-0.27447975984393524,-0.002344876852777844,0.010042021311384985,-0.030853387469154114,0.0,70.0,255.0,255.0,255.0
167,8.35,4.495591777924465,1.8080773394822345,-1.182150455301202,-0.0011540681271515751,0.07218572328188566,-0.2760237895013762,-0.002131037777619582,0.009072879351146312,-0.030809841115209124,0.0,70.0,255.0,255.0,255.0
168,8.4,4.495531304071237,1.811698058275963,-1.195990199255521,-0.0012502308448603117,0.07260904709605276,-0.27756074395545616,-0.0015778869093985293,0.007802935949197121,-0.030626803053990237,0.0,70.0,255.0,255.0,255.0
169,8.450000000000001,4.495466754839979,1.8153382441918398,-1.2099065296967477,-0.001311856818091428,0.07296601687680537,-0.2790864698067752,-0.0008213059521366972,0.0066067481254483695,-0.03042004671649501,0.0,70.0,255.0,255.0,255.0
170,8.5,4.495400118389428,1.8189946599636435,-1.2238988462361986,-0.0013323614400739814,0.0732697219085976,-0.28060274862710566,8.70444081257915e-06,0.005851296267622708,-0.030315170889738674,0.0,70.0,255.0,255.0,255.0
171,8.55,4.495333518695972,1.8226652163826995,-1.2379668045594583,-0.0013109863740101702,0.07355114650356764,-0.2821179868957491,0.0008213285025426842,0.005733493466020256,-0.03037973351898149,0.0,70.0,255.0,255.0,255.0
172,8.6,4.495269019752027,1.8263497746140003,-1.2521106449257735,-0.001250228589819713,0.07384307125519962,-0.2836407219790038,0.0015389198789073077,0.0061493841907456215,-0.030552950061379924,0.0,70.0,255.0,255.0,255.0
173,8.65,4.49520849583699,1.8300495235082195,-1.2663308767573587,-0.0011570943861194394,0.0741660849226422,-0.28517328190188707,0.002056283317486418,0.0068617693826711346,-0.030718678316143944,0.0,70.0,255.0,255.0,255.0
174,8.700000000000001,4.495153310313415,1.8337663831062645,-1.2806279731159622,-0.0010446002580710712,0.07452924819346674,-0.2867125898106182,0.0022614856027836083,0.007634923062060928,-0.030772728352257417,0.0,70.0,255.0,255.0,255.0
175,8.75,4.495104035811183,1.8375024483275662,-1.2950021357384205,-0.0009309458258410785,0.0749295772288483,-0.2882505547371128,0.0020528121281060407,0.00823203834132702,-0.030609055596575452,0.0,70.0,255.0,255.0,255.0
176,8.8,4.495060215730831,1.8412593408291493,-1.3094530285896735,-0.0008393190452604671,0.07535245202759944,-0.28977349537027575,0.0013980243818600968,0.008518457038975136,-0.03018059220800673,0.0,70.0,255.0,255.0,255.0
177,8.85,4.495020103906657,1.845037693530326,-1.323979485275448,-0.0007911433876550689,0.07578142293274581,-0.2912686139579135,0.0004206729476763371,0.008534152650341298,-0.029580130201067867,0.0,70.0,255.0,255.0,255.0
178,8.9,4.4949811013920655,1.848837483122424,-1.3385798899854648,-0.0007972517504928334,0.07620586729263357,-0.29273150839038253,-0.0006500435641321189,0.008383739433859283,-0.028977551280329195,0.0,70.0,255.0,255.0,255.0
179,8.950000000000001,4.494940378731608,1.8526582802595895,-1.3532526361144863,-0.0008561477440682808,0.07661979687613174,-0.2941663690859464,-0.0015661749209527898,0.008161158693753556,-0.028541813767124502,0.0,70.0,255.0,255.0,255.0
180,9.0,4.494895486617659,1.856499462810037,-1.3679965268940595,-0.0009538692425881123,0.07702198316200892,-0.295585689767095,-0.0020879249807315148,0.007960503747139747,-0.02844058807607297,0.0,70.0,255.0,255.0,255.0
181,9.05,4.494844991807349,1.8603604785757903,-1.3828112050911958,-0.0010649402421414322,0.07741584725084572,-0.2970104278935537,-0.002093426029770029,0.007838738984333737,-0.028751697183060365,0.0,70.0,255.0,255.0,255.0
182,9.1,4.4947889925934446,1.8642410475351217,-1.3976975696834149,-0.0011632118455651153,0.0778058570604423,-0.298460859485401,-0.001669723557728986,0.007793072806938639,-0.029362053609838235,0.0,70.0,255.0,255.0,255.0
183,9.15,4.494728670622792,1.8681410642818346,-1.412657291039736,-0.0012319125979143308,0.07819515453153958,-0.2999466332545375,-0.0010079971728416126,0.0078050444436206234,-0.030054752925856576,0.0,70.0,255.0,255.0,255.0
184,9.200000000000001,4.494665801333653,1.8720605629882756,-1.4276922330088686,-0.0012640115628492765,0.07858636150480436,-0.3014663347779867,-0.00031007263219251513,0.007866642628928666,-0.03060724268650894,0.0,70.0,255.0,255.0,255.0
185,9.25,4.494602269466507,1.875999700432315,-1.4428039245175346,-0.0012629198611335823,0.07898181879443245,-0.3030073575231884,0.00021888779420109472,0.007977974642225938,-0.030792601423423882,0.0,70.0,255.0,255.0,255.0
186,9.3,4.49453950934754,1.8799587448677189,-1.4579929687611874,-0.001242122783429167,0.07938415896902695,-0.30454559492032907,0.0004634186644203453,0.008133300310597669,-0.03049933234646751,0.0,70.0,255.0,255.0,255.0
187,9.35,4.494478057188164,1.8839381163292177,-1.4732584840095675,-0.0012165779946915478,0.07979514882549221,-0.30605729075783517,0.0004627900484166503,0.008293556121730106,-0.02985706328493265,0.0,70.0,255.0,255.0,255.0
188,9.4,4.494417851548071,1.887938259750268,-1.488598697836971,-0.001195843778587502,0.08021351458119996,-0.30753130124882233,0.00031578516983543636,0.008396082791573,-0.02911802909071337,0.0,70.0,255.0,255.0,255.0
189,9.450000000000001,4.494358472810306,1.8919594677873377,-1.5040116141344497,-0.0011849994777080042,0.08063475710464951,-0.3089690936669065,0.00011406451747575375,0.00837898407732851,-0.028535788913308657,0.0,70.0,255.0,255.0,255.0
190,9.5,4.4942993516003,1.896001735460733,-1.5194956072036616,-0.0011844373268399266,0.08105141298893281,-0.3103848801401532,-4.7672816716470834e-05,0.008179625656046241,-0.0283729689343426,0.0,70.0,255.0,255.0,255.0
191,9.55,4.494240029077622,1.900064609086231,-1.535050102148465,-0.0011897667593796513,0.08145271967025414,-0.31180639056034076,-0.00011418802206009104,0.007774260239568065,-0.028757546857760552,0.0,70.0,255.0,255.0,255.0
192,9.600000000000001,4.494180374924362,1.9041470074277584,-1.5506762462596957,-0.0011958561290459357,0.08182883901288962,-0.31326063482592925,-0.00010236903644766926,0.0072344742676921925,-0.029524285324966648,0.0,70.0,255.0,255.0,255.0
193,9.65,4.494120443464717,1.90824749298752,-1.566376165631058,-0.0012000036630244182,0.08217616709702336,-0.3147588190928374,-5.3371945085700645e-05,0.006689691989048008,-0.030358538636532373,0.0,70.0,255.0,255.0,255.0
194,9.700000000000001,4.494060374558059,1.9123646241374608,-1.5821521281689794,-0.0012011933235545058,0.08249780821179442,-0.3162964886895825,1.502851176837794e-08,0.006270194954960395,-0.030949741520402974,0.0,70.0,255.0,255.0,255.0
195,9.75,4.494000324132362,1.9164972738086994,-1.5980058145000162,-0.0012000021601732414,0.0828031865925194,-0.3178537932448777,2.3831445261635054e-05,0.006095504085634751,-0.03098358810740276,0.0,70.0,255.0,255.0,255.0
196,9.8,4.493940374342042,1.9206449427967127,-1.6139375074934672,-0.0011988101790283423,0.0831073586203579,-0.31939484750032276,4.6710990631027016e-08,0.00622345826466475,-0.030310107262176977,0.0,70.0,255.0,255.0,255.0
197,9.850000000000001,4.493880443114459,1.9248080096707352,-1.6299452992500485,-0.0011999974890741782,0.08342553241898587,-0.3208848039710954,-5.331390298124461e-05,0.006604071282989565,-0.029132974902235098,0.0,70.0,255.0,255.0,255.0
198,9.9,4.493820374593135,1.9289874960386113,-1.6460259878905767,-0.0012041415693264668,0.08376776574865685,-0.3223081449905463,-0.00010229739055844789,0.007128785615884148,-0.02784147603660525,0.0,70.0,255.0,255.0,255.0
199,9.950000000000001,4.493760028957526,1.9331847862456009,-1.6621761137491031,-0.001210227228130023,0.08413841098057429,-0.32366895157475595,-0.00011412463134519157,0.007680748923455383,-0.02682459232452583,0.0,70.0,255.0,255.0,255.0
200,10.0,4.493699351870322,1.9374013371366687,-1.6783928830480523,-0.001215554032460986,0.08453584064100239,-0.32499060422299886,-4.765296379716233e-05,0.008150339353329983,-0.0264686226921107,0.0,70.0,255.0,255.0,255.0
201,10.05,4.49363847355428,1.941638370309701,-1.694675174171403,-0.0012149925245097393,0.08495344491590728,-0.326315813843967,0.00011400117818638478,0.008472419522109753,-0.026962397053909015,0.0,70.0,255.0,255.0,255.0
202,10.100000000000001,4.493577852617871,1.9458966816282595,-1.711024464432449,-0.0012041539146423474,0.08538308259321337,-0.32768684392838976,0.0003156246483726477,0.008632876964198566,-0.02809393161622431,0.0,70.0,255.0,255.0,255.0
203,10.15,4.493518058162816,1.9501766785690224,-1.727443858564242,-0.0011834300596724745,0.08581673261232714,-0.32912520700558945,0.00046256150678658514,0.008630690023081478,-0.02944460150606787,0.0,70.0,255.0,255.0,255.0
204,10.200000000000001,4.493459509611903,1.9544783548894922,-1.743936985133008,-0.001157897763963689,0.08624615159552151,-0.33063130407899655,0.00046319678377315654,0.008467322171612501,-0.030592541862062284,0.0,70.0,255.0,255.0,255.0
205,10.25,4.493402268386419,1.9588012937285746,-1.7605069889721416,-0.0011371103812951588,0.08666346482948839,-0.3321844611917957,0.00021880838243504286,0.008147147824888457,-0.0311219677441521,0.0,70.0,255.0,255.0,255.0
206,10.3,4.493345798573774,1.963144701372441,-1.7771554312521876,-0.0011360169257201846,0.08706086637801036,-0.33374350085341176,-0.0003098509572474484,0.007685838005788703,-0.030820444382384515,0.0,70.0,255.0,255.0,255.0
207,10.350000000000001,4.493288666693847,1.9675073803663756,-1.7938813390574828,-0.0011680954770199037,0.08743204863006726,-0.33526650563003413,-0.0010074131288284605,0.007145260021124145,-0.02986211448376963,0.0,70.0,255.0,255.0,255.0
208,10.4,4.493228989026072,1.9718879062354477,-1.810682081815191,-0.0012367582386030307,0.08777539238012277,-0.3367297123017887,-0.0016688810385190322,0.0066292934528089376,-0.028609302088455912,0.0,70.0,255.0,255.0,255.0
209,10.450000000000001,4.493164990869987,1.976284919604388,-1.8275543102876617,-0.001334983580871807,0.08809497797534815,-0.3381274358388797,-0.0020926018974520844,0.006248936749053691,-0.027425100367151067,0.0,70.0,255.0,255.0,255.0
210,10.5,4.493095490667985,1.9806974040329826,-1.844494825399079,-0.0014460184283482391,0.08840028605502814,-0.3394722223385038,-0.0020876271850767125,0.006105078671003739,-0.02666345971105155,0.0,70.0,255.0,255.0,255.0
211,10.55,4.493020389027152,1.9851249482098907,-1.861501532521512,-0.0015437462993794782,0.08870548584244853,-0.3407937818099849,-0.0015669982817101413,0.006244741275285293,-0.02651517273586368,0.0,70.0,255.0,255.0,255.0
212,10.600000000000001,4.492941116038047,1.9895679526172274,-1.8785742035800774,-0.0016027182565192533,0.08902476018255667,-0.3421237396120902,-0.0006522192196989351,0.006621607426615661,-0.02688856615979951,0.0,70.0,255.0,255.0,255.0
213,10.65,4.4928601172015,1.9940274242281464,-1.895713906482721,-0.0016089682213493717,0.0893676465851101,-0.3434826384259648,0.00041753141148959116,0.00713577252942077,-0.027568073589856468,0.0,70.0,255.0,255.0,255.0
214,10.700000000000001,4.492780219215912,1.9985047172757384,-1.912922467422674,-0.0015609651153702941,0.08973833743549875,-0.34488054697107584,0.0013949497339460493,0.007677443652953642,-0.028339970422019967,0.0,70.0,255.0,255.0,255.0
215,10.75,4.492704020689963,2.0030012579716963,-1.9302019611798287,-0.0014694732479547667,0.09013539095040546,-0.3463166354681668,0.0020517003584075155,0.008144518842989612,-0.028996221383748022,0.0,70.0,255.0,255.0,255.0
216,10.8,4.492633271891116,2.007518256370779,-1.9475541309694906,-0.0013557950795295426,0.09055278931979771,-0.34778016910945064,0.0022645573705126765,0.008475709713628987,-0.029413316888970975,0.0,70.0,255.0,255.0,255.0
217,10.850000000000001,4.49256844118201,2.012056536903676,-1.9649799780907737,-0.001243017510903499,0.09098296192176836,-0.3492579671570639,0.002064401895118806,0.008651946635840346,-0.02958818964169385,0.0,70.0,255.0,255.0,255.0
218,10.9,4.492508970140026,2.016616552562956,-1.982479927685197,-0.001149354890017662,0.09141798398338175,-0.35073898807362003,0.0015506435044443379,0.008663140904952016,-0.02955215646553988,0.0,70.0,255.0,255.0,255.0
219,10.950000000000001,4.492453505693009,2.021198335302014,-2.0000538768981357,-0.0010879531604590653,0.09184927601226356,-0.3522131828036179,0.0008328029621473831,0.008501801459992464,-0.029329330298910605,0.0,70.0,255.0,255.0,255.0
220,11.0,4.49240017482398,2.025801480164182,-2.0177012459655588,-0.0010660745938029237,0.09226816412938099,-0.3536719211035111,1.285372386305994e-05,0.008160855281058588,-0.028943636105993598,0.0,70.0,255.0,255.0,255.0
221,11.05,4.492346898233628,2.0304251517149523,-2.035421069008487,-0.0010866677880727593,0.09266536154036942,-0.35510754641421727,-0.0008327696622068004,0.007651394229002406,-0.028423820780787423,0.0,70.0,255.0,255.0,255.0
222,11.100000000000001,4.492291508045173,2.035068016318219,-2.0532120006069805,-0.0011493515600236037,0.09303330355228123,-0.35651430318158983,-0.0016081855642724463,0.007051445190642269,-0.02783951443436905,0.0,70.0,255.0,255.0,255.0
223,11.15,4.492231963077626,2.0397284820701804,-2.071072499326646,-0.001247486344500004,0.09337050605943364,-0.3578914978576542,-0.002174790743403321,0.006492503011568118,-0.027304139708572706,0.0,70.0,255.0,255.0,255.0
224,11.200000000000001,4.492166759410723,2.0444050669241625,-2.089001150392746,-0.0013668306343639358,0.09368255385343804,-0.3592447171524471,-0.00238770004337141,0.006114324866413057,-0.026941682741199457,0.0,70.0,255.0,255.0,255.0
225,11.25,4.49209528001419,2.0490967374555242,-2.1069969710418905,-0.001486256348837145,0.09398193854607495,-0.3605856661317741,-0.002103115254659116,0.006056069356930038,-0.026873243516334355,0.0,70.0,255.0,255.0,255.0
226,11.3,4.492018133775839,2.05380326077877,-2.1250597170059233,-0.0015771421598298474,0.09428816078913105,-0.36193204150408054,-0.0012719402604943753,0.006379226190666998,-0.027151912808554002,0.0,70.0,255.0,255.0,255.0
227,11.350000000000001,4.491937565798207,2.0585255535344373,-2.1431901751922986,-0.0016134503748865825,0.09461986116514165,-0.3633008574126295,-7.697432273801041e-05,0.006977797077034609,-0.027689277096332177,0.0,70.0,255.0,255.0,255.0
228,11.4,4.4918567887383505,2.063265246895284,-2.1613898027471863,-0.0015848395921036484,0.09498594049683451,-0.36470096921371375,0.0011513166722210144,0.0076504834124691,-0.02831492106381006,0.0,70.0,255.0,255.0,255.0
229,11.450000000000001,4.491779081838996,2.068024147584121,-2.17966027211367,-0.001498318707664481,0.09538490950638856,-0.3661323495190105,0.002066248959486927,0.00818812518152967,-0.02885116484350192,0.0,70.0,255.0,255.0,255.0
230,11.5,4.491706956867584,2.072803737845923,-2.1980030376990873,-0.0013782146961549557,0.09580475301498748,-0.36758608569806395,0.0023196072942432977,0.008378876615289244,-0.02912739915257312,0.0,70.0,255.0,255.0,255.0
231,11.55,4.491641260369381,2.0776046228856195,-2.2164188806834764,-0.0012663579782401513,0.09622279716791748,-0.36904508943426784,0.001746731169749438,0.00811841429499971,-0.029055241271835897,0.0,70.0,255.0,255.0,255.0
232,11.600000000000001,4.49158032106976,2.0824260175627147,-2.234907546642514,-0.001203541579180012,0.09661659444448745,-0.37049160982524754,0.0005659663056434283,0.007522774426327317,-0.02868878510535744,0.0,70.0,255.0,255.0,255.0
233,11.65,4.491520906211463,2.0872662823300683,-2.253468041666001,-0.0012097613476758085,0.09697507461055022,-0.3719139679448036,-0.0007995202336630314,0.0068201554134006415,-0.02815076811071293,0.0,70.0,255.0,255.0,255.0
234,11.700000000000001,4.491459344934992,2.0921235250237697,-2.2720989434369945,-0.001283493602546315,0.09729860998582751,-0.37330668663631883,-0.0019179484754161535,0.006239747834246856,-0.02756694459860043,0.0,70.0,255.0,255.0,255.0
235,11.75,4.491392556851208,2.096996143328651,-2.290798710329633,-0.0014015561952174238,0.0975990493939749,-0.3746706624046636,-0.002355360542871665,0.006012386885778653,-0.02705315054920554,0.0,70.0,255.0,255.0,255.0
236,11.8,4.491319189315471,2.1018834299631672,-2.309566009677461,-0.0015190296568334816,0.09789984867440538,-0.3760120016912394,-0.0018951242788389777,0.006253690055935124,-0.026679895996917224,0.0,70.0,255.0,255.0,255.0
237,11.850000000000001,4.491240653885525,2.1067861281960916,-2.328399910498757,-0.0015910686231013216,0.09822441839956841,-0.37733865200435535,-0.0007577067503206081,0.006845697291968378,-0.026471946118844514,0.0,70.0,255.0,255.0,255.0
238,11.9,4.491160082453161,2.111705871803124,-2.3472998748778964,-0.0015948003318655424,0.09858441840360221,-0.37865919630312384,0.0006175801135377412,0.007554302859480444,-0.026446482017350448,0.0,70.0,255.0,255.0,255.0
239,11.950000000000001,4.491081173852338,2.116644570036452,-2.3662658301290693,-0.0015293106117475475,0.09897984868551646,-0.3799833002060904,0.0017923980887069035,0.008146310055012762,-0.026620543941602293,0.0,70.0,255.0,255.0,255.0
240,12.0,4.491007151391986,2.1216038566716757,-2.3852982048985054,-0.001415560522994852,0.09939904940910349,-0.38132125069728406,0.002333909469331985,0.008387613137328387,-0.0270159893269728,0.0,70.0,255.0,255.0,255.0
241,12.05,4.490939617800039,2.126584474977362,-2.4043979551987977,-0.001295919664814349,0.0998186099992493,-0.38268489913878767,0.002020619092846232,0.008160252054922879,-0.027626200381458688,0.0,70.0,255.0,255.0,255.0
242,12.100000000000001,4.490877559425504,2.1315857176716007,-2.423566694812384,-0.0012134986137102288,0.10021507461459578,-0.38408387073542993,0.001035676546834452,0.007579844331484509,-0.028342591258301297,0.0,70.0,255.0,255.0,255.0
243,12.15,4.490818267938668,2.1366059824388217,-2.4428063422723407,-0.0011923520101309037,0.10057659443239775,-0.3855191582646178,-0.00024161607132811014,0.006877225223167471,-0.028982464659010887,0.0,70.0,255.0,255.0,255.0
244,12.200000000000001,4.490758324224491,2.1416433771148404,-2.462118610638846,-0.0012376602208430398,0.10090279713691253,-0.386982117201331,-0.001431783740368786,0.006281585371992193,-0.029358618562724814,0.0,70.0,255.0,255.0,255.0
245,12.25,4.490694501916583,2.146696262152513,-2.481504553992474,-0.0013355303841677824,0.10120475296959697,-0.3884550201208903,-0.0021603239548362296,0.006021123268773465,-0.029290910790669145,0.0,70.0,255.0,255.0,255.0
246,12.3,4.4906247711860745,2.1517638524118,-2.500964112650935,-0.0014536926163266628,0.10150490946378987,-0.38991120828039794,-0.0022280047723199914,0.006211875151285184,-0.02870099012306504,0.0,70.0,255.0,255.0,255.0
247,12.350000000000001,4.490549132654951,2.156846753098892,-2.5204956748205136,-0.0015583308613997815,0.10182594048472549,-0.3913251191331968,-0.0017540437255547658,0.006749517456849929,-0.027723935934664823,0.0,70.0,255.0,255.0,255.0
248,12.4,4.4904689380999345,2.1619464464602727,-2.5400966245642547,-0.0016290969888821394,0.10217986120947486,-0.3926836018738644,-0.0010012323787833566,0.007422204173135327,-0.026619090581991856,0.0,70.0,255.0,255.0,255.0
249,12.450000000000001,4.4903862229560625,2.1670647392198394,-2.5597640350079,-0.0016584540992781172,0.10256816090203902,-0.39398702819139597,-0.00023234937511773524,0.008020775030281868,-0.025657242879528752,0.0,70.0,255.0,255.0,255.0
250,12.5,4.490303092690007,2.1722032625504766,-2.5794953273833943,-0.001652331926393913,0.10298193871250305,-0.3952493261618173,0.00027941432181322057,0.008343931083398815,-0.025100367510111354,0.0,70.0,255.0,255.0,255.0
251,12.55,4.490220989763423,2.1773629330910897,-2.599288967624082,-0.001630512667096795,0.1034025540103789,-0.3964970649424071,0.00038585221204812115,0.008285673913688285,-0.025083125839531206,0.0,70.0,255.0,255.0,255.0
252,12.600000000000001,4.490140041423297,2.1825435179515145,-2.619145033877635,-0.0016137467051891008,0.10381050610387188,-0.3977576387457704,0.00018506711985111224,0.007907493766934337,-0.025513553115086296,0.0,70.0,255.0,255.0,255.0
253,12.65,4.490059615092904,2.187743983701477,-2.639064731498659,-0.0016120059551116839,0.10419330338707233,-0.39904842025391574,-0.00011970150044504635,0.007348550158514655,-0.0261892849011236,0.0,70.0,255.0,255.0,255.0
254,12.700000000000001,4.489978840827786,2.1929628482902217,-2.6590498759030265,-0.0016257168552336054,0.10454536111972335,-0.4003765672358828,-0.00033793297831152813,0.006748601219763728,-0.02689912320592569,0.0,70.0,255.0,255.0,255.0
255,12.75,4.489897043407381,2.1981985198134493,-2.679102388222247,-0.0016457992529428367,0.1048681635090487,-0.4017383325745083,-0.00026940792530183444,0.006239143073605291,-0.027427619169051454,0.0,70.0,255.0,255.0,255.0
256,12.8,4.489814260902492,2.2034496646411266,-2.6992237091604774,-0.0016526576477637889,0.10516927542708387,-0.4031193291527879,0.0001844560648223137,0.005898203087095766,-0.027654245446528947,0.0,70.0,255.0,255.0,255.0
257,12.850000000000001,4.4897317776426044,2.2087154473561577,-2.719414321137526,-0.0016273536464606053,0.10545798381775828,-0.4045037571191612,0.0008910712842258306,0.005736871111938768,-0.027626420369397664,0.0,70.0,255.0,255.0,255.0
258,12.9,4.4896515255378455,2.2139954630229024,-2.7396740848723935,-0.0015635505193412058,0.10574296253827775,-0.4058819711897277,0.0016027423424880283,0.005748070716737885,-0.027457522727214467,0.0,70.0,255.0,255.0,255.0
259,12.950000000000001,4.48957542259067,2.2192897436099854,-2.7600025182564987,-0.0014670794122118025,0.10603279088943207,-0.40724950939188265,0.002084221148646037,0.005924307270133156,-0.027253863364373743,0.0,70.0,255.0,255.0,255.0
260,13.0,4.489504817596624,2.2245987421118456,-2.7803990358115818,-0.001355128404476602,0.10633539326529107,-0.40860735752616506,0.0021102919715687563,0.006255487298467699,-0.027129109193690937,0.0,70.0,255.0,255.0,255.0
261,13.05,4.489439909750223,2.2299232829365145,-2.800863254009115,-0.0012560502150549269,0.10665833961927884,-0.40996242031125174,0.0015754377476362436,0.006722539379167003,-0.027145952980633936,0.0,70.0,255.0,255.0,255.0
262,13.100000000000001,4.489379212575119,2.2352645760737735,-2.821395277842707,-0.0011975846297129777,0.10700764720320777,-0.41132195282422845,0.000616894829708059,0.007264182624533433,-0.02725983300653212,0.0,70.0,255.0,255.0,255.0
263,13.15,4.489320151287251,2.2406240476568353,-2.841995449291538,-0.001194360732084121,0.10738475788173218,-0.41268840361190495,-0.0004958366338847497,0.00777832781322374,-0.027382395751640587,0.0,70.0,255.0,255.0,255.0
264,13.200000000000001,4.48925977650191,2.2460030518619467,-2.8626641182038974,-0.0012471682931014527,0.10778547998453014,-0.4140601923993925,-0.0014866905439170353,0.008155195340808774,-0.027438337089291664,0.0,70.0,255.0,255.0,255.0
265,13.25,4.489195434457941,2.2514025956552883,-2.8834014685314773,-0.0013430297864758245,0.10820027741581306,-0.4154322373208341,-0.0020917599615977167,0.008294898408722773,-0.027359999999942985,0.0,70.0,255.0,255.0,255.0
266,13.3,4.489125473523263,2.256823079603528,-2.904207341935981,-0.0014563442892612244,0.10861496982540242,-0.4167961923993868,-0.002172920342147222,0.008151126575572931,-0.02711485638378086,0.0,70.0,255.0,255.0,255.0
267,13.350000000000001,4.489049800029015,2.2622640926378286,-2.925081087771416,-0.0015603218206905467,0.10901539007337036,-0.4181437229592122,-0.0018067624901085821,0.00777087391439224,-0.026736019166895275,0.0,70.0,255.0,255.0,255.0
268,13.4,4.488969441341194,2.267724618610865,-2.946021714231902,-0.0016370205382720826,0.10939205721684164,-0.41946979431607634,-0.001171283919099153,0.007254981666715565,-0.026291961865521074,0.0,70.0,255.0,255.0,255.0
269,13.450000000000001,4.488886097975188,2.2732032983595127,-2.9670280672030236,-0.001677450212600462,0.10974088824004191,-0.4207729191457643,-0.00045074568681968685,0.006714398546181499,-0.02585227545761626,0.0,70.0,255.0,255.0,255.0
270,13.5,4.488801696319934,2.2786987074348692,-2.9880990061464785,-0.0016820951069540513,0.11006349707145979,-0.42205502186183796,0.00017674787482491183,0.006252937714990026,-0.025474900130273426,0.0,70.0,255.0,255.0,255.0
271,13.55,4.4887178884644925,2.2842096480666587,-3.0092335693892074,-0.0016597754251179708,0.11036618201154091,-0.42332040915879166,0.000603982548330606,0.0059324414980022055,-0.025194621484070368,0.0,70.0,255.0,255.0,255.0
272,13.600000000000001,4.488635718777422,2.2897353256360233,-3.0304310470623577,-0.0016216968521209907,0.11065674122126001,-0.424574484010245,0.0008147238952815883,0.005768685353801928,-0.025033386363393362,0.0,70.0,255.0,255.0,255.0
273,13.65,4.48855571877928,2.2952753221887847,-3.051691017790232,-0.001578303035589812,0.11094305054692111,-0.425823747795131,0.0008147252244405934,0.005766221044556374,-0.025012460749129772,0.0,70.0,255.0,255.0,255.0
274,13.700000000000001,4.488477888473863,2.3008296306907154,-3.0730134218418708,-0.0015402243296769313,0.11123336332571565,-0.427075730085158,0.0006039856462081161,0.005926697654157209,-0.025145847793384135,0.0,70.0,255.0,255.0,255.0
275,13.75,4.488401696346313,2.3063986585213563,-3.0943985907987477,-0.0015179044709690004,0.11153572031233683,-0.4283383325744694,0.00017674981416249125,0.006249341407205122,-0.02544436218285817,0.0,70.0,255.0,255.0,255.0
276,13.8,4.488326098026766,2.311983202721949,-3.1158472550993177,-0.0015225493482606822,0.11185829746643616,-0.4296201663034438,-0.0004507487797233978,0.006720133073212509,-0.02590097003447589,0.0,70.0,255.0,255.0,255.0
277,13.850000000000001,4.488249441411487,2.317584488268,-3.137360607429092,-0.0015629793489413402,0.11220773361965808,-0.430928429577917,-0.0011712939304686643,0.007273545509356438,-0.02644959621855847,0.0,70.0,255.0,255.0,255.0
278,13.9,4.488169800091872,2.323203976083915,-3.1589400980571094,-0.0016396787413075486,0.1125856520173718,-0.43226512592529964,-0.0018067778172259352,0.007799294994592643,-0.026977355976987027,0.0,70.0,255.0,255.0,255.0
279,13.950000000000001,4.488085473537356,2.328843053469737,-3.180587120021622,-0.0017436571306639337,0.11298766311911734,-0.4336261651756157,-0.00217293582505107,0.008179836478428015,-0.027365359010111945,0.0,70.0,255.0,255.0,255.0
280,14.0,4.4879954343788055,2.3345027423958267,-3.202302714574671,-0.0018569723238126556,0.11340363566521461,-0.43500166182631084,-0.002091765780054544,0.008305687332121892,-0.02750364181425269,0.0,70.0,255.0,255.0,255.0
281,14.05,4.487899776304975,2.3401834170362585,-3.224087286204253,-0.001952833708669388,0.11381823185232953,-0.43637652935704097,-0.001486675075845767,0.008126513388528878,-0.02734098555761122,0.0,70.0,255.0,255.0,255.0
282,14.100000000000001,4.487800151007939,2.3458845655810596,-3.245940367510375,-0.0020056398313972323,0.1142162870040675,-0.43773576038207196,-0.0004957952595141535,0.007701608132970605,-0.026932704286819487,0.0,70.0,255.0,255.0,255.0
283,14.15,4.487699212321835,2.3516050457366653,-3.2678608622424603,-0.0020024132346208035,0.11458839266562659,-0.4390697997857229,0.0006169548093737376,0.007152962613377056,-0.02639447897925251,0.0,70.0,255.0,255.0,255.0
284,14.200000000000001,4.4875999096844765,2.3573434048476223,-3.2898473474889474,-0.0019439443504598586,0.1149315832654052,-0.4403752082799972,0.00157549658199585,0.006613443612080161,-0.025852203345788638,0.0,70.0,255.0,255.0,255.0
285,14.25,4.487504817886789,2.363098204063206,-3.31189838307046,-0.0018448635764212185,0.11524973702683461,-0.4416550201203018,0.0021103133057032153,0.006215927912656127,-0.025429089207751332,0.0,70.0,255.0,255.0,255.0
286,14.3,4.487415423326834,2.3688683785503057,-3.3340128495009775,-0.001732913019889537,0.11555317605667081,-0.44291811720077234,0.0020841623693534927,0.006033300551822052,-0.025194574914744194,0.0,70.0,255.0,255.0,255.0
287,14.350000000000001,4.4873315265848,2.374653521668873,-3.3561901947905373,-0.0016364473394858692,0.11585306708201681,-0.4441744776117762,0.0016025868568192436,0.006036385594798688,-0.025135950270760432,0.0,70.0,255.0,255.0,255.0
288,14.4,4.487251778592886,2.3804536852585074,-3.378430297262155,-0.0015726543342076127,0.11615681461615068,-0.4454317122278484,0.0008908466921475622,0.00615333007645269,-0.02520920363000556,0.0,70.0,255.0,255.0,255.0
289,14.450000000000001,4.487174261151379,2.386269203130488,-3.400733366013322,-0.001547362670271113,0.11646840008966208,-0.44669539797477675,0.000184236210820643,0.006312589539758662,-0.025372028072911945,0.0,70.0,255.0,255.0,255.0
290,14.5,4.487097042325859,2.3921005252674736,-3.423099837059633,-0.0015542307131255484,0.11678807357012655,-0.4479689150351396,-0.0002694874431163896,0.006438619665205536,-0.02558802000280913,0.0,70.0,255.0,255.0,255.0
291,14.55,4.487018838080067,2.3979480104875006,-3.445530257516836,-0.001574311414582752,0.11711226205618264,-0.44925419997505767,-0.0003377133301007973,0.006487510511288264,-0.025827940890810197,0.0,70.0,255.0,255.0,255.0
292,14.600000000000001,4.4869396111844,2.403811751473092,-3.4680252570571386,-0.0015880020461356281,0.11743682462125538,-0.4505517091242206,-0.00011912093267341106,0.006473781888649555,-0.026044427031113315,0.0,70.0,255.0,255.0,255.0
293,14.65,4.486860037875453,2.409691692949626,-3.490585428429258,-0.001586223507850093,0.11775964024504759,-0.451858642678169,0.0001859055089425965,0.00643194551881443,-0.026166934938798292,0.0,70.0,255.0,255.0,255.0
294,14.700000000000001,4.486780988833615,2.4155877154975967,-3.5132111213249555,-0.0015694114952413685,0.11808001917313682,-0.45316840261810043,0.0003866727945833759,0.006389997762967781,-0.02612019718326586,0.0,70.0,255.0,255.0,255.0
295,14.75,4.486703096725929,2.42149969486694,-3.535902268691068,-0.0015475562283917554,0.11839864002134437,-0.4544706623964956,0.00027971105875934654,0.006377565454629419,-0.025818830781254576,0.0,70.0,255.0,255.0,255.0
296,14.8,4.486626233210776,2.427427579499731,-3.558658187564605,-0.0015414403893654338,0.11871777571859976,-0.4557502856962259,-0.00023316918902338557,0.00640994411651441,-0.025233148701397923,0.0,70.0,255.0,255.0,255.0
297,14.850000000000001,4.486548952686992,2.4333714724388,-3.5814772972606908,-0.001570873147294094,0.11903963443299581,-0.4569939772666354,-0.0010033991638458417,0.006468486850330635,-0.024488113166176717,0.0,70.0,255.0,255.0,255.0
298,14.9,4.486469145896047,2.4393315429430307,-3.6043575852912686,-0.001641780305750018,0.11936462440363282,-0.45819909701284356,-0.0017571726909082486,0.0065188878475730405,-0.023802124213956333,0.0,70.0,255.0,255.0,255.0
299,14.950000000000001,4.486384774656417,2.445307934879163,-3.627297206961975,-0.0017465904163849189,0.11969152321775312,-0.459374189688031,-0.002231067248814611,0.006527419408897117,-0.02339324380029595,0.0,70.0,255.0,255.0,255.0
300,15.0,4.486294486854408,2.451300695264806,-3.6502950042600717,-0.001864887030631479,0.12001736634452254,-0.46053842139287315,-0.002161431383296275,0.006451118516714871,-0.02347661025225989,0.0,70.0,255.0,255.0,255.0
301,15.05,4.486198285953354,2.4573096715136153,-3.6733510491012624,-0.0019627335547145464,0.1203366350694246,-0.461721850713257,-0.0014287241330457334,0.006272713022559273,-0.024147063371371402,0.0,70.0,255.0,255.0,255.0
302,15.100000000000001,4.486098213498937,2.4633343587717484,-3.6964671893313974,-0.0020077594439360524,0.12064463764677846,-0.4629531277300103,-0.00023352949876098705,0.006052270709844265,-0.025236873217648892,0.0,70.0,255.0,255.0,255.0
303,15.15,4.485997510008961,2.469374135278293,-3.7196463618742635,-0.001986086504590645,0.12094186214040903,-0.4642455380350219,0.0010473540192457165,0.005892503090398904,-0.02642913696959681,0.0,70.0,255.0,255.0,255.0
304,15.200000000000001,4.485899604848478,2.4754285449857893,-3.7428917431348996,-0.0019030240420114808,0.12123388795581835,-0.46559604142697,0.0020320484154900953,0.005893611315022085,-0.027401279830341352,0.0,70.0,255.0,255.0,255.0
305,15.25,4.4858072076047595,2.481497524073875,-3.7662059660169604,-0.0017828816630416355,0.12153122327191124,-0.466985666018056,0.002338042446758948,0.006165932506752014,-0.027846756181970633,0.0,70.0,255.0,255.0,255.0
306,15.3,4.485721316682174,2.4875816673129805,-3.789590309736705,-0.001669219797335586,0.12185048120649355,-0.46838071704516704,0.001780979473409161,0.006753003327064633,-0.02761151156556174,0.0,70.0,255.0,255.0,255.0
307,15.350000000000001,4.485640285625026,2.4936825721945244,-3.813044037721477,-0.0016047837157007194,0.1222065236046177,-0.4697468171746122,0.0005874006080652805,0.00752065874873864,-0.0268142774129565,0.0,70.0,255.0,255.0,255.0
308,15.4,4.485560838310604,2.4998023196734422,-3.8365649914541664,-0.001610479736529058,0.12260254708136742,-0.4710621447864627,-0.0008012876745233655,0.008232032191379801,-0.02571228361878397,0.0,70.0,255.0,255.0,255.0
309,15.450000000000001,4.485479237651373,2.505942826902661,-3.8601502522001234,-0.001684912483153056,0.12302972682375568,-0.4723180455364906,-0.0019377790935415362,0.008652074724846415,-0.024574410771194266,0.0,70.0,255.0,255.0,255.0
310,15.5,4.485392347062288,2.512105292355818,-3.8837967960078155,-0.0018042576458832116,0.12346775455385206,-0.4735195858635821,-0.0023707850236753814,0.00854519807664822,-0.02366037434406998,0.0,70.0,255.0,255.0,255.0
311,15.55,4.485298811886785,2.5182896023580463,-3.9075022107864816,-0.0019219909855205941,0.1238842466314205,-0.4746840829708976,-0.00187533362057124,0.007807674601645331,-0.023119151438777408,0.0,70.0,255.0,255.0,255.0
312,15.600000000000001,4.485200147963736,2.52449371701896,-3.9312652043049052,-0.0019917910079403356,0.1242485220140166,-0.47583150100745986,-0.0006868887846955829,0.006631341381302391,-0.022938744403200317,0.0,70.0,255.0,255.0,255.0
313,15.65,4.485099632785991,2.530714454559448,-3.9550853608872276,-0.0019906798639901524,0.12454738076955074,-0.4769779574112176,0.0007286125297767398,0.005374799379476158,-0.023050679603997537,0.0,70.0,255.0,255.0,255.0
314,15.700000000000001,4.485001079977337,2.536948455095915,-3.978963000046027,-0.0019189297549626616,0.12478600195196421,-0.4781365689678596,0.0019059211053829017,0.004403637571304131,-0.02338676473039314,0.0,70.0,255.0,255.0,255.0
315,15.75,4.484907739810494,2.5431930547546444,-4.002899017784014,-0.0018000877534518622,0.12498774452668115,-0.47931663388425694,0.0023771722396759287,0.00408124721467118,-0.02387575576610068,0.0,70.0,255.0,255.0,255.0
316,15.8,4.484821071201992,2.549447229548583,-4.026894663434453,-0.0016812125309950687,0.12519412667343133,-0.4805241445444697,0.0019072081559379228,0.004583384513212607,-0.02446013442791717,0.0,70.0,255.0,255.0,255.0
317,15.850000000000001,4.484739618557395,2.5557124674219875,-4.0509514322384605,-0.00160936693785807,0.12544608297800242,-0.48176264732704865,0.0007309703814684099,0.005704092275848893,-0.025070838214080737,0.0,70.0,255.0,255.0,255.0
318,15.9,4.484660134508206,2.5619918378463833,-4.0750709281671575,-0.0016081154928482277,0.12576453590101622,-0.48303122836587775,-0.000683978295157317,0.007037814580046486,-0.025602387242251723,0.0,70.0,255.0,255.0,255.0
319,15.950000000000001,4.48457880700811,2.568288921012089,-4.099254555075048,-0.0016777647673738016,0.12614986443600706,-0.4843228860512738,-0.0018727584746969228,0.008174027671126183,-0.025933355482088416,0.0,70.0,255.0,255.0,255.0
320,16.0,4.484492358031469,2.574606824289984,-4.123503216772285,-0.00179539134031792,0.12658193866812883,-0.4856245639140866,-0.002369978527649863,0.008709859684508103,-0.025940565295812235,0.0,70.0,255.0,255.0,255.0
321,16.05,4.484399267874078,2.580947114878902,-4.147817011466457,-0.001914762620138788,0.12702085040445787,-0.48691694258085505,-0.0019403521499761212,0.00843892720521211,-0.025573084742092078,0.0,70.0,255.0,255.0,255.0
322,16.1,4.484300881769455,2.58730890933043,-4.17219491103037,-0.001989426555315532,0.12742583138865005,-0.4881818723882958,-0.000807808591574144,0.007523105366136207,-0.024942378264913856,0.0,70.0,255.0,255.0,255.0
323,16.150000000000002,4.484200325218547,2.593689698017767,-4.196635198705287,-0.0019955434792962023,0.1277731609410715,-0.48941118040734644,0.0005781165018703405,0.006303126449624941,-0.024256135063804862,0.0,70.0,255.0,255.0,255.0
324,16.2,4.484101327421525,2.600086225424537,-4.221136029071105,-0.001931614905128498,0.12805614403361254,-0.4906074858946763,0.0017719659402892773,0.005120111884204803,-0.02373258723391558,0.0,70.0,255.0,255.0,255.0
325,16.25,4.484007163728034,2.6064953124211283,-4.245695947294754,-0.0018183468852672746,0.12828517212949198,-0.491784439130738,0.0023348164628345103,0.004299267427398945,-0.023597973726374732,0.0,70.0,255.0,255.0,255.0
326,16.3,4.483919492732999,2.612914742637486,-4.270314472984179,-0.001698133258845047,0.12848607077635243,-0.49296728326731376,0.0020410535909398675,0.004020253984959865,-0.02396081331639266,0.0,70.0,255.0,255.0,255.0
327,16.35,4.483837350402149,2.6193439194987636,-4.294992675621486,-0.0016142415261732879,0.12868719752798796,-0.49418052046237726,0.0010710798359347962,0.0042344419701745295,-0.024674240800859337,0.0,70.0,255.0,255.0,255.0
328,16.400000000000002,4.483758068580381,2.625783462390285,-4.319732525030417,-0.0015910252752515675,0.1289095149733699,-0.4954347073473997,-0.00019930356369712854,0.004799563071333779,-0.02545848042885268,0.0,70.0,255.0,255.0,255.0
329,16.45,4.483678247874624,2.6322348709961005,-4.3445361463562255,-0.0016341718825430007,0.12916715383512134,-0.4967263685052625,-0.001395245146884605,0.005571725258413096,-0.026036435442389205,0.0,70.0,255.0,255.0,255.0
330,16.5,4.483594651392127,2.638700177773797,-4.369405161880943,-0.001730549789940028,0.1294666874992112,-0.4980383508916386,-0.002149333943179954,0.006413070606159366,-0.026135605066279766,0.0,70.0,255.0,255.0,255.0
331,16.55,4.48350519289563,2.6451815397460217,-4.394339981445389,-0.0018491052768609961,0.12980846089573728,-0.4993399290118905,-0.0022645148943567506,0.007228308603268729,-0.025623289031617702,0.0,70.0,255.0,255.0,255.0
332,16.6,4.483409740864441,2.651681023863371,-4.419339154782132,-0.001957001279375703,0.13018951835953807,-0.5006006797948004,-0.0018455550411466959,0.00794192395572324,-0.024647838019120627,0.0,70.0,255.0,255.0,255.0
333,16.650000000000002,4.483309492767693,2.6582004915819755,-4.444400049424869,-0.0020336607809756657,0.1306026532913096,-0.5018047128138026,-0.001131018797817518,0.00845330657983645,-0.02350360289513631,0.0,70.0,255.0,255.0,255.0
334,16.7,4.483206374786343,2.6647412891925017,-4.469519626063512,-0.002070103159157455,0.13103484901752172,-0.502951040084314,-0.0003580716001927442,0.00865452554403845,-0.02248773160236084,0.0,70.0,255.0,255.0,255.0
335,16.75,4.483102482451777,2.6713039764837276,-4.494695153433301,-0.00206946794099494,0.13146810584571345,-0.5040534859740387,0.00023454728257377155,0.00844845014782436,-0.021887578035784117,0.0,70.0,255.0,255.0,255.0
336,16.8,4.482999427992244,2.677888099777073,-4.519924974660916,-0.0020466484309000776,0.13187969403230415,-0.5051397978878924,0.0005114582009468904,0.007804973140146387,-0.02185260398333,0.0,70.0,255.0,255.0,255.0
337,16.85,4.482897817608687,2.684491945886958,-4.54520913322209,-0.002018322120900251,0.13224860315972808,-0.5062387463723717,0.0005157090932073061,0.00684317689221281,-0.022286295235218745,0.0,70.0,255.0,255.0,255.0
338,16.900000000000002,4.482797595780154,2.691112960093046,-4.570548849298153,-0.001995077521579347,0.13256401172152543,-0.5073684274114143,0.0003571316689487958,0.00578441340648439,-0.022975219879839415,0.0,70.0,255.0,255.0,255.0
339,16.95,4.482698309856529,2.6977483470591106,-4.5959459759632315,-0.0019826089540053715,0.13282704450037652,-0.5085362683603556,0.0001351306153196674,0.004868634104271408,-0.023699351434469662,0.0,70.0,255.0,255.0,255.0
340,17.0,4.482599334884753,2.7043956645430836,-4.621402476134189,-0.0019815644600473803,0.13305087513195257,-0.5097383625548613,-4.890180766992103e-05,0.004325156774820371,-0.024234082789398315,0.0,70.0,255.0,255.0,255.0
341,17.05,4.482500153410524,2.711053434572306,-4.646919812218718,-0.0019874991347723636,0.13325956017785856,-0.5109596766392954,-0.00013525730384600365,0.004271798835686624,-0.024454033963028365,0.0,70.0,255.0,255.0,255.0
342,17.1,4.482400584971276,2.7177216205608694,-4.672498443798118,-0.0019950901904319807,0.13347805501552124,-0.5121837659511641,-0.00013821373219258248,0.004637256587258776,-0.02441154980497018,0.0,70.0,255.0,255.0,255.0
343,17.150000000000002,4.482300644391481,2.724401240073858,-4.698138188813834,-0.002001320507991622,0.13372328583658444,-0.5134008316197924,-9.573631567505458e-05,0.005257151682380723,-0.024229270499365185,0.0,70.0,255.0,255.0,255.0
344,17.2,4.482200452920477,2.731093949144528,-4.7238385269600975,-0.002004663821999486,0.1340037701837593,-0.5146066930011006,-3.6250395130110746e-05,0.005957651325516622,-0.02402246172765743,0.0,70.0,255.0,255.0,255.0
345,17.25,4.482100178009281,2.737801617092234,-4.749598858113944,-0.002004945547504633,0.1343190509691361,-0.5158030777925582,1.3087919725762731e-05,0.00657092275293536,-0.023916044185945395,0.0,70.0,255.0,255.0,255.0
346,17.3,4.481999958365726,2.7445258542414415,-4.775418834739353,-0.00200335503002691,0.13466086245905284,-0.5169982974196952,3.6284301607736325e-05,0.0069955704448787515,-0.023977320770107724,0.0,70.0,255.0,255.0,255.0
347,17.35,4.481899842506278,2.751267703338139,-4.801298687855914,-0.0020013171173438593,0.13501860801362398,-0.518200809869569,3.714583582947739e-05,0.007212365523612263,-0.024146573144445682,0.0,70.0,255.0,255.0,255.0
348,17.400000000000002,4.481799826653992,2.758027715042804,-4.82723891572631,-0.001999640446443962,0.13538209901141407,-0.5194129547341397,2.581359330733335e-05,0.007220732777524219,-0.024309469685146468,0.0,70.0,255.0,255.0,255.0
349,17.45,4.481699878461634,2.7648059132392806,-4.853239983329328,-0.001998735758013126,0.1357406812913764,-0.5206317568380836,9.870965200775572e-06,0.007015072947602619,-0.02436371540781579,0.0,70.0,255.0,255.0,255.0
350,17.5,4.481599953078191,2.7716017831719415,-4.879302091410119,-0.0019986533499238845,0.13608360630617433,-0.5218493262749213,-3.4498708778585296e-06,0.006583133565429833,-0.024205796410115,0.0,70.0,255.0,255.0,255.0
351,17.55,4.481500013126642,2.778414273869898,-4.90542491595682,-0.001999080745100912,0.13639899464791938,-0.5230523364790951,-9.87990276257733e-06,0.005938180457043529,-0.023789596708745364,0.0,70.0,255.0,255.0,255.0
352,17.6,4.481400045003681,2.7852416826367334,-4.931607325058028,-0.0019996413402001423,0.13667742435187868,-0.5242282859457958,-1.0369611391780609e-05,0.005194120479545816,-0.0232039291796049,0.0,70.0,255.0,255.0,255.0
353,17.650000000000002,4.481300048992622,2.792082016305086,-4.957847744551399,-0.00200011770624009,0.13691840669587396,-0.5253727293970556,-7.51805790955018e-06,0.004540756368820453,-0.022611918360304628,0.0,70.0,255.0,255.0,255.0
354,17.7,4.481200033233057,2.798933523306321,-4.984144597997734,-0.0020003931459910973,0.13713149998876073,-0.5264894777818263,-3.2334651400844905e-06,0.004174317956007201,-0.022175450534067664,0.0,70.0,255.0,255.0,255.0
355,17.75,4.4811000096780225,2.805795166303962,-5.010496692329582,-0.0020004410527540983,0.13733583849147468,-0.5275902744504624,7.115642297605973e-07,0.004288524336582,-0.022052751524714864,0.0,70.0,255.0,255.0,255.0
356,17.8,4.480999989127781,2.8126671071554683,-5.03690362544278,-0.0020003219895681212,0.13756035242241893,-0.5286947529342978,3.235308554394578e-06,0.004966020081154099,-0.0223180919275201,0.0,70.0,255.0,255.0,255.0
357,17.85,4.480899977479066,2.819551201546204,-5.063366167623012,-0.002000117521898659,0.1378324404995901,-0.5298220836432144,4.3326097376450434e-06,0.006044905472846196,-0.02287323461374058,0.0,70.0,255.0,255.0,255.0
358,17.900000000000002,4.480799977375591,2.8264503512054273,-5.089885833807101,-0.0019998887285943567,0.13816484296970355,-0.5309820763956719,4.258638508503054e-06,0.007220810512098552,-0.023526493238712476,0.0,70.0,255.0,255.0,255.0
359,17.95,4.480699988606206,2.833367685843174,-5.116464375262579,-0.0019996916580478086,0.13855452155079995,-0.5321747329670856,3.0628957148337577e-06,0.008182107442422648,-0.024081708561940474,0.0,70.0,255.0,255.0,255.0
360,18.0,4.4806000082097865,2.8403058033605073,-5.14310330710381,-0.0019995824390228734,0.13898305371394581,-0.5333902472518659,6.036137811804565e-07,0.008634797060169674,-0.02434720681376845,0.0,70.0,255.0,255.0,255.0
361,18.05,4.480500030362304,2.847265991214569,-5.1698033999877655,-0.0019996312966696905,0.13941800125681691,-0.5346094536484625,-3.0613319879080336e-06,0.008430652971247454,-0.02422474886829562,0.0,70.0,255.0,255.0,255.0
362,18.1,4.48040004508012,2.854247603486189,-5.196564252468656,-0.001999888572221664,0.13982611901107056,-0.5358127221386955,-6.960827025892513e-06,0.007676141078949428,-0.023788540292457583,0.0,70.0,255.0,255.0,255.0
363,18.150000000000002,4.480300041505082,2.861248603115676,-5.223384672201635,-0.0020003273793722798,0.14018561536471186,-0.5369883076777082,-9.516495680372827e-06,0.006606957293620042,-0.023196700759164912,0.0,70.0,255.0,255.0,255.0
364,18.2,4.480200012342182,2.86826616502266,-5.250263083236427,-0.0020008402217897014,0.14048681474043256,-0.538132392214612,-9.018117097525646e-06,0.005470026167042619,-0.02261100192963994,0.0,70.0,255.0,255.0,255.0
365,18.25,4.480099957482903,2.875297284589719,-5.277197911423096,-0.0020012291910820323,0.14073261798141612,-0.5392494078706722,-3.126019798571633e-06,0.004496296747147355,-0.022194411896681032,0.0,70.0,255.0,255.0,255.0
366,18.3,4.479999889423074,2.882339426820802,-5.304188024023494,-0.0020011528237695586,0.1409364444151473,-0.5403518334042801,9.010018509059137e-06,0.003823629106181059,-0.02203568649328247,0.0,70.0,255.0,255.0,255.0
367,18.35,4.479899842200526,2.889390929031234,-5.331233094763524,-0.0020003281892311264,0.14111498089203423,-0.5414529765200005,2.3510698277107167e-05,0.003483257483516411,-0.022088967852962327,0.0,70.0,255.0,255.0,255.0
368,18.400000000000002,4.479799856604151,2.896450924910005,-5.358333321675494,-0.001998801753941848,0.14128477016349894,-0.5425607301895763,3.380734447944178e-05,0.003480311362258348,-0.022251179248300446,0.0,70.0,255.0,255.0,255.0
369,18.45,4.479699962025132,2.9035194060475837,-5.385489167782482,-0.0019969474547831823,0.14146301202826006,-0.5436780944448305,3.3009573474629406e-05,0.003816762248742833,-0.022420484184770828,0.0,70.0,255.0,255.0,255.0
370,18.5,4.479600161858673,2.9105972261128312,-5.412701131119977,-0.001995500796594385,0.14166644638837322,-0.5448027786080534,1.1900465235470392e-05,0.004491997303501805,-0.022483164248487952,0.0,70.0,255.0,255.0,255.0
371,18.55,4.479500411945472,2.917686050686421,-5.439969445643287,-0.001995757408259635,0.14191221175861024,-0.5459264108696793,-3.297874320296046e-05,0.005476881886012919,-0.022379731266752856,0.0,70.0,255.0,255.0,255.0
372,18.6,4.479400586117847,2.9247884472886923,-5.467293772206945,-0.001998798670914681,0.14221413457697452,-0.5470407517347287,-8.708196634898968e-05,0.006629150665027339,-0.02217652069580467,0.0,70.0,255.0,255.0,255.0
373,18.650000000000002,4.479300532078381,2.9319074641441185,-5.49467352081676,-0.002004465604894534,0.14257512682511297,-0.5481440629392598,-0.00012571288126039804,0.007710118935611021,-0.021996810685820378,0.0,70.0,255.0,255.0,255.0
374,18.7,4.479200139557357,2.9390459599712035,-5.522108178500871,-0.002011369959040721,0.14298514647053562,-0.5492404328033107,-0.00012302017626808492,0.008464976119970657,-0.02195414757837355,0.0,70.0,255.0,255.0,255.0
375,18.75,4.479099395082477,2.946205978791172,-5.549597564097091,-0.0020167676225213427,0.14342162443711004,-0.5503394776970971,-4.447584167621699e-05,0.008647695390973098,-0.022168875165107238,0.0,70.0,255.0,255.0,255.0
376,18.8,4.478998462795105,2.9533881224149146,-5.577142126270581,-0.0020158175432083425,0.14384991600963293,-0.5514573203198214,0.0001229049538586935,0.008147817709058813,-0.022692474687424635,0.0,70.0,255.0,255.0,255.0
377,18.85,4.478897813328156,2.9605909703921354,-5.604743296129073,-0.0020044771271354733,0.14423640620801592,-0.5526087251658396,0.00032481716711885156,0.007129090905211299,-0.02340317780111789,0.0,70.0,255.0,255.0,255.0
378,18.900000000000002,4.478798015082392,2.967811763035716,-5.632402998787165,-0.0019833358264964573,0.14456282510015406,-0.5537976380999332,0.0004690441810950574,0.005911940167457885,-0.02408251040932896,0.0,70.0,255.0,255.0,255.0
379,18.95,4.478699479745506,2.9750472529021508,-5.660123059939067,-0.0019575727090259676,0.1448276002247617,-0.5550169762067725,0.0004657844188571403,0.004835594343566285,-0.02451686489681748,0.0,70.0,255.0,255.0,255.0
380,19.0,4.478602257811489,2.9822945230581923,-5.687904696407842,-0.0019367573846107433,0.1450463845345107,-0.556249324589615,0.00021803087308924773,0.004241230457102674,-0.024501381710528847,0.0,70.0,255.0,255.0,255.0
381,19.05,4.478505804007045,2.989551891355602,-5.715747992398028,-0.0019357696217170428,0.14525172327047198,-0.5574671143778254,-0.00031244060663127016,0.0043046211707142845,-0.02394277091593011,0.0,70.0,255.0,255.0,255.0
382,19.1,4.478408680849317,2.9968196953852395,-5.743651407845625,-0.0019680014452738703,0.14547684665158211,-0.558643601681208,-0.0010104151399126238,0.004885441424873349,-0.0229770151859654,0.0,70.0,255.0,255.0,255.0
383,19.150000000000002,4.478309003862518,3.00409957602076,-5.771612352566149,-0.002036811135708305,0.1457402674129593,-0.5597648158964219,-0.0016713962437187035,0.005692003844037785,-0.02186857891199878,0.0,70.0,255.0,255.0,255.0
384,19.200000000000003,4.4782049997357465,3.0113937221265354,-5.799627889435267,-0.0021351410696457407,0.1460460470359859,-0.5608304595724078,-0.0020940568935756687,0.006432273545531331,-0.020890653906757706,0.0,70.0,255.0,255.0,255.0
385,19.25,4.478095489755553,3.0187041807243586,-5.82769539852339,-0.002246216825065872,0.14638349476751245,-0.5618538812870977,-0.002087694270702656,0.006811438724962926,-0.02030559799273135,0.0,70.0,255.0,255.0,255.0
386,19.3,4.47798037805324,3.0260320716032867,-5.855813277563977,-0.0023439104967160063,0.14672719090848219,-0.562861019371681,-0.0015655434594030737,0.006674350288715658,-0.020249728362742303,0.0,70.0,255.0,255.0,255.0
387,19.35,4.477861098705882,3.033376899815207,-5.883981500460558,-0.0024027711710061794,0.147050929796384,-0.5638788541233719,-0.0006494036938420322,0.006135483721703139,-0.020640649566949776,0.0,70.0,255.0,255.0,255.0
388,19.400000000000002,4.477740100936139,3.040737164582925,-5.912201162976314,-0.0024088508661002095,0.1473407392806525,-0.564925084328376,0.00042110955833507546,0.005432864969012741,-0.021291285830482565,0.0,70.0,255.0,255.0,255.0
389,19.450000000000003,4.4776202136192715,3.048110973743272,-5.940474008893395,-0.002360660215172672,0.14759421629328529,-0.5660079827064202,0.0013981820830899494,0.004795684434588665,-0.022007232762533135,0.0,70.0,255.0,255.0,255.0
390,19.5,4.477504034914622,3.0554965862122536,-5.968801961246956,-0.0022690326577912145,0.14782030772411137,-0.5671258076046293,0.0020527462092800874,0.004444949375237428,-0.02259622631815006,0.0,70.0,255.0,255.0,255.0
391,19.55,4.477393310353492,3.0628930045156832,-5.997186589653858,-0.002155385594244663,0.14803871123080903,-0.5682676053382352,0.002261327730668228,0.0044978378142435105,-0.022946054561234774,0.0,70.0,255.0,255.0,255.0
392,19.6,4.4772884963551975,3.0703004573353345,-6.025628721780779,-0.0020428998847243918,0.14827009150553572,-0.5694204130607528,0.0020561418039299895,0.0048872157628387924,-0.023064955310925228,0.0,70.0,255.0,255.0,255.0
393,19.650000000000002,4.47718902036502,3.077720013666237,-6.054128630959934,-0.0019497714138516642,0.1485274328070929,-0.5705741008693277,0.0015388461228837969,0.00546194420549817,-0.023000030680275785,0.0,70.0,255.0,255.0,255.0
394,19.700000000000003,4.477093519213812,3.085153200616044,-6.082686131867712,-0.001889015272436012,0.14881628592608553,-0.5717204161287803,0.000821328561073642,0.006071702002818924,-0.022794727397190684,0.0,70.0,255.0,255.0,255.0
395,19.75,4.477000118837776,3.0926016422588454,-6.111300672572812,-0.0018676385577443,0.1491346030073748,-0.5728535736090468,8.737405199354953e-06,0.006572773097923701,-0.022501478085601434,0.0,70.0,255.0,255.0,255.0
396,19.8,4.476906755358038,3.1000666609167813,-6.139971489228617,-0.0018881415319160766,0.1494735632358779,-0.5739705639373405,-0.0008213059254025268,0.006881524561341834,-0.02215831446461536,0.0,70.0,255.0,255.0,255.0
397,19.85,4.476811304684585,3.107548998582433,-6.168697728966546,-0.0019497691502845527,0.14982275546350898,-0.5750694050555083,-0.0015779607243082694,0.006999289590625679,-0.02178036835127628,0.0,70.0,255.0,255.0,255.0
398,19.900000000000002,4.4767117784430095,3.115048936463132,-6.197478429734168,-0.0020459376043469035,0.15017349219494047,-0.5761486007724681,-0.002131179364006641,0.006954882684917507,-0.021389430610607718,0.0,70.0,255.0,255.0,255.0
399,19.950000000000003,4.47660671092415,3.122566347801927,-6.2263125890437925,-0.002162887086685217,0.15051824373200073,-0.5772083481165691,-0.002345034788842071,0.006778020374698102,-0.021019545293476938,0.0,70.0,255.0,255.0,255.0
400,20.0,4.476495489734341,3.1301007608363323,-6.2551992645458245,-0.0022804410832311106,0.15085129423241028,-0.5782505553018158,-0.0020876958300775073,0.006507967556945715,-0.020693898633972196,0.0,70.0,255.0,255.0,255.0
401,20.05,4.476378666815827,3.1376514772251682,-6.284137644573974,-0.0023716566696929675,0.1511690404876953,-0.5792777379799663,-0.0013145655680446566,0.0061750382993608355,-0.02042740086718453,0.0,70.0,255.0,255.0,255.0
402,20.1,4.476258324067372,3.145217664885102,-6.313127038343821,-0.0024118976400355763,0.15146879806234637,-0.5802932953885342,-0.0001896135920276265,0.005796465035512455,-0.02025086732224679,0.0,70.0,255.0,255.0,255.0
403,20.150000000000002,4.476137477051823,3.152798357031403,-6.3421669741128275,-0.00239061802889573,0.15174868699124655,-0.581302824712191,0.000988668535928383,0.005399364215685765,-0.020204950840430058,0.0,70.0,255.0,255.0,255.0
404,20.200000000000003,4.476019262264482,3.1603925335842264,-6.37125732081504,-0.002313030786442738,0.15200873448391494,-0.5823137904725773,0.0019070623422656752,0.00502190414386483,-0.02032037814148069,0.0,70.0,255.0,255.0,255.0
405,20.25,4.475906173973179,3.1679992304797944,-6.400398353160085,-0.0021999117946691626,0.15225087740563303,-0.583334862526339,0.002262045915291111,0.004691393970279734,-0.020626890082464655,0.0,70.0,255.0,255.0,255.0
406,20.3,4.475799271085015,3.1756176213247898,-6.429590807067674,-0.002086826194913627,0.15247787388094292,-0.5843764794808237,0.0019057686642121041,0.004425035527999555,-0.02112639442177766,0.0,70.0,255.0,255.0,255.0
407,20.35,4.475697491353688,3.1832470178678887,-6.458836001108168,-0.0020093349282479522,0.152693380958433,-0.5854475019685168,0.000986298542748898,0.004252146304573046,-0.02173532319860172,0.0,70.0,255.0,255.0,255.0
408,20.400000000000002,4.47559833759219,3.190886959420633,-6.488135557264526,-0.001988196340638737,0.15290308851140022,-0.5865500118006839,-0.00019253906913263563,0.004210364415069279,-0.022309926865649032,0.0,70.0,255.0,255.0,255.0
409,20.450000000000003,4.475498671719624,3.1985373267190287,-6.517491002288236,-0.002028588835161216,0.15311441739993992,-0.5876784946550817,-0.0013171539746892336,0.0043276497629474164,-0.02269996778183625,0.0,70.0,255.0,255.0,255.0
410,20.5,4.475395478708674,3.206198401160627,-6.546903406730034,-0.0021199117381076604,0.15333585348769496,-0.5888200085788675,-0.0020885064791364982,0.0046304192659274435,-0.022754531712632087,0.0,70.0,255.0,255.0,255.0
411,20.55,4.475286680545813,3.213870912067798,-6.576373003146123,-0.0022374394830748656,0.15357745932653266,-0.5899539478263449,-0.002342448482473003,0.005119131943409627,-0.022406508624950305,0.0,70.0,255.0,255.0,255.0
412,20.6,4.475171734760367,3.2215561470932803,-6.6058988015126685,-0.0023541565863549607,0.15384776668203592,-0.5910606594413625,-0.0021246248675055313,0.0057141105850977425,-0.02177231540754221,0.0,70.0,255.0,255.0,255.0
413,20.650000000000002,4.475051264887178,3.2292556887360018,-6.635479069090259,-0.0024499019698254187,0.15414887038504244,-0.5921311793670991,-0.001568628809689443,0.006278338962717456,-0.021071705333230994,0.0,70.0,255.0,255.0,255.0
414,20.700000000000003,4.474926744563384,3.2369710341317846,-6.665111919449378,-0.002511019467323905,0.15447560057830767,-0.5931678299746856,-0.0008122459772330615,0.006668522445663072,-0.020532524624705673,0.0,70.0,255.0,255.0,255.0
415,20.75,4.474800162940445,3.2447032487938325,-6.6947958520877275,-0.002531126567548725,0.15481572262960874,-0.5941844318295697,1.198000125768317e-05,0.006742919642377387,-0.020390973742756557,0.0,70.0,255.0,255.0,255.0
416,20.8,4.474673631906629,3.2524526063947454,-6.724530362632335,-0.0025098214671981367,0.1551498925425454,-0.5952069273489613,0.0008122770134733059,0.006437923878044316,-0.02076085779085801,0.0,70.0,255.0,255.0,255.0
417,20.85,4.474549180793725,3.260218238048087,-6.754316544822624,-0.0024498988662013943,0.15545951501741317,-0.5962605176086555,0.0015149981300588422,0.005855886879357897,-0.021490007246072196,0.0,70.0,255.0,255.0,255.0
418,20.900000000000002,4.474428642020009,3.2679985578964867,-6.784156414393201,-0.0023583216541922525,0.1557354812304812,-0.5973559280735685,0.0020217396227373285,0.005192643369866801,-0.02228865972737637,0.0,70.0,255.0,255.0,255.0
419,20.950000000000003,4.474313348628306,3.275791786171135,-6.8140521376299805,-0.0022477249039276614,0.15597877935439985,-0.5984893835813931,0.0022276763452566684,0.0046510343473027405,-0.022870073580261163,0.0,70.0,255.0,255.0,255.0
420,21.0,4.4742038695296165,3.2835964358319267,-6.84400535275134,-0.0021355540196665856,0.15620058466521147,-0.5996429354315946,0.00204058647392813,0.004433892840838283,-0.0229496385843575,0.0,70.0,255.0,255.0,255.0
421,21.05,4.4740997932263395,3.2914118446376563,-6.87401643117314,-0.0020436662565348485,0.15642216863848368,-0.6007843474398289,0.0014318019669445903,0.004642459257686582,-0.022389687250079504,0.0,70.0,255.0,255.0,255.0
422,21.1,4.473999502903963,3.299238652695775,-6.904083787495323,-0.0019923738229721266,0.15666483059098013,-0.6018819041566026,0.0005099470321567878,0.005176933972395048,-0.021354835095266367,0.0,70.0,255.0,255.0,255.0
423,21.150000000000002,4.473900555844042,3.3070783276967544,-6.9342046215888,-0.0019926715533191697,0.1569398620357232,-0.6029198309493555,-0.0005211268841343042,0.005836495482869353,-0.020167315431951494,0.0,70.0,255.0,255.0,255.0
424,21.200000000000003,4.473800235748631,3.3149326388993474,-6.964375770590259,-0.002044486511385557,0.15724848013926707,-0.6038986356997977,-0.0014399978646828515,0.006420766738068906,-0.01915324166068544,0.0,70.0,255.0,255.0,255.0
425,21.25,4.473696107192904,3.322803175710681,-6.99459448515878,-0.002136671339787455,0.15758193870953008,-0.6048351551154241,-0.0020422979244649753,0.006737546290658258,-0.018638443947160965,0.0,70.0,255.0,255.0,255.0
426,21.3,4.473586568614652,3.3306908327703004,-7.024859286101801,-0.0022487163038320546,0.1579222347683329,-0.6057624800945138,-0.002219484880949807,0.0066856656650404744,-0.018786966634554148,0.0,70.0,255.0,255.0,255.0
427,21.35,4.473471235562521,3.3385953991875144,-7.055170733168231,-0.0023586198278824355,0.15825050527603413,-0.6067138517788795,-0.0020028981473352303,0.00632178515660442,-0.019442540485137272,0.0,70.0,255.0,255.0,255.0
428,21.400000000000002,4.473350706631864,3.346515883297904,-7.085530671279689,-0.0024490061185655776,0.15855441328399333,-0.6077067341430276,-0.001489120198616689,0.005775966772825214,-0.020290190433591704,0.0,70.0,255.0,255.0,255.0
429,21.450000000000003,4.473226334950664,3.3544508405159137,-7.115941406582534,-0.0025075318477441044,0.15882810195331665,-0.6087428708222387,-0.0007876848865606689,0.005179185413162202,-0.02101038634991781,0.0,70.0,255.0,255.0,255.0
430,21.5,4.47309995344709,3.3623986934932355,-7.146404958361913,-0.0025277746072216445,0.15907233182530955,-0.6098077727780193,-3.422747862913411e-06,0.004651912672715142,-0.021268613599012554,0.0,70.0,255.0,255.0,255.0
431,21.55,4.472973557489942,3.3703580736984446,-7.176922183860336,-0.0025078741225303958,0.15929329322058816,-0.6108697321821399,0.0007876760194314159,0.004267651975409237,-0.0208963856056954,0.0,70.0,255.0,255.0,255.0
432,21.6,4.472849166034837,3.3783280228152943,-7.207491931580127,-0.002449007005278503,0.15949909702285048,-0.6118974113385889,0.001504442759703295,0.004052289037881351,-0.02008134329063438,0.0,70.0,255.0,255.0,255.0
433,21.650000000000002,4.472728656789414,3.3863079834007297,-7.238111924994195,-0.0023574298465600663,0.1596985221243763,-0.6128778665112034,0.0020322929919380783,0.004024112950196113,-0.019184743347633315,0.0,70.0,255.0,255.0,255.0
434,21.700000000000003,4.472613423050181,3.394297875027732,-7.268779718231247,-0.002245777706084695,0.1599015083178701,-0.6138158856733522,0.0022522758722942626,0.004201978788076488,-0.018558872612928212,0.0,70.0,255.0,255.0,255.0
435,21.75,4.4725040790188055,3.4022981342325167,-7.29949351356153,-0.00213220225933064,0.16011872000318395,-0.6147337537724962,0.0020559889168048073,0.004610793694226345,-0.018567008415448782,0.0,70.0,255.0,255.0,255.0
436,21.8,4.4724002028242476,3.4103097470280503,-7.330253093608497,-0.0020401788144042143,0.16036258768729272,-0.6156725865148971,0.0014072423423883151,0.005244752074728964,-0.019381150616037957,0.0,70.0,255.0,255.0,255.0
437,21.85,4.472300061137365,3.418334393001246,-7.36106077221302,-0.0019914780250918085,0.16064319521065684,-0.6166718688341,0.0004304417933198579,0.005988219531305461,-0.020744906865477475,0.0,70.0,255.0,255.0,255.0
438,21.900000000000002,4.472201055021738,3.426374066549116,-7.391920280491907,-0.0019971346350722285,0.16096140964042327,-0.6177470772014448,-0.0006428489721876929,0.006646742265603578,-0.0221771765034795,0.0,70.0,255.0,255.0,255.0
439,21.950000000000003,4.472100347673858,3.4344305339652883,-7.422835479933164,-0.0020557629223105778,0.1613078694372172,-0.6188895864844479,-0.0015629570638608925,0.007020638362176257,-0.023201489166080336,0.0,70.0,255.0,255.0,255.0
440,22.0,4.471995478729507,3.4425048534928377,-7.453809239140352,-0.002153430341458318,0.1616634734766409,-0.6200672261180529,-0.0020885049474728135,0.0069129311983218145,-0.023339436654001844,0.0,70.0,255.0,255.0,255.0
441,22.05,4.471885004639712,3.4505968813129524,-7.48484220254497,-0.002264613417057859,0.16199916255704938,-0.6212235301498481,-0.0020966453891269055,0.006239027371357508,-0.022364839434718675,0.0,70.0,255.0,255.0,255.0
442,22.1,4.4717690173878015,3.4587047697485427,-7.5159315921553365,-0.0023630948803710083,0.16228737621377665,-0.6223037100615247,-0.001674321821276692,0.005161079922988421,-0.02059068425959154,0.0,70.0,255.0,255.0,255.0
443,22.150000000000002,4.471648695151675,3.46682561893433,-7.547072573551122,-0.0024320455991855283,0.16251527054934822,-0.6232825985758073,-0.0010127852149821592,0.003984349222951877,-0.018616573949792325,0.0,70.0,255.0,255.0,255.0
444,22.200000000000003,4.471525812827883,3.4749562968034775,-7.578259852012917,-0.0024643734018692243,0.16268581113607183,-0.624165367456504,-0.0003137343298931228,0.0030210155492316204,-0.01704729193443555,0.0,70.0,255.0,255.0,255.0
445,22.25,4.471402257811488,3.4830942000479372,-7.6094891102967726,-0.0024634190321748406,0.16281737210427139,-0.6249873277692508,0.00021803087291161205,0.002565453540581686,-0.01648717970015312,0.0,70.0,255.0,255.0,255.0
446,22.3,4.4712794709246655,3.4912380340139046,-7.640758584789842,-0.002442570314578063,0.16294235649013,-0.6258140854265193,0.00046707814203017506,0.002766224686334695,-0.017233151318940543,0.0,70.0,255.0,255.0,255.0
447,22.35,4.47115800078003,3.4993884356969502,-7.6720705188394245,-0.002416711217971823,0.16309399457290485,-0.6267106429011449,0.00047141425651986424,0.0035175773261730825,-0.01895706472101466,0.0,70.0,255.0,255.0,255.0
448,22.400000000000002,4.471037799802868,3.507547433471195,-7.703429649079957,-0.0023954288889260766,0.1632941142227473,-0.6277097918986208,0.0003277427456538362,0.004584905131910233,-0.021010979912539085,0.0,70.0,255.0,255.0,255.0
449,22.450000000000003,4.470918457891138,3.515717847119225,-7.7348414980292866,-0.0023839369434064395,0.16355248508609588,-0.6288117408923988,0.00012549345091983355,0.005722525548890189,-0.022743422349513764,0.0,70.0,255.0,255.0,255.0
450,22.5,4.470799406108528,3.5239026819798047,-7.766310823169197,-0.0023828795438340933,0.16386636677763633,-0.6299841341335721,-4.366516419551658e-05,0.0067012453155879115,-0.023507928460819727,0.0,70.0,255.0,255.0,255.0
451,22.55,4.470680169936754,3.5321044837969886,-7.797839911442644,-0.002388303459825991,0.16422260961765467,-0.6311625337384807,-0.00012560657305371592,0.007383812810246582,-0.022976121723949916,0.0,70.0,255.0,255.0,255.0
452,22.6,4.470560575762545,3.54032494294157,-7.829427076543045,-0.002395440201139465,0.164604748058661,-0.6322817463059671,-0.00013226760602336185,0.007735883499249141,-0.02143728063286332,0.0,70.0,255.0,255.0,255.0
453,22.650000000000002,4.47044062591664,3.5485649586028547,-7.8610680860732405,-0.0024015302204283273,0.16499619796757958,-0.6333062618017671,-9.641420586348204e-05,0.007747079201214646,-0.01948328262395549,0.0,70.0,255.0,255.0,255.0
454,22.700000000000003,4.470320422740502,3.556824562738328,-7.892757702723221,-0.002405081621725813,0.16537945597878245,-0.6342300745683627,-4.203900711985398e-05,0.007409907896294143,-0.01770545223349629,0.0,70.0,255.0,255.0,255.0
455,22.75,4.470200117754468,3.565102904200733,-7.924491093530077,-0.0024057341211403127,0.165737188757209,-0.6350768070251167,8.657756023211505e-06,0.006717583844828567,-0.0166850225396864,0.0,70.0,255.0,255.0,255.0
456,22.8,4.470079849328388,3.573398281614049,-7.956265383425733,-0.002404215846123492,0.1660512143632653,-0.6358985768223313,4.2061436289486664e-05,0.0056964727906283485,-0.01672828253163061,0.0,70.0,255.0,255.0,255.0
457,22.85,4.469959696169855,3.5817080256370595,-7.98808095121231,-0.002401527977511364,0.16630683603627183,-0.6367496352782798,5.765616810649021e-05,0.004500566998633104,-0.017639360533205917,0.0,70.0,255.0,255.0,255.0
458,22.900000000000002,4.469839696530637,3.5900289652176762,-8.019940346953561,-0.002398450229312843,0.16650127106312862,-0.6376625128756519,5.791407859945252e-05,0.0033884563850783422,-0.0189911809671095,0.0,70.0,255.0,255.0,255.0
459,22.950000000000003,4.469719851146924,3.5983581527433723,-8.051847202499875,-0.002395736569651419,0.16664568167477967,-0.6386487533749907,4.2662577381946676e-05,0.0026357915837493806,-0.020361109043331993,0.0,70.0,255.0,255.0,255.0
460,23.0,4.469600122873672,3.606693533385154,-8.08380522229106,-0.0023941839715746482,0.16676485022150356,-0.6396986237799851,9.034139658581353e-06,0.0025164379530817627,-0.021340046647289057,0.0,70.0,255.0,255.0,255.0
461,23.05,4.469480432749767,3.6150346377655227,-8.115817064877874,-0.0023948331556855607,0.16689732547008784,-0.6407827580397196,-4.2639172903591316e-05,0.0031513216683709544,-0.021698626937194376,0.0,70.0,255.0,255.0,255.0
462,23.1,4.469360639558103,3.623383265932163,-8.147883498095032,-0.0023984478888650074,0.16707998238834065,-0.6418684864737045,-9.835706622496332e-05,0.004332897457226537,-0.02149525392614038,0.0,70.0,255.0,255.0,255.0
463,23.150000000000002,4.46924058796088,3.6317426360043568,-8.180003913525244,-0.002404668862308057,0.1673306152158105,-0.6429322834323337,-0.00013524210791260316,0.0056663679854906945,-0.020900338496332438,0.0,70.0,255.0,255.0,255.0
464,23.200000000000003,4.469120172671873,3.640116327453744,-8.212176726438265,-0.0024119720996562677,0.16764661918688972,-0.6439585203233378,-0.00012861130240793273,0.006741377983177088,-0.02007771065919428,0.0,70.0,255.0,255.0,255.0
465,23.25,4.4689993907509145,3.6485072979230457,-8.244399765557578,-0.0024175299925488503,0.1680047530141282,-0.6449400544982531,-4.4794314657536916e-05,0.0071446829912336085,-0.019182762898140027,0.0,70.0,255.0,255.0,255.0
466,23.3,4.468878419672618,3.656916802755157,-8.27667073188809,-0.0024164515311220214,0.16836108748601308,-0.6458767966131518,0.00012849525496960723,0.006671667109126034,-0.018322244685187172,0.0,70.0,255.0,255.0,255.0
467,23.35,4.468757745597802,3.665343406671647,-8.308987445218893,-0.0024046804670518895,0.1686719197250408,-0.6467722789667718,0.0003357720967045452,0.005538659022619186,-0.017576826560450343,0.0,70.0,255.0,255.0,255.0
468,23.400000000000002,4.4686379516259125,3.673783994727661,-8.341347959784768,-0.002382874321451567,0.168914953388275,-0.6476344792691968,0.0004830543534062315,0.00417525582236955,-0.01705277973318431,0.0,70.0,255.0,255.0,255.0
469,23.450000000000003,4.468519458165657,3.6822349020104745,-8.373750893145813,-0.0023563750317112664,0.16908944530727776,-0.6484775569400902,0.00047849591897630717,0.0030118433373083064,-0.016866509857038636,0.0,70.0,255.0,255.0,255.0
470,23.5,4.468402314122741,3.6906929392583887,-8.406195715478777,-0.002335024729553936,0.16921613772200583,-0.6493211302549007,0.00022217109076905217,0.0024727554898351656,-0.01712890175973314,0.0,70.0,255.0,255.0,255.0
471,23.55,4.468285955692702,3.699156515782675,-8.438683006171303,-0.002334157922634361,0.16933672085626128,-0.6501904471160636,-0.0003251413808413872,0.002775156747825136,-0.017873932785050783,0.0,70.0,255.0,255.0,255.0
472,23.6,4.468168898330478,3.707626611344015,-8.471214760190383,-0.002367538867638075,0.16949365339678835,-0.6511085235334058,-0.0010429597584682426,0.00374165060135212,-0.018952125146576293,0.0,70.0,255.0,255.0,255.0
473,23.650000000000002,4.468049201805938,3.716105881122354,-8.503793858524643,-0.0024384538984811854,0.1697108859163965,-0.6520856596307212,-0.0017179077065776482,0.005003424576210946,-0.020091339773209427,0.0,70.0,255.0,255.0,255.0
474,23.700000000000003,4.46792505294063,3.7245976999356545,-8.536423326153455,-0.0025393296382958397,0.16999399585440944,-0.6531176575107267,-0.0021393117679124884,0.00619138852790968,-0.02100450166100387,0.0,70.0,255.0,255.0,255.0
475,23.75,4.467795268842108,3.733105280707795,-8.569105624275716,-0.0026523850752724343,0.17033002476918746,-0.6541861097968216,-0.002103936668707007,0.006944341669345988,-0.021421630062690156,0.0,70.0,255.0,255.0,255.0
476,23.8,4.467659814433103,3.7416307024125732,-8.601841937133138,-0.0027497233051665404,0.17068843002134404,-0.6552598205169957,-0.001520330663762337,0.007068358579909173,-0.02120822464117822,0.0,70.0,255.0,255.0,255.0
477,23.85,4.467520296511592,3.7501741237099293,-8.634631606327416,-0.002804418141648668,0.17103686062717838,-0.6563069322609394,-0.0005301801485835256,0.006663782861249246,-0.020464556303601,0.0,70.0,255.0,255.0,255.0
478,23.900000000000002,4.467379372618938,3.758734388475291,-8.667472630359232,-0.002802741320024893,0.17135480830746896,-0.6573062761473558,0.0005931452376373159,0.005961162423240296,-0.019412816884845085,0.0,70.0,255.0,255.0,255.0
479,23.950000000000003,4.467240022379589,3.767309604540676,-8.700362233942151,-0.0027451036178849364,0.1716329768695024,-0.6582482139494239,0.0015664900797851544,0.005189688797857528,-0.018288257390963736,0.0,70.0,255.0,255.0,255.0
480,24.0,4.467104862257149,3.7758976861622413,-8.733297451754174,-0.0026460923120463775,0.17187377718725472,-0.6591351018864522,0.0021135755837065062,0.0045778498604764906,-0.01730858731310292,0.0,70.0,255.0,255.0,255.0
481,24.05,4.4669754131483845,3.7844969822594017,-8.766275744130796,-0.0025337460595142858,0.17209076185555006,-0.6599790726807342,0.002093177323114759,0.0042569567182404455,-0.016605429723171028,0.0,70.0,255.0,255.0,255.0
482,24.1,4.466851487651198,3.7931067623477963,-8.799295359022247,-0.0024367745797349016,0.17229947285907876,-0.6607956448587693,0.001611792241273946,0.004198649189435244,-0.016222376912367054,0.0,70.0,255.0,255.0,255.0
483,24.150000000000002,4.466731735690411,3.8017269295453096,-8.832355308616673,-0.002372566835386891,0.17251062677449358,-0.6616013103719709,0.0008972148674679659,0.004318172817097121,-0.01618634373610206,0.0,70.0,255.0,255.0,255.0
484,24.200000000000003,4.466614230967659,3.8103578250252457,-8.865455490059444,-0.002347053092988105,0.17273129014078847,-0.6624142792323795,0.00018663816163666525,0.004542257212847289,-0.016521443133754588,0.0,70.0,255.0,255.0,255.0
485,24.25,4.466497030381112,3.8190000585593884,-8.898596736539911,-0.0023539030192232246,0.1729648524957783,-0.6632534546853464,-0.00027036566621063685,0.0048043055085322806,-0.017256002035992424,0.0,70.0,255.0,255.0,255.0
486,24.3,4.466378840665737,3.8276543102748235,-8.931780835527979,-0.0023740896596091687,0.1732117206916417,-0.6641398794359787,-0.00034011755634111296,0.005057753941350995,-0.018372107748554356,0.0,70.0,255.0,255.0,255.0
487,24.35,4.466259621415151,3.8363212306285526,-8.965010724483509,-0.002387914774857336,0.1734706278899134,-0.6650906654602018,-0.00012155758026821673,0.005262552781948315,-0.019684257726737542,0.0,70.0,255.0,255.0,255.0
488,24.400000000000002,4.466140049188251,3.845001373063815,-8.998289902074,-0.0023862454176359904,0.17373797596983653,-0.6661083052086525,0.00018424237877567862,0.005364374746363865,-0.020880129848599438,0.0,70.0,255.0,255.0,255.0
489,24.450000000000003,4.466020996873388,3.8536950282255362,-9.031621555004374,-0.002369490536979768,0.1740070653645498,-0.6671786784450617,0.00038607149219771486,0.0053017951715972345,-0.0216347346425394,0.0,70.0,255.0,255.0,255.0
490,24.5,4.465903100134553,3.86240207960027,-9.065007769918505,-0.002347638268416219,0.17426815548699626,-0.6682717786729064,0.0002799616732218624,0.005004928105334372,-0.021631413866707305,0.0,70.0,255.0,255.0,255.0
491,24.55,4.465786233046546,3.871121843774236,-9.098448732871665,-0.002341494369657582,0.17450755817508323,-0.6693418198317325,-0.00023256723746811758,0.0044515146956580764,-0.020731314106647858,0.0,70.0,255.0,255.0,255.0
492,24.6,4.465668950697587,3.879852835417778,-9.131941951901679,-0.0023708949921630307,0.17471330695656206,-0.6703449100835712,-0.0010028579568555074,0.003752911244481183,-0.019171314791854854,0.0,70.0,255.0,255.0,255.0
493,24.650000000000002,4.46554914354733,3.888593174469892,-9.165483223880022,-0.0024417801653431326,0.17488284929953135,-0.671258951310918,-0.0017568883450280737,0.0031033957964776704,-0.017404931741893392,0.0,70.0,255.0,255.0,255.0
494,24.700000000000003,4.465424772681053,3.8973411203477313,-9.19906784703277,-0.002546583826665838,0.17502364653620983,-0.6720854032577606,-0.0022310639915090746,0.0026966227069991078,-0.015904653260889745,0.0,70.0,255.0,255.0,255.0
495,24.75,4.465294485164663,3.906095539123513,-9.232691764205798,-0.00266488656449404,0.17515251157023126,-0.6728494166370069,-0.0021615556196508123,0.0027159354501815614,-0.015134333173705272,0.0,70.0,255.0,255.0,255.0
496,24.8,4.465158284024604,3.9148563715047544,-9.266352788696471,-0.0027627393886309193,0.175295240081228,-0.6735988365751311,-0.0014287277121383113,0.0032437863434875425,-0.015329209252001874,0.0,70.0,255.0,255.0,255.0
497,24.85,4.4650182112258,3.923625063131636,-9.300051647863311,-0.002807759335707871,0.17547689020458002,-0.6743823375622071,-0.00023325767735116187,0.004159555153604444,-0.016296963292283806,0.0,70.0,255.0,255.0,255.0
498,24.900000000000002,4.464877508091033,3.9324040605252124,-9.333791022452692,-0.0027860651563660355,0.17571119559658843,-0.6752285329043595,0.001047879765181392,0.005226610832131939,-0.017633662996985322,0.0,70.0,255.0,255.0,255.0
499,24.950000000000003,4.4647396047101635,3.9411961826912947,-9.367574501153747,-0.002702971359189732,0.1759995512877932,-0.6761457038619056,0.0020326366875877966,0.006199452928612459,-0.018926792173168394,0.0,70.0,255.0,255.0,255.0
500,25.0,4.464607210955114,3.9500040156539917,-9.401405592838882,-0.002582801487607256,0.17633114088944968,-0.6771212121216763,0.0023382887776257633,0.006851330094370667,-0.01976729073458472,0.0,70.0,255.0,255.0,255.0
501,25.05,4.464481324561403,3.9588292967802396,-9.435286622365915,-0.0024691424814271556,0.17668468429723028,-0.6781224329353641,0.0017803918393788365,0.0070600532165787655,-0.019933014388584525,0.0,70.0,255.0,255.0,255.0
502,25.1,4.464360296706971,3.9676724840837148,-9.469217836132419,-0.002404762303669372,0.17703714621110755,-0.6791145135605348,0.0005857721166790952,0.006856980028890902,-0.019530808728340787,0.0,70.0,255.0,255.0,255.0
503,25.150000000000002,4.464240848331036,3.9765330114013504,-9.503198073721968,-0.002410565269759246,0.17737038230011937,-0.6800755138081982,-0.0008036750053896924,0.0063420489872623165,-0.01880876125710529,0.0,70.0,255.0,255.0,255.0
504,25.200000000000003,4.464119240179995,3.9854095223137267,-9.537225387513239,-0.0024851298042083414,0.17767135110983379,-0.6809953896862453,-0.0019401354400372384,0.005625565579148173,-0.018009063827939542,0.0,70.0,255.0,255.0,255.0
505,25.25,4.463992335350615,3.994300146512334,-9.571297612690593,-0.00260457881376297,0.17793293885803418,-0.6818764201909921,-0.0023716461105216524,0.004810772144248077,-0.017372447943664326,0.0,70.0,255.0,255.0,255.0
506,25.3,4.463858782298619,4.00320281619953,-9.605413029532338,-0.0027222944152605066,0.1781524283242586,-0.6827326344806117,-0.0018729795049132747,0.003974462327915873,-0.01703756769373399,0.0,70.0,255.0,255.0,255.0
507,25.35,4.463720105909089,4.01211538934476,-9.639570876138654,-0.0027918767642542974,0.17833038509082577,-0.6835801769603655,-0.0006806466401165778,0.003209727528030726,-0.016975233029548065,0.0,70.0,255.0,255.0,255.0
508,25.400000000000002,4.4635795946221934,4.021035854708613,-9.673771047228374,-0.0027903590792721644,0.17847340107706167,-0.6844301577835665,0.0007376361066846471,0.00265050790426713,-0.017097539059029998,0.0,70.0,255.0,255.0,255.0
509,25.450000000000003,4.463441070001162,4.029962729452466,-9.70801389191701,-0.0027181131535858327,0.17859543588125248,-0.6852899308662685,0.0019147582193568269,0.0024367462934549167,-0.01732935344680442,0.0,70.0,255.0,255.0,255.0
510,25.5,4.463307783306835,4.038895398296738,-9.742300040315001,-0.0025988832573364817,0.17871707570640716,-0.686163093128247,0.002380370256371833,0.0027055813289322828,-0.017602964110885466,0.0,70.0,255.0,255.0,255.0
511,25.55,4.463181181675428,4.0478344370231065,-9.776630201229835,-0.0024800761279486494,0.1788659940141457,-0.6870502272773571,0.0018983793269811144,0.0035036359328444178,-0.017870654232154948,0.0,70.0,255.0,255.0,255.0
512,25.6,4.46305977569404,4.0567819976981525,-9.811005063042737,-0.0024090453246383703,0.1790674392996916,-0.6879501585514625,0.0007076302948050284,0.004658795173639874,-0.01808919155443789,0.0,70.0,255.0,255.0,255.0
513,25.650000000000002,4.462940277142964,4.065741180953076,-9.845425217084982,-0.0024093130984681466,0.1793318735315097,-0.6888591464328009,-0.000717685271922619,0.005858716598883262,-0.018199310943778357,0.0,70.0,255.0,255.0,255.0
514,25.700000000000003,4.462818844384193,4.0747151850513035,-9.879890977686017,-0.002480813851830632,0.17965331095957993,-0.6897700896458403,-0.0019057505841857392,0.006775700995031997,-0.018134035206074373,0.0,70.0,255.0,255.0,255.0
515,25.75,4.462692195757781,4.083706512049034,-9.914402226049566,-0.0025998881568867205,0.1800094436310129,-0.6906725499534083,-0.0023819095072319385,0.0070869025398323515,-0.01781569561369878,0.0,70.0,255.0,255.0,255.0
516,25.8,4.4625588555685045,4.092716129414405,-9.948958232681358,-0.002719004802553826,0.18036200121356316,-0.6915516592072102,-0.001907390949806853,0.006637194406877711,-0.017219302556270577,0.0,70.0,255.0,255.0,255.0
517,25.85,4.462420295277526,4.10174271217039,-9.983557391970287,-0.002790627251867406,0.18067316307170067,-0.6923944802090354,-0.0007206903897660766,0.005604975227502251,-0.016469772313953968,0.0,70.0,255.0,255.0,255.0
518,25.900000000000002,4.462279792843318,4.110783445721575,-10.018197680702261,-0.0027910738415304337,0.1809224987363134,-0.6931986364386056,0.0007039208314019163,0.0043455814116022395,-0.015784284766340306,0.0,70.0,255.0,255.0,255.0
519,25.950000000000003,4.462141187893373,4.119834962044021,-10.052877255614147,-0.002720235168727214,0.1811077212128609,-0.6939729086856694,0.0018950972639153463,0.0032265103322437483,-0.015380566335387869,0.0,70.0,255.0,255.0,255.0
520,26.0,4.462007769326445,4.128894217842861,-10.087594971570828,-0.002601564115138899,0.18124514976953776,-0.6947366930721444,0.002379342364910997,0.0026187898630958273,-0.015474206812982061,0.0,70.0,255.0,255.0,255.0
521,26.05,4.461881031481859,4.137959477020975,-10.122350924921362,-0.0024823009322361145,0.18136960019917048,-0.6955203293669676,0.0019180376193972393,0.002713647045649026,-0.016159734609999532,0.0,70.0,255.0,255.0,255.0
522,26.1,4.461759539233221,4.147031177862778,-10.157147004507525,-0.002409760353199175,0.18151651447410266,-0.6963526665331443,0.0007459471153659081,0.00335225962775354,-0.017265472102678814,0.0,70.0,255.0,255.0,255.0
523,26.150000000000002,4.461640055446539,4.156111128468385,-10.191986191574676,-0.0024077062206995237,0.18170482616194583,-0.6972468765772355,-0.0006688139046140407,0.0042088412045337975,-0.018468118755876617,0.0,70.0,255.0,255.0,255.0
524,26.200000000000003,4.4615187686111515,4.165201660478973,-10.226871692165249,-0.002476641743660579,0.18193739859455604,-0.698199478408732,-0.0018614916188930408,0.004957884715484084,-0.01943815166889351,0.0,70.0,255.0,255.0,255.0
525,26.25,4.461392391272173,4.174304868327841,-10.26180613941555,-0.0025938553825888278,0.18220061463349424,-0.6991906917441248,-0.0023675345443230356,0.00526199395203264,-0.019859505105479514,0.0,70.0,255.0,255.0,255.0
526,26.3,4.461259383072893,4.183421721942322,-10.296790761339661,-0.0027133951980928828,0.1824635979897593,-0.7001854289192799,-0.0019516126742225026,0.0049488700909705585,-0.01957467275541802,0.0,70.0,255.0,255.0,255.0
527,26.35,4.461121051752364,4.192551228126817,-10.331824682307477,-0.002789016650011078,0.1826955016425913,-0.7011481590196667,-0.0008339139226265502,0.004192326587748596,-0.018718222725944145,0.0,70.0,255.0,255.0,255.0
528,26.400000000000002,4.4609804814078915,4.201691272106581,-10.366905577241628,-0.0027967865903555378,0.18288283064853417,-0.7020572511918743,0.000542150637894423,0.0033318742832300074,-0.01757419592163245,0.0,70.0,255.0,255.0,255.0
529,26.450000000000003,4.460841373093328,4.21083951119167,-10.402030407426665,-0.0027348015862216357,0.1830286890709143,-0.7029055786118299,0.0017377223583636692,0.0026956104794528812,-0.016439600880957528,0.0,70.0,255.0,255.0,255.0
530,26.5,4.460707001249269,4.2199941410136725,-10.43719613510281,-0.002623014354519171,0.18315239169647946,-0.7037012112799701,0.0023228704047362214,0.0026131410887586526,-0.015611782088953419,0.0,70.0,255.0,255.0,255.0
531,26.55,4.460579071657876,4.229154750361318,-10.472400528554662,-0.0025025145457480136,0.18329000317979016,-0.7044667568207252,0.0020752662245548947,0.0032445322643681607,-0.015253835441875196,0.0,70.0,255.0,255.0,255.0
