idx,t,px,py,pz,vx,vy,vz,ax,ay,az,yaw,mode,ledr,ledg,ledb
0,0.0,13.500000000000012,10.500000000000004,1.1768373173528527e-18,0.00043138451278679213,0.00023116229719732928,0.0004798457817441918,0.013124103247719177,0.0005922513519607264,-0.01839897187829463,0.0,70.0,255.0,255.0,255.0
1,0.05,13.500021569225652,10.500011558114863,2.3992289087210767e-05,0.001087589675172751,0.0002607748647953656,-0.0004401028121705399,0.020045641965893424,0.0010143456089295455,-0.027598586332655124,0.0,70.0,255.0,255.0,255.0
2,0.1,13.50010875896753,10.500026077486483,-4.401028121705281e-05,0.0024359487093761345,0.00033259685809028383,-0.0022800128515213206,0.02768615487216408,0.0016883770278752763,-0.03679845781744196,0.0,70.0,255.0,255.0,255.0
3,0.15000000000000002,13.50026516409659,10.500044817800672,-0.0002040089960649213,0.003856205162389159,0.00042961256758289323,-0.004119948593914736,0.029124103250843802,0.002192251354493635,-0.036798971878296616,0.0,70.0,255.0,255.0,255.0
4,0.2,13.500494379483769,10.500069038743241,-0.00045600514060852645,0.005348359034460515,0.0005518219935396473,-0.005959910039350982,0.03057207851551169,0.0026999831817420272,-0.036799496723643195,0.0,70.0,255.0,255.0,255.0
5,0.25,13.500800000000035,10.500100000000026,-0.0008000000000000196,0.006913413013940328,0.000699610885757096,-0.007799898266279056,0.03207770838713486,0.003229895648004799,-0.036800083579823006,0.0,70.0,255.0,255.0,255.0
6,0.30000000000000004,13.501185720785163,10.500138999831817,-0.001235994967236432,0.008556129873174001,0.0008748115583401272,-0.009639918397333283,0.03365631173437578,0.0037878821714798505,-0.03680074892315225,0.0,70.0,255.0,255.0,255.0
7,0.35000000000000003,13.501655612987353,10.50018748115586,-0.0017639918397333479,0.010279044187377906,0.001078399102905081,-0.011479973158594281,0.03517726047181924,0.004323688053275987,-0.036801352255646284,0.0,70.0,255.0,255.0,255.0
8,0.4,13.5022136252039,10.500246839742108,-0.0023839922830958603,0.012073855920355925,0.001307180363667726,-0.013320053622897912,0.036431939598635665,0.0047570557892839815,-0.036801669199925044,0.0,70.0,255.0,255.0,255.0
9,0.45,13.502862998579388,10.500318199192227,-0.003095997202023139,0.013922238147241472,0.0015541046818334792,-0.015160140078586785,0.03724669317843876,0.005021690220452513,-0.03680147687645921,0.0,70.0,255.0,255.0,255.0
10,0.5,13.503605849018625,10.500402250210291,-0.003900006290954539,0.0157985252381998,0.0018093493857129772,-0.017000201310543833,0.03749018198906384,0.0050694999744749225,-0.03680046253493958,0.0,70.0,255.0,255.0,255.0
11,0.55,13.504442851103208,10.500499134130798,-0.004796017333077523,0.017671256346147857,0.0020610546792809714,-0.018840186332080743,0.03711898968496996,0.004884565896468018,-0.036798524321817946,0.0,70.0,255.0,255.0,255.0
12,0.6000000000000001,13.50537297465324,10.500608355678219,-0.005784024924162613,0.019510424206696797,0.002297805975359779,-0.020680053742725628,0.03625175551977833,0.0045058466994873925,-0.03679626017734028,0.0,70.0,255.0,255.0,255.0
13,0.65,13.506393893523878,10.500728914728334,-0.006864022707350086,0.02129643189812569,0.0025116393492297107,-0.02251981234981477,0.03512484007099914,0.0040136000940549366,-0.03679467545594707,0.0,70.0,255.0,255.0,255.0
14,0.7000000000000001,13.507502617843052,10.500859519613142,-0.00803600615914409,0.02302290821379671,0.0026991659847652727,-0.024359521288320335,0.03401708789088076,0.003502951433986823,-0.036794830632824044,0.0,70.0,255.0,255.0,255.0
15,0.75,13.508696184345258,10.500998831326811,-0.009299974836182119,0.024698140687213765,0.002861934492628393,-0.026199295413097175,0.033215402580921705,0.0030620467214248492,-0.036798149860241096,0.0,70.0,255.0,255.0,255.0
16,0.8,13.509972431911773,10.501145713062405,-0.010655935700453808,0.02634444847188888,0.0030053706569077576,-0.028039336274344445,0.032876357811773005,0.002743912208913457,-0.03680516457406791,0.0,70.0,255.0,255.0,255.0
17,0.8500000000000001,13.511330629192447,10.501299368392502,-0.012103908463616564,0.027985776468391066,0.0031363257135197387,-0.029879811870503967,0.03292751232084612,0.0025692887847483803,-0.03681360703499479,0.0,70.0,255.0,255.0,255.0
18,0.9,13.512771009558612,10.501459345633757,-0.013643916887504205,0.029637199703973494,0.0032622995353825956,-0.031720696977843924,0.03319942272721477,0.002553019359652353,-0.0368196289762885,0.0,70.0,255.0,255.0,255.0
19,0.9500000000000001,13.514294349162844,10.50162559834604,-0.015275978161400956,0.03130571874111254,0.003391627649484974,-0.03356177476813282,0.0335235566558012,0.0027059912230953387,-0.036819200592244083,0.0,70.0,255.0,255.0,255.0
20,1.0,13.515901581432724,10.501798508398705,-0.017000094364317486,0.032989555369553614,0.0035328986576921295,-0.03540261703706833,0.033716272955253146,0.0030383038172487886,-0.036806938024095195,0.0,70.0,255.0,255.0,255.0
21,1.05,13.5175933046998,10.50197888821181,-0.01881623986510779,0.03467734603663786,0.003695458031209853,-0.037242468570542336,0.03367674456900005,0.003540810910074299,-0.036780817381910774,0.0,70.0,255.0,255.0,255.0
22,1.1,13.519369316036387,10.502168054201826,-0.02072434122137172,0.03635722982645362,0.0038869797486995594,-0.03908069877525941,0.033480060000279366,0.004136158997702921,-0.03674931168268329,0.0,70.0,255.0,255.0,255.0
23,1.1500000000000001,13.521229027682445,10.50236758618668,-0.02272430974263373,0.038025352036665794,0.004109073930980145,-0.040917399738810666,0.03327392589760336,0.0046934833052958425,-0.03672680863890214,0.0,70.0,255.0,255.0,255.0
24,1.2000000000000002,13.523171851240054,10.502578961594924,-0.024816081195252786,0.039684622416213955,0.004356328079229144,-0.04275337963914962,0.03318957126623445,0.005074109316538511,-0.036728366998198606,0.0,70.0,255.0,255.0,255.0
25,1.25,13.525197489924066,10.502803218994602,-0.026999647706548693,0.04134430916328924,0.004616484862633996,-0.044590236438630526,0.03336342168012152,0.0051407286880689185,-0.036774098043375336,0.0,70.0,255.0,255.0,255.0
26,1.3,13.527306282156383,10.503040610081188,-0.02927510483911584,0.04302096458422611,0.0048704009480360355,-0.04643078944348716,0.033857036870799107,0.004832331331172668,-0.03687156589828773,0.0,70.0,255.0,255.0,255.0
27,1.35,13.529499586382489,10.503290259089406,-0.03164272665089741,0.04473001285036915,0.005099717995751263,-0.0482773930284593,0.034550476117978235,0.004250550746576209,-0.036989146234274115,0.0,70.0,255.0,255.0,255.0
28,1.4000000000000001,13.53177928344142,10.503550581880763,-0.03410284414196177,0.04647601219602393,0.0052954560226936565,-0.05012970406691457,0.03522580608574799,0.0035894110540724,-0.03707313646810935,0.0,70.0,255.0,255.0,255.0
29,1.4500000000000002,13.534147187602091,10.503819804691675,-0.036655697057588865,0.04825259345894395,0.005458659101158503,-0.051984706675270234,0.03567209767361135,0.003050345404176369,-0.037074044701675135,0.0,70.0,255.0,255.0,255.0
30,1.5,13.536604542787314,10.504096447790879,-0.03930131480948879,0.050043221963385065,0.005600490563111293,-0.05383710853708208,0.035690086942530286,0.0028347721071853016,-0.036948697774426276,0.0,70.0,255.0,255.0,255.0
31,1.55,13.53915150979843,10.504379853747986,-0.04203940791129707,0.05182160215319698,0.005742136311877033,-0.05567957645271286,0.03518750887803179,0.0030431504786321284,-0.036679119491141166,0.0,70.0,255.0,255.0,255.0
32,1.6,13.541786703002634,10.504670661422066,-0.04486927245476008,0.053561972851188244,0.005904805610974506,-0.0575050204861962,0.034284282615715256,0.0035762300905517463,-0.03629587494199463,0.0,70.0,255.0,255.0,255.0
33,1.6500000000000001,13.544507707083548,10.504970334309084,-0.04778990995991669,0.0552500304147685,0.006099759320932208,-0.059309163946912324,0.03321828099682733,0.0042342804029260606,-0.03585971308772626,0.0,70.0,255.0,255.0,255.0
34,1.7000000000000002,13.54731170604411,10.50528063735416,-0.05080018884945131,0.05688380095087098,0.006328233651267112,-0.061090991794968824,0.03223429910903519,0.004817935639422899,-0.03543494137459094,0.0,70.0,255.0,255.0,255.0
35,1.75,13.550196087178636,10.50560315767421,-0.053899009139413576,0.05847346032567202,0.0065815528848744975,-0.06285265808437142,0.03155623054862389,0.0051362201793025974,-0.035075120182929964,0.0,70.0,255.0,255.0,255.0
36,1.8,13.553159052076678,10.505938792642647,-0.05708545465788845,0.060039424005733366,0.006841855669197372,-0.06459850381326182,0.03130621433253822,0.005088493328209154,-0.034811956137145716,0.0,70.0,255.0,255.0,255.0
37,1.85,13.556200029579209,10.50628734324113,-0.06035885952073976,0.061604081758925844,0.007090402217695413,-0.06633385369808599,0.0314642815325783,0.004729936817859937,-0.034664650035043376,0.0,70.0,255.0,255.0,255.0
38,1.9000000000000001,13.55931946025257,10.506647832864417,-0.06371884002769705,0.0631858521589912,0.007314849350983366,-0.06806496881676616,0.031949181814283634,0.004188059408605227,-0.03465071514368798,0.0,70.0,255.0,255.0,255.0
39,1.9500000000000002,13.562518614795108,10.507018828176228,-0.06716535640241637,0.06479899994035421,0.007509208158555936,-0.06979892521245479,0.032670705888904195,0.0035911987509962273,-0.034779476513253915,0.0,70.0,255.0,255.0,255.0
40,2.0,13.565799360246606,10.507398753680272,-0.07069873254894253,0.06645292274788162,0.007673969226082988,-0.07154291646809155,0.03355296289093701,0.00305633785160353,-0.035054784197817435,0.0,70.0,255.0,255.0,255.0
41,2.0500000000000003,13.569163907069896,10.507786225098837,-0.07431964804922553,0.06815429622944791,0.007814841943716289,-0.07330440363223653,0.03452917225352792,0.002655650101779372,-0.035467368314583136,0.0,70.0,255.0,255.0,255.0
42,2.1,13.57261478986955,10.508180237874644,-0.07802917291216618,0.06990583997323441,0.007939534236260926,-0.07508965329954986,0.03546138845713642,0.002420386274870623,-0.03596468575699785,0.0,70.0,255.0,255.0,255.0
43,2.15,13.57615449106722,10.508580178522463,-0.08182861337918051,0.07170043507516155,0.008056880571203351,-0.07690087220793632,0.0361396770607314,0.00237795748585512,-0.0364565871766781,0.0,70.0,255.0,255.0,255.0
44,2.2,13.579784833377067,10.508985925931764,-0.08571926013295982,0.07351980767930755,0.008177329984846438,-0.07873531201721767,0.03635112908302318,0.002556756535732063,-0.036848178213415295,0.0,70.0,255.0,255.0,255.0
45,2.25,13.58350647183515,10.509397911520947,-0.08970214458090228,0.07533554798346387,0.008312556224776557,-0.08058569002927785,0.0358839458602489,0.0029944190906405765,-0.0370617337017945,0.0,70.0,255.0,255.0,255.0
46,2.3000000000000003,13.587318388175413,10.509817181554242,-0.0937778291358876,0.07710820226533244,0.008476771893910495,-0.08244148538739712,0.03466175865902699,0.003689931905981325,-0.037058057784010445,0.0,70.0,255.0,255.0,255.0
47,2.35,13.591217292061684,10.510245588710339,-0.097946293119642,0.07880172384936657,0.00868154941537469,-0.08429149580767889,0.03293725088564514,0.004507678922216485,-0.03684108246144874,0.0,70.0,255.0,255.0,255.0
48,2.4000000000000004,13.59519856056035,10.51068533649578,-0.10220697871665549,0.08040192735389695,0.008927539786132144,-0.086125593633542,0.03116838033854208,0.005219271485579213,-0.03643929978596194,0.0,70.0,255.0,255.0,255.0
49,2.45,13.599257484797073,10.511138342688952,-0.1065588524829962,0.08191856188322078,0.009203476563932611,-0.08793542578627508,0.02982929992292327,0.00558951403331065,-0.03589401109928558,0.0,70.0,255.0,255.0,255.0
50,2.5,13.603390416748672,10.511605684152173,-0.111000521295283,0.08338485734618928,0.009486491189463209,-0.08971499474347056,0.02938323502004181,0.005374004435942936,-0.03523832761505863,0.0,70.0,255.0,255.0,255.0
51,2.5500000000000003,13.607595970531692,10.512086991807898,-0.11553035195734325,0.08485688538522496,0.009740877007526905,-0.09145925854778095,0.03005139217844288,0.0044703099209897346,-0.03450608819505485,0.0,70.0,255.0,255.0,255.0
52,2.6,13.611876105287195,10.512579771852925,-0.12014644715006109,0.08638999656403357,0.009933522181562182,-0.09316560356297604,0.03157524902501763,0.0031151451215905013,-0.03378911959534131,0.0,70.0,255.0,255.0,255.0
53,2.6500000000000004,13.616234970188096,10.513080344026054,-0.12484691231364085,0.08801441028772672,0.010052391519685955,-0.09483817050731508,0.03343948223797355,0.001740387805604371,-0.0332297568030257,0.0,70.0,255.0,255.0,255.0
54,2.7,13.620677546315967,10.513585011004894,-0.1296302642007926,0.08973394478783092,0.01010756096212262,-0.09648857924327861,0.0351128367279685,0.000784021830035897,-0.0329680384616976,0.0,70.0,255.0,255.0,255.0
55,2.75,13.625208364666879,10.514091100122267,-0.13449577023796871,0.09152569396052357,0.010130793702689544,-0.09813497435348484,0.03607514203167739,0.0006855072227196501,-0.03313292786594063,0.0,70.0,255.0,255.0,255.0
56,2.8000000000000003,13.62983011571202,10.514598090375163,-0.13944376163614108,0.09334145899099866,0.010176111684394584,-0.09980187202987267,0.03605332530689509,0.0016497141904991963,-0.03377241461059444,0.0,70.0,255.0,255.0,255.0
57,2.85,13.634542510565979,10.515108711290706,-0.14447595744095598,0.09513102649121308,0.010295765121739464,-0.10151221581454428,0.0352162052273286,0.0033800855796073392,-0.0347571244718875,0.0,70.0,255.0,255.0,255.0
58,2.9000000000000004,13.639343218361141,10.515627666887337,-0.1495949832175955,0.09686307951373152,0.010514120242355318,-0.10327758447706142,0.03393839933441001,0.005309153982580028,-0.03584447020476278,0.0,70.0,255.0,255.0,255.0
59,2.95,13.644228818517352,10.516160123314942,-0.15480371588866212,0.09852486642465408,0.010826680519997467,-0.10509666283502056,0.032599726127813256,0.0068622774346494,-0.0367753735154297,0.0,70.0,255.0,255.0,255.0
60,3.0,13.649195705003606,10.516710334939336,-0.16010464950109757,0.10012305212651285,0.011200347985820258,-0.1069551218286044,0.03158015955726512,0.007472031941269108,-0.03729793294910966,0.0,70.0,255.0,255.0,255.0
61,3.0500000000000003,13.654241123730003,10.517280158113524,-0.16549922807152256,0.10168288238038059,0.011573883714124378,-0.10882645612993153,0.031093628271605667,0.00685717364259375,-0.03728425336257113,0.0,70.0,255.0,255.0,255.0
62,3.1,13.659363993241644,10.517867723310749,-0.17098729511409072,0.10323241495367341,0.011886065350079633,-0.1106835471648615,0.03107172493699295,0.005299803935621128,-0.036830494405240555,0.0,70.0,255.0,255.0,255.0
63,3.1500000000000004,13.66456436522537,10.518468764648532,-0.17656758278800871,0.10479005487407989,0.01210386410768649,-0.11250950557045558,0.031337643033424456,0.0033685440504527264,-0.036144250489847374,0.0,70.0,255.0,255.0,255.0
64,3.2,13.669842998729052,10.519078109721518,-0.18223824567113628,0.10636617925701586,0.012222919755124906,-0.11429797221384624,0.03172686016181814,0.001639502464279019,-0.035443754189859455,0.0,70.0,255.0,255.0,255.0
65,3.25,13.675200983151072,10.519691056624044,-0.18799738000939334,0.1079627408902617,0.012267814354114392,-0.11605388098944153,0.032072285009121515,0.00068230906755673,-0.034955340337597396,0.0,70.0,255.0,255.0,255.0
66,3.3000000000000003,13.680639272818079,10.520304891156929,-0.19384363377008043,0.10957340775792801,0.012291150661880579,-0.11779350624760598,0.032273327104803684,0.0007942252706172326,-0.034802833011390866,0.0,70.0,255.0,255.0,255.0
67,3.35,13.686158323926865,10.520920171690232,-0.19977673063415394,0.11119007360074207,0.012347236881176116,-0.11953416429058061,0.032338759826622265,0.001766246464462995,-0.03491632914259246,0.0,70.0,255.0,255.0,255.0
68,3.4000000000000004,13.691758280178153,10.521539614845047,-0.2057970501991385,0.11280728374059024,0.012467775308326878,-0.12128513916186523,0.0323074854101435,0.003151961190894781,-0.03514477492210233,0.0,70.0,255.0,255.0,255.0
69,3.45,13.697439052300924,10.522166949221065,-0.21190524455034046,0.11442082214175642,0.012662433000265594,-0.12304864178279085,0.03220043229248404,0.004506053034525337,-0.0353487239442285,0.0,70.0,255.0,255.0,255.0
70,3.5,13.703200362392328,10.522805858145073,-0.21810191437741758,0.11602732696983864,0.012918380611779412,-0.12482001155628808,0.03202664446142478,0.005386797056772252,-0.03539278029256743,0.0,70.0,255.0,255.0,255.0
71,3.5500000000000003,13.709041784997908,10.523458787282243,-0.22438724570596927,0.1176234865878989,0.013201112705942819,-0.1265879198120476,0.03179963673467512,0.005553804061442236,-0.03520455445200632,0.0,70.0,255.0,255.0,255.0
72,3.6,13.714962711051118,10.524125969415667,-0.23076070635862234,0.11920729064330615,0.013473761017923636,-0.1283404670014887,0.031573235756354734,0.005125186896037803,-0.03482689298708874,0.0,70.0,255.0,255.0,255.0
73,3.6500000000000004,13.720962514062238,10.524806163384035,-0.23722129240611814,0.12078081016353437,0.0137136313955466,-0.13007060911075646,0.03143241532725938,0.004371956174331615,-0.03435394585906415,0.0,70.0,255.0,255.0,255.0
74,3.7,13.727040792067472,10.525497332555222,-0.24376776726969798,0.12235053217603209,0.013910956635356797,-0.13177586158739513,0.03146469738197766,0.0035571711794801786,-0.03387463674653368,0.0,70.0,255.0,255.0,255.0
75,3.75,13.733197567279841,10.52619725904757,-0.25039887856485765,0.12392727990173213,0.014069348513494617,-0.13345807278540983,0.03176910917179754,0.002946446761598054,-0.03346551984409751,0.0,70.0,255.0,255.0,255.0
76,3.8000000000000003,13.739433520057645,10.526904267406572,-0.25711357454823897,0.12552744309321184,0.014205601311516602,-0.13512241357180488,0.032381925489843866,0.002689392981736205,-0.033172235893855206,0.0,70.0,255.0,255.0,255.0
77,3.85,13.745750311589163,10.527617819178722,-0.26391111992203814,0.12716547245071652,0.014338287811668238,-0.13677529637479535,0.03316652558655875,0.0027284371869384927,-0.03301339494634625,0.0,70.0,255.0,255.0,255.0
78,3.9000000000000004,13.752150067302717,10.528338096187738,-0.2707911041857185,0.12884409565186772,0.014478445030210452,-0.1384237530664395,0.03388378568196515,0.002926461198171637,-0.033002145604366095,0.0,70.0,255.0,255.0,255.0
79,3.95,13.75863472115435,10.529065663681743,-0.2777534952286821,0.13055385101891304,0.014630933931485401,-0.14007551093523196,0.03429471757385727,0.003157663180353154,-0.033146015782942184,0.0,70.0,255.0,255.0,255.0
80,4.0,13.765205452404608,10.529801189580887,-0.2847986552792417,0.13227356740925345,0.014794211348245767,-0.14173835464473372,0.03415696547151015,0.0032874625166101623,-0.03344910303498261,0.0,70.0,255.0,255.0,255.0
81,4.05,13.771862077895275,10.530545084816568,-0.29192733069315546,0.13396954756606405,0.014959680183146418,-0.14342042123873022,0.03336506223803326,0.003242563405869703,-0.03390081432685932,0.0,70.0,255.0,255.0,255.0
82,4.1000000000000005,13.778602407161214,10.531297157599202,-0.2991406974031147,0.13561007363305677,0.015118467688832737,-0.14512843607741965,0.03212690898379833,0.003081996758247385,-0.03443868806668471,0.0,70.0,255.0,255.0,255.0
83,4.15,13.78542308525858,10.532056931585451,-0.3064401743008974,0.13718223846444388,0.015267879858971156,-0.1468642900453987,0.030827873179717358,0.002920427470520792,-0.03495663256266601,0.0,70.0,255.0,255.0,255.0
84,4.2,13.792320631007659,10.532823945585099,-0.3138271264076546,0.1386928609510285,0.015410510435884817,-0.14862409933368625,0.029861980108236708,0.00285926234599998,-0.03534232576271612,0.0,70.0,255.0,255.0,255.0
85,4.25,13.799292371353683,10.53359798262904,-0.32130258423426605,0.14016843647526755,0.015553806093571154,-0.1503985226216703,0.029631000970908872,0.00299964722785262,-0.03549405869192057,0.0,70.0,255.0,255.0,255.0
86,4.3,13.806337474655185,10.534379326194456,-0.3288669786698216,0.1416559610481194,0.01571047515867008,-0.1521735052028783,0.03032491180423591,0.0033874396400790374,-0.03536399397821022,0.0,70.0,255.0,255.0,255.0
87,4.3500000000000005,13.813457967458495,10.535169030144907,-0.3365199347545539,0.14320092765569115,0.015892550057579058,-0.15393492201949133,0.03167595502926446,0.003941804218321465,-0.03499632831138744,0.0,70.0,255.0,255.0,255.0
88,4.4,13.820657567420755,10.535968581200214,-0.34426047087177075,0.14482355655104584,0.016104655580502225,-0.15567313803401706,0.03317376588825027,0.00451276132231726,-0.03448768778133715,0.0,70.0,255.0,255.0,255.0
89,4.45,13.8279403231136,10.536779495702957,-0.3520872485579556,0.14651830424451617,0.016343826189810784,-0.15738369079762504,0.03430472796104311,0.004952513544331794,-0.03394416834573977,0.0,70.0,255.0,255.0,255.0
90,4.5,13.835309397845206,10.537602963819195,-0.35999883995153326,0.14825402934715015,0.016599906934935404,-0.15906755486859103,0.03455110523802318,0.005121967220134138,-0.03346268084535864,0.0,70.0,255.0,255.0,255.0
91,4.55,13.842765726048315,10.53843948639645,-0.3679940040448147,0.1499734147683185,0.016856022911824198,-0.1607299588821609,0.03366163086919727,0.00495387849852591,-0.03310269693972967,0.0,70.0,255.0,255.0,255.0
92,4.6000000000000005,13.850306739322038,10.539288566110377,-0.37607183583974935,0.15162019243406988,0.017095294784787995,-0.162377824562564,0.03194185831141283,0.0045152618922017496,-0.032892362324110636,0.0,70.0,255.0,255.0,255.0
93,4.65,13.857927745291722,10.54014901587493,-0.3842317865010711,0.15316760059945977,0.017307549101044373,-0.16401919511457197,0.02998531501638979,0.003944890876894647,-0.03285709183651342,0.0,70.0,255.0,255.0,255.0
94,4.7,13.865623499381984,10.541019321020482,-0.39247375535120654,0.15461872393570886,0.01748978387247746,-0.16566353374621534,0.028385028793742606,0.003390170656913938,-0.03302048803386359,0.0,70.0,255.0,255.0,255.0
95,4.75,13.873389617685293,10.541897994262177,-0.4007981398756926,0.15600610347883404,0.017646566166735767,-0.16732124391795833,0.027724484835722762,0.0030005025399404417,-0.033411208602590614,0.0,70.0,255.0,255.0,255.0
96,4.800000000000001,13.881224109729867,10.542783977637155,-0.4092058797430024,0.15739117241928113,0.017789834126471504,-0.1690046546064744,0.028295511104659,0.0028565335451702367,-0.03402624390381748,0.0,70.0,255.0,255.0,255.0
97,4.8500000000000005,13.88912873492722,10.543676977674824,-0.41769860533634007,0.15883565458929993,0.01793221952125279,-0.17072386830834008,0.029821320352496627,0.002913511848667838,-0.03475338323137844,0.0,70.0,255.0,255.0,255.0
98,4.9,13.897107675188797,10.54457719958928,-0.4262782665738364,0.1603733044545308,0.018081185311338288,-0.17247999292961225,0.0317394262621562,0.0030721506945496913,-0.03540310571184535,0.0,70.0,255.0,255.0,255.0
99,4.95,13.905166065372674,10.545485096205958,-0.4349466046293013,0.16200959721551556,0.01823943459070776,-0.1742641788795246,0.03348252282915354,0.003233004294145303,-0.03578161844653982,0.0,70.0,255.0,255.0,255.0
100,5.0,13.913308634910349,10.546401143048351,-0.44370468446178885,0.16372155673744615,0.01840448574075282,-0.17605815477426623,0.03449501136127964,0.0032840412673706965,-0.03570050339224973,0.0,70.0,255.0,255.0,255.0
101,5.050000000000001,13.921538221046418,10.547325544780033,-0.4525524201067279,0.16545909835164352,0.01856783871744483,-0.17783422921874958,0.03448369068017598,0.003167213429300375,-0.0350780150906449,0.0,70.0,255.0,255.0,255.0
102,5.1000000000000005,13.929854544745513,10.548257926920096,-0.4614881073836638,0.16716992580546375,0.018721207083682856,-0.17956595628333072,0.03362731249492157,0.002951623113922608,-0.034060351836640024,0.0,70.0,255.0,255.0,255.0
103,5.15,13.938255213626965,10.549197665488402,-0.470509015735061,0.16882182960113568,0.01886300102883709,-0.1812402644024136,0.032321688559733275,0.0027647347815573653,-0.03292591655156274,0.0,70.0,255.0,255.0,255.0
104,5.2,13.946736727705627,10.55014422702298,-0.47961213382390516,0.17040209466143708,0.018997680561838592,-0.182858547938487,0.030965252849313174,0.0027248984153516176,-0.03196529925225122,0.0,70.0,255.0,255.0,255.0
105,5.25,13.955295423093109,10.551097433544586,-0.4887948705289097,0.171918354886067,0.01913549087037225,-0.1844367943276387,0.029959432423254384,0.002959276447356274,-0.0314667778283928,0.0,70.0,255.0,255.0,255.0
106,5.300000000000001,13.963928563194234,10.552057776110017,-0.49805581325666903,0.17339803790376251,0.01929360820657422,-0.18600522572132627,0.029528047853233375,0.003521698983277588,-0.03157498244689694,0.0,70.0,255.0,255.0,255.0
107,5.3500000000000005,13.972635226883485,10.553026794365243,-0.5073953931010423,0.17487115967139033,0.01948766076870001,-0.1875942925723284,0.029581224538866024,0.00427822413300305,-0.03215709753398022,0.0,70.0,255.0,255.0,255.0
108,5.4,13.981415679161373,10.554006542186887,-0.5168152425139019,0.17635616035764912,0.019721430619874525,-0.1892209354747243,0.02990454210856086,0.00498984257948365,-0.03294133996997184,0.0,70.0,255.0,255.0,255.0
109,5.45,13.99027084291925,10.55499893742723,-0.5263174866485147,0.17786161388224642,0.019986645026648375,-0.1908884265693256,0.030295067173824464,0.005421341438882621,-0.03365061111788581,0.0,70.0,255.0,255.0,255.0
110,5.5,13.999201840549597,10.556005206689552,-0.5359040851708344,0.17938566707503156,0.020263564763762787,-0.19258599658651288,0.030535324214397974,0.005338899565465738,-0.03400441326624204,0.0,70.0,255.0,255.0,255.0
111,5.550000000000001,14.008209409626753,10.557025293903607,-0.545576086307166,0.18091514630368621,0.02052053498319495,-0.1942888678959498,0.03050528340704517,0.004638391570388478,-0.03385599451573018,0.0,70.0,255.0,255.0,255.0
112,5.6000000000000005,14.017293355179966,10.558057260187871,-0.5553329719604294,0.18243619541573608,0.020727403920801635,-0.1959715960380859,0.03028965415197149,0.0035017274383264407,-0.033317598353788114,0.0,70.0,255.0,255.0,255.0
113,5.65,14.026453029168326,10.559098034295687,-0.5651732459109746,0.18394411171888336,0.020870707727027593,-0.1976206277313286,0.030056599882932744,0.002271326134462015,-0.03262154408126827,0.0,70.0,255.0,255.0,255.0
114,5.7,14.035687766351854,10.560144330960574,-0.5750950347335623,0.18544185540402935,0.020954536534247836,-0.19923375044621272,0.029955364236222692,0.0012952836145885271,-0.031992629236532455,0.0,70.0,255.0,255.0,255.0
115,5.75,14.04499721470873,10.561193487949112,-0.5850966209555959,0.18693964814250563,0.021000236088486446,-0.20081989065498185,0.03014318680101269,0.0009130973213089533,-0.03164750383863879,0.0,70.0,255.0,255.0,255.0
116,5.800000000000001,14.054381731166105,10.562244354569422,-0.5951770237990605,0.18845617408413062,0.02104584626637873,-0.2023985008300766,0.03069119147944832,0.0012918209833401306,-0.03170089963012712,0.0,70.0,255.0,255.0,255.0
117,5.8500000000000005,14.063842832117142,10.56329807257575,-0.6053364710386036,0.19000876729045046,0.02112941818682046,-0.20398998061799456,0.03145838729281536,0.0022649826615150914,-0.03208710112544422,0.0,70.0,255.0,255.0,255.0
118,5.9,14.07338260789515,10.564357296388105,-0.6155760218608599,0.19160201281341216,0.02127234453253024,-0.20560721094262102,0.03218999075880191,0.0034938971706921507,-0.03265789163028332,0.0,70.0,255.0,255.0,255.0
119,5.95,14.083003033398484,10.565425307029003,-0.6258971921328657,0.19322776636633066,0.021478807903889674,-0.2072557697810229,0.032637415276326465,0.0046314634975175295,-0.03326558522276368,0.0,70.0,255.0,255.0,255.0
120,6.0,14.092705384531783,10.566505177178493,-0.6363015988389622,0.1948657543410448,0.021735490882281994,-0.2089337694648974,0.03255197520299902,0.005336729798877116,-0.03376958070320235,0.0,70.0,255.0,255.0,255.0
121,6.050000000000001,14.102489608832588,10.56759885611723,-0.6467905690793554,0.19648296388663056,0.022012480883777386,-0.21063272785134313,0.03182235160767988,0.005428263890472351,-0.03408763307091167,0.0,70.0,255.0,255.0,255.0
122,6.1000000000000005,14.112353680920446,10.568706425266871,-0.6573648716240965,0.1980479895018128,0.02227831727132923,-0.21234253277198856,0.030643043762523803,0.0050073862034594185,-0.03421763350803797,0.0,70.0,255.0,255.0,255.0
123,6.15,14.12229440778277,10.569826687844364,-0.6680248223565542,0.19954726826288294,0.022513219504123327,-0.21405449120214692,0.029378868315355078,0.004303201733435458,-0.034182413873107276,0.0,70.0,255.0,255.0,255.0
124,6.2,14.132308407746734,10.570957747217284,-0.6787703207443112,0.2009858763333483,0.022708637444672775,-0.21576077415929928,0.028400522444904652,0.0035459486433353504,-0.03400554269309408,0.0,70.0,255.0,255.0,255.0
125,6.25,14.142392995416104,10.572097551588831,-0.6896008997724842,0.2023873205073734,0.022867814368456862,-0.21745504547145633,0.028076884416883274,0.0029679555094475063,-0.03371818267261517,0.0,70.0,255.0,255.0,255.0
126,6.300000000000001,14.152547139797472,10.57324452865413,-0.7005158252914568,0.20379356477503663,0.023005432995617525,-0.2191325924265608,0.028586488336834748,0.002700671239352914,-0.03334754244507243,0.0,70.0,255.0,255.0,255.0
127,6.3500000000000005,14.162772351893608,10.574398094888393,-0.7115141590151403,0.20524596934105688,0.023137881492392154,-0.22078979971596358,0.02971955420658645,0.0027009037617986564,-0.032923204003187934,0.0,70.0,255.0,255.0,255.0
128,6.4,14.173071736731577,10.575558316803368,-0.7225948052630532,0.20676552019569527,0.02327552337179739,-0.2224249128268796,0.031063580267520763,0.0028595429826694385,-0.03249329203812712,0.0,70.0,255.0,255.0,255.0
129,6.45,14.183448903913177,10.576725647225572,-0.7337566502978282,0.20835232736780895,0.023423835790659098,-0.2240391289197763,0.032201147623922566,0.0030771428606968243,-0.0321179316506659,0.0,70.0,255.0,255.0,255.0
130,6.5,14.193906969468358,10.577900700382434,-0.7449987181550308,0.20998563495808753,0.023583237657867073,-0.22563670599194618,0.032720533750030256,0.003251494782574582,-0.031853725902442065,0.0,70.0,255.0,255.0,255.0
131,6.550000000000001,14.204447467408986,10.579083970991359,-0.7563203208970228,0.21162438074281198,0.023748985268916556,-0.2272245015100205,0.03241183490541033,0.003322990545484572,-0.03172891043546899,0.0,70.0,255.0,255.0,255.0
132,6.6000000000000005,14.21506940754264,10.580275598909326,-0.7677211683060329,0.21322681844862856,0.02391553671241553,-0.22880959703549308,0.03144955526259707,0.0033099311510298435,-0.031726846516477725,0.0,70.0,255.0,255.0,255.0
133,6.65,14.225770149253849,10.5814755246626,-0.7792012806005721,0.2147693362690717,0.02407997838401954,-0.23039718616166827,0.030195994762927114,0.003256854775379736,-0.03180712193699975,0.0,70.0,255.0,255.0,255.0
134,6.7,14.236546341169547,10.582683596747728,-0.7907608869221997,0.21624641792492127,0.024241222189953504,-0.23199030922919306,0.02901474719880781,0.003199279446519654,-0.03192273070427021,0.0,70.0,255.0,255.0,255.0
135,6.75,14.247394791046341,10.583899646881596,-0.8024003115234914,0.21767081098895247,0.024399906328671506,-0.2335894592320953,0.028260933964752155,0.0031740373875877026,-0.03202290439366928,0.0,70.0,255.0,255.0,255.0
136,6.800000000000001,14.258313422268442,10.585123587380595,-0.8141198328454092,0.2190725113213965,0.024558625928712274,-0.23519259966856,0.028125519360600038,0.0032006532931561082,-0.032077328633528523,0.0,70.0,255.0,255.0,255.0
137,6.8500000000000005,14.26930204217848,10.586355509474467,-0.8259195714903474,0.22048336292501247,0.024719971657987116,-0.23679719209544814,0.028513180453515474,0.0032593716341011714,-0.03209034233181418,0.0,70.0,255.0,255.0,255.0
138,6.9,14.280361758560943,10.587595584546394,-0.837799552054954,0.22192382936674804,0.02488456309212239,-0.2384016339017414,0.02920232413003987,0.0033130379152979117,-0.03207644865206305,0.0,70.0,255.0,255.0,255.0
139,6.95,14.291494425115156,10.58884396578368,-0.8497597348805216,0.22340359533801646,0.025051275449516908,-0.24000483696065444,0.029972777334563716,0.003325739352000312,-0.03204494506607869,0.0,70.0,255.0,255.0,255.0
140,7.0,14.302702118094745,10.590100712091346,-0.8618000357510195,0.2249211071002044,0.025217137027322423,-0.24160612840834927,0.030607758364276094,0.0032523556669161735,-0.03200262855088676,0.0,70.0,255.0,255.0,255.0
141,7.050000000000001,14.313986535825176,10.591365679486412,-0.8739203477213565,0.22646437117444407,0.025376511016208525,-0.24320509981574312,0.03098053986523297,0.0030743962847523676,-0.031955061743627056,0.0,70.0,255.0,255.0,255.0
142,7.1000000000000005,14.325348555212189,10.592638363192966,-0.8861205457325938,0.2280191610867277,0.02552457665579766,-0.24480163458271198,0.031102291687723493,0.0028525823125846728,-0.03191178415625773,0.0,70.0,255.0,255.0,255.0
143,7.15,14.336788451933849,10.593918137151991,-0.8984005111796277,0.22957460034321642,0.025661769247466992,-0.2463962782313689,0.031028461629745152,0.0026909935609609192,-0.031887083454928966,0.0,70.0,255.0,255.0,255.0
144,7.2,14.34830601524651,10.595204540117713,-0.9107601735557307,0.23112200724970222,0.02579367601189375,-0.24799034292820488,0.03080845581742153,0.0026910498585053233,-0.031897489031418313,0.0,70.0,255.0,255.0,255.0
145,7.25,14.359900652658819,10.59649750475318,-0.9231995454724482,0.23265544592495857,0.025930874233317525,-0.24958602713451072,0.03050001393170021,0.0029645119740351333,-0.03196658140262043,0.0,70.0,255.0,255.0,255.0
146,7.300000000000001,14.371571559839007,10.597797627541045,-0.9357187762691818,0.23417200864287224,0.026090127209297265,-0.2511870010684669,0.030144582251345753,0.0035555611034965295,-0.032102424391933226,0.0,70.0,255.0,255.0,255.0
147,7.3500000000000005,14.383317853523106,10.59910651747411,-0.9483182455792949,0.23566990415009315,0.026286430343667178,-0.25279626957370405,0.029758491956677346,0.004328527553632,-0.032262521043147085,0.0,70.0,255.0,255.0,255.0
148,7.4,14.395138550254016,10.600426270575412,-0.9609984032265522,0.23714785783853998,0.026522979964660465,-0.25441325317278163,0.02936466851028996,0.005043920240233035,-0.03237521752835759,0.0,70.0,255.0,255.0,255.0
149,7.45,14.40703263930696,10.601758815470577,-0.9737595708965731,0.23860637100112214,0.02679082236769048,-0.2560337913265398,0.028999087040837424,0.005464000606814068,-0.03237181209503337,0.0,70.0,255.0,255.0,255.0
150,7.5,14.418999187354128,10.60310535281218,-0.9866017823592061,0.24004776654262372,0.02706938002534187,-0.25765043438228497,0.028688223204653696,0.00534964305725083,-0.032183073810543306,0.0,70.0,255.0,255.0,255.0
151,7.550000000000001,14.431037415961223,10.60446575347311,-0.9995246143348016,0.2414751933215875,0.027325786673415564,-0.25925209870759414,0.028447844416312762,0.004595760235126534,-0.031781441154865586,0.0,70.0,255.0,255.0,255.0
152,7.6000000000000005,14.443146706686287,10.605837931479522,-1.0125269922299656,0.242892550984255,0.027528956048854525,-0.2608285784977715,0.02830103652495808,0.003399554559102569,-0.031239903232949118,0.0,70.0,255.0,255.0,255.0
153,7.65,14.455326671059648,10.607218649077996,-1.0256074721845787,0.24430529697408332,0.02766574212932582,-0.26237608903088905,0.028275568291569186,0.002128756712949098,-0.030691114030712008,0.0,70.0,255.0,255.0,255.0
154,7.7,14.467577236383695,10.608604505692455,-1.0387646011330545,0.24572010781341191,0.027741831720149435,-0.2638976899008427,0.028388482730790088,0.0011584954993537622,-0.03026803648122911,0.0,70.0,255.0,255.0,255.0
155,7.75,14.47989868184099,10.609992832250011,-1.051997241174663,0.24714414524716233,0.027781591679261197,-0.26540289267901196,0.028651055953332616,0.0008648878250028247,-0.030093104707118457,0.0,70.0,255.0,255.0,255.0
156,7.800000000000001,14.492291650908411,10.61138266486038,-1.0653048904009557,0.24858521340874518,0.027828320502649717,-0.26690700037155457,0.029058352438759982,0.001428484203103153,-0.030225610522371937,0.0,70.0,255.0,255.0,255.0
157,7.8500000000000005,14.504757203181864,10.612775664300276,-1.0786879412118184,0.2500499804910383,0.027924440099571513,-0.26842545373124915,0.029556522781959416,0.00262337075938035,-0.03061339050061118,0.0,70.0,255.0,255.0,255.0
158,7.9,14.517296648957515,10.614175108870338,-1.0921474357740806,0.2515408656869411,0.028090657578587752,-0.2699683394216157,0.030052219161369464,0.004010097197948426,-0.03114396271248765,0.0,70.0,255.0,255.0,255.0
159,7.95,14.529911289750558,10.615584730058135,-1.10568477515398,0.2530552024071753,0.028325449819366355,-0.2715398500024979,0.03044800767817435,0.005142670077695755,-0.03169655480064204,0.0,70.0,255.0,255.0,255.0
160,8.0,14.542602169198233,10.617007653852275,-1.1193014207743304,0.25458566645475855,0.028604924586357328,-0.2731379949016799,0.030663543658704384,0.005570852262870574,-0.032156488712975495,0.0,70.0,255.0,255.0,255.0
161,8.05,14.555369856396034,10.61844522251677,-1.132998574644148,0.2561215567730457,0.028882535045653412,-0.27475549887379547,0.030658233008651337,0.005070442810684028,-0.032456629575983165,0.0,70.0,255.0,255.0,255.0
162,8.1,14.568214324875537,10.61989590735684,-1.14677697066171,0.2576514897556237,0.02911196886742573,-0.2763836578592782,0.030437347871092868,0.003877778252459052,-0.03259017112811069,0.0,70.0,255.0,255.0,255.0
163,8.15,14.581135005371596,10.621356419403513,-1.1606369404300758,0.259165291560155,0.029270312870899318,-0.27801451598660654,0.0300319186985476,0.002460038646390217,-0.03256855959501426,0.0,70.0,255.0,255.0,255.0
164,8.200000000000001,14.594130854031553,10.62282293864393,-1.1745784222603706,0.26065468162547845,0.029357972732064752,-0.27964051381877963,0.02948568702336729,0.0012839710455736508,-0.0324062571368966,0.0,70.0,255.0,255.0,255.0
165,8.25,14.607200473534144,10.62429221667672,-1.1886009918119538,0.2621138602624917,0.029398709975456683,-0.2812551417002962,0.02883481603177529,0.0008196285318007313,-0.032124949764922306,0.0,70.0,255.0,255.0,255.0
166,8.3,14.620342240057802,10.625762809641476,-1.2027039364304002,0.263538163228656,0.029439935585244825,-0.28285300879527187,0.0281144031735181,0.001302891404897366,-0.03174684553257645,0.0,70.0,255.0,255.0,255.0
167,8.35,14.63355428985701,10.627236210235244,-1.216886292691481,0.26492530057984354,0.02952899911594642,-0.28442982625355384,0.02741222093227691,0.0024947003778308385,-0.031306764147798205,0.0,70.0,255.0,255.0,255.0
168,8.4,14.646834770115786,10.62871570955307,-1.2311469190557556,0.26627938532188367,0.02968940562302791,-0.2859836852100517,0.026863649165242975,0.003920564068415899,-0.030862638068285264,0.0,70.0,255.0,255.0,255.0
169,8.450000000000001,14.660182228389198,10.630205150797547,-1.2454846612124861,0.26761166549636783,0.02992105552278801,-0.28751609006038237,0.026601505300760664,0.005108298889489049,-0.030484104297490155,0.0,70.0,255.0,255.0,255.0
170,8.5,14.673595936665423,10.631707815105349,-1.2598985280617938,0.26893953585195973,0.030200235511976814,-0.2890320956398007,0.0267451642436356,0.0055827082025672325,-0.030239749523386372,0.0,70.0,255.0,255.0,255.0
171,8.55,14.687076181974394,10.633225174348745,-1.2743878707764662,0.2702861819207314,0.030479326343044733,-0.290540065012721,0.027338979472091296,0.005104844713521572,-0.030162701580405127,0.0,70.0,255.0,255.0,255.0
172,8.6,14.700624554857496,10.634755747739653,-1.288952534563066,0.27167343379916886,0.03071071998332897,-0.2920483657978412,0.028268453714552777,0.003914236085833522,-0.03022006831796542,0.0,70.0,255.0,255.0,255.0
173,8.65,14.714243525354311,10.636296246347078,-1.3035927073562503,0.27311302729218667,0.030870749951628085,-0.29356207184451755,0.029316281842106662,0.0024868892316121105,-0.030343592094483895,0.0,70.0,255.0,255.0,255.0
174,8.700000000000001,14.727935857586715,10.637842822734816,-1.3183087417475177,0.27460506198337953,0.030959408906490182,-0.2950827250072896,0.030249830234296837,0.0012959802512924057,-0.030457325673238778,0.0,70.0,255.0,255.0,255.0
175,8.75,14.741704031552649,10.639392187237727,-1.3331009798569793,0.27613801031561636,0.031000347976757325,-0.2966078044118414,0.030852499021882807,0.0008174640644398323,-0.030472042817608624,0.0,70.0,255.0,255.0,255.0
176,8.8,14.755549658618277,10.640942857532492,-1.3479695221887018,0.2776903118855678,0.031041155312934166,-0.29812992928905047,0.031009678939142304,0.0012908765917529763,-0.030342860966214857,0.0,70.0,255.0,255.0,255.0
177,8.85,14.769473062741206,10.64249630276902,-1.3629139727858843,0.2792389782095306,0.031129435635932623,-0.2996420905084629,0.030762076099044577,0.002477539428014097,-0.0301338949811214,0.0,70.0,255.0,255.0,255.0
178,8.9,14.78347355643923,10.644055801096085,-1.377933731239548,0.28076651949547227,0.031288909255735575,-0.3011433187871626,0.0302231115785645,0.003902694857593758,-0.029961221991969822,0.0,70.0,255.0,255.0,255.0
179,8.950000000000001,14.797549714690753,10.645625193694594,-1.3930283046646006,0.28226128936738704,0.031519705121692,-0.3026382127076599,0.029519173759595674,0.005094633253577285,-0.02993367925678836,0.0,70.0,255.0,255.0,255.0
180,9.0,14.811699685375968,10.647207771608254,-1.408197552510314,0.28371843687143183,0.031798372581093304,-0.30413668671284144,0.028776867639557224,0.00557951013107072,-0.03016802326214485,0.0,70.0,255.0,255.0,255.0
181,9.05,14.825921558377896,10.648805030952703,-1.4234419733358847,0.28513897613134276,0.03207765613479907,-0.3056550150338744,0.028080766312044148,0.005118502064149766,-0.030712940801791433,0.0,70.0,255.0,255.0,255.0
182,9.1,14.840213582989103,10.650415537221734,-1.4387630540137015,0.28652651350263625,0.03231022278750828,-0.3072079807930206,0.027480444687100203,0.0039464220533247385,-0.03144258019580626,0.0,70.0,255.0,255.0,255.0
183,9.15,14.85457420972816,10.652036053231454,-1.4541627714151868,0.2878870206000528,0.032472298340131545,-0.308799273053455,0.027036586529582962,0.002531515488435332,-0.03213245233864015,0.0,70.0,255.0,255.0,255.0
184,9.200000000000001,14.869002285049108,10.653662767055748,-1.469642981319047,0.28923017215559454,0.032563374336351814,-0.3104212260268846,0.026818649551962892,0.0013386335876219846,-0.03256189669365028,0.0,70.0,255.0,255.0,255.0
185,9.25,14.88349722694372,10.655292390665089,-1.4852048940178753,0.29056888555524907,0.03260616169889374,-0.31205546272282003,0.02689205839097042,0.0008324208192078686,-0.032515910753772026,0.0,70.0,255.0,255.0,255.0
186,9.3,14.898059173604633,10.656923383225637,-1.500848527591329,0.2919193779946916,0.0326466164182726,-0.3136728171022618,0.02727499474151074,0.001248262003805678,-0.03189777675898231,0.0,70.0,255.0,255.0,255.0
187,9.35,14.912689164743188,10.658557052306916,-1.5165721757281014,0.29329638502940014,0.03273098789927431,-0.31524524039871826,0.027872602027656512,0.002365956507688338,-0.030862031321898797,0.0,70.0,255.0,255.0,255.0
188,9.4,14.927388812107573,10.660196482015564,-1.5323730516312009,0.29470663819745724,0.032883212069041434,-0.3167590202344517,0.028512407105019122,0.003742059040412471,-0.02970439988896345,0.0,70.0,255.0,255.0,255.0
189,9.450000000000001,14.942159828562934,10.66184537351382,-1.5482480777515466,0.29614762573990205,0.03310519380331556,-0.3182156803876146,0.029007253674073752,0.004937685542927284,-0.028730995040970875,0.0,70.0,255.0,255.0,255.0
190,9.5,14.957003574681563,10.663507001395896,-1.5641946196699623,0.2976073635648646,0.03337698062333416,-0.31963211973854877,0.02916688014682478,0.005522881183672723,-0.028248333722680208,0.0,70.0,255.0,255.0,255.0
191,9.55,14.97192056491942,10.665183071576154,-1.5802112897254015,0.29906431375458453,0.03365748192168283,-0.32104051375988263,0.02889925472331356,0.005275303067797665,-0.028409238875526377,0.0,70.0,255.0,255.0,255.0
192,9.600000000000001,14.986910006057022,10.666872749588064,-1.5962986710459506,0.30049728903719597,0.03390451093011393,-0.3224730436261014,0.02831455512950498,0.004360567768024737,-0.029061182628353777,0.0,70.0,255.0,255.0,255.0
193,9.65,15.00197029382314,10.668573522669165,-1.6124585940880116,0.30189576926753503,0.034093538698485304,-0.323946632022718,0.027628377125132886,0.0031294324994490808,-0.02989805999358275,0.0,70.0,255.0,255.0,255.0
194,9.700000000000001,15.017099582983775,10.670282103457913,-1.6286933342482224,0.30326012674970926,0.03421745418005884,-0.3254628496254597,0.027058909177135604,0.0019304843792866677,-0.030607549716132887,0.0,70.0,255.0,255.0,255.0
195,9.75,15.032296306498111,10.671995268087171,-1.6450048790505576,0.3046016601852486,0.03428658713641397,-0.3270073869943313,0.026824383723322853,0.0010960078247634897,-0.03086278232751205,0.0,70.0,255.0,255.0,255.0
196,9.8,15.0475597490023,10.673710762171554,-1.6613940729476555,0.30594256512204154,0.034327054962535186,-0.3285491278582109,0.027034559792937785,0.0008098730450711855,-0.03049920713265042,0.0,70.0,255.0,255.0,255.0
197,9.850000000000001,15.062890563010315,10.675427973583425,-1.6778597918363787,0.30730511616454237,0.03436757444092109,-0.33005730770759634,0.02758376952947117,0.0010227281320496218,-0.029699578491082512,0.0,70.0,255.0,255.0,255.0
198,9.9,15.078290260618754,10.677147519615646,-1.6943998037184151,0.30870094207498866,0.03442932777574015,-0.33151908570731914,0.028259492320081847,0.0015900944104529913,-0.028816180649626766,0.0,70.0,255.0,255.0,255.0
199,9.950000000000001,15.093760657217814,10.678870906360999,-1.7110117004071106,0.31013106539655055,0.03452658388196639,-0.332938925772559,0.02885053619277045,0.0023665774062209266,-0.02819246576803991,0.0,70.0,255.0,255.0,255.0
200,10.0,15.10930336715841,10.680600178003843,-1.727693696295671,0.3115859956942657,0.03466598551636224,-0.33433833228412313,0.029151622254630638,0.003213087518538771,-0.02818044372714379,0.0,70.0,255.0,255.0,255.0
201,10.05,15.12491925678724,10.682337504912635,-1.744445533635523,0.3130462276220136,0.034847892633820265,-0.3357569701452734,0.02905593267694684,0.004033456499286103,-0.02894759226761412,0.0,70.0,255.0,255.0,255.0
202,10.100000000000001,15.14060798992061,10.684084967267225,-1.7612693933101984,0.3144915889619604,0.03506933116629085,-0.33723309151088454,0.02863577467753231,0.004751316905604597,-0.030253323920281794,0.0,70.0,255.0,255.0,255.0
203,10.15,15.156368415683437,10.685844438029264,-1.7781688427866114,0.31590980508976685,0.035323024324380725,-0.33878230253730157,0.028048245669509697,0.005264875173516259,-0.0316435577342844,0.0,70.0,255.0,255.0,255.0
204,10.200000000000001,15.172198970429587,10.687617269699663,-1.7951476235639285,0.31729641352891136,0.03559581868364248,-0.340397447284313,0.027452232765767803,0.005464744458549831,-0.03266995317885435,0.0,70.0,255.0,255.0,255.0
205,10.25,15.188098057036328,10.689404019897628,-1.8122085875150427,0.31865502836634363,0.03586949877023571,-0.342049297855187,0.027005117933498468,0.005251642101278264,-0.03289152667995676,0.0,70.0,255.0,255.0,255.0
206,10.3,15.204064473266222,10.691204219576687,-1.8293525533494472,0.3199969253222612,0.036120982893770304,-0.34368659995230866,0.02679448339311108,0.004594762494747329,-0.032096251302782264,0.0,70.0,255.0,255.0,255.0
207,10.350000000000001,15.220097749568554,10.693016118187005,-1.8465772475102735,0.32133447670565474,0.03632897501971044,-0.34525892298546523,0.026789495396961627,0.0036173189307930897,-0.03053878083965067,0.0,70.0,255.0,255.0,255.0
208,10.4,15.236197920936787,10.694837117078658,-1.8638784456479938,0.32267587486195737,0.03648271478684961,-0.3467404780362737,0.026912000526557733,0.0025476076933372838,-0.028719611723304617,0.0,70.0,255.0,255.0,255.0
209,10.450000000000001,15.25236533705475,10.69666438966569,-1.881251295313901,0.3240256767583105,0.03658373578904417,-0.3481308841577957,0.027086733210701652,0.0016329062988873488,-0.027146556015167356,0.0,70.0,255.0,255.0,255.0
210,10.5,15.268600488612618,10.698495490657562,-1.8986915340637733,0.32538454818302753,0.03664600541673835,-0.34945513363779046,0.027235924657809107,0.0011123720479844224,-0.026317412256848804,0.0,70.0,255.0,255.0,255.0
211,10.55,15.284903791873052,10.700328990207364,-1.91619680867768,0.3267492692240914,0.03669497299384261,-0.3507626253834806,0.027313359858816,0.0011074935203581049,-0.026487262660923605,0.0,70.0,255.0,255.0,255.0
212,10.600000000000001,15.301275415535027,10.702164987956946,-1.9337677966021214,0.32811588416890913,0.03675675476877416,-0.3521038599038828,0.027327176133873365,0.001531295483303552,-0.027458032907867747,0.0,70.0,255.0,255.0,255.0
213,10.65,15.317715380289943,10.704004665684241,-1.9514071946680682,0.32948198683747876,0.03684810254217297,-0.35350842867426735,0.027301980661675884,0.0021928059418030443,-0.028811515186299985,0.0,70.0,255.0,255.0,255.0
214,10.700000000000001,15.334223614218775,10.705849798211164,-1.9691186394695481,0.3308460822350767,0.03697603536295446,-0.3549850114225128,0.02725463392927452,0.0028903436334104526,-0.030123962620431932,0.0,70.0,255.0,255.0,255.0
215,10.75,15.350799988513451,10.707702269220537,-1.9869056958103195,0.3322074502304062,0.03713713690551401,-0.35652082493631054,0.027199155462653835,0.003418869708582406,-0.030974861588517477,0.0,70.0,255.0,255.0,255.0
216,10.8,15.367444359241816,10.709563511901715,-2.004770721963179,0.3335659977813421,0.0373179223338127,-0.35808249758136457,0.027145363882929985,0.0036630023521055932,-0.03113586355458775,0.0,70.0,255.0,255.0,255.0
217,10.850000000000001,15.384156588291585,10.711434061453918,-2.022713945568456,0.3349219866186992,0.03750343714072457,-0.3596344112917693,0.02710180006637586,0.0036620678979915056,-0.030719064219009162,0.0,70.0,255.0,255.0,255.0
218,10.9,15.400936557903686,10.713313855615787,-2.040734163092356,0.3362761777879797,0.037684129123611854,-0.3611544040032655,0.027080076826457855,0.003514921451852615,-0.02998267252021236,0.0,70.0,255.0,255.0,255.0
219,10.950000000000001,15.417784206070383,10.71520247436628,-2.0588293859687825,0.337629994301345,0.03785492928590983,-0.36263267854379055,0.02709473107476157,0.003313318236841667,-0.02917847928389783,0.0,70.0,255.0,255.0,255.0
220,11.0,15.43469955733382,10.717099348544378,-2.076997430946735,0.33898565089545585,0.03801546094729602,-0.36407225193165527,0.02716745349253813,0.0031521024988379054,-0.02855908544456831,0.0,70.0,255.0,255.0,255.0
221,11.05,15.451682771159929,10.719004020461009,-2.095236611161948,0.3403467396505988,0.038170139535793624,-0.3654885870882474,0.027305184607939736,0.0030865576762906244,-0.028268117619623112,0.0,70.0,255.0,255.0,255.0
222,11.100000000000001,15.46873423129888,10.720916362497958,-2.11354628965556,0.3417161693562498,0.03832411671492508,-0.3668990636936176,0.027465623599276512,0.003099500522196763,-0.028261141451890737,0.0,70.0,255.0,255.0,255.0
223,11.15,15.485854388095554,10.722836432132501,-2.13192651753131,0.34309330201052646,0.0384800895880133,-0.36831470123343646,0.02757771203434345,0.0031492798125754007,-0.028424041819130608,0.0,70.0,255.0,255.0,255.0
224,11.200000000000001,15.503043561499933,10.724764371456759,-2.1503777597789036,0.34447394055968417,0.03863904469618262,-0.36974146787553064,0.027573155059279486,0.0032025838855531674,-0.028654521176241232,0.0,70.0,255.0,255.0,255.0
225,11.25,15.520301782151522,10.72670033660212,-2.168900664318863,0.3458506175164544,0.03880034797656862,-0.3711801533510606,0.02738305853782208,0.003224748268415567,-0.0288488432530265,0.0,70.0,255.0,255.0,255.0
226,11.3,15.537628623251578,10.728644406254416,-2.1874957751140096,0.3472122464134664,0.03896151952302418,-0.3726263522008333,0.02698009815134128,0.0031974802292111804,-0.028945605360686244,0.0,70.0,255.0,255.0,255.0
227,11.350000000000001,15.555023006792869,10.730596488554422,-2.206163299538946,0.34854862733158853,0.039120095999489735,-0.3740747138871292,0.02643747709765165,0.003139930012530101,-0.028957302374532645,0.0,70.0,255.0,255.0,255.0
228,11.4,15.572483485984737,10.732556415854365,-2.2249032465027225,0.34985599412323154,0.03927551252427719,-0.37552208243828655,0.025888142636532052,0.0030879592991084337,-0.028919388641757138,0.0,70.0,255.0,255.0,255.0
229,11.450000000000001,15.590008606205192,10.73452403980685,-2.243715507782775,0.35113744159524174,0.03942889192940058,-0.3769666527513049,0.02546542258112794,0.003076346220964865,-0.028857235544954563,0.0,70.0,255.0,255.0,255.0
230,11.5,15.607597230144261,10.736499305047305,-2.262599911777853,0.35240253638134433,0.039583147146373676,-0.378407805992782,0.025292293707046554,0.003148904428229571,-0.028793513571168106,0.0,70.0,255.0,255.0,255.0
231,11.55,15.625248859843326,10.738482354521487,-2.281556288382053,0.3536666709659464,0.039743782372223535,-0.37984600410842173,0.025428222321366434,0.0033235214072391273,-0.02874274765081175,0.0,70.0,255.0,255.0,255.0
232,11.600000000000001,15.642963897240856,10.740473683284527,-2.300584512188695,0.354945358613481,0.03991549928709759,-0.3812820807578632,0.025819992485232035,0.003540779425570406,-0.028709649049973862,0.0,70.0,255.0,255.0,255.0
233,11.65,15.660743395704674,10.742473904450197,-2.3196844964578394,0.3562486702144696,0.040097860314780576,-0.3827169690134191,0.026353353782759825,0.0036988829920758803,-0.028698403614058066,0.0,70.0,255.0,255.0,255.0
234,11.700000000000001,15.678588764262303,10.744483469316005,-2.338856209090037,0.35758069399175696,0.04028538758630518,-0.384151921119269,0.026905667436949443,0.0036987445186653645,-0.028716536644113333,0.0,70.0,255.0,255.0,255.0
235,11.75,15.69650146510385,10.746502443208827,-2.3580996885697663,0.35893923695816454,0.04046773476664711,-0.38558862267783045,0.02735974798575569,0.00343166198994993,-0.028777102462251847,0.0,70.0,255.0,255.0,255.0
236,11.8,15.71448268795812,10.74853024279267,-2.37741507135782,0.36031666879033253,0.04062855378530017,-0.3870296313654942,0.02764752538340076,0.002854634607807327,-0.028883404035928706,0.0,70.0,255.0,255.0,255.0
237,11.850000000000001,15.732533131982883,10.750565298587357,-2.3968026517063157,0.3617039894965046,0.040753198227427845,-0.3884769630814233,0.027766189325006962,0.0020987238459113655,-0.02900410142534504,0.0,70.0,255.0,255.0,255.0
238,11.9,15.75065308690777,10.752605562615413,-2.4162627676659625,0.3630932877228332,0.040838426169891306,-0.3899300415080287,0.027733966707721436,0.001395576331830739,-0.02908699690200578,0.0,70.0,255.0,255.0,255.0
239,11.950000000000001,15.768842460755167,10.754649141204347,-2.4357956558571185,0.36447738616727676,0.04089275586061092,-0.3913856627716239,0.027572420493271466,0.0009747363117540431,-0.029083331165535853,0.0,70.0,255.0,255.0,255.0
240,12.0,15.787100825524497,10.756694838201474,-2.455401333943125,0.36585052977216037,0.04093589980106671,-0.39283837462458226,0.02731272367473281,0.001064400990635761,-0.02895010455179481,0.0,70.0,255.0,255.0,255.0
241,12.05,15.805427513732383,10.758742731184453,-2.4750794933195768,0.36720865853475004,0.040999195959674495,-0.3942806732268034,0.026980650502039794,0.0017655392293036698,-0.028669836671690874,0.0,70.0,255.0,255.0,255.0
242,12.100000000000001,15.823821691377972,10.760794757797441,-2.494829401265805,0.36854859482236435,0.04111245372399708,-0.39570535829175135,0.026596089376873522,0.002898078106028379,-0.02827571681067731,0.0,70.0,255.0,255.0,255.0
243,12.15,15.84228237321462,10.762853976556853,-2.514650029148752,0.3698682674724374,0.04128900377027733,-0.3971082449078711,0.02619161854759966,0.004123380444021052,-0.0278326763766934,0.0,70.0,255.0,255.0,255.0
244,12.200000000000001,15.860808518125216,10.76492365817447,-2.5345402257565923,0.3711677566771243,0.04152479176839918,-0.3984886259294207,0.025810338233966945,0.005096762448175696,-0.02740962587308715,0.0,70.0,255.0,255.0,255.0
245,12.25,15.879399148882332,10.767006455733693,-2.554498891741694,0.3724493012958341,0.0417986800150949,-0.3998492074951798,0.025485394611735046,0.0054827620200370575,-0.02706648865484773,0.0,70.0,255.0,255.0,255.0
246,12.3,15.8980534482548,10.769103526175979,-2.5745251465061103,0.3737162961382978,0.04207306797040289,-0.40119527479490547,0.025236585894994334,0.005116122226844766,-0.026837249277145148,0.0,70.0,255.0,255.0,255.0
247,12.350000000000001,15.916770778496161,10.771213762530733,-2.5946184192211845,0.3749729598853335,0.04231029223777938,-0.40253293242289434,0.025086749205271985,0.004158847180413261,-0.026730327369284268,0.0,70.0,255.0,255.0,255.0
248,12.4,15.935550744243333,10.773334555399757,-2.6147784397483997,0.376224971058825,0.042488952688444215,-0.4038683075318339,0.025062263064867807,0.00294185760516541,-0.026745001553951653,0.0,70.0,255.0,255.0,255.0
249,12.450000000000001,15.954393275602044,10.775462657799578,-2.635005249974368,0.3774791861918203,0.04260447799829592,-0.4052074325782895,0.025179513282935773,0.0018042745004720473,-0.026871452055354794,0.0,70.0,255.0,255.0,255.0
250,12.5,15.973298662862515,10.777595003199586,-2.6552991830062287,0.3787429223871186,0.04266938013849142,-0.40655545273736937,0.02544966058373177,0.0010765322798533816,-0.027087903532896362,0.0,70.0,255.0,255.0,255.0
251,12.55,15.992267567840756,10.779729595813427,-2.675660795248105,0.3800241522501935,0.04271213122628126,-0.40791622293157914,0.02586731827172173,0.000936032469134318,-0.027375478573921086,0.0,70.0,255.0,255.0,255.0
252,12.600000000000001,16.011301078087534,10.781866216322214,-2.6960908052993866,0.38132965421429077,0.04276298338540485,-0.4092930005947615,0.02637607463853442,0.0012974888836225773,-0.02772213455126682,0.0,70.0,255.0,255.0,255.0
253,12.65,16.030400533262185,10.784005894151967,-2.716590095307581,0.3826617597140469,0.042841880114643516,-0.4106884363867058,0.0268784900324448,0.0019590725871765358,-0.028106478246803235,0.0,70.0,255.0,255.0,255.0
254,12.700000000000001,16.04956725405894,10.786150404333679,-2.737159648938057,0.38401750321753525,0.042958890644122505,-0.4121036484194418,0.027272634276087615,0.0027190533026910657,-0.028498878260085903,0.0,70.0,255.0,255.0,255.0
255,12.75,16.06880228358394,10.78830178321638,-2.757800460149525,0.3853890231416557,0.04311378544491262,-0.4135383242127144,0.027471953731961207,0.0033831368314807264,-0.028885859917293644,0.0,70.0,255.0,255.0,255.0
256,12.8,16.088106156373104,10.79046178287817,-2.7785134813593286,0.38676469859073137,0.04329720432727058,-0.41499223441117117,0.027433628198281212,0.0038342001102975587,-0.029254123140320942,0.0,70.0,255.0,255.0,255.0
257,12.850000000000001,16.10747875344301,10.792631503649107,-2.7992996835906423,0.3881323859614838,0.04349720545594238,-0.4164637365267465,0.02717342776215048,0.004055766049582132,-0.02954383838860153,0.0,70.0,255.0,255.0,255.0
258,12.9,16.126919394969253,10.794811503423764,-2.8201598550120033,0.3894820413669464,0.04370278093222879,-0.4179466182500313,0.026740140441106064,0.004055604961905601,-0.029666381496129546,0.0,70.0,255.0,255.0,255.0
259,12.950000000000001,16.146426957579706,10.79700178174233,-2.8410943454156454,0.3908064000055944,0.04390276595213294,-0.41943037467635946,0.026196150080082248,0.003833824643884043,-0.02954646147754758,0.0,70.0,255.0,255.0,255.0
260,13.0,16.166000034969812,10.799201780018977,-2.8621028924796392,0.39210165637495464,0.044086163396617195,-0.4209012643977861,0.025602571110994177,0.0033829017455744292,-0.029116722065491984,0.0,70.0,255.0,255.0,255.0
261,13.05,16.1856371232172,10.801410398081991,-2.883184471855424,0.39336665711669383,0.04424105612669038,-0.42234204688290866,0.025003856580951833,0.002719428160169457,-0.028359916976716804,0.0,70.0,255.0,255.0,255.0
262,13.100000000000001,16.20533670068148,10.803625885631646,-2.90433709716793,0.3946020420330498,0.04435810621263414,-0.42373725609545776,0.024448349508432443,0.0019602860787060195,-0.027385122617484825,0.0,70.0,255.0,255.0,255.0
263,13.15,16.225097327420507,10.805846208703255,-2.92555819746497,0.3958114920675371,0.04443708473456098,-0.42508055914465714,0.02400449132586857,0.0012993467285227212,-0.026387902528623997,0.0,70.0,255.0,255.0,255.0
264,13.200000000000001,16.244917849888235,10.808069594105103,-2.946845153082396,0.3970024911656367,0.04448804088548641,-0.42637604634832016,0.023741739762428438,0.0009379091936878581,-0.02557373736800095,0.0,70.0,255.0,255.0,255.0
265,13.25,16.26479757653707,10.810295012791803,-2.968195802099802,0.3981856660437799,0.04453087565392977,-0.42763793288145724,0.023717761825281514,0.001077237536506459,-0.02513527046867914,0.0,70.0,255.0,255.0,255.0
266,13.3,16.284736416492613,10.812522681670496,-2.9896089463705415,0.39937426734816484,0.04459576463913706,-0.4288895733951881,0.02395197112008418,0.0018023996029015166,-0.02516672177321766,0.0,70.0,255.0,255.0,255.0
267,13.350000000000001,16.304735003271887,10.814754589255717,-3.0110847594393206,0.40058086315578834,0.04471111561421992,-0.430154605058779,0.024389631079202445,0.00293684255030513,-0.025588491654238155,0.0,70.0,255.0,255.0,255.0
268,13.4,16.324794502808192,10.816993793231918,-3.0326244068764194,0.4018132304560851,0.04488944889416757,-0.4314484225606119,0.02492375905731592,0.0041515768891997595,-0.026228348716061944,0.0,70.0,255.0,255.0,255.0
269,13.450000000000001,16.344916326317495,10.819243534145134,-3.054229601695382,0.40307323906151993,0.0451262733031399,-0.4327774399303852,0.02543120322542336,0.0051089907945112145,-0.026899101871213915,0.0,70.0,255.0,255.0,255.0
270,13.5,16.365101826714344,10.821506420562232,-3.075902150869458,0.4043563507786274,0.04540034797361869,-0.4341383327477333,0.025786334966326763,0.0054801760807521305,-0.027410168087715903,0.0,70.0,255.0,255.0,255.0
271,13.55,16.385351961395358,10.823783568942495,-3.097643434970155,0.4056518725581526,0.04567429091121511,-0.4355184567391568,0.025922058472716003,0.005103887181334699,-0.027654221571138393,0.0,70.0,255.0,255.0,255.0
272,13.600000000000001,16.40566701397016,10.826073849653353,-3.1194539965433736,0.406948556625899,0.04591073669175216,-0.4369037549048471,0.02587676254037774,0.004142227169623425,-0.02766547952988141,0.0,70.0,255.0,255.0,255.0
273,13.65,16.426046817057948,10.82837464261167,-3.14133381046064,0.4082395488121904,0.04608851362817745,-0.43828500469214493,0.02573599692006212,0.0029253014256269694,-0.0275324555210954,0.0,70.0,255.0,255.0,255.0
274,13.700000000000001,16.44649096885138,10.83068270101617,-3.163282497012588,0.40952215631790523,0.04620326683431486,-0.43965700045695666,0.02558724686743119,0.0017921882344396067,-0.027337454214837464,0.0,70.0,255.0,255.0,255.0
275,13.75,16.46699903268974,10.832994969295102,-3.1852995105063355,0.4107982734989335,0.04626773245162141,-0.4410187501136287,0.025528879660541293,0.0010740394932540198,-0.02716401056037654,0.0,70.0,255.0,255.0,255.0
276,13.8,16.487570796201272,10.835309474261333,-3.207384372023951,0.41207504428395936,0.04631067078364026,-0.4423734015129943,0.02561256888320429,0.000948112277221469,-0.02706245254837647,0.0,70.0,255.0,255.0,255.0
277,13.850000000000001,16.508206537118134,10.837626036373466,-3.229536850657635,0.4133595303872539,0.04636254367934356,-0.4437249953684663,0.025782386359196607,0.0013252044819722641,-0.027028657825267643,0.0,70.0,255.0,255.0,255.0
278,13.9,16.528906749239997,10.839945728629267,-3.2517568715607976,0.414653282919879,0.04644319123183749,-0.4450762672955211,0.02593402482489182,0.001997100857664691,-0.0270436007611341,0.0,70.0,255.0,255.0,255.0
279,13.950000000000001,16.549671865410122,10.84227035549665,-3.274044477387187,0.4159529328697431,0.04656225376511003,-0.44642935544457973,0.02597272305600029,0.0027551700203076734,-0.027097281735688483,0.0,70.0,255.0,255.0,255.0
280,14.0,16.57050204252697,10.844601954005778,-3.2963998071052556,0.41725055522547905,0.046718708233868256,-0.4477859954690899,0.025802202332769753,0.003395693918761822,-0.027185817642916277,0.0,70.0,255.0,255.0,255.0
281,14.05,16.59139692093267,10.846942226320037,-3.318823076934096,0.4185331531030201,0.04690182315698621,-0.44914793720887136,0.025380579749523235,0.003798115924169565,-0.02730268152237869,0.0,70.0,255.0,255.0,255.0
282,14.100000000000001,16.612355357837274,10.849292136321477,-3.3413146008261427,0.41978861320043137,0.04709851982628521,-0.4505162636213278,0.024795463588134226,0.003961523668571942,-0.027419889169122413,0.0,70.0,255.0,255.0,255.0
283,14.15,16.633375782252713,10.851652078302665,-3.363874703296229,0.4210126994618335,0.047297975523843405,-0.4518899261257836,0.024206971379214792,0.003920048057359793,-0.027493141433865276,0.0,70.0,255.0,255.0,255.0
284,14.200000000000001,16.654456627783457,10.854021933873861,-3.386503593438721,0.42220931033835285,0.04749052463202119,-0.4532655777647143,0.0237746347981016,0.0037014440366078816,-0.027480132129120705,0.0,70.0,255.0,255.0,255.0
285,14.25,16.67559671328655,10.856401130765867,-3.4092012610727003,0.42339016294164367,0.04766811992750419,-0.4546379393386957,0.02365429235879901,0.003335166183937588,-0.027344746840229917,0.0,70.0,255.0,255.0,255.0
286,14.3,16.69679564407762,10.858788745866612,-3.4319673873725907,0.42457473957423275,0.04782404125041495,-0.4560000524487373,0.023918911654874364,0.002851685099791723,-0.027073021828138977,0.0,70.0,255.0,255.0,255.0
287,14.350000000000001,16.718054187243972,10.861183534890909,-3.454801266317574,0.4257820541071311,0.047953288437483366,-0.45734524152150957,0.024471283768079388,0.002309540005818178,-0.026693557059731532,0.0,70.0,255.0,255.0,255.0
288,14.4,16.739373849488334,10.86358407471036,-3.4777019115247416,0.4270218679510407,0.04805499525099677,-0.45866940815471047,0.025121726021382074,0.0018035460731979924,-0.026262901102747094,0.0,70.0,255.0,255.0,255.0
289,14.450000000000001,16.760756374039076,10.865989034416009,-3.500668207133045,0.4282942267092693,0.048133643044803165,-0.4599715316317843,0.025675963853544204,0.0014380281903925152,-0.02584167692765149,0.0,70.0,255.0,255.0,255.0
290,14.5,16.78220327215926,10.86839743901484,-3.52369906468792,0.4295894643363951,0.04819879807003602,-0.4612535758474756,0.025944637555497252,0.001307650668636029,-0.02547920431994477,0.0,70.0,255.0,255.0,255.0
291,14.55,16.803715320472715,10.870808914223012,-3.5467935647177926,0.43088869046481904,0.04826440811166677,-0.46251945206377876,0.025830486920241924,0.0014556564972068031,-0.02520523116480433,0.0,70.0,255.0,255.0,255.0
292,14.600000000000001,16.825292141205743,10.873223879826007,-3.569951009894298,0.4321725130284193,0.0483443637197567,-0.46377409896395605,0.025404809267470796,0.0018358407855245673,-0.025043178629324814,0.0,70.0,255.0,255.0,255.0
293,14.65,16.846932571775557,10.875643350594988,-3.593170974614188,0.4334291713915661,0.048447992190219225,-0.46502376992671124,0.02482071660985241,0.0023494040144456108,-0.02501795811822305,0.0,70.0,255.0,255.0,255.0
294,14.700000000000001,16.8686350583449,10.878068679045029,-3.616453386886969,0.43465458468940454,0.04857930412120126,-0.46627589477577835,0.024234796497069055,0.0028869560201982836,-0.025146446873458572,0.0,70.0,255.0,255.0,255.0
295,14.75,16.890398030244498,10.880501281007108,-3.639798564091766,0.435852651041273,0.04873668779223905,-0.4675384146140571,0.023803148096135374,0.003346212492871814,-0.025442398583752635,0.0,70.0,255.0,255.0,255.0
296,14.8,16.912220323449027,10.882942347824253,-3.6632072283483748,0.4370348994990181,0.04891392537048844,-0.4688201346341536,0.0236119145586855,0.003666201733842911,-0.025900365867315145,0.0,70.0,255.0,255.0,255.0
297,14.850000000000001,16.9341015201944,10.885392673544157,-3.6866805775551814,0.43821384249714157,0.049103307965623344,-0.4701284512007886,0.02362584279715918,0.0038307332163256547,-0.02645288926212963,0.0,70.0,255.0,255.0,255.0
298,14.9,16.95604170769874,10.887852678620815,-3.7102200734684536,0.439397483778734,0.04929699869212101,-0.4714654235603666,0.023759883064045084,0.00383436234336898,-0.026984427263165855,0.0,70.0,255.0,255.0,255.0
299,14.950000000000001,16.978041268572273,10.890322373413369,-3.733827119911218,0.4405898308035461,0.04948674419996024,-0.4728268939271052,0.023931050622394423,0.00367466054900234,-0.02737356121955692,0.0,70.0,255.0,255.0,255.0
300,15.0,17.000100690779096,10.892801353040811,-3.757502762861164,0.44179058884097344,0.04966446474702124,-0.4742027796823223,0.024050788708152027,0.0033515086846236386,-0.027507192021181126,0.0,70.0,255.0,255.0,255.0
301,15.05,17.02222032745637,10.895288819888071,-3.7812473978794503,0.4429949096743613,0.049821895068422606,-0.4755776131292233,0.024069080954802757,0.002878510925796718,-0.027332792545475826,0.0,70.0,255.0,255.0,255.0
302,15.100000000000001,17.044400181746532,10.897783542547653,-3.8050605241740865,0.4441974969364537,0.049952315839600914,-0.47693605893686986,0.024012751943658373,0.0023220655098299403,-0.026909739846692204,0.0,70.0,255.0,255.0,255.0
303,15.15,17.066640077150016,10.900284051472031,-3.8289410037731373,0.4453961848687271,0.0500541016194056,-0.47826858711389253,0.02393797957118693,0.0017939857741566811,-0.026360696465310696,0.0,70.0,255.0,255.0,255.0
304,15.200000000000001,17.088939800233405,10.902788952709594,-3.8528873828854757,0.4465912948935724,0.05013171441701658,-0.4795721285834009,0.02389480054674209,0.0014133761427004288,-0.02581879542775667,0.0,70.0,255.0,255.0,255.0
305,15.25,17.111299206639373,10.905297222913733,-3.8768982166314774,0.4477856649234013,0.05019543923367564,-0.4808504666566682,0.023941669100935314,0.0012917620919594697,-0.02541685197940957,0.0,70.0,255.0,255.0,255.0
306,15.3,17.133718366725745,10.907808496632962,-3.9009724295511425,0.44898546180366594,0.05026089062621253,-0.4821138137813419,0.024105048336764412,0.0014802673826252999,-0.025227951130091242,0.0,70.0,255.0,255.0,255.0
307,15.350000000000001,17.15619775281974,10.910323311976354,-3.9251095980096116,0.45019616975707777,0.05034346597193817,-0.4833732617696773,0.024323149427019075,0.0019165292208356277,-0.025224514987920443,0.0,70.0,255.0,255.0,255.0
308,15.4,17.178737983701453,10.912842843230155,-3.9493097557281103,0.45141777674636785,0.05045254354829609,-0.4846362652801339,0.02448819865144003,0.00247333092495694,-0.02533726240030454,0.0,70.0,255.0,255.0,255.0
309,15.450000000000001,17.201339530494376,10.915368566331184,-3.973573224537625,0.45264498962222177,0.05059079906443387,-0.4859069880097078,0.024496460477152482,0.0030123476987498066,-0.025497457535283985,0.0,70.0,255.0,255.0,255.0
310,15.5,17.224002482663675,10.917901923136599,-3.997900454529081,0.4538674227940831,0.05075377831817107,-0.4871860110336623,0.024234562859604125,0.003393424299247272,-0.025633418708759237,0.0,70.0,255.0,255.0,255.0
311,15.55,17.246726272773785,10.920443944163,-4.022291825640991,0.4550684459081822,0.050930141494358594,-0.4884703298805837,0.023656926163795333,0.0035409323658086578,-0.02570262904164622,0.0,70.0,255.0,255.0,255.0
312,15.600000000000001,17.269509327254493,10.922994937286035,-4.046747487517139,0.45623311541046263,0.05110787155475194,-0.48975627393782695,0.022896421910445497,0.0034954539705367438,-0.02571313260308905,0.0,70.0,255.0,255.0,255.0
313,15.65,17.29234958431483,10.925554731318476,-4.071267453034774,0.45735808809922673,0.05127968689141227,-0.4910416431408926,0.022188293423752725,0.0033482150005426092,-0.025688482371233334,0.0,70.0,255.0,255.0,255.0
314,15.700000000000001,17.315245136064416,10.928122905975176,-4.095851651831229,0.4584519447528379,0.0514426930548062,-0.4923251221749503,0.021765418150820892,0.0031910325940742723,-0.02564517396450583,0.0,70.0,255.0,255.0,255.0
315,15.75,17.338194778790115,10.930699000623957,-4.120499965252269,0.4595346299143088,0.051598790150819696,-0.4936061605373432,0.021860032839526866,0.0031265220634679736,-0.025597445213598746,0.0,70.0,255.0,255.0,255.0
316,15.8,17.361198599055847,10.933282784990258,-4.145212267884963,0.4606379480367906,0.051755345261152996,-0.49488486669631016,0.022574846074618904,0.0032087770485134115,-0.025554819416750973,0.0,70.0,255.0,255.0,255.0
317,15.850000000000001,17.384258573593794,10.935874535150072,-4.1699884519219,0.4617921145217707,0.05191966785567104,-0.4961616424790183,0.02372491584594627,0.0033807224960824556,-0.025522954600099013,0.0,70.0,255.0,255.0,255.0
318,15.9,17.407377810508024,10.938474751775825,-4.194828432132865,0.4630104396213852,0.05209341751076124,-0.49743716215632006,0.024963196418781308,0.0035355806357273423,-0.025508808114693693,0.0,70.0,255.0,255.0,255.0
319,15.950000000000001,17.430559617555932,10.941083876901148,-4.219732168137532,0.46428843416364884,0.05227322591924377,-0.49871252329048765,0.025936319132924268,0.0035764356780987328,-0.025521846606668674,0.0,70.0,255.0,255.0,255.0
320,16.0,17.45380665392439,10.94370207436775,-4.244699684461914,0.46560407153467764,0.052451061078571115,-0.4999893468169869,0.026297333754143892,0.0034045433892515575,-0.0255768004370438,0.0,70.0,255.0,255.0,255.0
321,16.05,17.4771200247094,10.946328983009005,-4.269731102819231,0.46691816753906323,0.05261368025816893,-0.501270203334192,0.025876603292118716,0.0029768731923951464,-0.025678093290881776,0.0,70.0,255.0,255.0,255.0
322,16.1,17.500498470678295,10.948963442393566,-4.294826704795333,0.4681917318638895,0.05274874839781063,-0.5025571561460751,0.024853798159085727,0.0023834276074552463,-0.025795048996535286,0.0,70.0,255.0,255.0,255.0
323,16.150000000000002,17.52393919789579,10.951603857848786,-4.319986818433838,0.4694035473549718,0.05285202301891445,-0.5038497082338456,0.023589876609619864,0.0017885300566788942,-0.025876285170145508,0.0,70.0,255.0,255.0,255.0
324,16.2,17.547438825413792,10.954248644695458,-4.345211675618717,0.4705507195248515,0.05292760140347852,-0.5051447846630897,0.02245536591800601,0.0013559985866606894,-0.025874152895521974,0.0,70.0,255.0,255.0,255.0
325,16.25,17.570994269848274,10.956896617989134,-4.370501296900147,0.4716490839467724,0.05298762287758052,-0.5064371235233978,0.021822613497235466,0.0012472857312317842,-0.02574738101062124,0.0,70.0,255.0,255.0,255.0
326,16.3,17.59460373380847,10.959547406983216,-4.395855387971057,0.47273298087457505,0.0530523299766017,-0.5077195227641518,0.021884801365246176,0.0015375297154562872,-0.02547900788592017,0.0,70.0,255.0,255.0,255.0
327,16.35,17.61826756793573,10.962201850986794,-4.421273249176562,0.473837564083297,0.05314137584912615,-0.5089850243119898,0.02249084723011663,0.002121091548268339,-0.02509862097577198,0.0,70.0,255.0,255.0,255.0
328,16.400000000000002,17.6419874902168,10.964861544568128,-4.446753890402256,0.4749820655975867,0.05326443913142853,-0.510229384861729,0.023327180591437013,0.00279393550108864,-0.02466511880339084,0.0,70.0,255.0,255.0,255.0
329,16.45,17.66576577449549,10.967528294899937,-4.472296187662735,0.4761702821424407,0.05342076939923501,-0.5114515361923289,0.02408184423217108,0.003346796083292247,-0.024241028989813174,0.0,70.0,255.0,255.0,255.0
330,16.5,17.689604518431043,10.970203621508052,-4.497899044021489,0.4773902500208038,0.053599118739757756,-0.5126534877607103,0.02443626820358702,0.0035703230100381234,-0.02387768484517494,0.0,70.0,255.0,255.0,255.0
331,16.55,17.71350479949757,10.972888206773913,-4.523561536438806,0.47861390896279943,0.053777801700238825,-0.5138393046768464,0.024224843927456163,0.003359721233486823,-0.023605875166143875,0.0,70.0,255.0,255.0,255.0
332,16.6,17.737465909327323,10.975581401678076,-4.549282974489174,0.47981273441354944,0.05393509086310644,-0.5150140752773247,0.02358915324549571,0.002817614124595025,-0.02344776313742969,0.0,70.0,255.0,255.0,255.0
333,16.650000000000002,17.761486072938926,10.978281715860223,-4.575062943966539,0.480972824287349,0.05405956311269833,-0.5161840809905893,0.022814221538780544,0.0021503200132499956,-0.023425943578825326,0.0,70.0,255.0,255.0,255.0
334,16.7,17.785563191756058,10.980987357989346,-4.600901382588233,0.4820941565674275,0.05415012286443144,-0.5173566696352072,0.022177630111741564,0.0015633905071865684,-0.023555017857912475,0.0,70.0,255.0,255.0,255.0
335,16.75,17.80969548859567,10.983696728146667,-4.626798610930059,0.48319058729852316,0.054215902163416985,-0.5185395827763806,0.02196424842075828,0.0012553849325414035,-0.023845842313185983,0.0,70.0,255.0,255.0,255.0
336,16.8,17.83388225048591,10.986408948205687,-4.652755340865871,0.4842905814095033,0.05427566135768558,-0.5197412538665258,0.022315683067120062,0.0013301587767244882,-0.02429180380456586,0.0,70.0,255.0,255.0,255.0
337,16.85,17.85812454673662,10.989124294282435,-4.678772736316712,0.48542215560523516,0.054348918041089433,-0.5209687631568372,0.02306713186221998,0.0017230440269244696,-0.024829487313038356,0.0,70.0,255.0,255.0,255.0
338,16.900000000000002,17.882424466046434,10.991843840009796,-4.704852217181554,0.4865972945957253,0.054447965760378025,-0.5222242025978296,0.023901341176824076,0.0022901923717455475,-0.02535026772028104,0.0,70.0,255.0,255.0,255.0
339,16.95,17.90678427619619,10.994569090858473,-4.730995156576495,0.48781228972291757,0.05457793727826399,-0.5235037899288653,0.024507775179571922,0.002886355175135691,-0.02573992521899271,0.0,70.0,255.0,255.0,255.0
340,17.0,17.931205695018726,10.997301633737623,-4.757202596174441,0.4890480721136825,0.054736601277891594,-0.5247981951197289,0.024574803384780353,0.003372146583657809,-0.02589493657829678,0.0,70.0,255.0,255.0,255.0
341,17.05,17.95568908340756,11.000042750986262,-4.783474976088468,0.4902697700613956,0.05491515193662977,-0.5260932835866949,0.02395205084511076,0.0036668697660502403,-0.025766396796278457,0.0,70.0,255.0,255.0,255.0
342,17.1,17.980232672024865,11.002793148931286,-4.80981192453311,0.4914432771981936,0.05510328825449662,-0.5273748347993568,0.022829498789178615,0.003773846130883385,-0.02539876313436551,0.0,70.0,255.0,255.0,255.0
343,17.150000000000002,18.00483341112738,11.005553079811712,-4.8362124595684035,0.49255271994031347,0.05529253654971811,-0.5286331599001315,0.02157407342657791,0.003724434976959401,-0.024889349175438724,0.0,70.0,255.0,255.0,255.0
344,17.2,18.029487944018896,11.008322402586257,-4.8626752405231235,0.4936006845408514,0.05547573175219256,-0.5298637697169006,0.020550616491377127,0.0035517016129915646,-0.024344768445327958,0.0,70.0,255.0,255.0,255.0
345,17.25,18.054193479581464,11.011100652986931,-4.889198836540094,0.4946077815894512,0.055647706711017264,-0.5310676367446643,0.02011248209825567,0.0033000380565084697,-0.023862430022081327,0.0,70.0,255.0,255.0,255.0
346,17.3,18.07894872217784,11.013887173257359,-4.91578200419759,0.49561193275067694,0.055805735557843406,-0.5322500127191088,0.02043648651230967,0.0030013365183378937,-0.023502096190330946,0.0,70.0,255.0,255.0,255.0
347,17.35,18.10375467285653,11.016681226542715,-4.9424238378120045,0.49665143024068215,0.05594784036285105,-0.5334178463636974,0.02136498952829413,0.002662410610376753,-0.023291823785864807,0.0,70.0,255.0,255.0,255.0
348,17.400000000000002,18.12861386520191,11.019481957293644,-4.96912378883396,0.49774843170350636,0.05607197661888108,-0.5345791950976952,0.022571409406424436,0.002292906881606882,-0.023256811102889685,0.0,70.0,255.0,255.0,255.0
349,17.45,18.153529516026882,11.022288424204604,-4.995881757321774,0.4989085711813246,0.05617713105101174,-0.5357435274739863,0.023723698249611402,0.0019125260177332848,-0.023420488178693688,0.0,70.0,255.0,255.0,255.0
350,17.5,18.178504722320042,11.025099670398745,-5.022698141581358,0.5001208015284675,0.05626322922065441,-0.5369212439155646,0.02450328687153558,0.001523738485964543,-0.023811334008438934,0.0,70.0,255.0,255.0,255.0
351,17.55,18.20354159617973,11.027914747126669,-5.04957388171333,0.5013588998684781,0.056329504899608196,-0.5381246608748302,0.024735942498921304,0.0011344974479854386,-0.02442624408374172,0.0,70.0,255.0,255.0,255.0
352,17.6,18.22864061230689,11.030732620888706,-5.076510607668841,0.5025943957783596,0.05637667896545295,-0.5393638683239388,0.024479587384718116,0.0008138074647945359,-0.02515310256212544,0.0,70.0,255.0,255.0,255.0
353,17.650000000000002,18.253801035757565,11.033552415023214,-5.103510268545724,0.50380685860695,0.05641088564608765,-0.5406399711310428,0.023890405500637257,0.0006666414586575797,-0.02580256725304153,0.0,70.0,255.0,255.0,255.0
354,17.7,18.279021298167585,11.036373709453315,-5.130574604781946,0.5049834363284234,0.05644334311131871,-0.5419441250492429,0.023128390043325453,0.0007847677423455934,-0.02618101776725723,0.0,70.0,255.0,255.0,255.0
355,17.75,18.304299379390407,11.039196749334346,-5.157704681050649,0.5061196976112825,0.05648936242032221,-0.5432580729077685,0.022354370414490177,0.0012569427317643544,-0.02610025259119908,0.0,70.0,255.0,255.0,255.0
356,17.8,18.329633267928713,11.042022645695347,-5.1849004120727225,0.5072188733698724,0.05656903738449515,-0.5445541503083628,0.021671491744967852,0.0021087855774482023,-0.0254786151201003,0.0,70.0,255.0,255.0,255.0
357,17.85,18.355021266727395,11.044853653072796,-5.212160096081485,0.5082868467857793,0.05670024097806703,-0.5458059344197785,0.021113863730803928,0.0031997488076029867,-0.024462013052506393,0.0,70.0,255.0,255.0,255.0
358,17.900000000000002,18.38046195260729,11.047692669793154,-5.2394810055147,0.5093302597429528,0.056889012265255445,-0.5470003516136135,0.020712283276225207,0.004280620524532708,-0.023328351120888158,0.0,70.0,255.0,255.0,255.0
359,17.95,18.40595429270169,11.050542554299321,-5.266860131242846,0.5103580751134018,0.0571283030305203,-0.5481387695318674,0.020507916400447357,0.005096654761693742,-0.022367701823711172,0.0,70.0,255.0,255.0,255.0
360,18.0,18.43149776011863,11.053405500096206,-5.294294882467887,0.5113810513829975,0.05739867774142482,-0.5492371217959846,0.020531259441369798,0.005412499911194857,-0.021867655626284233,0.0,70.0,255.0,255.0,255.0
361,18.05,18.45709239783999,11.056282422073464,-5.321783843422445,0.5124112010575388,0.057669553021639786,-0.5503255350944958,0.02078582944982088,0.005116047887376851,-0.021972582149487607,0.0,70.0,255.0,255.0,255.0
362,18.1,18.482738880224385,11.05917245539837,-5.349327435977337,0.5134596343279796,0.057910282530162505,-0.5514343800109334,0.021221414569438934,0.004316148353566973,-0.02255073334040958,0.0,70.0,255.0,255.0,255.0
363,18.150000000000002,18.508438361272788,11.06207345032648,-5.376927281423538,0.5145333425144827,0.05810116785699648,-0.5525806084285367,0.021742326194384987,0.0032436037175287424,-0.023332140151843817,0.0,70.0,255.0,255.0,255.0
364,18.2,18.534192214475834,11.06498257218407,-5.40458549682019,0.5156338669474181,0.05823464290191538,-0.5537675940261177,0.022234256708841826,0.002147587570000553,-0.024041601510571553,0.0,70.0,255.0,255.0,255.0
365,18.25,18.56000174796753,11.067896914616671,-5.43230404082615,0.5167567681853669,0.05831592661399654,-0.5549847685795939,0.022580545199701874,0.001269094917866198,-0.0244011528751642,0.0,70.0,255.0,255.0,255.0
366,18.3,18.58586789129437,11.07081416484547,-5.46008397367815,0.5178919214673883,0.058361552393702,-0.5562077093136342,0.02271898999026689,0.0007459972319878716,-0.024264995676315237,0.0,70.0,255.0,255.0,255.0
367,18.35,18.61179094011427,11.073733069856042,-5.487924811757513,0.5190286671843936,0.058390526337195325,-0.5574112681472254,0.022684114357574003,0.0005683850522686384,-0.023741393912413145,0.0,70.0,255.0,255.0,255.0
368,18.400000000000002,18.63777075801281,11.076653217479189,-5.515825100492872,0.5201603329031457,0.05841839089892886,-0.5585818487048755,0.02255393642158765,0.0006739156541257785,-0.023055908784375134,0.0,70.0,255.0,255.0,255.0
369,18.45,18.663806973404583,11.079574908945935,-5.543782996628001,0.5212840608265523,0.0584579179026079,-0.5597168590256629,0.022408856298028468,0.0009986826013275163,-0.02242626509474377,0.0,70.0,255.0,255.0,255.0
370,18.5,18.689899164095465,11.08249900926945,-5.5717967863954385,0.5224012185329485,0.058518259159061614,-0.5608244752143499,0.022338541110400456,0.0014751297415571685,-0.022059667605223154,0.0,70.0,255.0,255.0,255.0
371,18.55,18.716047095257878,11.08542673486184,-5.599865444149436,0.5235179149375924,0.05860543087676362,-0.5619228257861852,0.022390984481290843,0.0020482149352574197,-0.022067295284422528,0.0,70.0,255.0,255.0,255.0
372,18.6,18.742250955589224,11.088359552357126,-5.627989068974057,0.5246403169810776,0.058723080652587356,-0.5630312047427921,0.022521195602109856,0.002650404677595475,-0.022398283084346104,0.0,70.0,255.0,255.0,255.0
373,18.650000000000002,18.768511126955985,11.0912990429271,-5.656168564623715,0.5257700344978034,0.05887047134452317,-0.5641626540946199,0.02264369968223434,0.003178122943126027,-0.022929632636259356,0.0,70.0,255.0,255.0,255.0
374,18.7,18.794827959039004,11.094246599491578,-5.684405334383519,0.526904686949301,0.05904089294689996,-0.565324168006418,0.022683231851416963,0.00351250719852203,-0.023540051397130668,0.0,70.0,255.0,255.0,255.0
375,18.75,18.821201595650916,11.09720313222179,-5.712700981424357,0.528038357682945,0.05922172206437537,-0.5665166592343329,0.02256934630224805,0.003534348820011246,-0.02412418602828481,0.0,70.0,255.0,255.0,255.0
376,18.8,18.8476317948073,11.100168771698016,-5.741057000306952,0.5291616215795258,0.05939432782890108,-0.5677365866092465,0.022269985834810768,0.003193916921162554,-0.024613049293620293,0.0,70.0,255.0,255.0,255.0
377,18.85,18.874117757808868,11.10314256500468,-5.769474640085281,0.5302653562664261,0.059541113756491626,-0.568977964163695,0.021832874794824875,0.0025944717613413104,-0.024949110114036444,0.0,70.0,255.0,255.0,255.0
378,18.900000000000002,18.90065833043394,11.106122883073665,-5.797954796723322,0.5313449090590083,0.059653775005035214,-0.5702314976206502,0.021350332451319787,0.0019299562085350885,-0.025061085145683393,0.0,70.0,255.0,255.0,255.0
379,18.95,18.92725224871477,11.109107942505183,-5.8264977898473465,0.5324003895115581,0.059734109377345135,-0.5714840726782633,0.020917703475475946,0.0014040624966682458,-0.02488075542341761,0.0,70.0,255.0,255.0,255.0
380,19.0,18.953898369385097,11.1120962940114,-5.855103203991148,0.5334366794065559,0.05979418125470204,-0.5727195731629919,0.020628083003515485,0.0012234656544762856,-0.024339625577685098,0.0,70.0,255.0,255.0,255.0
381,19.05,18.980595916655425,11.115087360630653,-5.883769747163646,0.5344631978119097,0.05985645594279276,-0.5739180352360318,0.020529072179087393,0.00148940409481213,-0.02342568236644027,0.0,70.0,255.0,255.0,255.0
382,19.1,19.00734468916629,11.118081939605679,-5.912495007514751,0.5354895866244647,0.05994312166418325,-0.575062141399636,0.02058460125375916,0.0020863003527438195,-0.022287887182770305,0.0,70.0,255.0,255.0,255.0
383,19.150000000000002,19.03414487531787,11.121081672797072,-5.941275961303609,0.5365216579372856,0.060065085978067145,-0.5761468239543088,0.02071767447837658,0.0027874601459032533,-0.02118593354110132,0.0,70.0,255.0,255.0,255.0
384,19.200000000000003,19.060996854960017,11.124088448203485,-5.970109689910182,0.5375613540723023,0.06022186767877358,-0.5771807347537461,0.020845954250248155,0.0033646693866629107,-0.020388675160365466,0.0,70.0,255.0,255.0,255.0
385,19.25,19.0879010107251,11.127103859564949,-5.998994034778984,0.5386062533623104,0.060401552916733436,-0.5781856914703454,0.020874312355445568,0.0035878258600519075,-0.020153302336911594,0.0,70.0,255.0,255.0,255.0
386,19.3,19.114857480296248,11.130128603495159,-6.027928259057217,0.5396487853078469,0.06058065026477877,-0.5791960649874373,0.02075423826894962,0.003341893274644292,-0.02059853359526187,0.0,70.0,255.0,255.0,255.0
387,19.35,19.141865889255886,11.133161924591427,-6.056913641277728,0.5406816771892053,0.060735742244197866,-0.5802455448298716,0.020549652591839163,0.0027457347528070386,-0.021570390106084858,0.0,70.0,255.0,255.0,255.0
388,19.400000000000002,19.16892564801517,11.136202177719579,-6.085952813540204,0.5417037505670308,0.06085522374005947,-0.5813531039980457,0.020377198072552005,0.0020347952812471704,-0.022762453416547146,0.0,70.0,255.0,255.0,255.0
389,19.450000000000003,19.19603626431259,11.139247446965433,-6.115048951677532,0.5427193969964605,0.06093922177232258,-0.5825217901715263,0.020345565775059526,0.0014438333826305438,-0.023852282863057184,0.0,70.0,255.0,255.0,255.0
390,19.5,19.223197587714814,11.14229609989681,-6.1442049925573565,0.5437383071445367,0.060999607078322526,-0.5837383322843515,0.020570611628301094,0.0012091936094194011,-0.024523155751143833,0.0,70.0,255.0,255.0,255.0
391,19.55,19.250410095027043,11.145347407673265,-6.173422784905967,0.5447764581592907,0.06106014113326452,-0.5849741057466407,0.021101060988826248,0.0014495962343374913,-0.024607409358967658,0.0,70.0,255.0,255.0,255.0
392,19.6,19.277675233530744,11.148402114010137,-6.202702403132021,0.5458484132434194,0.061144566701756276,-0.5861990732202482,0.021815016820170285,0.002045352712443105,-0.02419959668156224,0.0,70.0,255.0,255.0,255.0
393,19.650000000000002,19.304994936351385,11.15146186434344,-6.232042692227992,0.5469579598413077,0.06126467640450883,-0.5873940654147969,0.02249446563062918,0.002758766653876421,-0.023514369342514385,0.0,70.0,255.0,255.0,255.0
394,19.700000000000003,19.332371029514874,11.154528581650588,-6.2614418096735,0.5480978598064823,0.06142044336714392,-0.5885505101544997,0.022925722043254382,0.0033534236537846596,-0.02276927963533737,0.0,70.0,255.0,255.0,255.0
395,19.75,19.359804722332033,11.157603908680155,-6.290897743243442,0.5492505320456331,0.0616000187698873,-0.5896709933783306,0.02290328775345074,0.003591436997396613,-0.02218204668729129,0.0,70.0,255.0,255.0,255.0
396,19.8,19.387296082719438,11.160688583527577,-6.320408909011333,0.5503881885818274,0.06177958706688358,-0.5907687148232288,0.022333918707673206,0.0033531483621729308,-0.021877376753209887,0.0,70.0,255.0,255.0,255.0
397,19.85,19.414843541190216,11.163781867386843,-6.349974614725765,0.5514839239164004,0.06193533360610459,-0.5918587310536516,0.02135652721371173,0.0027582623248534333,-0.021826654403067636,0.0,70.0,255.0,255.0,255.0
398,19.900000000000002,19.442444475111078,11.166882116888187,-6.3795947821166985,0.5525238413031985,0.06205541329936892,-0.5929513802635356,0.020240370639612593,0.002044730177530596,-0.021946316300258673,0.0,70.0,255.0,255.0,255.0
399,19.950000000000003,19.470095925320535,11.16998740871678,-6.4092697527521185,0.5535079609803617,0.06213980662385765,-0.5940533626836775,0.0192638071236928,0.001449045427293072,-0.022162999528152483,0.0,70.0,255.0,255.0,255.0
400,20.0,19.497795271209114,11.173096097550573,-6.439000118385066,0.5544502220155678,0.06220031784209823,-0.5951676802163508,0.018696237359705492,0.0012090211054527344,-0.0224087041198473,0.0,70.0,255.0,255.0,255.0
401,20.05,19.525540947522092,11.17620744050099,-6.468786520773754,0.5553775847163323,0.062260708734402925,-0.5962942330956622,0.01867655089569098,0.0014443837430988538,-0.02263702302141013,0.0,70.0,255.0,255.0,255.0
402,20.1,19.553333029680747,11.179322168424013,-6.4986295416946325,0.5563178771051369,0.062344756216408115,-0.5974313825184918,0.01911076243530374,0.0020361900629595198,-0.022814718106634047,0.0,70.0,255.0,255.0,255.0
403,20.150000000000002,19.581172735232606,11.182441916122631,-6.528529659025603,0.5572886609598626,0.06246432774069888,-0.5985757049063256,0.019792163696408238,0.002747720562368272,-0.02289859389499327,0.0,70.0,255.0,255.0,255.0
404,20.200000000000003,19.609061895776733,11.185568601198083,-6.558487112185265,0.5582970934747777,0.06261952827264494,-0.5997212419079911,0.02050576274861271,0.0033438212099667908,-0.02283923507375718,0.0,70.0,255.0,255.0,255.0
405,20.25,19.637002444580084,11.188703868949895,-6.588501783216402,0.5593392372347239,0.06279870986169556,-0.6008596284137013,0.021031762809897714,0.003588515876629117,-0.022583136833809192,0.0,70.0,255.0,255.0,255.0
406,20.3,19.664995819500206,11.191848472184253,-6.618573075026635,0.5604002697557675,0.06297837986030785,-0.6019795555913721,0.02124761663857555,0.0033627432388882994,-0.02211401833962512,0.0,70.0,255.0,255.0,255.0
407,20.35,19.69304247155566,11.195001706935926,-6.648699738775539,0.5614639988985815,0.06313498418558439,-0.6030710302476638,0.021204991807266538,0.002782385348965022,-0.021516244731500933,0.0,70.0,255.0,255.0,255.0
408,20.400000000000002,19.721142219390064,11.198161970602811,-6.6788801780514016,0.5625207689364942,0.06325661839520436,-0.6041311800645222,0.021024727485396966,0.0020789796488784873,-0.020938375718770885,0.0,70.0,255.0,255.0,255.0
409,20.450000000000003,19.74929454844931,11.201327368775447,-6.709112856781991,0.5635664716471211,0.06334288215047224,-0.6051648678195409,0.020820740951421612,0.0014822431582572904,-0.020532834070152717,0.0,70.0,255.0,255.0,255.0
410,20.5,19.777498866554776,11.204496258817858,-6.739396664833356,0.5646028430316363,0.06340484271103008,-0.6061844634715374,0.020716664784714567,0.0012208780910683004,-0.02045072989753649,0.0,70.0,255.0,255.0,255.0
411,20.55,19.805754832752474,11.20766785304655,-6.769731303129145,0.5656381381255926,0.06346496995957907,-0.6072099408092946,0.020779043153851262,0.001411216730140552,-0.02076070315411016,0.0,70.0,255.0,255.0,255.0
412,20.6,19.834062680367335,11.210842755813816,-6.800117658914285,0.5666807473470215,0.06354596438404414,-0.6082605337869484,0.02094833793258033,0.0019488606154638433,-0.021355827442270936,0.0,70.0,255.0,255.0,255.0
413,20.650000000000002,19.862422907487176,11.214022449484954,-6.83055735650784,0.5677329719188506,0.06365985602112545,-0.6093455235535217,0.021110697925053046,0.002621768765465049,-0.0220315395927706,0.0,70.0,255.0,255.0,255.0
414,20.700000000000003,19.89083597755922,11.217208741415929,-6.861052211269637,0.5687918171395268,0.06380814126059065,-0.6104636877462255,0.02116418719886326,0.003220632729394879,-0.022576654753159175,0.0,70.0,255.0,255.0,255.0
415,20.75,19.91930208920113,11.220403263611013,-6.8916037252824625,0.569849390638737,0.06398191929406494,-0.6116031890288376,0.02100563399416444,0.0035440090561777993,-0.022777952900465692,0.0,70.0,255.0,255.0,255.0
416,20.8,19.947820916623094,11.223606933345335,-6.922212530172521,0.5708923805389432,0.06416254216620842,-0.6127414830362721,0.020589124497405464,0.003485816416670673,-0.022529882330246664,0.0,70.0,255.0,255.0,255.0
417,20.85,19.976391327255023,11.226819517827634,-6.95287787358609,0.5719083030884775,0.064330500935732,-0.6138561772618623,0.020003428025106018,0.003107580114480868,-0.021945853424565342,0.0,70.0,255.0,255.0,255.0
418,20.900000000000002,20.00501174693194,11.230039983438909,-6.983598147898707,0.5728927233414538,0.06447330017765651,-0.6149360683787286,0.019411548414538515,0.0025485373617684104,-0.02125005798578883,0.0,70.0,255.0,255.0,255.0
419,20.950000000000003,20.033680599589168,11.2332668478454,-7.0143714804239625,0.5738494579299314,0.06458535467190885,-0.6159811830604411,0.01897528414751548,0.001948512636573696,-0.02066712034389795,0.0,70.0,255.0,255.0,255.0
420,21.0,20.062396692724935,11.2364985189061,-7.045196266204751,0.5747902517562054,0.06466815144131388,-0.6170027804131184,0.01885278059106099,0.001439076360298941,-0.02042142120384227,0.0,70.0,255.0,255.0,255.0
421,21.05,20.09115962476479,11.239733662989531,-7.076071758465274,0.5757347359890375,0.06472926230793874,-0.6180233251808254,0.019118258390449228,0.0010982914975699032,-0.020626340951324096,0.0,70.0,255.0,255.0,255.0
422,21.1,20.11997016632384,11.242971445136893,-7.106998598722834,0.5767020775952503,0.06477798059107087,-0.6190654145082508,0.019673474442072347,0.0009371825637316533,-0.021175350933333448,0.0,70.0,255.0,255.0,255.0
423,21.150000000000002,20.148829832524314,11.246211461048638,-7.1379782999160994,0.5777020834332447,0.0648229805643119,-0.6201408602741587,0.020326744776966166,0.0009485573103873435,-0.02185363638993465,0.0,70.0,255.0,255.0,255.0
424,21.200000000000003,20.177740374667163,11.249453743193325,-7.16901268475025,0.5787347520729469,0.0648728363221096,-0.6212507781472443,0.02088190231930298,0.0011248039029965184,-0.022448290445620245,0.0,70.0,255.0,255.0,255.0
425,21.25,20.20670330773161,11.252698744680849,-7.200103377730824,0.579790273665175,0.06493546095461156,-0.6223856893187207,0.02114725296884501,0.0014556761794182194,-0.022752399579939464,0.0,70.0,255.0,255.0,255.0
426,21.3,20.23571940203368,11.255947289288786,-7.231251253682122,0.5808494773698314,0.06501840394005143,-0.6235260181052382,0.021024555230297892,0.0019220432355027128,-0.022658180437673536,0.0,70.0,255.0,255.0,255.0
427,21.35,20.26478825546859,11.259200585074854,-7.262455979541348,0.5818927291882048,0.06512766527816183,-0.6246515073624881,0.020588082131922647,0.0024628504696977416,-0.02223815076707325,0.0,70.0,255.0,255.0,255.0
428,21.400000000000002,20.2939086749525,11.262460055816602,-7.293716404418371,0.5829082855830237,0.0652646889870212,-0.6257498331819455,0.0199960645471009,0.002976394235432167,-0.02164998852940414,0.0,70.0,255.0,255.0,255.0
429,21.450000000000003,20.323079084026894,11.265727053973556,-7.325030962859542,0.5838923356429149,0.06542530470170504,-0.6268165062154285,0.019410393286989347,0.0033532973915839648,-0.021053004587656687,0.0,70.0,255.0,255.0,255.0
430,21.5,20.352297908516793,11.269002586286772,-7.3563980550399135,0.5848493249117226,0.0656000187261796,-0.6278551336407112,0.018994198211075286,0.003494209597221243,-0.02060497115143889,0.0,70.0,255.0,255.0,255.0
431,21.55,20.381564016518066,11.272287055846174,-7.387816476223613,0.5857917554640224,0.06577472566142717,-0.6288770033305724,0.0188362945820586,0.0033530227405265123,-0.02039371119062494,0.0,70.0,255.0,255.0,255.0
432,21.6,20.410877084063195,11.275580058852915,-7.419285755372971,0.5867329543699284,0.06593532100023225,-0.6298945047597737,0.018890560668083367,0.0029758910814692285,-0.020388409635785365,0.0,70.0,255.0,255.0,255.0
433,21.650000000000002,20.44023731195506,11.278880587946198,-7.450805926699591,0.5876808115308307,0.06607231476957409,-0.6309158442941509,0.01905347255792833,0.002462229385891135,-0.0205108850168223,0.0,70.0,255.0,255.0,255.0
434,21.700000000000003,20.469645165216278,11.282187290329873,-7.482377339802386,0.5886383016257213,0.06618154393882136,-0.6319455932614559,0.019222724995060503,0.00192149371187611,-0.02068589166972501,0.0,70.0,255.0,255.0,255.0
435,21.75,20.49910114211763,11.28549874234008,-7.514000486025736,0.5896030840303368,0.0662644641407617,-0.6329844334611234,0.01928397283563754,0.0014555040772634698,-0.020835734462032462,0.0,70.0,255.0,255.0,255.0
436,21.8,20.52860547361931,11.288813736743949,-7.545675783148498,0.590566698909285,0.06632709434654771,-0.6340291667076592,0.019177492550781494,0.001125352980579919,-0.020914200906485547,0.0,70.0,255.0,255.0,255.0
437,21.85,20.55815781200856,11.292131451774734,-7.577403402696502,0.5915208332854149,0.0663769994388197,-0.635075853551772,0.018970607598234324,0.0009499488418995838,-0.02092914309104188,0.0,70.0,255.0,255.0,255.0
438,21.900000000000002,20.587757556947853,11.29545143668783,-7.609183368503675,0.5924637596691085,0.06642208923073767,-0.6361220810167634,0.01878827365970892,0.0009391637464162272,-0.020904699842283492,0.0,70.0,255.0,255.0,255.0
439,21.950000000000003,20.61740418797547,11.298773660697808,-7.641015610798179,0.5933996606513858,0.06647091581346132,-0.6371663235360003,0.01874579297620471,0.0011002149406635908,-0.020857228267168182,0.0,70.0,255.0,255.0,255.0
440,22.0,20.64709752301299,11.302098528269177,-7.672900000857275,0.5943383389667289,0.06653211072480403,-0.6382078038434802,0.0189658545039606,0.0014397647689179394,-0.020800063028048044,0.0,70.0,255.0,255.0,255.0
441,22.05,20.676838021872143,11.305426871770289,-7.704836391182527,0.5952962461017819,0.06661489229035311,-0.6392463298388051,0.019500821464291107,0.0019465909765870038,-0.020742771896031797,0.0,70.0,255.0,255.0,255.0
442,22.1,20.70662714762317,11.308760017498212,-7.736824633841156,0.596288421113158,0.06672676982246273,-0.6402820810330834,0.020225237375370853,0.0025434743902152945,-0.020695017999816656,0.0,70.0,255.0,255.0,255.0
443,22.150000000000002,20.73646686398346,11.312099548752535,-7.768864599285835,0.597318769839319,0.06686923972937464,-0.6413158316387868,0.02091436520181844,0.003100276469680807,-0.020670315615678447,0.0,70.0,255.0,255.0,255.0
444,22.200000000000003,20.7663590246071,11.31544694147115,-7.800956217005035,0.5983798576333399,0.06703679746943081,-0.6423491125946512,0.021348042494295782,0.0034786721661461684,-0.02068519526154944,0.0,70.0,255.0,255.0,255.0
445,22.25,20.796304849746793,11.318803228499478,-7.8330995105453,0.5994535740887486,0.06721710694598926,-0.6433843511649417,0.021312655771765776,0.0035414275220801983,-0.020764013424301453,0.0,70.0,255.0,255.0,255.0
446,22.3,20.826304382015977,11.322168652165749,-7.865294652121529,0.6005111232105165,0.06739094022163883,-0.6444255139370814,0.02071162252583747,0.003227770291935883,-0.02091471150889035,0.0,70.0,255.0,255.0,255.0
447,22.35,20.856355962067845,11.325542322521642,-7.897542061939008,0.6015247363413323,0.06753988397518285,-0.6454758223158308,0.01969468998517243,0.0026406291217639932,-0.021090784909993943,0.0,70.0,255.0,255.0,255.0
448,22.400000000000002,20.88645685565011,11.328922640563267,-7.929842234353112,0.6024805922090337,0.06765500313381523,-0.6465345924280808,0.01854969676635676,0.001976094013755869,-0.021214037696282162,0.0,70.0,255.0,255.0,255.0
449,22.450000000000003,20.916604021288748,11.332307822835023,-7.962195521181816,0.603379706017968,0.06773749337655843,-0.647597226085459,0.017574298119527043,0.0014378702866579829,-0.02120870397384067,0.0,70.0,255.0,255.0,255.0
450,22.5,20.946794826251907,11.335696389900923,-7.994601956961658,0.6042380220209864,0.06779879016248103,-0.6486554628254648,0.01706352241050979,0.0012305158174186204,-0.020995911246579624,0.0,70.0,255.0,255.0,255.0
451,22.55,20.977027823490847,11.339087701851271,-8.027061067464363,0.605086058259019,0.0678605449583003,-0.649696817210117,0.017165975145871926,0.0014556145700339584,-0.020544582533599254,0.0,70.0,255.0,255.0,255.0
452,22.6,21.00730343207781,11.342482444396753,-8.05957163868267,0.6059546195355736,0.06794435161948442,-0.6507099210788247,0.01774789079611594,0.0020086011961240047,-0.01994361392156918,0.0,70.0,255.0,255.0,255.0
453,22.650000000000002,21.037623285444404,11.34588213701322,-8.092132059572245,0.6068608473386305,0.0680614050779127,-0.6516911786022739,0.01853495962045315,0.0026807554002417078,-0.01935260119925175,0.0,70.0,255.0,255.0,255.0
454,22.700000000000003,21.06798951681167,11.349288584904544,-8.124740756542897,0.6078081154976189,0.06821242715950859,-0.6526451811987499,0.01924819159881963,0.003263273261921995,-0.0189327627364122,0.0,70.0,255.0,255.0,255.0
455,22.75,21.098404096994166,11.35270337972917,-8.15739657769212,0.6087856664985125,0.0683877324041049,-0.6535844548759151,0.019605282558998738,0.0035525465051478022,-0.01884432294154692,0.0,70.0,255.0,255.0,255.0
456,22.8,21.128868083461523,11.356127358144954,-8.190099202030488,0.6097686437535188,0.06856768181002337,-0.6545296134929046,0.019458416287321256,0.0034431980019178354,-0.01916075788948035,0.0,70.0,255.0,255.0,255.0
457,22.85,21.159380961369518,11.359560147910173,-8.22284953904141,0.6107315081272446,0.06873205220429668,-0.6555005306648631,0.018920087155649412,0.0030103740181530725,-0.019770283878806083,0.0,70.0,255.0,255.0,255.0
458,22.900000000000002,21.189941234274247,11.363000563365384,-8.255649255096975,0.6116606524690837,0.06886871921183868,-0.6565066418807852,0.018223285262664035,0.002415476459738386,-0.020459193871147363,0.0,70.0,255.0,255.0,255.0
459,22.950000000000003,21.220547026616426,11.366447019831357,-8.28850020322949,0.612553836653511,0.06897359985027052,-0.6575464500519779,0.017593308445995604,0.0018223233793079885,-0.02100747118802815,0.0,70.0,255.0,255.0,255.0
460,23.0,21.2511966179396,11.369897923350411,-8.321403900102172,0.6134199833136833,0.06905095154976948,-0.658607388999588,0.017247282086785276,0.0013952888368251593,-0.021190806311288668,0.0,70.0,255.0,255.0,255.0
461,23.05,21.281889024947795,11.373352114986334,-8.354360942129448,0.6142785648621896,0.06911312873395303,-0.6596655306831067,0.017300219845495235,0.0012243673156220325,-0.020899099194338078,0.0,70.0,255.0,255.0,255.0
462,23.1,21.312624474425817,11.376809236223806,-8.387370453170483,0.6151500052982328,0.06917338828133168,-0.6606972989190218,0.017686352657264592,0.0012662663671392238,-0.020260658488702177,0.0,70.0,255.0,255.0,255.0
463,23.150000000000002,21.343404025477618,11.380269453814467,-8.42043067202135,0.616047200127916,0.06923975537066696,-0.661691596531977,0.018257307252156352,0.0014218142847965964,-0.019525215391880124,0.0,70.0,255.0,255.0,255.0
464,23.200000000000003,21.37422919443861,11.383733211760873,-8.45353961282368,0.6169757360234485,0.06931556970981134,-0.6626498204582099,0.01886528790215891,0.0015936336888344727,-0.01894392593744243,0.0,70.0,255.0,255.0,255.0
465,23.25,21.405101599079963,11.387201010785448,-8.486695654067171,0.6179337289181319,0.0693991187395504,-0.6635859891257212,0.01936959841835062,0.0016743167945421078,-0.018776414516707973,0.0,70.0,255.0,255.0,255.0
466,23.3,21.436022567330422,11.390673123634828,-8.519898211736253,0.6189126958652835,0.06948300138926555,-0.6645274619098807,0.019687930436873557,0.0016065588416935839,-0.019149418759845105,0.0,70.0,255.0,255.0,255.0
467,23.35,21.46699286866649,11.394149310924375,-8.55314840025816,0.6199025219618193,0.06955977462371976,-0.6655009310017057,0.01981813858158432,0.0014454929146978657,-0.019901674240685452,0.0,70.0,255.0,255.0,255.0
468,23.400000000000002,21.498012819526604,11.3976291010972,-8.586448304836424,0.620894509723442,0.06962755068073534,-0.6665176293339492,0.019783010203866525,0.0012954948399368504,-0.02072535248647256,0.0,70.0,255.0,255.0,255.0
469,23.450000000000003,21.529082319638835,11.401112065992448,-8.619800163191554,0.6218808229822059,0.06968932410771345,-0.667573466250353,0.019606052761744763,0.0012502281142801053,-0.021316964923201454,0.0,70.0,255.0,255.0,255.0
470,23.5,21.560200901824825,11.404598033507972,-8.653205651461459,0.6228551149996164,0.06975257349216335,-0.6686493258262693,0.019318333563589363,0.001403388040088771,-0.021371600890240927,0.0,70.0,255.0,255.0,255.0
471,23.55,21.591367831138797,11.408087323341665,-8.686665095774181,0.6238126563385649,0.06982966291172232,-0.6697106263393771,0.018947032767258065,0.0017964835624439957,-0.020742852804467304,0.0,70.0,255.0,255.0,255.0
472,23.6,21.62258216745868,11.411580999799144,-8.720176714095397,0.6247498182763422,0.06993222184840775,-0.6707236111067161,0.018521932179282885,0.0023499904134638427,-0.019619824035288502,0.0,70.0,255.0,255.0,255.0
473,23.650000000000002,21.65384281296643,11.415080545526505,-8.753737456884853,0.6256648495564932,0.07006466195306871,-0.6716726087429059,0.018091491093841228,0.0029171387582849206,-0.018367034336463917,0.0,70.0,255.0,255.0,255.0
474,23.700000000000003,21.68514865241433,11.41858746599445,-8.787343974969687,0.6265589673857264,0.07022393572423624,-0.6725603145403625,0.0177161886949051,0.003352679961565741,-0.017347561689895485,0.0,70.0,255.0,255.0,255.0
475,23.75,21.716498709705004,11.422102939098929,-8.820993488338889,0.6274364684259837,0.07039992994922528,-0.6734073649118955,0.017453104621267812,0.0035201496917380837,-0.01691312597831285,0.0,70.0,255.0,255.0,255.0
476,23.8,21.74789229925693,11.425627458989373,-8.854684711460877,0.6283042778478531,0.07057595069341005,-0.6742516271381938,0.017330651781577444,0.00335370737261087,-0.01723954298196162,0.0,70.0,255.0,255.0,255.0
477,23.85,21.77932913748979,11.42916053416827,-8.888418651052708,0.6291695336041414,0.07073530068648637,-0.6751313192100916,0.017331428743005972,0.0029190209559715186,-0.01816914616856735,0.0,70.0,255.0,255.0,255.0
478,23.900000000000002,21.810809252617343,11.432700989058022,-8.922197843381886,0.6300374207221537,0.0708678527890072,-0.6760685417550505,0.017413729381487997,0.0023523137651082493,-0.019375554458100908,0.0,70.0,255.0,255.0,255.0
479,23.950000000000003,21.842332879562004,11.43624731944717,-8.956025505228213,0.6309109065422902,0.0709705320629972,-0.6770688746559017,0.01752919245596729,0.0017985392204877826,-0.020526727711533965,0.0,70.0,255.0,255.0,255.0
480,24.0,21.873900343271572,11.439798042264322,-8.989904730847476,0.6317903399677505,0.07104770671105598,-0.6781212145262039,0.01762523863071408,0.0014040318403019114,-0.02130391384262964,0.0,70.0,255.0,255.0,255.0
481,24.05,21.90551191355878,11.443352090118276,-9.023837626680834,0.6326734304053616,0.07111093524702738,-0.6791992660401647,0.017670872929187453,0.0012481741247682976,-0.021532914660760127,0.0,70.0,255.0,255.0,255.0
482,24.1,21.937167686312108,11.446909135789024,-9.057824657451492,0.6335574272606692,0.07117252412353281,-0.6802745059922799,0.017673285249131254,0.0012902893985256014,-0.02127263558140413,0.0,70.0,255.0,255.0,255.0
483,24.150000000000002,21.968867656284846,11.45046934253063,-9.091865077280062,0.6344407589302747,0.07123996418687994,-0.6813265295983051,0.01765181981276953,0.0014380817070502872,-0.020680864382427444,0.0,70.0,255.0,255.0,255.0
484,24.200000000000003,22.000611762205136,11.454033132207712,-9.125957310411323,0.6353226092419462,0.07131633229423784,-0.6823425924305226,0.01762084101386563,0.001599363624649186,-0.01991932699674237,0.0,70.0,255.0,255.0,255.0
485,24.25,22.03239991720904,11.457600975760053,-9.160099336523114,0.6362028430316613,0.07139990054934486,-0.6833184622979793,0.017593912888713703,0.001671741593867182,-0.019151218649682278,0.0,70.0,255.0,255.0,255.0
486,24.3,22.0642320465083,11.461173122262647,-9.194289156641121,0.6370820005308175,0.07148350645362456,-0.6842577142954909,0.01757914321629528,0.001600822234237853,-0.018480546626520322,0.0,70.0,255.0,255.0,255.0
487,24.35,22.096108117262123,11.464749326405416,-9.228525107952663,0.6379607573532908,0.07155998277276865,-0.6851665169606314,0.017575430259952896,0.0014407538515115448,-0.017937514304655622,0.0,70.0,255.0,255.0,255.0
488,24.400000000000002,22.12802812224363,11.468329120539924,-9.262805808337184,0.6388395435568128,0.07162758183877571,-0.6860514657259564,0.017578991365851948,0.0012935878453745886,-0.017546302698256966,0.0,70.0,255.0,255.0,255.0
489,24.450000000000003,22.159992071617804,11.471912084589293,-9.297130254525259,0.639718656489876,0.07168934155730611,-0.686921147230457,0.017587443487698806,0.0012510925280651009,-0.017341139125548466,0.0,70.0,255.0,255.0,255.0
490,24.5,22.19199998789262,11.475498054695654,-9.33149792306023,0.6405982879055827,0.07175269109158222,-0.6877855796385113,0.017599109814625535,0.0014049458391340863,-0.01734323952948813,0.0,70.0,255.0,255.0,255.0
491,24.55,22.224051900408362,11.479087353698452,-9.36590881248911,0.6414785674713386,0.07182983614121952,-0.6886554711834059,0.01761255420582586,0.0017956231848970106,-0.017552637760687162,0.0,70.0,255.0,255.0,255.0
492,24.6,22.256147844639752,11.482681038309776,-9.40036347017857,0.6423595433261653,0.07193225341007192,-0.68954084341458,0.017624993712317405,0.0023449236337569346,-0.01793376407785985,0.0,70.0,255.0,255.0,255.0
493,24.650000000000002,22.28828785474098,11.486280579039459,-9.434862896830568,0.6432410668425703,0.07206432850459521,-0.6904488475911918,0.017632214724372375,0.0029084993135697346,-0.018415789627646006,0.0,70.0,255.0,255.0,255.0
494,24.700000000000003,22.32047195132401,11.489887471160236,-9.46940835493769,0.6441227647986025,0.0722231033414289,-0.6913824223773446,0.017629385034112488,0.003343492370255774,-0.018910428854823635,0.0,70.0,255.0,255.0,255.0
495,24.75,22.35270013122084,11.493502889373602,-9.504001139068302,0.6450040053459816,0.07239867774162079,-0.6923398904766742,0.017609647852978583,0.0035164936962317483,-0.01933577661041852,0.0,70.0,255.0,255.0,255.0
496,24.8,22.384972351858607,11.497127338934398,-9.538642343985357,0.6458837295839004,0.07257475271105207,-0.6933160000383864,0.017570639960595713,0.0033628854930967123,-0.019642701863276102,0.0,70.0,255.0,255.0,255.0
497,24.85,22.41728850417923,11.500760364644707,-9.573332739072141,0.6467610693420411,0.07273496629093046,-0.6943041606630018,0.017524594891327183,0.0029440271370972937,-0.019811065748598367,0.0,70.0,255.0,255.0,255.0
498,24.900000000000002,22.44964845879281,11.50440083556349,-9.608072760051657,0.6476361890730331,0.0728691554247618,-0.6952971066132463,0.017492149735076623,0.002388778536577263,-0.019826063268801875,0.0,70.0,255.0,255.0,255.0
499,24.950000000000003,22.482052123086532,11.508047280187183,-9.642862449733466,0.6485102843155488,0.07297384414458818,-0.696286766989882,0.017495016372848227,0.0018344251715873838,-0.019677658276151533,0.0,70.0,255.0,255.0,255.0
500,25.0,22.514499487224366,11.51169821997795,-9.677701436750645,0.6493856907103179,0.07305259794192054,-0.6972648724408614,0.01756229877862836,0.0014170980236372088,-0.019357663350660914,0.0,70.0,255.0,255.0,255.0
501,25.05,22.546990692157564,11.515352539981375,-9.712588936977552,0.6502665141934116,0.0731155539469519,-0.6982225333249481,0.017704885954827887,0.0012123220235693566,-0.01887552914361379,0.0,70.0,255.0,255.0,255.0
502,25.1,22.579526138643708,11.519009775372645,-9.74752369008314,0.6511561793058007,0.07317383014427747,-0.6991524253552228,0.017876626719370847,0.0011953314542623161,-0.01830281208974327,0.0,70.0,255.0,255.0,255.0
503,25.150000000000002,22.612106310088144,11.522669922995803,-9.782504179513074,0.6520541768653487,0.07323508709237814,-0.7000528145339224,0.01799918633267339,0.0013008620630472478,-0.01776079646003126,0.0,70.0,255.0,255.0,255.0
504,25.200000000000003,22.644731556330242,11.526333284081883,-9.817528971536532,0.6529560979390681,0.0733039163505822,-0.7009285050012259,0.017997262758839838,0.0014650074101396626,-0.017377912399929585,0.0,70.0,255.0,255.0,255.0
505,25.25,22.67740191988205,11.530000314630861,-9.852597030013197,0.6538539031412327,0.0733815878333921,-0.7017906057739154,0.017793185009296053,0.0016231328576310489,-0.017277579309293856,0.0,70.0,255.0,255.0,255.0
506,25.3,22.710116946644366,11.533671442865222,-9.887708032113924,0.6547354164399977,0.0734662296363453,-0.7026562629321553,0.01735601668713116,0.0017350525197912248,-0.017515694382552738,0.0,70.0,255.0,255.0,255.0
507,25.35,22.74287546152605,11.537346937594496,-9.922862656306412,0.6555895048099458,0.07355509308537123,-0.7035421752121707,0.016770669786225767,0.001795579445662554,-0.01801321036882797,0.0,70.0,255.0,255.0,255.0
508,25.400000000000002,22.77567589712536,11.541026952173759,-9.958062249635141,0.6564124834186202,0.07364578758091156,-0.7044575839690381,0.01619017253524646,0.0018060016486742825,-0.018614387255588838,0.0,70.0,255.0,255.0,255.0
509,25.450000000000003,22.808516709867913,11.544711516352587,-9.993308414703316,0.6572085220634705,0.07373569325023865,-0.7054036139377295,0.015768706485985717,0.001759344724661105,-0.01915791823208224,0.0,70.0,255.0,255.0,255.0
510,25.5,22.841396749331707,11.548400521498783,-10.028602611028914,0.6579893540672188,0.07382172205337767,-0.7063733757922463,0.015656942535002827,0.0016383425748500713,-0.019496028733811954,0.0,70.0,255.0,255.0,255.0
511,25.55,22.874315645274635,11.552093688557925,-10.06394575228254,0.6587742163169708,0.07389952750772366,-0.7073532168111107,0.015924846833570427,0.001440754608417194,-0.0195484066125573,0.0,70.0,255.0,255.0,255.0
512,25.6,22.907274170963404,11.555790474249555,-10.099337932710025,0.6595818387505759,0.07396579751421939,-0.7083282164535021,0.016476218609895454,0.0012223507622977081,-0.019329754361763207,0.0,70.0,255.0,255.0,255.0
513,25.650000000000002,22.940273829149692,11.559490268309347,-10.13477857392789,0.6604218381779603,0.07402176258395343,-0.7092861922472871,0.01712375989058046,0.0010751313425316766,-0.018896246592525756,0.0,70.0,255.0,255.0,255.0
514,25.700000000000003,22.9733163547812,11.56319265050795,-10.170266551934754,0.6612942147396339,0.07407331064847256,-0.7102178411127547,0.017675137406314434,0.0010909004060977168,-0.018310414672129127,0.0,70.0,255.0,255.0,255.0
515,25.75,23.006403250623656,11.566897599374194,-10.205800358039166,0.6621893519185917,0.0741308526245632,-0.7111172337145,0.017943054172064876,0.0013714688712695988,-0.017626324401298632,0.0,70.0,255.0,255.0,255.0
516,25.8,23.03953528997306,11.570605735770407,-10.241378275306204,0.6630885201568404,0.07421045753559952,-0.7119804735528845,0.017831309266114204,0.001955728578906246,-0.016889653526241943,0.0,70.0,255.0,255.0,255.0
517,25.85,23.07271210263934,11.574318645127754,-10.276998405394455,0.6639724828452032,0.07432642548245383,-0.7128061990671242,0.01740986369860309,0.0027132459424095146,-0.01618590738310388,0.0,70.0,255.0,255.0,255.0
518,25.900000000000002,23.10593253825758,11.578038378318652,-10.312658895212916,0.6648295065267007,0.07448178212984047,-0.7135990642911949,0.016829379978844372,0.0034144053813633946,-0.01564416949708658,0.0,70.0,255.0,255.0,255.0
519,25.950000000000003,23.13919505329201,11.581766823340738,-10.348358311823574,0.6656554208430876,0.07466786602059017,-0.7143706160168328,0.016244030606316073,0.0038309930458169106,-0.015392684152004676,0.0,70.0,255.0,255.0,255.0
520,26.0,23.17249808034189,11.585505164920711,-10.3840959568146,0.6664539095873323,0.07486488143442216,-0.7151383327063954,0.015806831446241176,0.003735828560103016,-0.01554664568850228,0.0,70.0,255.0,255.0,255.0
521,26.05,23.205840444250743,11.58925331148418,-10.419872145094214,0.6672361039877117,0.07504144887660047,-0.715925280585683,0.015602689991922603,0.0030287320070598867,-0.01614780445837738,0.0,70.0,255.0,255.0,255.0
522,26.1,23.23922169074066,11.593009309808371,-10.455688484873168,0.6680141785865246,0.07516775463512815,-0.7167531131522331,0.015600690235118009,0.0018909125547139638,-0.017081301422017248,0.0,70.0,255.0,255.0,255.0
523,26.150000000000002,23.272641862109396,11.596770086947693,-10.491547456409437,0.6687961730112235,0.07523054013207187,-0.7176334107278848,0.015723195719630212,0.0006626783692453841,-0.0181298726207757,0.0,70.0,255.0,255.0,255.0
524,26.200000000000003,23.306101308041782,11.600532363821578,-10.527451825945956,0.6695864981584876,0.07523402247205269,-0.7185661004143107,0.015894940638006005,-0.00030932480150624997,-0.019060387180047655,0.0,70.0,255.0,255.0,255.0
525,26.25,23.339600511925244,11.604293489194898,-10.563404066450868,0.6703856670750241,0.07519960765192124,-0.7195394494458895,0.01603763868942565,-0.0006868110851598885,-0.01965506487255908,0.0,70.0,255.0,255.0,255.0
526,26.3,23.373139874749285,11.60805232458677,-10.599405770890545,0.6711902620274302,0.0751653413635367,-0.7205316069015666,0.016105156871404347,-0.00030357036315820096,-0.01979912864040756,0.0,70.0,255.0,255.0,255.0
527,26.35,23.406719538127987,11.611810023331252,-10.635457227141025,0.6719961827621646,0.07516925061560542,-0.7215193623099303,0.01610830776392902,0.00067322038876938,-0.019536998817848428,0.0,70.0,255.0,255.0,255.0
528,26.400000000000002,23.4403394930255,11.615569249648331,-10.671557707121538,0.672801092803823,0.07523266340241364,-0.7224853067833514,0.01607606557989527,0.0019039254333108602,-0.018988228133132168,0.0,70.0,255.0,255.0,255.0
529,26.450000000000003,23.47399964740837,11.619333289671493,-10.70770575781936,0.6736037893201541,0.0753596431589365,-0.7234181851232435,0.016030006374023742,0.0030402455561073793,-0.01828576712661345,0.0,70.0,255.0,255.0,255.0
530,26.5,23.507699871957517,11.623105213964225,-10.743899525633863,0.6744040934412254,0.07553668795802437,-0.7243138834960128,0.01599058582328894,0.003739434425931165,-0.017565122791651788,0.0,70.0,255.0,255.0,255.0
531,26.55,23.541440056752492,11.626886958467296,-10.780137146168961,0.675202847902483,0.07573358660152962,-0.7251746974024087,0.01596996923645122,0.0038194888380971292,-0.01691414251805412,0.0,70.0,255.0,255.0,255.0
532,26.6,23.575220156747765,11.630678572624378,-10.816416995374103,0.6760010903648705,0.07591863684183409,-0.7260052977478182,0.015966078711926457,0.0033852501809761293,-0.016367906103909036,0.0,70.0,255.0,255.0,255.0
533,26.650000000000002,23.60904016578898,11.634478822151479,-10.852737675943743,0.6767994557736756,0.07607211161962724,-0.7268114880127996,0.01597254196212816,0.002671736448078832,-0.015962529534618852,0.0,70.0,255.0,255.0,255.0
534,26.700000000000003,23.642900102325132,11.63828578378634,-10.889098144175383,0.6775983445610834,0.07618581048664197,-0.7276015507012801,0.015985033862264686,0.0019154288244394024,-0.015741719140116572,0.0,70.0,255.0,255.0,255.0
535,26.75,23.676800000245088,11.642097403200143,-10.925497831013871,0.6783979591599021,0.07626365450207118,-0.7283856599268113,0.01600001801485007,0.0013570454076017313,-0.015736471930161144,0.0,70.0,255.0,255.0,255.0
536,26.8,23.710739898241123,11.645912149236548,-10.961936710168064,0.6791983463625684,0.07632151502740214,-0.7291751978942962,0.01601496618413023,0.0011311627938326296,-0.015952040213385033,0.0,70.0,255.0,255.0,255.0
537,26.85,23.744719834881344,11.649729554702883,-10.9984153508033,0.6799994557783151,0.07637677078145444,-0.7299808639481498,0.016027377390415154,0.0011812101249120133,-0.01634783364465875,0.0,70.0,255.0,255.0,255.0
538,26.900000000000002,23.778739843818954,11.653549826314693,-11.03493479656288,0.6808010841016099,0.07643963603989334,-0.7308099812587621,0.016033766573997354,0.001375375862799899,-0.016843518531928225,0.0,70.0,255.0,255.0,255.0
539,26.950000000000003,23.812799943291505,11.657373518306873,-11.071496348929177,0.6816028324357148,0.07651430836773443,-0.7316652158013426,0.016029858174348988,0.0015904400786581618,-0.017341668667292254,0.0,70.0,255.0,255.0,255.0
540,27.0,23.846900127062526,11.661201257151466,-11.108101318143014,0.6824040699190448,0.07659868004775916,-0.7325441481254913,0.016009342115808067,0.0016924305626275782,-0.017748942864947992,0.0,70.0,255.0,255.0,255.0
