idx,t,px,py,pz,vx,vy,vz,ax,ay,az,yaw,mode,ledr,ledg,ledb
0,0.0,0.0,0.0,51.766,0.0,0.0,0.0,0.0,0.0,0.0,0,70,0.0,0.0,0.0
1,0.05,0.0,0.0,51.766,0.0,0.0,0.0,0.0,0.0,0.0,0,70,0.0,0.0,0.0
2,0.1,0.0,0.0,51.766,0.0,0.0,0.0,0.0,0.0,0.0,0,70,0.0,0.0,0.0
3,0.15000000000000002,0.0,0.0,51.766,0.0,0.0,0.0,0.0,0.0,0.0,0,70,0.0,0.0,0.0
4,0.2,0.0,0.0,51.766,0.0,0.0,0.0,0.0,0.0,0.0,0,70,0.0,0.0,0.0
5,0.25,0.0,0.0,51.766,0.0,0.0,0.0,0.0,0.0,0.0,0,70,0.0,0.0,0.0
6,0.30000000000000004,0.0,0.0,51.766,0.0,0.0,0.0,0.0,0.0,0.0,0,70,0.0,0.0,0.0
7,0.35000000000000003,0.0,0.0,51.766,0.0,0.0,0.0,0.0,0.0,0.0,0,70,0.0,0.0,0.0
8,0.4,0.0,0.0,51.766,0.0,0.0,0.0,0.0,0.0,0.0,0,70,0.0,0.0,0.0
9,0.45,0.0,0.0,51.766,0.0,0.0,0.0,0.0,0.0,0.0,0,70,0.0,0.0,0.0
10,0.5,0.0,0.0,51.766,0.0,0.0,0.0,0.0,0.0,0.0,0,70,0.0,0.0,0.0
11,0.55,0.0,0.0,51.766,0.0,0.0,0.0,0.0,0.0,0.0,0,70,0.0,0.0,0.0
12,0.6000000000000001,0.0,0.0,51.766,0.0,0.0,0.0,0.0,0.0,0.0,0,70,0.0,0.0,0.0
13,0.65,0.0,0.0,51.766,0.0,0.0,0.0,0.0,0.0,0.0,0,70,0.0,0.0,0.0
14,0.7000000000000001,0.0,0.0,51.766,0.0,0.0,0.0,0.0,0.0,0.0,0,70,0.0,0.0,0.0
15,0.75,0.0,0.0,51.766,0.0,0.0,0.0,0.0,0.0,0.0,0,70,0.0,0.0,0.0
16,0.8,0.0,0.0,51.766,0.0,0.0,0.0,0.0,0.0,0.0,0,70,0.0,0.0,0.0
17,0.8500000000000001,0.0,0.0,51.766,0.0,0.0,0.0,0.0,0.0,0.0,0,70,0.0,0.0,0.0
18,0.9,0.0,0.0,51.766,0.0,0.0,0.0,0.0,0.0,0.0,0,70,0.0,0.0,0.0
19,0.9500000000000001,0.0,0.0,51.766,0.0,0.0,0.0,0.0,0.0,0.0,0,70,0.0,0.0,0.0
20,1.0,0.0,0.0,51.766,0.0,0.0,0.0,0.0,0.0,0.0,0,70,0.0,0.0,0.0
21,1.05,0.0,0.0,51.766,0.0,0.0,0.0,0.0,0.0,0.0,0,70,0.0,0.0,0.0
22,1.1,0.0,0.0,51.766,0.0,0.0,0.0,0.0,0.0,0.0,0,70,0.0,0.0,0.0
23,1.1500000000000001,0.0,0.0,51.766,0.0,0.0,0.0,0.0,0.0,0.0,0,70,0.0,0.0,0.0
24,1.2000000000000002,0.0,0.0,51.766,0.0,0.0,0.0,0.0,0.0,0.0,0,70,0.0,0.0,0.0
25,1.25,0.0,0.0,51.766,0.0,0.0,0.0,0.0,0.0,0.0,0,70,0.0,0.0,0.0
26,1.3,0.0,0.0,51.766,0.0,0.0,0.0,0.0,0.0,0.0,0,70,0.0,0.0,0.0
27,1.35,0.0,0.0,51.766,0.0,0.0,0.0,0.0,0.0,0.0,0,70,0.0,0.0,0.0
28,1.4000000000000001,0.0,0.0,51.766,0.0,0.0,0.0,0.0,0.0,0.0,0,70,0.0,0.0,0.0
29,1.4500000000000002,0.0,0.0,51.766,0.0,0.0,0.0,0.0,0.0,0.0,0,70,0.0,0.0,0.0
30,1.5,0.0,0.0,51.766,0.0,0.0,0.0,0.0,0.0,0.0,0,70,0.0,0.0,0.0
31,1.55,0.0,0.0,51.766,0.0,0.0,0.0,0.0,0.0,0.0,0,70,0.0,0.0,0.0
32,1.6,0.0,0.0,51.766,0.0,0.0,0.0,0.0,0.0,0.0,0,70,0.0,0.0,0.0
33,1.6500000000000001,0.0,0.0,51.766,0.0,0.0,0.0,0.0,0.0,0.0,0,70,0.0,0.0,0.0
34,1.7000000000000002,0.0,0.0,51.766,0.0,0.0,0.0,0.0,0.0,0.0,0,70,0.0,0.0,0.0
35,1.75,0.0,0.0,51.766,0.0,0.0,0.0,0.0,0.0,0.0,0,70,0.0,0.0,0.0
36,1.8,0.0,0.0,51.766,0.0,0.0,0.0,0.0,0.0,0.0,0,70,0.0,0.0,0.0
37,1.85,0.0,0.0,51.766,0.0,0.0,0.0,0.0,0.0,0.0,0,70,0.0,0.0,0.0
38,1.9000000000000001,0.0,0.0,51.766,0.0,0.0,0.0,0.0,0.0,0.0,0,70,0.0,0.0,0.0
39,1.9500000000000002,0.0,0.0,51.766,0.0,0.0,0.0,0.0,0.0,0.0,0,70,0.0,0.0,0.0
40,2.0,0.0,0.0,51.766,0.0,0.0,0.0,0.0,0.0,0.0,0,70,0.0,0.0,0.0
41,2.0500000000000003,0.0,0.0,51.766,0.0,0.0,0.0,0.0,0.0,0.0,0,70,0.0,0.0,0.0
42,2.1,0.0,0.0,51.766,0.0,0.0,0.0,0.0,0.0,0.0,0,70,0.0,0.0,0.0
43,2.15,0.0,0.0,51.766,0.0,0.0,0.0,0.0,0.0,0.0,0,70,0.0,0.0,0.0
44,2.2,0.0,0.0,51.766,0.0,0.0,0.0,0.0,0.0,0.0,0,70,0.0,0.0,0.0
45,2.25,0.0,0.0,51.766,0.0,0.0,0.0,0.0,0.0,0.0,0,70,0.0,0.0,0.0
46,2.3000000000000003,0.0,0.0,51.766,0.0,0.0,0.0,0.0,0.0,0.0,0,70,0.0,0.0,0.0
47,2.35,0.0,0.0,51.766,0.0,0.0,0.0,0.0,0.0,0.0,0,70,0.0,0.0,0.0
48,2.4000000000000004,0.0,0.0,51.766,0.0,0.0,0.0,0.0,0.0,0.0,0,70,0.0,0.0,0.0
49,2.45,0.0,0.0,51.766,0.0,0.0,0.0,0.0,0.0,0.0,0,70,0.0,0.0,0.0
50,2.5,0.0,0.0,51.766,0.0,0.0,0.0,0.0,0.0,0.0,0,70,0.0,0.0,0.0
51,2.5500000000000003,0.0,0.0,51.766,0.0,0.0,0.0,0.0,0.0,0.0,0,70,0.0,0.0,0.0
52,2.6,0.0,0.0,51.766,0.0,0.0,0.0,0.0,0.0,0.0,0,70,0.0,0.0,0.0
53,2.6500000000000004,0.0,0.0,51.766,0.0,0.0,0.0,0.0,0.0,0.0,0,70,0.0,0.0,0.0
54,2.7,0.0,0.0,51.766,0.0,0.0,0.0,0.0,0.0,0.0,0,70,0.0,0.0,0.0
55,2.75,0.0,0.0,51.766,0.0,0.0,0.0,0.0,0.0,0.0,0,70,0.0,0.0,0.0
56,2.8000000000000003,0.0,0.0,51.766,0.0,0.0,0.0,0.0,0.0,0.0,0,70,0.0,0.0,0.0
57,2.85,0.0,0.0,51.766,0.0,0.0,0.0,0.0,0.0,0.0,0,70,0.0,0.0,0.0
58,2.9000000000000004,0.0,0.0,51.766,0.0,0.0,0.0,0.0,0.0,0.0,0,70,0.0,0.0,0.0
59,2.95,0.0,0.0,51.766,0.0,0.0,0.0,0.0,0.0,0.0,0,70,0.0,0.0,0.0
60,3.0,0.0,0.0,51.766,0.0,0.0,0.0,0.0,0.0,0.0,0,70,0.0,0.0,0.0
61,3.0500000000000003,0.0,0.0,51.766,0.0,0.0,0.0,0.0,0.0,0.0,0,70,0.0,0.0,0.0
62,3.1,0.0,0.0,51.766,0.0,0.0,0.0,0.0,0.0,0.0,0,70,0.0,0.0,0.0
63,3.1500000000000004,0.0,0.0,51.766,0.0,0.0,0.0,0.0,0.0,0.0,0,70,0.0,0.0,0.0
64,3.2,0.0,0.0,51.766,0.0,0.0,0.0,0.0,0.0,0.0,0,70,0.0,0.0,0.0
65,3.25,0.0,0.0,51.766,0.0,0.0,0.0,0.0,0.0,0.0,0,70,0.0,0.0,0.0
66,3.3000000000000003,0.0,0.0,51.766,0.0,0.0,0.0,0.0,0.0,0.0,0,70,0.0,0.0,0.0
67,3.35,0.0,0.0,51.766,0.0,0.0,0.0,0.0,0.0,0.0,0,70,0.0,0.0,0.0
68,3.4000000000000004,0.0,0.0,51.766,0.0,0.0,0.0,0.0,0.0,0.0,0,70,0.0,0.0,0.0
69,3.45,0.0,0.0,51.766,0.0,0.0,0.0,0.0,0.0,0.0,0,70,0.0,0.0,0.0
70,3.5,0.0,0.0,51.766,0.0,0.0,0.0,0.0,0.0,0.0,0,70,0.0,0.0,0.0
71,3.5500000000000003,0.0,0.0,51.766,0.0,0.0,0.0,0.0,0.0,0.0,0,70,0.0,0.0,0.0
72,3.6,0.0,0.0,51.766,0.0,0.0,0.0,0.0,0.0,0.0,0,70,0.0,0.0,0.0
73,3.6500000000000004,0.0,0.0,51.766,0.0,0.0,0.0,0.0,0.0,0.0,0,70,0.0,0.0,0.0
74,3.7,0.0,0.0,51.766,0.0,0.0,0.0,0.0,0.0,0.0,0,70,0.0,0.0,0.0
75,3.75,0.0,0.0,51.766,0.0,0.0,0.0,0.0,0.0,0.0,0,70,0.0,0.0,0.0
76,3.8000000000000003,0.0,0.0,51.766,0.0,0.0,0.0,0.0,0.0,0.0,0,70,0.0,0.0,0.0
77,3.85,0.0,0.0,51.766,0.0,0.0,0.0,0.0,0.0,0.0,0,70,0.0,0.0,0.0
78,3.9000000000000004,0.0,0.0,51.766,0.0,0.0,0.0,0.0,0.0,0.0,0,70,0.0,0.0,0.0
79,3.95,0.0,0.0,51.766,0.0,0.0,0.0,0.0,0.0,0.0,0,70,0.0,0.0,0.0
80,4.0,0.0,0.0,51.766,0.0,0.0,0.0,0.0,0.0,0.0,0,70,0.0,0.0,0.0
81,4.05,0.0,0.0,51.766,0.0,0.0,0.0,0.0,0.0,0.0,0,70,0.0,0.0,0.0
82,4.1000000000000005,0.0,0.0,51.766,0.0,0.0,0.0,0.0,0.0,0.0,0,70,0.0,0.0,0.0
83,4.15,0.0,0.0,51.766,0.0,0.0,0.0,0.0,0.0,0.0,0,70,0.0,0.0,0.0
84,4.2,0.0,0.0,51.766,0.0,0.0,0.0,0.0,0.0,0.0,0,70,0.0,0.0,0.0
85,4.25,0.0,0.0,51.766,0.0,0.0,0.0,0.0,0.0,0.0,0,70,0.0,0.0,0.0
86,4.3,0.0,0.0,51.766,0.0,0.0,0.0,0.0,0.0,0.0,0,70,0.0,0.0,0.0
87,4.3500000000000005,0.0,0.0,51.766,0.0,0.0,0.0,0.0,0.0,0.0,0,70,0.0,0.0,0.0
88,4.4,0.0,0.0,51.766,0.0,0.0,0.0,0.0,0.0,0.0,0,70,0.0,0.0,0.0
89,4.45,0.0,0.0,51.766,0.0,0.0,0.0,0.0,0.0,0.0,0,70,0.0,0.0,0.0
90,4.5,0.0,0.0,51.766,0.0,0.0,0.0,0.0,0.0,0.0,0,70,0.0,0.0,0.0
91,4.55,0.0,0.0,51.766,0.0,0.0,0.0,0.0,0.0,0.0,0,70,0.0,0.0,0.0
92,4.6000000000000005,0.0,0.0,51.766,0.0,0.0,0.0,0.0,0.0,0.0,0,70,0.0,0.0,0.0
93,4.65,0.0,0.0,51.766,0.0,0.0,0.0,0.0,0.0,0.0,0,70,0.0,0.0,0.0
94,4.7,0.0,0.0,51.766,0.0,0.0,0.0,0.0,0.0,0.0,0,70,0.0,0.0,0.0
95,4.75,0.0,0.0,51.766,0.0,0.0,0.0,0.0,0.0,0.0,0,70,0.0,0.0,0.0
96,4.800000000000001,0.0,0.0,51.766,0.0,0.0,0.0,0.0,0.0,0.0,0,70,0.0,0.0,0.0
97,4.8500000000000005,0.0,0.0,51.766,0.0,0.0,0.0,0.0,0.0,0.0,0,70,0.0,0.0,0.0
98,4.9,0.0,0.0,51.766,0.0,0.0,0.0,0.0,0.0,0.0,0,70,0.0,0.0,0.0
99,4.95,0.0,0.0,51.766,0.0,0.0,0.0,0.0,0.0,0.0,0,70,0.0,0.0,0.0
100,5.0,0.0,0.0,51.766,0.0,0.0,0.0,0.0,0.0,0.0,0,70,0.0,0.0,0.0
101,5.050000000000001,0.0,0.0,51.766,0.0,0.0,0.0,0.0,0.0,0.0,0,70,0.0,0.0,0.0
102,5.1000000000000005,0.0,0.0,51.766,0.0,0.0,0.0,0.0,0.0,0.0,0,70,0.0,0.0,0.0
103,5.15,0.0,0.0,51.766,0.0,0.0,0.0,0.0,0.0,0.0,0,70,0.0,0.0,0.0
104,5.2,0.0,0.0,51.766,0.0,0.0,0.0,0.0,0.0,0.0,0,70,0.0,0.0,0.0
105,5.25,0.0,0.0,51.766,0.0,0.0,0.0,0.0,0.0,0.0,0,70,0.0,0.0,0.0
106,5.300000000000001,0.0,0.0,51.766,0.0,0.0,0.0,0.0,0.0,0.0,0,70,0.0,0.0,0.0
107,5.3500000000000005,0.0,0.0,51.766,0.0,0.0,0.0,0.0,0.0,0.0,0,70,0.0,0.0,0.0
108,5.4,0.0,0.0,51.766,0.0,0.0,0.0,0.0,0.0,0.0,0,70,0.0,0.0,0.0
109,5.45,0.0,0.0,51.766,0.0,0.0,0.0,0.0,0.0,0.0,0,70,0.0,0.0,0.0
110,5.5,0.0,0.0,51.766,0.0,0.0,0.0,0.0,0.0,0.0,0,70,0.0,0.0,0.0
111,5.550000000000001,0.0,0.0,51.766,0.0,0.0,0.0,0.0,0.0,0.0,0,70,0.0,0.0,0.0
112,5.6000000000000005,0.0,0.0,51.766,0.0,0.0,0.0,0.0,0.0,0.0,0,70,0.0,0.0,0.0
113,5.65,0.0,0.0,51.766,0.0,0.0,0.0,0.0,0.0,0.0,0,70,0.0,0.0,0.0
114,5.7,0.0,0.0,51.766,0.0,0.0,0.0,0.0,0.0,0.0,0,70,0.0,0.0,0.0
115,5.75,0.0,0.0,51.766,0.0,0.0,0.0,0.0,0.0,0.0,0,70,0.0,0.0,0.0
116,5.800000000000001,0.0,0.0,51.766,0.0,0.0,0.0,0.0,0.0,0.0,0,70,0.0,0.0,0.0
117,5.8500000000000005,0.0,0.0,51.766,0.0,0.0,0.0,0.0,0.0,0.0,0,70,0.0,0.0,0.0
118,5.9,0.0,0.0,51.766,0.0,0.0,0.0,0.0,0.0,0.0,0,70,0.0,0.0,0.0
119,5.95,0.0,0.0,51.766,0.0,0.0,0.0,0.0,0.0,0.0,0,70,0.0,0.0,0.0
120,6.0,0.0,0.0,51.766,0.0,0.0,0.0,0.0,0.0,0.0,0,70,0.0,0.0,0.0
121,6.050000000000001,0.0,0.0,51.766,0.0,0.0,0.0,0.0,0.0,0.0,0,70,0.0,0.0,0.0
122,6.1000000000000005,0.0,0.0,51.766,0.0,0.0,0.0,0.0,0.0,0.0,0,70,0.0,0.0,0.0
123,6.15,0.0,0.0,51.766,0.0,0.0,0.0,0.0,0.0,0.0,0,70,0.0,0.0,0.0
124,6.2,0.0,0.0,51.766,0.0,0.0,0.0,0.0,0.0,0.0,0,70,0.0,0.0,0.0
125,6.25,0.0,0.0,51.766,0.0,0.0,0.0,0.0,0.0,0.0,0,70,0.0,0.0,0.0
126,6.300000000000001,0.0,0.0,51.766,0.0,0.0,0.0,0.0,0.0,0.0,0,70,0.0,0.0,0.0
127,6.3500000000000005,0.0,0.0,51.766,0.0,0.0,0.0,0.0,0.0,0.0,0,70,0.0,0.0,0.0
128,6.4,0.0,0.0,51.766,0.0,0.0,0.0,0.0,0.0,0.0,0,70,0.0,0.0,0.0
129,6.45,0.0,0.0,51.766,0.0,0.0,0.0,0.0,0.0,0.0,0,70,0.0,0.0,0.0
130,6.5,0.0,0.0,51.766,0.0,0.0,0.0,0.0,0.0,0.0,0,70,0.0,0.0,0.0
131,6.550000000000001,0.0,0.0,51.766,0.0,0.0,0.0,0.0,0.0,0.0,0,70,0.0,0.0,0.0
132,6.6000000000000005,0.0,0.0,51.766,0.0,0.0,0.0,0.0,0.0,0.0,0,70,0.0,0.0,0.0
133,6.65,0.0,0.0,51.766,0.0,0.0,0.0,0.0,0.0,0.0,0,70,0.0,0.0,0.0
134,6.7,0.0,0.0,51.766,0.0,0.0,0.0,0.0,0.0,0.0,0,70,0.0,0.0,0.0
135,6.75,0.0,0.0,51.766,0.0,0.0,0.0,0.0,0.0,0.0,0,70,0.0,0.0,0.0
136,6.800000000000001,0.0,0.0,51.766,0.0,0.0,0.0,0.0,0.0,0.0,0,70,0.0,0.0,0.0
137,6.8500000000000005,0.0,0.0,51.766,0.0,0.0,0.0,0.0,0.0,0.0,0,70,0.0,0.0,0.0
138,6.9,0.0,0.0,51.766,0.0,0.0,0.0,0.0,0.0,0.0,0,70,0.0,0.0,0.0
139,6.95,0.0,0.0,51.766,0.0,0.0,0.0,0.0,0.0,0.0,0,70,0.0,0.0,0.0
140,7.0,0.0,0.0,51.766,0.0,0.0,0.0,0.0,0.0,0.0,0,70,0.0,0.0,0.0
141,7.050000000000001,0.0,0.0,51.766,0.0,0.0,0.0,0.0,0.0,0.0,0,70,0.0,0.0,0.0
142,7.1000000000000005,0.0,0.0,51.766,0.0,0.0,0.0,0.0,0.0,0.0,0,70,0.0,0.0,0.0
143,7.15,0.0,0.0,51.766,0.0,0.0,0.0,0.0,0.0,0.0,0,70,0.0,0.0,0.0
144,7.2,0.0,0.0,51.766,0.0,0.0,0.0,0.0,0.0,0.0,0,70,0.0,0.0,0.0
145,7.25,0.0,0.0,51.766,0.0,0.0,0.0,0.0,0.0,0.0,0,70,0.0,0.0,0.0
146,7.300000000000001,0.0,0.0,51.766,0.0,0.0,0.0,0.0,0.0,0.0,0,70,0.0,0.0,0.0
147,7.3500000000000005,0.0,0.0,51.766,0.0,0.0,0.0,0.0,0.0,0.0,0,70,0.0,0.0,0.0
148,7.4,0.0,0.0,51.766,0.0,0.0,0.0,0.0,0.0,0.0,0,70,0.0,0.0,0.0
149,7.45,0.0,0.0,51.766,0.0,0.0,0.0,0.0,0.0,0.0,0,70,0.0,0.0,0.0
150,7.5,0.0,0.0,51.766,0.0,0.0,0.0,0.0,0.0,0.0,0,70,0.0,0.0,0.0
151,7.550000000000001,0.0,0.0,51.766,0.0,0.0,0.0,0.0,0.0,0.0,0,70,0.0,0.0,0.0
152,7.6000000000000005,0.0,0.0,51.766,0.0,0.0,0.0,0.0,0.0,0.0,0,70,0.0,0.0,0.0
153,7.65,0.0,0.0,51.766,0.0,0.0,0.0,0.0,0.0,0.0,0,70,0.0,0.0,0.0
154,7.7,0.0,0.0,51.766,0.0,0.0,0.0,0.0,0.0,0.0,0,70,0.0,0.0,0.0
155,7.75,0.0,0.0,51.766,0.0,0.0,0.0,0.0,0.0,0.0,0,70,0.0,0.0,0.0
156,7.800000000000001,0.0,0.0,51.766,0.0,0.0,0.0,0.0,0.0,0.0,0,70,0.0,0.0,0.0
157,7.8500000000000005,0.0,0.0,51.766,0.0,0.0,0.0,0.0,0.0,0.0,0,70,0.0,0.0,0.0
158,7.9,0.0,0.0,51.766,0.0,0.0,0.0,0.0,0.0,0.0,0,70,0.0,0.0,0.0
159,7.95,0.0,0.0,51.766,0.0,0.0,0.0,0.0,0.0,0.0,0,70,0.0,0.0,0.0
160,8.0,0.0,0.0,51.766,0.0,0.0,0.0,0.0,0.0,0.0,0,70,0.0,0.0,0.0
161,8.05,0.0,0.0,51.766,0.0,0.0,0.0,0.0,0.0,0.0,0,70,0.0,0.0,0.0
162,8.1,0.0,0.0,51.766,0.0,0.0,0.0,0.0,0.0,0.0,0,70,0.0,0.0,0.0
163,8.15,0.0,0.0,51.766,0.0,0.0,0.0,0.0,0.0,0.0,0,70,0.0,0.0,0.0
164,8.200000000000001,0.0,0.0,51.766,0.0,0.0,0.0,0.0,0.0,0.0,0,70,0.0,0.0,0.0
165,8.25,0.0,0.0,51.766,0.0,0.0,0.0,0.0,0.0,0.0,0,70,0.0,0.0,0.0
166,8.3,0.0,0.0,51.766,0.0,0.0,0.0,0.0,0.0,0.0,0,70,0.0,0.0,0.0
167,8.35,0.0,0.0,51.766,0.0,0.0,0.0,0.0,0.0,0.0,0,70,0.0,0.0,0.0
168,8.4,0.0,0.0,51.766,0.0,0.0,0.0,0.0,0.0,0.0,0,70,0.0,0.0,0.0
169,8.450000000000001,0.0,0.0,51.766,0.0,0.0,0.0,0.0,0.0,0.0,0,70,0.0,0.0,0.0
170,8.5,0.0,0.0,51.766,0.0,0.0,0.0,0.0,0.0,0.0,0,70,0.0,0.0,0.0
171,8.55,0.0,0.0,51.766,0.0,0.0,0.0,0.0,0.0,0.0,0,70,0.0,0.0,0.0
172,8.6,0.0,0.0,51.766,0.0,0.0,0.0,0.0,0.0,0.0,0,70,0.0,0.0,0.0
173,8.65,0.0,0.0,51.766,0.0,0.0,0.0,0.0,0.0,0.0,0,70,0.0,0.0,0.0
174,8.700000000000001,0.0,0.0,51.766,0.0,0.0,0.0,0.0,0.0,0.0,0,70,0.0,0.0,0.0
175,8.75,0.0,0.0,51.766,0.0,0.0,0.0,0.0,0.0,0.0,0,70,0.0,0.0,0.0
176,8.8,0.0,0.0,51.766,0.0,0.0,0.0,0.0,0.0,0.0,0,70,0.0,0.0,0.0
177,8.85,0.0,0.0,51.766,0.0,0.0,0.0,0.0,0.0,0.0,0,70,0.0,0.0,0.0
178,8.9,0.0,0.0,51.766,0.0,0.0,0.0,0.0,0.0,0.0,0,70,0.0,0.0,0.0
179,8.950000000000001,0.0,0.0,51.766,0.0,0.0,0.0,0.0,0.0,0.0,0,70,0.0,0.0,0.0
180,9.0,0.0,0.0,51.766,0.0,0.0,0.0,0.0,0.0,0.0,0,70,0.0,0.0,0.0
181,9.05,0.0,0.0,51.766,0.0,0.0,0.0,0.0,0.0,0.0,0,70,0.0,0.0,0.0
182,9.1,0.0,0.0,51.766,0.0,0.0,0.0,0.0,0.0,0.0,0,70,0.0,0.0,0.0
183,9.15,0.0,0.0,51.766,0.0,0.0,0.0,0.0,0.0,0.0,0,70,0.0,0.0,0.0
184,9.200000000000001,0.0,0.0,51.766,0.0,0.0,0.0,0.0,0.0,0.0,0,70,0.0,0.0,0.0
185,9.25,0.0,0.0,51.766,0.0,0.0,0.0,0.0,0.0,0.0,0,70,0.0,0.0,0.0
186,9.3,0.0,0.0,51.766,0.0,0.0,0.0,0.0,0.0,0.0,0,70,0.0,0.0,0.0
187,9.35,0.0,0.0,51.766,0.0,0.0,0.0,0.0,0.0,0.0,0,70,0.0,0.0,0.0
188,9.4,0.0,0.0,51.766,0.0,0.0,0.0,0.0,0.0,0.0,0,70,0.0,0.0,0.0
189,9.450000000000001,0.0,0.0,51.766,0.0,0.0,0.0,0.0,0.0,0.0,0,70,0.0,0.0,0.0
190,9.5,0.0,0.0,51.766,0.0,0.0,0.0,0.0,0.0,0.0,0,70,0.0,0.0,0.0
191,9.55,0.0,0.0,51.766,0.0,0.0,0.0,0.0,0.0,0.0,0,70,0.0,0.0,0.0
192,9.600000000000001,0.0,0.0,51.766,0.0,0.0,0.0,0.0,0.0,0.0,0,70,0.0,0.0,0.0
193,9.65,0.0,0.0,51.766,0.0,0.0,0.0,0.0,0.0,0.0,0,70,0.0,0.0,0.0
194,9.700000000000001,0.0,0.0,51.766,0.0,0.0,0.0,0.0,0.0,0.0,0,70,0.0,0.0,0.0
195,9.75,0.0,0.0,51.766,0.0,0.0,0.0,0.0,0.0,0.0,0,70,0.0,0.0,0.0
196,9.8,0.0,0.0,51.766,0.0,0.0,0.0,0.0,0.0,0.0,0,70,0.0,0.0,0.0
197,9.850000000000001,0.0,0.0,51.766,0.0,0.0,0.0,0.0,0.0,0.0,0,70,0.0,0.0,0.0
198,9.9,0.0,0.0,51.766,0.0,0.0,0.0,0.0,0.0,0.0,0,70,0.0,0.0,0.0
199,9.950000000000001,0.0,0.0,51.766,0.0,0.0,0.0,0.0,0.0,0.0,0,70,0.0,0.0,0.0
200,10.0,0.0,0.0,51.766,0.0,0.0,0.0,0.0,0.0,0.0,0,70,0.0,0.0,0.0
201,10.05,0.0,0.0,51.766,0.0,0.0,0.0,0.0,0.0,0.0,0,70,0.0,0.0,0.0
202,10.100000000000001,0.0,0.0,51.766,0.0,0.0,0.0,0.0,0.0,0.0,0,70,0.0,0.0,0.0
203,10.15,0.0,0.0,51.766,0.0,0.0,0.0,0.0,0.0,0.0,0,70,0.0,0.0,0.0
204,10.200000000000001,0.0,0.0,51.766,0.0,0.0,0.0,0.0,0.0,0.0,0,70,0.0,0.0,0.0
205,10.25,0.0,0.0,51.766,0.0,0.0,0.0,0.0,0.0,0.0,0,70,0.0,0.0,0.0
206,10.3,0.0,0.0,51.766,0.0,0.0,0.0,0.0,0.0,0.0,0,70,0.0,0.0,0.0
207,10.350000000000001,0.0,0.0,51.766,0.0,0.0,0.0,0.0,0.0,0.0,0,70,0.0,0.0,0.0
208,10.4,0.0,0.0,51.766,0.0,0.0,0.0,0.0,0.0,0.0,0,70,0.0,0.0,0.0
209,10.450000000000001,0.0,0.0,51.766,0.0,0.0,0.0,0.0,0.0,0.0,0,70,0.0,0.0,0.0
210,10.5,0.0,0.0,51.766,0.0,0.0,0.0,0.0,0.0,0.0,0,70,0.0,0.0,0.0
211,10.55,0.0,0.0,51.766,0.0,0.0,0.0,0.0,0.0,0.0,0,70,0.0,0.0,0.0
212,10.600000000000001,0.0,0.0,51.766,0.0,0.0,0.0,0.0,0.0,0.0,0,70,0.0,0.0,0.0
213,10.65,0.0,0.0,51.766,0.0,0.0,0.0,0.0,0.0,0.0,0,70,0.0,0.0,0.0
214,10.700000000000001,0.0,0.0,51.766,0.0,0.0,0.0,0.0,0.0,0.0,0,70,0.0,0.0,0.0
215,10.75,0.0,0.0,51.766,0.0,0.0,0.0,0.0,0.0,0.0,0,70,0.0,0.0,0.0
216,10.8,0.0,0.0,51.766,0.0,0.0,0.0,0.0,0.0,0.0,0,70,0.0,0.0,0.0
217,10.850000000000001,0.0,0.0,51.766,0.0,0.0,0.0,0.0,0.0,0.0,0,70,0.0,0.0,0.0
218,10.9,0.0,0.0,51.766,0.0,0.0,0.0,0.0,0.0,0.0,0,70,0.0,0.0,0.0
219,10.950000000000001,0.0,0.0,51.766,0.0,0.0,0.0,0.0,0.0,0.0,0,70,0.0,0.0,0.0
220,11.0,0.0,0.0,51.766,0.0,0.0,0.0,0.0,0.0,0.0,0,70,0.0,0.0,0.0
221,11.05,0.0,0.0,51.766,0.0,0.0,0.0,0.0,0.0,0.0,0,70,0.0,0.0,0.0
222,11.100000000000001,0.0,0.0,51.766,0.0,0.0,0.0,0.0,0.0,0.0,0,70,0.0,0.0,0.0
223,11.15,0.0,0.0,51.766,0.0,0.0,0.0,0.0,0.0,0.0,0,70,0.0,0.0,0.0
224,11.200000000000001,0.0,0.0,51.766,0.0,0.0,0.0,0.0,0.0,0.0,0,70,0.0,0.0,0.0
225,11.25,0.0,0.0,51.766,0.0,0.0,0.0,0.0,0.0,0.0,0,70,0.0,0.0,0.0
226,11.3,0.0,0.0,51.766,0.0,0.0,0.0,0.0,0.0,0.0,0,70,0.0,0.0,0.0
227,11.350000000000001,0.0,0.0,51.766,0.0,0.0,0.0,0.0,0.0,0.0,0,70,0.0,0.0,0.0
228,11.4,0.0,0.0,51.766,0.0,0.0,0.0,0.0,0.0,0.0,0,70,0.0,0.0,0.0
229,11.450000000000001,0.0,0.0,51.766,0.0,0.0,0.0,0.0,0.0,0.0,0,70,0.0,0.0,0.0
230,11.5,0.0,0.0,51.766,0.0,0.0,0.0,0.0,0.0,0.0,0,70,0.0,0.0,0.0
231,11.55,0.0,0.0,51.766,0.0,0.0,0.0,0.0,0.0,0.0,0,70,0.0,0.0,0.0
232,11.600000000000001,0.0,0.0,51.766,0.0,0.0,0.0,0.0,0.0,0.0,0,70,0.0,0.0,0.0
233,11.65,0.0,0.0,51.766,0.0,0.0,0.0,0.0,0.0,0.0,0,70,0.0,0.0,0.0
234,11.700000000000001,0.0,0.0,51.766,0.0,0.0,0.0,0.0,0.0,0.0,0,70,0.0,0.0,0.0
235,11.75,0.0,0.0,51.766,0.0,0.0,0.0,0.0,0.0,0.0,0,70,0.0,0.0,0.0
236,11.8,0.0,0.0,51.766,0.0,0.0,0.0,0.0,0.0,0.0,0,70,0.0,0.0,0.0
237,11.850000000000001,0.0,0.0,51.766,0.0,0.0,0.0,0.0,0.0,0.0,0,70,0.0,0.0,0.0
238,11.9,0.0,0.0,51.766,0.0,0.0,0.0,0.0,0.0,0.0,0,70,0.0,0.0,0.0
239,11.950000000000001,0.0,0.0,51.766,0.0,0.0,0.0,0.0,0.0,0.0,0,70,0.0,0.0,0.0
240,12.0,0.0,0.0,51.766,0.0,0.0,0.0,0.0,0.0,0.0,0,70,0.0,0.0,0.0
241,12.05,0.0,0.0,51.766,0.0,0.0,0.0,0.0,0.0,0.0,0,70,0.0,0.0,0.0
242,12.100000000000001,0.0,0.0,51.766,0.0,0.0,0.0,0.0,0.0,0.0,0,70,0.0,0.0,0.0
243,12.15,0.0,0.0,51.766,0.0,0.0,0.0,0.0,0.0,0.0,0,70,0.0,0.0,0.0
244,12.200000000000001,0.0,0.0,51.766,0.0,0.0,0.0,0.0,0.0,0.0,0,70,0.0,0.0,0.0
245,12.25,0.0,0.0,51.766,0.0,0.0,0.0,0.0,0.0,0.0,0,70,0.0,0.0,0.0
246,12.3,0.0,0.0,51.766,0.0,0.0,0.0,0.0,0.0,0.0,0,70,0.0,0.0,0.0
247,12.350000000000001,0.0,0.0,51.766,0.0,0.0,0.0,0.0,0.0,0.0,0,70,0.0,0.0,0.0
248,12.4,0.0,0.0,51.766,0.0,0.0,0.0,0.0,0.0,0.0,0,70,0.0,0.0,0.0
249,12.450000000000001,0.0,0.0,51.766,0.0,0.0,0.0,0.0,0.0,0.0,0,70,0.0,0.0,0.0
250,12.5,0.0,0.0,51.766,0.0,0.0,0.0,0.0,0.0,0.0,0,70,0.0,0.0,0.0
251,12.55,0.0,0.0,51.766,0.0,0.0,0.0,0.0,0.0,0.0,0,70,0.0,0.0,0.0
252,12.600000000000001,0.0,0.0,51.766,0.0,0.0,0.0,0.0,0.0,0.0,0,70,0.0,0.0,0.0
253,12.65,0.0,0.0,51.766,0.0,0.0,0.0,0.0,0.0,0.0,0,70,0.0,0.0,0.0
254,12.700000000000001,0.0,0.0,51.766,0.0,0.0,0.0,0.0,0.0,0.0,0,70,0.0,0.0,0.0
255,12.75,0.0,0.0,51.766,0.0,0.0,0.0,0.0,0.0,0.0,0,70,0.0,0.0,0.0
256,12.8,0.0,0.0,51.766,0.0,0.0,0.0,0.0,0.0,0.0,0,70,0.0,0.0,0.0
257,12.850000000000001,0.0,0.0,51.766,0.0,0.0,0.0,0.0,0.0,0.0,0,70,0.0,0.0,0.0
258,12.9,0.0,0.0,51.766,0.0,0.0,0.0,0.0,0.0,0.0,0,70,0.0,0.0,0.0
259,12.950000000000001,0.0,0.0,51.766,0.0,0.0,0.0,0.0,0.0,0.0,0,70,0.0,0.0,0.0
260,13.0,0.0,0.0,51.766,0.0,0.0,0.0,0.0,0.0,0.0,0,70,0.0,0.0,0.0
261,13.05,0.0,0.0,51.766,0.0,0.0,0.0,0.0,0.0,0.0,0,70,0.0,0.0,0.0
262,13.100000000000001,0.0,0.0,51.766,0.0,0.0,0.0,0.0,0.0,0.0,0,70,0.0,0.0,0.0
263,13.15,0.0,0.0,51.766,0.0,0.0,0.0,0.0,0.0,0.0,0,70,0.0,0.0,0.0
264,13.200000000000001,0.0,0.0,51.766,0.0,0.0,0.0,0.0,0.0,0.0,0,70,0.0,0.0,0.0
265,13.25,0.0,0.0,51.766,0.0,0.0,0.0,0.0,0.0,0.0,0,70,0.0,0.0,0.0
266,13.3,0.0,0.0,51.766,0.0,0.0,0.0,0.0,0.0,0.0,0,70,0.0,0.0,0.0
267,13.350000000000001,0.0,0.0,51.766,0.0,0.0,0.0,0.0,0.0,0.0,0,70,0.0,0.0,0.0
268,13.4,0.0,0.0,51.766,0.0,0.0,0.0,0.0,0.0,0.0,0,70,0.0,0.0,0.0
269,13.450000000000001,0.0,0.0,51.766,0.0,0.0,0.0,0.0,0.0,0.0,0,70,0.0,0.0,0.0
270,13.5,0.0,0.0,51.766,0.0,0.0,0.0,0.0,0.0,0.0,0,70,0.0,0.0,0.0
271,13.55,0.0,0.0,51.766,0.0,0.0,0.0,0.0,0.0,0.0,0,70,0.0,0.0,0.0
272,13.600000000000001,0.0,0.0,51.766,0.0,0.0,0.0,0.0,0.0,0.0,0,70,0.0,0.0,0.0
273,13.65,0.0,0.0,51.766,0.0,0.0,0.0,0.0,0.0,0.0,0,70,0.0,0.0,0.0
274,13.700000000000001,0.0,0.0,51.766,0.0,0.0,0.0,0.0,0.0,0.0,0,70,0.0,0.0,0.0
275,13.75,0.0,0.0,51.766,0.0,0.0,0.0,0.0,0.0,0.0,0,70,0.0,0.0,0.0
276,13.8,0.0,0.0,51.766,0.0,0.0,0.0,0.0,0.0,0.0,0,70,0.0,0.0,0.0
277,13.850000000000001,0.0,0.0,51.766,0.0,0.0,0.0,0.0,0.0,0.0,0,70,0.0,0.0,0.0
278,13.9,0.0,0.0,51.766,0.0,0.0,0.0,0.0,0.0,0.0,0,70,0.0,0.0,0.0
279,13.950000000000001,0.0,0.0,51.766,0.0,0.0,0.0,0.0,0.0,0.0,0,70,0.0,0.0,0.0
280,14.0,0.0,0.0,51.766,0.0,0.0,0.0,0.0,0.0,0.0,0,70,0.0,0.0,0.0
281,14.05,0.0,0.0,51.766,0.0,0.0,0.0,0.0,0.0,0.0,0,70,0.0,0.0,0.0
282,14.100000000000001,0.0,0.0,51.766,0.0,0.0,0.0,0.0,0.0,0.0,0,70,0.0,0.0,0.0
283,14.15,0.0,0.0,51.766,0.0,0.0,0.0,0.0,0.0,0.0,0,70,0.0,0.0,0.0
284,14.200000000000001,0.0,0.0,51.766,0.0,0.0,0.0,0.0,0.0,0.0,0,70,0.0,0.0,0.0
285,14.25,0.0,0.0,51.766,0.0,0.0,0.0,0.0,0.0,0.0,0,70,0.0,0.0,0.0
286,14.3,0.0,0.0,51.766,0.0,0.0,0.0,0.0,0.0,0.0,0,70,0.0,0.0,0.0
287,14.350000000000001,0.0,0.0,51.766,0.0,0.0,0.0,0.0,0.0,0.0,0,70,0.0,0.0,0.0
288,14.4,0.0,0.0,51.766,0.0,0.0,0.0,0.0,0.0,0.0,0,70,0.0,0.0,0.0
289,14.450000000000001,0.0,0.0,51.766,0.0,0.0,0.0,0.0,0.0,0.0,0,70,0.0,0.0,0.0
290,14.5,0.0,0.0,51.766,0.0,0.0,0.0,0.0,0.0,0.0,0,70,0.0,0.0,0.0
291,14.55,0.0,0.0,51.766,0.0,0.0,0.0,0.0,0.0,0.0,0,70,0.0,0.0,0.0
292,14.600000000000001,0.0,0.0,51.766,0.0,0.0,0.0,0.0,0.0,0.0,0,70,0.0,0.0,0.0
293,14.65,0.0,0.0,51.766,0.0,0.0,0.0,0.0,0.0,0.0,0,70,0.0,0.0,0.0
294,14.700000000000001,0.0,0.0,51.766,0.0,0.0,0.0,0.0,0.0,0.0,0,70,0.0,0.0,0.0
295,14.75,0.0,0.0,51.766,0.0,0.0,0.0,0.0,0.0,0.0,0,70,0.0,0.0,0.0
296,14.8,0.0,0.0,51.766,0.0,0.0,0.0,0.0,0.0,0.0,0,70,0.0,0.0,0.0
297,14.850000000000001,0.0,0.0,51.766,0.0,0.0,0.0,0.0,0.0,0.0,0,70,0.0,0.0,0.0
298,14.9,0.0,0.0,51.766,0.0,0.0,0.0,0.0,0.0,0.0,0,70,0.0,0.0,0.0
299,14.950000000000001,0.0,0.0,51.766,0.0,0.0,0.0,0.0,0.0,0.0,0,70,0.0,0.0,0.0
300,15.0,0.0,0.0,51.766,0.0,0.0,0.0,0.0,0.0,0.0,0,70,0.0,0.0,0.0
301,15.05,0.0,0.0,51.766,0.0,0.0,0.0,0.0,0.0,0.0,0,70,0.0,0.0,0.0
302,15.100000000000001,0.0,0.0,51.766,0.0,0.0,0.0,0.0,0.0,0.0,0,70,0.0,0.0,0.0
303,15.15,0.0,0.0,51.766,0.0,0.0,0.0,0.0,0.0,0.0,0,70,0.0,0.0,0.0
304,15.200000000000001,0.0,0.0,51.766,0.0,0.0,0.0,0.0,0.0,0.0,0,70,0.0,0.0,0.0
305,15.25,0.0,0.0,51.766,0.0,0.0,0.0,0.0,0.0,0.0,0,70,0.0,0.0,0.0
306,15.3,0.0,0.0,51.766,0.0,0.0,0.0,0.0,0.0,0.0,0,70,0.0,0.0,0.0
307,15.350000000000001,0.0,0.0,51.766,0.0,0.0,0.0,0.0,0.0,0.0,0,70,0.0,0.0,0.0
308,15.4,0.0,0.0,51.766,0.0,0.0,0.0,0.0,0.0,0.0,0,70,0.0,0.0,0.0
309,15.450000000000001,0.0,0.0,51.766,0.0,0.0,0.0,0.0,0.0,0.0,0,70,0.0,0.0,0.0
310,15.5,0.0,0.0,51.766,0.0,0.0,0.0,0.0,0.0,0.0,0,70,0.0,0.0,0.0
311,15.55,0.0,0.0,51.766,0.0,0.0,0.0,0.0,0.0,0.0,0,70,0.0,0.0,0.0
312,15.600000000000001,0.0,0.0,51.766,0.0,0.0,0.0,0.0,0.0,0.0,0,70,0.0,0.0,0.0
313,15.65,0.0,0.0,51.766,0.0,0.0,0.0,0.0,0.0,0.0,0,70,0.0,0.0,0.0
314,15.700000000000001,0.0,0.0,51.766,0.0,0.0,0.0,0.0,0.0,0.0,0,70,0.0,0.0,0.0
315,15.75,0.0,0.0,51.766,0.0,0.0,0.0,0.0,0.0,0.0,0,70,0.0,0.0,0.0
316,15.8,0.0,0.0,51.766,0.0,0.0,0.0,0.0,0.0,0.0,0,70,0.0,0.0,0.0
317,15.850000000000001,0.0,0.0,51.766,0.0,0.0,0.0,0.0,0.0,0.0,0,70,0.0,0.0,0.0
318,15.9,0.0,0.0,51.766,0.0,0.0,0.0,0.0,0.0,0.0,0,70,0.0,0.0,0.0
319,15.950000000000001,0.0,0.0,51.766,0.0,0.0,0.0,0.0,0.0,0.0,0,70,0.0,0.0,0.0
320,16.0,0.0,0.0,51.766,0.0,0.0,0.0,0.0,0.0,0.0,0,70,0.0,0.0,0.0
321,16.05,0.0,0.0,51.766,0.0,0.0,0.0,0.0,0.0,0.0,0,70,0.0,0.0,0.0
322,16.1,0.0,0.0,51.766,0.0,0.0,0.0,0.0,0.0,0.0,0,70,0.0,0.0,0.0
323,16.150000000000002,0.0,0.0,51.766,0.0,0.0,0.0,0.0,0.0,0.0,0,70,0.0,0.0,0.0
324,16.2,0.0,0.0,51.766,0.0,0.0,0.0,0.0,0.0,0.0,0,70,0.0,0.0,0.0
325,16.25,0.0,0.0,51.766,0.0,0.0,0.0,0.0,0.0,0.0,0,70,0.0,0.0,0.0
326,16.3,0.0,0.0,51.766,0.0,0.0,0.0,0.0,0.0,0.0,0,70,0.0,0.0,0.0
327,16.35,0.0,0.0,51.766,0.0,0.0,0.0,0.0,0.0,0.0,0,70,0.0,0.0,0.0
328,16.400000000000002,0.0,0.0,51.766,0.0,0.0,0.0,0.0,0.0,0.0,0,70,0.0,0.0,0.0
329,16.45,0.0,0.0,51.766,0.0,0.0,0.0,0.0,0.0,0.0,0,70,0.0,0.0,0.0
330,16.5,0.0,0.0,51.766,0.0,0.0,0.0,0.0,0.0,0.0,0,70,0.0,0.0,0.0
331,16.55,0.0,0.0,51.766,0.0,0.0,0.0,0.0,0.0,0.0,0,70,0.0,0.0,0.0
332,16.6,0.0,0.0,51.766,0.0,0.0,0.0,0.0,0.0,0.0,0,70,0.0,0.0,0.0
333,16.650000000000002,0.0,0.0,51.766,0.0,0.0,0.0,0.0,0.0,0.0,0,70,0.0,0.0,0.0
334,16.7,0.0,0.0,51.766,0.0,0.0,0.0,0.0,0.0,0.0,0,70,0.0,0.0,0.0
335,16.75,0.0,0.0,51.766,0.0,0.0,0.0,0.0,0.0,0.0,0,70,0.0,0.0,0.0
336,16.8,0.0,0.0,51.766,0.0,0.0,0.0,0.0,0.0,0.0,0,70,0.0,0.0,0.0
337,16.85,0.0,0.0,51.766,0.0,0.0,0.0,0.0,0.0,0.0,0,70,0.0,0.0,0.0
338,16.900000000000002,0.0,0.0,51.766,0.0,0.0,0.0,0.0,0.0,0.0,0,70,0.0,0.0,0.0
339,16.95,0.0,0.0,51.766,0.0,0.0,0.0,0.0,0.0,0.0,0,70,0.0,0.0,0.0
340,17.0,0.0,0.0,51.766,0.0,0.0,0.0,0.0,0.0,0.0,0,70,0.0,0.0,0.0
341,17.05,0.0,0.0,51.766,0.0,0.0,0.0,0.0,0.0,0.0,0,70,0.0,0.0,0.0
342,17.1,0.0,0.0,51.766,0.0,0.0,0.0,0.0,0.0,0.0,0,70,0.0,0.0,0.0
343,17.150000000000002,0.0,0.0,51.766,0.0,0.0,0.0,0.0,0.0,0.0,0,70,0.0,0.0,0.0
344,17.2,0.0,0.0,51.766,0.0,0.0,0.0,0.0,0.0,0.0,0,70,0.0,0.0,0.0
345,17.25,0.0,0.0,51.766,0.0,0.0,0.0,0.0,0.0,0.0,0,70,0.0,0.0,0.0
346,17.3,0.0,0.0,51.766,0.0,0.0,0.0,0.0,0.0,0.0,0,70,0.0,0.0,0.0
347,17.35,0.0,0.0,51.766,0.0,0.0,0.0,0.0,0.0,0.0,0,70,0.0,0.0,0.0
348,17.400000000000002,0.0,0.0,51.766,0.0,0.0,0.0,0.0,0.0,0.0,0,70,0.0,0.0,0.0
349,17.45,0.0,0.0,51.766,0.0,0.0,0.0,0.0,0.0,0.0,0,70,0.0,0.0,0.0
350,17.5,0.0,0.0,51.766,0.0,0.0,0.0,0.0,0.0,0.0,0,70,0.0,0.0,0.0
351,17.55,0.0,0.0,51.766,0.0,0.0,0.0,0.0,0.0,0.0,0,70,0.0,0.0,0.0
352,17.6,0.0,0.0,51.766,0.0,0.0,0.0,0.0,0.0,0.0,0,70,0.0,0.0,0.0
353,17.650000000000002,0.0,0.0,51.766,0.0,0.0,0.0,0.0,0.0,0.0,0,70,0.0,0.0,0.0
354,17.7,0.0,0.0,51.766,0.0,0.0,0.0,0.0,0.0,0.0,0,70,0.0,0.0,0.0
355,17.75,0.0,0.0,51.766,0.0,0.0,0.0,0.0,0.0,0.0,0,70,0.0,0.0,0.0
356,17.8,0.0,0.0,51.766,0.0,0.0,0.0,0.0,0.0,0.0,0,70,0.0,0.0,0.0
357,17.85,0.0,0.0,51.766,0.0,0.0,0.0,0.0,0.0,0.0,0,70,0.0,0.0,0.0
358,17.900000000000002,0.0,0.0,51.766,0.0,0.0,0.0,0.0,0.0,0.0,0,70,0.0,0.0,0.0
359,17.95,0.0,0.0,51.766,0.0,0.0,0.0,0.0,0.0,0.0,0,70,0.0,0.0,0.0
360,18.0,0.0,0.0,51.766,0.0,0.0,0.0,0.0,0.0,0.0,0,70,0.0,0.0,0.0
361,18.05,0.0,0.0,51.766,0.0,0.0,0.0,0.0,0.0,0.0,0,70,0.0,0.0,0.0
362,18.1,0.0,0.0,51.766,0.0,0.0,0.0,0.0,0.0,0.0,0,70,0.0,0.0,0.0
363,18.150000000000002,0.0,0.0,51.766,0.0,0.0,0.0,0.0,0.0,0.0,0,70,0.0,0.0,0.0
364,18.2,0.0,0.0,51.766,0.0,0.0,0.0,0.0,0.0,0.0,0,70,0.0,0.0,0.0
365,18.25,0.0,0.0,51.766,0.0,0.0,0.0,0.0,0.0,0.0,0,70,0.0,0.0,0.0
366,18.3,0.0,0.0,51.766,0.0,0.0,0.0,0.0,0.0,0.0,0,70,0.0,0.0,0.0
367,18.35,0.0,0.0,51.766,0.0,0.0,0.0,0.0,0.0,0.0,0,70,0.0,0.0,0.0
368,18.400000000000002,0.0,0.0,51.766,0.0,0.0,0.0,0.0,0.0,0.0,0,70,0.0,0.0,0.0
369,18.45,0.0,0.0,51.766,0.0,0.0,0.0,0.0,0.0,0.0,0,70,0.0,0.0,0.0
370,18.5,0.0,0.0,51.766,0.0,0.0,0.0,0.0,0.0,0.0,0,70,0.0,0.0,0.0
371,18.55,0.0,0.0,51.766,0.0,0.0,0.0,0.0,0.0,0.0,0,70,0.0,0.0,0.0
372,18.6,0.0,0.0,51.766,0.0,0.0,0.0,0.0,0.0,0.0,0,70,0.0,0.0,0.0
373,18.650000000000002,0.0,0.0,51.766,0.0,0.0,0.0,0.0,0.0,0.0,0,70,0.0,0.0,0.0
374,18.7,0.0,0.0,51.766,0.0,0.0,0.0,0.0,0.0,0.0,0,70,0.0,0.0,0.0
375,18.75,0.0,0.0,51.766,0.0,0.0,0.0,0.0,0.0,0.0,0,70,0.0,0.0,0.0
376,18.8,0.0,0.0,51.766,0.0,0.0,0.0,0.0,0.0,0.0,0,70,0.0,0.0,0.0
377,18.85,0.0,0.0,51.766,0.0,0.0,0.0,0.0,0.0,0.0,0,70,0.0,0.0,0.0
378,18.900000000000002,0.0,0.0,51.766,0.0,0.0,0.0,0.0,0.0,0.0,0,70,0.0,0.0,0.0
379,18.95,0.0,0.0,51.766,0.0,0.0,0.0,0.0,0.0,0.0,0,70,0.0,0.0,0.0
380,19.0,0.0,0.0,51.766,0.0,0.0,0.0,0.0,0.0,0.0,0,70,0.0,0.0,0.0
381,19.05,0.0,0.0,51.766,0.0,0.0,0.0,0.0,0.0,0.0,0,70,0.0,0.0,0.0
382,19.1,0.0,0.0,51.766,0.0,0.0,0.0,0.0,0.0,0.0,0,70,0.0,0.0,0.0
383,19.150000000000002,0.0,0.0,51.766,0.0,0.0,0.0,0.0,0.0,0.0,0,70,0.0,0.0,0.0
384,19.200000000000003,0.0,0.0,51.766,0.0,0.0,0.0,0.0,0.0,0.0,0,70,0.0,0.0,0.0
385,19.25,0.0,0.0,51.766,0.0,0.0,0.0,0.0,0.0,0.0,0,70,0.0,0.0,0.0
386,19.3,0.0,0.0,51.766,0.0,0.0,0.0,0.0,0.0,0.0,0,70,0.0,0.0,0.0
387,19.35,0.0,0.0,51.766,0.0,0.0,0.0,0.0,0.0,0.0,0,70,0.0,0.0,0.0
388,19.400000000000002,0.0,0.0,51.766,0.0,0.0,0.0,0.0,0.0,0.0,0,70,0.0,0.0,0.0
389,19.450000000000003,0.0,0.0,51.766,0.0,0.0,0.0,0.0,0.0,0.0,0,70,0.0,0.0,0.0
390,19.5,0.0,0.0,51.766,0.0,0.0,0.0,0.0,0.0,0.0,0,70,0.0,0.0,0.0
391,19.55,0.0,0.0,51.766,0.0,0.0,0.0,0.0,0.0,0.0,0,70,0.0,0.0,0.0
392,19.6,0.0,0.0,51.766,0.0,0.0,0.0,0.0,0.0,0.0,0,70,0.0,0.0,0.0
393,19.650000000000002,0.0,0.0,51.766,0.0,0.0,0.0,0.0,0.0,0.0,0,70,0.0,0.0,0.0
394,19.700000000000003,0.0,0.0,51.766,0.0,0.0,0.0,0.0,0.0,0.0,0,70,0.0,0.0,0.0
395,19.75,0.0,0.0,51.766,0.0,0.0,0.0,0.0,0.0,0.0,0,70,0.0,0.0,0.0
396,19.8,0.0,0.0,51.766,0.0,0.0,0.0,0.0,0.0,0.0,0,70,0.0,0.0,0.0
397,19.85,0.0,0.0,51.766,0.0,0.0,0.0,0.0,0.0,0.0,0,70,0.0,0.0,0.0
398,19.900000000000002,0.0,0.0,51.766,0.0,0.0,0.0,0.0,0.0,0.0,0,70,0.0,0.0,0.0
399,19.950000000000003,0.0,0.0,51.766,0.0,0.0,0.0,0.0,0.0,0.0,0,70,0.0,0.0,0.0
400,20.0,0.0,0.0,51.766,0.0,0.0,0.0,0.0,0.0,0.0,0,70,0.0,0.0,0.0
401,20.05,0.0,0.0,51.766,0.0,0.0,0.0,0.0,0.0,0.0,0,70,0.0,0.0,0.0
402,20.1,0.0,0.0,51.766,0.0,0.0,0.0,0.0,0.0,0.0,0,70,0.0,0.0,0.0
403,20.150000000000002,0.0,0.0,51.766,0.0,0.0,0.0,0.0,0.0,0.0,0,70,0.0,0.0,0.0
404,20.200000000000003,0.0,0.0,51.766,0.0,0.0,0.0,0.0,0.0,0.0,0,70,0.0,0.0,0.0
405,20.25,0.0,0.0,51.766,0.0,0.0,0.0,0.0,0.0,0.0,0,70,0.0,0.0,0.0
406,20.3,0.0,0.0,51.766,0.0,0.0,0.0,0.0,0.0,0.0,0,70,0.0,0.0,0.0
407,20.35,0.0,0.0,51.766,0.0,0.0,0.0,0.0,0.0,0.0,0,70,0.0,0.0,0.0
408,20.400000000000002,0.0,0.0,51.766,0.0,0.0,0.0,0.0,0.0,0.0,0,70,0.0,0.0,0.0
409,20.450000000000003,0.0,0.0,51.766,0.0,0.0,0.0,0.0,0.0,0.0,0,70,0.0,0.0,0.0
410,20.5,0.0,0.0,51.766,0.0,0.0,0.0,0.0,0.0,0.0,0,70,0.0,0.0,0.0
411,20.55,0.0,0.0,51.766,0.0,0.0,0.0,0.0,0.0,0.0,0,70,0.0,0.0,0.0
412,20.6,0.0,0.0,51.766,0.0,0.0,0.0,0.0,0.0,0.0,0,70,0.0,0.0,0.0
413,20.650000000000002,0.0,0.0,51.766,0.0,0.0,0.0,0.0,0.0,0.0,0,70,0.0,0.0,0.0
414,20.700000000000003,0.0,0.0,51.766,0.0,0.0,0.0,0.0,0.0,0.0,0,70,0.0,0.0,0.0
415,20.75,0.0,0.0,51.766,0.0,0.0,0.0,0.0,0.0,0.0,0,70,0.0,0.0,0.0
416,20.8,0.0,0.0,51.766,0.0,0.0,0.0,0.0,0.0,0.0,0,70,0.0,0.0,0.0
417,20.85,0.0,0.0,51.766,0.0,0.0,0.0,0.0,0.0,0.0,0,70,0.0,0.0,0.0
418,20.900000000000002,0.0,0.0,51.766,0.0,0.0,0.0,0.0,0.0,0.0,0,70,0.0,0.0,0.0
419,20.950000000000003,0.0,0.0,51.766,0.0,0.0,0.0,0.0,0.0,0.0,0,70,0.0,0.0,0.0
420,21.0,0.0,0.0,51.766,0.0,0.0,0.0,0.0,0.0,0.0,0,70,0.0,0.0,0.0
421,21.05,0.0,0.0,51.766,0.0,0.0,0.0,0.0,0.0,0.0,0,70,0.0,0.0,0.0
422,21.1,0.0,0.0,51.766,0.0,0.0,0.0,0.0,0.0,0.0,0,70,0.0,0.0,0.0
423,21.150000000000002,0.0,0.0,51.766,0.0,0.0,0.0,0.0,0.0,0.0,0,70,0.0,0.0,0.0
424,21.200000000000003,0.0,0.0,51.766,0.0,0.0,0.0,0.0,0.0,0.0,0,70,0.0,0.0,0.0
425,21.25,0.0,0.0,51.766,0.0,0.0,0.0,0.0,0.0,0.0,0,70,0.0,0.0,0.0
426,21.3,0.0,0.0,51.766,0.0,0.0,0.0,0.0,0.0,0.0,0,70,0.0,0.0,0.0
427,21.35,0.0,0.0,51.766,0.0,0.0,0.0,0.0,0.0,0.0,0,70,0.0,0.0,0.0
428,21.400000000000002,0.0,0.0,51.766,0.0,0.0,0.0,0.0,0.0,0.0,0,70,0.0,0.0,0.0
429,21.450000000000003,0.0,0.0,51.766,0.0,0.0,0.0,0.0,0.0,0.0,0,70,0.0,0.0,0.0
430,21.5,0.0,0.0,51.766,0.0,0.0,0.0,0.0,0.0,0.0,0,70,0.0,0.0,0.0
431,21.55,0.0,0.0,51.766,0.0,0.0,0.0,0.0,0.0,0.0,0,70,0.0,0.0,0.0
432,21.6,0.0,0.0,51.766,0.0,0.0,0.0,0.0,0.0,0.0,0,70,0.0,0.0,0.0
433,21.650000000000002,0.0,0.0,51.766,0.0,0.0,0.0,0.0,0.0,0.0,0,70,0.0,0.0,0.0
434,21.700000000000003,0.0,0.0,51.766,0.0,0.0,0.0,0.0,0.0,0.0,0,70,0.0,0.0,0.0
435,21.75,0.0,0.0,51.766,0.0,0.0,0.0,0.0,0.0,0.0,0,70,0.0,0.0,0.0
436,21.8,0.0,0.0,51.766,0.0,0.0,0.0,0.0,0.0,0.0,0,70,0.0,0.0,0.0
437,21.85,0.0,0.0,51.766,0.0,0.0,0.0,0.0,0.0,0.0,0,70,0.0,0.0,0.0
438,21.900000000000002,0.0,0.0,51.766,0.0,0.0,0.0,0.0,0.0,0.0,0,70,0.0,0.0,0.0
439,21.950000000000003,0.0,0.0,51.766,0.0,0.0,0.0,0.0,0.0,0.0,0,70,0.0,0.0,0.0
440,22.0,0.0,0.0,51.766,0.0,0.0,0.0,0.0,0.0,0.0,0,70,0.0,0.0,0.0
441,22.05,0.0,0.0,51.766,0.0,0.0,0.0,0.0,0.0,0.0,0,70,0.0,0.0,0.0
442,22.1,0.0,0.0,51.766,0.0,0.0,0.0,0.0,0.0,0.0,0,70,0.0,0.0,0.0
443,22.150000000000002,0.0,0.0,51.766,0.0,0.0,0.0,0.0,0.0,0.0,0,70,0.0,0.0,0.0
444,22.200000000000003,0.0,0.0,51.766,0.0,0.0,0.0,0.0,0.0,0.0,0,70,0.0,0.0,0.0
445,22.25,0.0,0.0,51.766,0.0,0.0,0.0,0.0,0.0,0.0,0,70,0.0,0.0,0.0
446,22.3,0.0,0.0,51.766,0.0,0.0,0.0,0.0,0.0,0.0,0,70,0.0,0.0,0.0
447,22.35,0.0,0.0,51.766,0.0,0.0,0.0,0.0,0.0,0.0,0,70,0.0,0.0,0.0
448,22.400000000000002,0.0,0.0,51.766,0.0,0.0,0.0,0.0,0.0,0.0,0,70,0.0,0.0,0.0
449,22.450000000000003,0.0,0.0,51.766,0.0,0.0,0.0,0.0,0.0,0.0,0,70,0.0,0.0,0.0
450,22.5,0.0,0.0,51.766,0.0,0.0,0.0,0.0,0.0,0.0,0,70,0.0,0.0,0.0
451,22.55,0.0,0.0,51.766,0.0,0.0,0.0,0.0,0.0,0.0,0,70,0.0,0.0,0.0
452,22.6,0.0,0.0,51.766,0.0,0.0,0.0,0.0,0.0,0.0,0,70,0.0,0.0,0.0
453,22.650000000000002,0.0,0.0,51.766,0.0,0.0,0.0,0.0,0.0,0.0,0,70,0.0,0.0,0.0
454,22.700000000000003,0.0,0.0,51.766,0.0,0.0,0.0,0.0,0.0,0.0,0,70,0.0,0.0,0.0
455,22.75,0.0,0.0,51.766,0.0,0.0,0.0,0.0,0.0,0.0,0,70,0.0,0.0,0.0
456,22.8,0.0,0.0,51.766,0.0,0.0,0.0,0.0,0.0,0.0,0,70,0.0,0.0,0.0
457,22.85,0.0,0.0,51.766,0.0,0.0,0.0,0.0,0.0,0.0,0,70,0.0,0.0,0.0
458,22.900000000000002,0.0,0.0,51.766,0.0,0.0,0.0,0.0,0.0,0.0,0,70,0.0,0.0,0.0
459,22.950000000000003,0.0,0.0,51.766,0.0,0.0,0.0,0.0,0.0,0.0,0,70,0.0,0.0,0.0
460,23.0,0.0,0.0,51.766,0.0,0.0,0.0,0.0,0.0,0.0,0,70,0.0,0.0,0.0
461,23.05,0.0,0.0,51.766,0.0,0.0,0.0,0.0,0.0,0.0,0,70,0.0,0.0,0.0
462,23.1,0.0,0.0,51.766,0.0,0.0,0.0,0.0,0.0,0.0,0,70,0.0,0.0,0.0
463,23.150000000000002,0.0,0.0,51.766,0.0,0.0,0.0,0.0,0.0,0.0,0,70,0.0,0.0,0.0
464,23.200000000000003,0.0,0.0,51.766,0.0,0.0,0.0,0.0,0.0,0.0,0,70,0.0,0.0,0.0
465,23.25,0.0,0.0,51.766,0.0,0.0,0.0,0.0,0.0,0.0,0,70,0.0,0.0,0.0
466,23.3,0.0,0.0,51.766,0.0,0.0,0.0,0.0,0.0,0.0,0,70,0.0,0.0,0.0
467,23.35,0.0,0.0,51.766,0.0,0.0,0.0,0.0,0.0,0.0,0,70,0.0,0.0,0.0
468,23.400000000000002,0.0,0.0,51.766,0.0,0.0,0.0,0.0,0.0,0.0,0,70,0.0,0.0,0.0
469,23.450000000000003,0.0,0.0,51.766,0.0,0.0,0.0,0.0,0.0,0.0,0,70,0.0,0.0,0.0
470,23.5,0.0,0.0,51.766,0.0,0.0,0.0,0.0,0.0,0.0,0,70,0.0,0.0,0.0
471,23.55,0.0,0.0,51.766,0.0,0.0,0.0,0.0,0.0,0.0,0,70,0.0,0.0,0.0
472,23.6,0.0,0.0,51.766,0.0,0.0,0.0,0.0,0.0,0.0,0,70,0.0,0.0,0.0
473,23.650000000000002,0.0,0.0,51.766,0.0,0.0,0.0,0.0,0.0,0.0,0,70,0.0,0.0,0.0
474,23.700000000000003,0.0,0.0,51.766,0.0,0.0,0.0,0.0,0.0,0.0,0,70,0.0,0.0,0.0
475,23.75,0.0,0.0,51.766,0.0,0.0,0.0,0.0,0.0,0.0,0,70,0.0,0.0,0.0
476,23.8,0.0,0.0,51.766,0.0,0.0,0.0,0.0,0.0,0.0,0,70,0.0,0.0,0.0
477,23.85,0.0,0.0,51.766,0.0,0.0,0.0,0.0,0.0,0.0,0,70,0.0,0.0,0.0
478,23.900000000000002,0.0,0.0,51.766,0.0,0.0,0.0,0.0,0.0,0.0,0,70,0.0,0.0,0.0
479,23.950000000000003,0.0,0.0,51.766,0.0,0.0,0.0,0.0,0.0,0.0,0,70,0.0,0.0,0.0
480,24.0,0.0,0.0,51.766,0.0,0.0,0.0,0.0,0.0,0.0,0,70,0.0,0.0,0.0
481,24.05,0.0,0.0,51.766,0.0,0.0,0.0,0.0,0.0,0.0,0,70,0.0,0.0,0.0
482,24.1,0.0,0.0,51.766,0.0,0.0,0.0,0.0,0.0,0.0,0,70,0.0,0.0,0.0
483,24.150000000000002,0.0,0.0,51.766,0.0,0.0,0.0,0.0,0.0,0.0,0,70,0.0,0.0,0.0
484,24.200000000000003,0.0,0.0,51.766,0.0,0.0,0.0,0.0,0.0,0.0,0,70,0.0,0.0,0.0
485,24.25,0.0,0.0,51.766,0.0,0.0,0.0,0.0,0.0,0.0,0,70,0.0,0.0,0.0
486,24.3,0.0,0.0,51.766,0.0,0.0,0.0,0.0,0.0,0.0,0,70,0.0,0.0,0.0
487,24.35,0.0,0.0,51.766,0.0,0.0,0.0,0.0,0.0,0.0,0,70,0.0,0.0,0.0
488,24.400000000000002,0.0,0.0,51.766,0.0,0.0,0.0,0.0,0.0,0.0,0,70,0.0,0.0,0.0
489,24.450000000000003,0.0,0.0,51.766,0.0,0.0,0.0,0.0,0.0,0.0,0,70,0.0,0.0,0.0
490,24.5,0.0,0.0,51.766,0.0,0.0,0.0,0.0,0.0,0.0,0,70,0.0,0.0,0.0
491,24.55,0.0,0.0,51.766,0.0,0.0,0.0,0.0,0.0,0.0,0,70,0.0,0.0,0.0
492,24.6,0.0,0.0,51.766,0.0,0.0,0.0,0.0,0.0,0.0,0,70,0.0,0.0,0.0
493,24.650000000000002,0.0,0.0,51.766,0.0,0.0,0.0,0.0,0.0,0.0,0,70,0.0,0.0,0.0
494,24.700000000000003,0.0,0.0,51.766,0.0,0.0,0.0,0.0,0.0,0.0,0,70,0.0,0.0,0.0
495,24.75,0.0,0.0,51.766,0.0,0.0,0.0,0.0,0.0,0.0,0,70,0.0,0.0,0.0
496,24.8,0.0,0.0,51.766,0.0,0.0,0.0,0.0,0.0,0.0,0,70,0.0,0.0,0.0
497,24.85,0.0,0.0,51.766,0.0,0.0,0.0,0.0,0.0,0.0,0,70,0.0,0.0,0.0
498,24.900000000000002,0.0,0.0,51.766,0.0,0.0,0.0,0.0,0.0,0.0,0,70,0.0,0.0,0.0
499,24.950000000000003,0.0,0.0,51.766,0.0,0.0,0.0,0.0,0.0,0.0,0,70,0.0,0.0,0.0
500,25.0,0.0,0.0,51.766,0.0,0.0,0.0,0.0,0.0,0.0,0,70,0.0,0.0,0.0
501,25.05,0.0,0.0,51.766,0.0,0.0,0.0,0.0,0.0,0.0,0,70,0.0,0.0,0.0
502,25.1,0.0,0.0,51.766,0.0,0.0,0.0,0.0,0.0,0.0,0,70,0.0,0.0,0.0
503,25.150000000000002,0.0,0.0,51.766,0.0,0.0,0.0,0.0,0.0,0.0,0,70,0.0,0.0,0.0
504,25.200000000000003,0.0,0.0,51.766,0.0,0.0,0.0,0.0,0.0,0.0,0,70,0.0,0.0,0.0
505,25.25,0.0,0.0,51.766,0.0,0.0,0.0,0.0,0.0,0.0,0,70,0.0,0.0,0.0
506,25.3,0.0,0.0,51.766,0.0,0.0,0.0,0.0,0.0,0.0,0,70,0.0,0.0,0.0
507,25.35,0.0,0.0,51.766,0.0,0.0,0.0,0.0,0.0,0.0,0,70,0.0,0.0,0.0
508,25.400000000000002,0.0,0.0,51.766,0.0,0.0,0.0,0.0,0.0,0.0,0,70,0.0,0.0,0.0
509,25.450000000000003,0.0,0.0,51.766,0.0,0.0,0.0,0.0,0.0,0.0,0,70,0.0,0.0,0.0
510,25.5,0.0,0.0,51.766,0.0,0.0,0.0,0.0,0.0,0.0,0,70,0.0,0.0,0.0
511,25.55,0.0,0.0,51.766,0.0,0.0,0.0,0.0,0.0,0.0,0,70,0.0,0.0,0.0
512,25.6,0.0,0.0,51.766,0.0,0.0,0.0,0.0,0.0,0.0,0,70,0.0,0.0,0.0
513,25.650000000000002,0.0,0.0,51.766,0.0,0.0,0.0,0.0,0.0,0.0,0,70,0.0,0.0,0.0
514,25.700000000000003,0.0,0.0,51.766,0.0,0.0,0.0,0.0,0.0,0.0,0,70,0.0,0.0,0.0
515,25.75,0.0,0.0,51.766,0.0,0.0,0.0,0.0,0.0,0.0,0,70,0.0,0.0,0.0
516,25.8,0.0,0.0,51.766,0.0,0.0,0.0,0.0,0.0,0.0,0,70,0.0,0.0,0.0
517,25.85,0.0,0.0,51.766,0.0,0.0,0.0,0.0,0.0,0.0,0,70,0.0,0.0,0.0
518,25.900000000000002,0.0,0.0,51.766,0.0,0.0,0.0,0.0,0.0,0.0,0,70,0.0,0.0,0.0
519,25.950000000000003,0.0,0.0,51.766,0.0,0.0,0.0,0.0,0.0,0.0,0,70,0.0,0.0,0.0
520,26.0,0.0,0.0,51.766,0.0,0.0,0.0,0.0,0.0,0.0,0,70,0.0,0.0,0.0
521,26.05,0.0,0.0,51.766,0.0,0.0,0.0,0.0,0.0,0.0,0,70,0.0,0.0,0.0
522,26.1,0.0,0.0,51.766,0.0,0.0,0.0,0.0,0.0,0.0,0,70,0.0,0.0,0.0
523,26.150000000000002,0.0,0.0,51.766,0.0,0.0,0.0,0.0,0.0,0.0,0,70,0.0,0.0,0.0
524,26.200000000000003,0.0,0.0,51.766,0.0,0.0,0.0,0.0,0.0,0.0,0,70,0.0,0.0,0.0
525,26.25,0.0,0.0,51.766,0.0,0.0,0.0,0.0,0.0,0.0,0,70,0.0,0.0,0.0
526,26.3,0.0,0.0,51.766,0.0,0.0,0.0,0.0,0.0,0.0,0,70,0.0,0.0,0.0
527,26.35,0.0,0.0,51.766,0.0,0.0,0.0,0.0,0.0,0.0,0,70,0.0,0.0,0.0
528,26.400000000000002,0.0,0.0,51.766,0.0,0.0,0.0,0.0,0.0,0.0,0,70,0.0,0.0,0.0
529,26.450000000000003,0.0,0.0,51.766,0.0,0.0,0.0,0.0,0.0,0.0,0,70,0.0,0.0,0.0
530,26.5,0.0,0.0,51.766,0.0,0.0,0.0,0.0,0.0,0.0,0,70,0.0,0.0,0.0
531,26.55,0.0,0.0,51.766,0.0,0.0,0.0,0.0,0.0,0.0,0,70,0.0,0.0,0.0
532,26.6,0.0,0.0,51.766,0.0,0.0,0.0,0.0,0.0,0.0,0,70,0.0,0.0,0.0
533,26.650000000000002,0.0,0.0,51.766,0.0,0.0,0.0,0.0,0.0,0.0,0,70,0.0,0.0,0.0
534,26.700000000000003,0.0,0.0,51.766,0.0,0.0,0.0,0.0,0.0,0.0,0,70,0.0,0.0,0.0
535,26.75,0.0,0.0,51.766,0.0,0.0,0.0,0.0,0.0,0.0,0,70,0.0,0.0,0.0
536,26.8,0.0,0.0,51.766,0.0,0.0,0.0,0.0,0.0,0.0,0,70,0.0,0.0,0.0
537,26.85,0.0,0.0,51.766,0.0,0.0,0.0,0.0,0.0,0.0,0,70,0.0,0.0,0.0
538,26.900000000000002,0.0,0.0,51.766,0.0,0.0,0.0,0.0,0.0,0.0,0,70,0.0,0.0,0.0
539,26.950000000000003,0.0,0.0,51.766,0.0,0.0,0.0,0.0,0.0,0.0,0,70,0.0,0.0,0.0
540,27.0,0.0,0.0,51.766,0.0,0.0,0.0,0.0,0.0,0.0,0,70,0.0,0.0,0.0
541,27.05,0.0,0.0,51.766,0.0,0.0,0.0,0.0,0.0,0.0,0,70,0.0,0.0,0.0
542,27.1,0.0,0.0,51.766,0.0,0.0,0.0,0.0,0.0,0.0,0,70,0.0,0.0,0.0
543,27.150000000000002,0.0,0.0,51.766,0.0,0.0,0.0,0.0,0.0,0.0,0,70,0.0,0.0,0.0
544,27.200000000000003,0.0,0.0,51.766,0.0,0.0,0.0,0.0,0.0,0.0,0,70,0.0,0.0,0.0
545,27.25,0.0,0.0,51.766,0.0,0.0,0.0,0.0,0.0,0.0,0,70,0.0,0.0,0.0
546,27.3,0.0,0.0,51.766,0.0,0.0,0.0,0.0,0.0,0.0,0,70,0.0,0.0,0.0
547,27.35,0.0,0.0,51.766,0.0,0.0,0.0,0.0,0.0,0.0,0,70,0.0,0.0,0.0
548,27.400000000000002,0.0,0.0,51.766,0.0,0.0,0.0,0.0,0.0,0.0,0,70,0.0,0.0,0.0
549,27.450000000000003,0.0,0.0,51.766,0.0,0.0,0.0,0.0,0.0,0.0,0,70,0.0,0.0,0.0
550,27.5,0.0,0.0,51.766,0.0,0.0,0.0,0.0,0.0,0.0,0,70,0.0,0.0,0.0
551,27.55,0.0,0.0,51.766,0.0,0.0,0.0,0.0,0.0,0.0,0,70,0.0,0.0,0.0
552,27.6,0.0,0.0,51.766,0.0,0.0,0.0,0.0,0.0,0.0,0,70,0.0,0.0,0.0
553,27.650000000000002,0.0,0.0,51.766,0.0,0.0,0.0,0.0,0.0,0.0,0,70,0.0,0.0,0.0
554,27.700000000000003,0.0,0.0,51.766,0.0,0.0,0.0,0.0,0.0,0.0,0,70,0.0,0.0,0.0
555,27.75,0.0,0.0,51.766,0.0,0.0,0.0,0.0,0.0,0.0,0,70,0.0,0.0,0.0
556,27.8,0.0,0.0,51.766,0.0,0.0,0.0,0.0,0.0,0.0,0,70,0.0,0.0,0.0
557,27.85,0.0,0.0,51.766,0.0,0.0,0.0,0.0,0.0,0.0,0,70,0.0,0.0,0.0
558,27.900000000000002,0.0,0.0,51.766,0.0,0.0,0.0,0.0,0.0,0.0,0,70,0.0,0.0,0.0
559,27.950000000000003,0.0,0.0,51.766,0.0,0.0,0.0,0.0,0.0,0.0,0,70,0.0,0.0,0.0
560,28.0,0.0,0.0,51.766,0.0,0.0,0.0,0.0,0.0,0.0,0,70,0.0,0.0,0.0
561,28.05,0.0,0.0,51.766,0.0,0.0,0.0,0.0,0.0,0.0,0,70,0.0,0.0,0.0
562,28.1,0.0,0.0,51.766,0.0,0.0,0.0,0.0,0.0,0.0,0,70,0.0,0.0,0.0
563,28.150000000000002,0.0,0.0,51.766,0.0,0.0,0.0,0.0,0.0,0.0,0,70,0.0,0.0,0.0
564,28.200000000000003,0.0,0.0,51.766,0.0,0.0,0.0,0.0,0.0,0.0,0,70,0.0,0.0,0.0
565,28.25,0.0,0.0,51.766,0.0,0.0,0.0,0.0,0.0,0.0,0,70,0.0,0.0,0.0
566,28.3,0.0,0.0,51.766,0.0,0.0,0.0,0.0,0.0,0.0,0,70,0.0,0.0,0.0
567,28.35,0.0,0.0,51.766,0.0,0.0,0.0,0.0,0.0,0.0,0,70,0.0,0.0,0.0
568,28.400000000000002,0.0,0.0,51.766,0.0,0.0,0.0,0.0,0.0,0.0,0,70,0.0,0.0,0.0
569,28.450000000000003,0.0,0.0,51.766,0.0,0.0,0.0,0.0,0.0,0.0,0,70,0.0,0.0,0.0
570,28.5,0.0,0.0,51.766,0.0,0.0,0.0,0.0,0.0,0.0,0,70,0.0,0.0,0.0
571,28.55,0.0,0.0,51.766,0.0,0.0,0.0,0.0,0.0,0.0,0,70,0.0,0.0,0.0
572,28.6,0.0,0.0,51.766,0.0,0.0,0.0,0.0,0.0,0.0,0,70,0.0,0.0,0.0
573,28.650000000000002,0.0,0.0,51.766,0.0,0.0,0.0,0.0,0.0,0.0,0,70,0.0,0.0,0.0
574,28.700000000000003,0.0,0.0,51.766,0.0,0.0,0.0,0.0,0.0,0.0,0,70,0.0,0.0,0.0
575,28.75,0.0,0.0,51.766,0.0,0.0,0.0,0.0,0.0,0.0,0,70,0.0,0.0,0.0
576,28.8,0.0,0.0,51.766,0.0,0.0,0.0,0.0,0.0,0.0,0,70,0.0,0.0,0.0
577,28.85,0.0,0.0,51.766,0.0,0.0,0.0,0.0,0.0,0.0,0,70,0.0,0.0,0.0
578,28.900000000000002,0.0,0.0,51.766,0.0,0.0,0.0,0.0,0.0,0.0,0,70,0.0,0.0,0.0
579,28.950000000000003,0.0,0.0,51.766,0.0,0.0,0.0,0.0,0.0,0.0,0,70,0.0,0.0,0.0
580,29.0,0.0,0.0,51.766,0.0,0.0,0.0,0.0,0.0,0.0,0,70,0.0,0.0,0.0
581,29.05,0.0,0.0,51.766,0.0,0.0,0.0,0.0,0.0,0.0,0,70,0.0,0.0,0.0
582,29.1,0.0,0.0,51.766,0.0,0.0,0.0,0.0,0.0,0.0,0,70,0.0,0.0,0.0
583,29.150000000000002,0.0,0.0,51.766,0.0,0.0,0.0,0.0,0.0,0.0,0,70,0.0,0.0,0.0
584,29.200000000000003,0.0,0.0,51.766,0.0,0.0,0.0,0.0,0.0,0.0,0,70,0.0,0.0,0.0
585,29.25,0.0,0.0,51.766,0.0,0.0,0.0,0.0,0.0,0.0,0,70,0.0,0.0,0.0
586,29.3,0.0,0.0,51.766,0.0,0.0,0.0,0.0,0.0,0.0,0,70,0.0,0.0,0.0
587,29.35,0.0,0.0,51.766,0.0,0.0,0.0,0.0,0.0,0.0,0,70,0.0,0.0,0.0
588,29.400000000000002,0.0,0.0,51.766,0.0,0.0,0.0,0.0,0.0,0.0,0,70,0.0,0.0,0.0
589,29.450000000000003,0.0,0.0,51.766,0.0,0.0,0.0,0.0,0.0,0.0,0,70,0.0,0.0,0.0
590,29.5,0.0,0.0,51.766,0.0,0.0,0.0,0.0,0.0,0.0,0,70,0.0,0.0,0.0
591,29.55,0.0,0.0,51.766,0.0,0.0,0.0,0.0,0.0,0.0,0,70,0.0,0.0,0.0
592,29.6,0.0,0.0,51.766,0.0,0.0,0.0,0.0,0.0,0.0,0,70,0.0,0.0,0.0
593,29.650000000000002,0.0,0.0,51.766,0.0,0.0,0.0,0.0,0.0,0.0,0,70,0.0,0.0,0.0
594,29.700000000000003,0.0,0.0,51.766,0.0,0.0,0.0,0.0,0.0,0.0,0,70,0.0,0.0,0.0
595,29.75,0.0,0.0,51.766,0.0,0.0,0.0,0.0,0.0,0.0,0,70,0.0,0.0,0.0
596,29.8,0.0,0.0,51.766,0.0,0.0,0.0,0.0,0.0,0.0,0,70,0.0,0.0,0.0
597,29.85,0.0,0.0,51.766,0.0,0.0,0.0,0.0,0.0,0.0,0,70,0.0,0.0,0.0
598,29.900000000000002,0.0,0.0,51.766,0.0,0.0,0.0,0.0,0.0,0.0,0,70,0.0,0.0,0.0
599,29.950000000000003,0.0,0.0,51.766,0.0,0.0,0.0,0.0,0.0,0.0,0,70,0.0,0.0,0.0
600,30.0,0.0,0.0,51.766,0.0,0.0,0.0,0.0,0.0,0.0,0,70,0.0,0.0,0.0
601,30.05,0.0,0.0,51.766,0.0,0.0,0.0,0.0,0.0,0.0,0,70,0.0,0.0,0.0
602,30.1,0.0,0.0,51.766,0.0,0.0,0.0,0.0,0.0,0.0,0,70,0.0,0.0,0.0
603,30.150000000000002,0.0,0.0,51.766,0.0,0.0,0.0,0.0,0.0,0.0,0,70,0.0,0.0,0.0
604,30.200000000000003,0.0,0.0,51.766,0.0,0.0,0.0,0.0,0.0,0.0,0,70,0.0,0.0,0.0
605,30.25,0.0,0.0,51.766,0.0,0.0,0.0,0.0,0.0,0.0,0,70,0.0,0.0,0.0
606,30.3,0.0,0.0,51.766,0.0,0.0,0.0,0.0,0.0,0.0,0,70,0.0,0.0,0.0
607,30.35,0.0,0.0,51.766,0.0,0.0,0.0,0.0,0.0,0.0,0,70,0.0,0.0,0.0
608,30.400000000000002,0.0,0.0,51.766,0.0,0.0,0.0,0.0,0.0,0.0,0,70,0.0,0.0,0.0
609,30.450000000000003,0.0,0.0,51.766,0.0,0.0,0.0,0.0,0.0,0.0,0,70,0.0,0.0,0.0
610,30.5,0.0,0.0,51.766,0.0,0.0,0.0,0.0,0.0,0.0,0,70,0.0,0.0,0.0
611,30.55,0.0,0.0,51.766,0.0,0.0,0.0,0.0,0.0,0.0,0,70,0.0,0.0,0.0
612,30.6,0.0,0.0,51.766,0.0,0.0,0.0,0.0,0.0,0.0,0,70,0.0,0.0,0.0
613,30.650000000000002,0.0,0.0,51.766,0.0,0.0,0.0,0.0,0.0,0.0,0,70,0.0,0.0,0.0
614,30.700000000000003,0.0,0.0,51.766,0.0,0.0,0.0,0.0,0.0,0.0,0,70,0.0,0.0,0.0
615,30.75,0.0,0.0,51.766,0.0,0.0,0.0,0.0,0.0,0.0,0,70,0.0,0.0,0.0
616,30.8,0.0,0.0,51.766,0.0,0.0,0.0,0.0,0.0,0.0,0,70,0.0,0.0,0.0
617,30.85,0.0,0.0,51.766,0.0,0.0,0.0,0.0,0.0,0.0,0,70,0.0,0.0,0.0
618,30.900000000000002,0.0,0.0,51.766,0.0,0.0,0.0,0.0,0.0,0.0,0,70,0.0,0.0,0.0
619,30.950000000000003,0.0,0.0,51.766,0.0,0.0,0.0,0.0,0.0,0.0,0,70,0.0,0.0,0.0
620,31.0,0.0,0.0,51.766,0.0,0.0,0.0,0.0,0.0,0.0,0,70,0.0,0.0,0.0
621,31.05,0.0,0.0,51.766,0.0,0.0,0.0,0.0,0.0,0.0,0,70,0.0,0.0,0.0
622,31.1,0.0,0.0,51.766,0.0,0.0,0.0,0.0,0.0,0.0,0,70,0.0,0.0,0.0
623,31.150000000000002,0.0,0.0,51.766,0.0,0.0,0.0,0.0,0.0,0.0,0,70,0.0,0.0,0.0
624,31.200000000000003,0.0,0.0,51.766,0.0,0.0,0.0,0.0,0.0,0.0,0,70,0.0,0.0,0.0
625,31.25,0.0,0.0,51.766,0.0,0.0,0.0,0.0,0.0,0.0,0,70,0.0,0.0,0.0
626,31.3,0.0,0.0,51.766,0.0,0.0,0.0,0.0,0.0,0.0,0,70,0.0,0.0,0.0
627,31.35,0.0,0.0,51.766,0.0,0.0,0.0,0.0,0.0,0.0,0,70,0.0,0.0,0.0
628,31.400000000000002,0.0,0.0,51.766,0.0,0.0,0.0,0.0,0.0,0.0,0,70,0.0,0.0,0.0
629,31.450000000000003,0.0,0.0,51.766,0.0,0.0,0.0,0.0,0.0,0.0,0,70,0.0,0.0,0.0
630,31.5,0.0,0.0,51.766,0.0,0.0,0.0,0.0,0.0,0.0,0,70,0.0,0.0,0.0
631,31.55,0.0,0.0,51.766,0.0,0.0,0.0,0.0,0.0,0.0,0,70,0.0,0.0,0.0
632,31.6,0.0,0.0,51.766,0.0,0.0,0.0,0.0,0.0,0.0,0,70,0.0,0.0,0.0
633,31.650000000000002,0.0,0.0,51.766,0.0,0.0,0.0,0.0,0.0,0.0,0,70,0.0,0.0,0.0
634,31.700000000000003,0.0,0.0,51.766,0.0,0.0,0.0,0.0,0.0,0.0,0,70,0.0,0.0,0.0
635,31.75,0.0,0.0,51.766,0.0,0.0,0.0,0.0,0.0,0.0,0,70,0.0,0.0,0.0
636,31.8,0.0,0.0,51.766,0.0,0.0,0.0,0.0,0.0,0.0,0,70,0.0,0.0,0.0
637,31.85,0.0,0.0,51.766,0.0,0.0,0.0,0.0,0.0,0.0,0,70,0.0,0.0,0.0
638,31.900000000000002,0.0,0.0,51.766,0.0,0.0,0.0,0.0,0.0,0.0,0,70,0.0,0.0,0.0
639,31.950000000000003,0.0,0.0,51.766,0.0,0.0,0.0,0.0,0.0,0.0,0,70,0.0,0.0,0.0
640,32.0,0.0,0.0,51.766,0.0,0.0,0.0,0.0,0.0,0.0,0,70,0.0,0.0,0.0
641,32.050000000000004,0.0,0.0,51.766,0.0,0.0,0.0,0.0,0.0,0.0,0,70,0.0,0.0,0.0
642,32.1,0.0,0.0,51.766,0.0,0.0,0.0,0.0,0.0,0.0,0,70,0.0,0.0,0.0
643,32.15,0.0,0.0,51.766,0.0,0.0,0.0,0.0,0.0,0.0,0,70,0.0,0.0,0.0
644,32.2,0.0,0.0,51.766,0.0,0.0,0.0,0.0,0.0,0.0,0,70,0.0,0.0,0.0
645,32.25,0.0,0.0,51.766,0.0,0.0,0.0,0.0,0.0,0.0,0,70,0.0,0.0,0.0
646,32.300000000000004,0.0,0.0,51.766,0.0,0.0,0.0,0.0,0.0,0.0,0,70,0.0,0.0,0.0
647,32.35,0.0,0.0,51.766,0.0,0.0,0.0,0.0,0.0,0.0,0,70,0.0,0.0,0.0
648,32.4,0.0,0.0,51.766,0.0,0.0,0.0,0.0,0.0,0.0,0,70,0.0,0.0,0.0
649,32.45,0.0,0.0,51.766,0.0,0.0,0.0,0.0,0.0,0.0,0,70,0.0,0.0,0.0
650,32.5,0.0,0.0,51.766,0.0,0.0,0.0,0.0,0.0,0.0,0,70,0.0,0.0,0.0
651,32.550000000000004,0.0,0.0,51.766,0.0,0.0,0.0,0.0,0.0,0.0,0,70,0.0,0.0,0.0
652,32.6,0.0,0.0,51.766,0.0,0.0,0.0,0.0,0.0,0.0,0,70,0.0,0.0,0.0
653,32.65,0.0,0.0,51.766,0.0,0.0,0.0,0.0,0.0,0.0,0,70,0.0,0.0,0.0
654,32.7,0.0,0.0,51.766,0.0,0.0,0.0,0.0,0.0,0.0,0,70,0.0,0.0,0.0
655,32.75,0.0,0.0,51.766,0.0,0.0,0.0,0.0,0.0,0.0,0,70,0.0,0.0,0.0
656,32.800000000000004,0.0,0.0,51.766,0.0,0.0,0.0,0.0,0.0,0.0,0,70,0.0,0.0,0.0
657,32.85,0.0,0.0,51.766,0.0,0.0,0.0,0.0,0.0,0.0,0,70,0.0,0.0,0.0
658,32.9,0.0,0.0,51.766,0.0,0.0,0.0,0.0,0.0,0.0,0,70,0.0,0.0,0.0
659,32.95,0.0,0.0,51.766,0.0,0.0,0.0,0.0,0.0,0.0,0,70,0.0,0.0,0.0
660,33.0,0.0,0.0,51.766,0.0,0.0,0.0,0.0,0.0,0.0,0,70,0.0,0.0,0.0
661,33.050000000000004,0.0,0.0,51.766,0.0,0.0,0.0,0.0,0.0,0.0,0,70,0.0,0.0,0.0
662,33.1,0.0,0.0,51.766,0.0,0.0,0.0,0.0,0.0,0.0,0,70,0.0,0.0,0.0
663,33.15,0.0,0.0,51.766,0.0,0.0,0.0,0.0,0.0,0.0,0,70,0.0,0.0,0.0
664,33.2,0.0,0.0,51.766,0.0,0.0,0.0,0.0,0.0,0.0,0,70,0.0,0.0,0.0
665,33.25,0.0,0.0,51.766,0.0,0.0,0.0,0.0,0.0,0.0,0,70,0.0,0.0,0.0
666,33.300000000000004,0.0,0.0,51.766,0.0,0.0,0.0,0.0,0.0,0.0,0,70,0.0,0.0,0.0
667,33.35,0.0,0.0,51.766,0.0,0.0,0.0,0.0,0.0,0.0,0,70,0.0,0.0,0.0
668,33.4,0.0,0.0,51.766,0.0,0.0,0.0,0.0,0.0,0.0,0,70,0.0,0.0,0.0
669,33.45,0.0,0.0,51.766,0.0,0.0,0.0,0.0,0.0,0.0,0,70,0.0,0.0,0.0
670,33.5,0.0,0.0,51.766,0.0,0.0,0.0,0.0,0.0,0.0,0,70,0.0,0.0,0.0
671,33.550000000000004,0.0,0.0,51.766,0.0,0.0,0.0,0.0,0.0,0.0,0,70,0.0,0.0,0.0
672,33.6,0.0,0.0,51.766,0.0,0.0,0.0,0.0,0.0,0.0,0,70,0.0,0.0,0.0
673,33.65,0.0,0.0,51.766,0.0,0.0,0.0,0.0,0.0,0.0,0,70,0.0,0.0,0.0
674,33.7,0.0,0.0,51.766,0.0,0.0,0.0,0.0,0.0,0.0,0,70,0.0,0.0,0.0
675,33.75,0.0,0.0,51.766,0.0,0.0,0.0,0.0,0.0,0.0,0,70,0.0,0.0,0.0
676,33.800000000000004,0.0,0.0,51.766,0.0,0.0,0.0,0.0,0.0,0.0,0,70,0.0,0.0,0.0
677,33.85,0.0,0.0,51.766,0.0,0.0,0.0,0.0,0.0,0.0,0,70,0.0,0.0,0.0
678,33.9,0.0,0.0,51.766,0.0,0.0,0.0,0.0,0.0,0.0,0,70,0.0,0.0,0.0
679,33.95,0.0,0.0,51.766,0.0,0.0,0.0,0.0,0.0,0.0,0,70,0.0,0.0,0.0
680,34.0,0.0,0.0,51.766,0.0,0.0,0.0,0.0,0.0,0.0,0,70,0.0,0.0,0.0
681,34.050000000000004,0.0,0.0,51.766,0.0,0.0,0.0,0.0,0.0,0.0,0,70,0.0,0.0,0.0
682,34.1,0.0,0.0,51.766,0.0,0.0,0.0,0.0,0.0,0.0,0,70,0.0,0.0,0.0
683,34.15,0.0,0.0,51.766,0.0,0.0,0.0,0.0,0.0,0.0,0,70,0.0,0.0,0.0
684,34.2,0.0,0.0,51.766,0.0,0.0,0.0,0.0,0.0,0.0,0,70,0.0,0.0,0.0
685,34.25,0.0,0.0,51.766,0.0,0.0,0.0,0.0,0.0,0.0,0,70,0.0,0.0,0.0
686,34.300000000000004,0.0,0.0,51.766,0.0,0.0,0.0,0.0,0.0,0.0,0,70,0.0,0.0,0.0
687,34.35,0.0,0.0,51.766,0.0,0.0,0.0,0.0,0.0,0.0,0,70,0.0,0.0,0.0
688,34.4,0.0,0.0,51.766,0.0,0.0,0.0,0.0,0.0,0.0,0,70,0.0,0.0,0.0
689,34.45,0.0,0.0,51.766,0.0,0.0,0.0,0.0,0.0,0.0,0,70,0.0,0.0,0.0
690,34.5,0.0,0.0,51.766,0.0,0.0,0.0,0.0,0.0,0.0,0,70,0.0,0.0,0.0
691,34.550000000000004,0.0,0.0,51.766,0.0,0.0,0.0,0.0,0.0,0.0,0,70,0.0,0.0,0.0
692,34.6,0.0,0.0,51.766,0.0,0.0,0.0,0.0,0.0,0.0,0,70,0.0,0.0,0.0
693,34.65,0.0,0.0,51.766,0.0,0.0,0.0,0.0,0.0,0.0,0,70,0.0,0.0,0.0
694,34.7,0.0,0.0,51.766,0.0,0.0,0.0,0.0,0.0,0.0,0,70,0.0,0.0,0.0
695,34.75,0.0,0.0,51.766,0.0,0.0,0.0,0.0,0.0,0.0,0,70,0.0,0.0,0.0
696,34.800000000000004,0.0,0.0,51.766,0.0,0.0,0.0,0.0,0.0,0.0,0,70,0.0,0.0,0.0
697,34.85,0.0,0.0,51.766,0.0,0.0,0.0,0.0,0.0,0.0,0,70,0.0,0.0,0.0
698,34.9,0.0,0.0,51.766,0.0,0.0,0.0,0.0,0.0,0.0,0,70,0.0,0.0,0.0
699,34.95,0.0,0.0,51.766,0.0,0.0,0.0,0.0,0.0,0.0,0,70,0.0,0.0,0.0
700,35.0,0.0,0.0,51.766,0.0,0.0,0.0,0.0,0.0,0.0,0,70,0.0,0.0,0.0
701,35.050000000000004,0.0,0.0,51.766,0.0,0.0,0.0,0.0,0.0,0.0,0,70,0.0,0.0,0.0
702,35.1,0.0,0.0,51.766,0.0,0.0,0.0,0.0,0.0,0.0,0,70,0.0,0.0,0.0
703,35.15,0.0,0.0,51.766,0.0,0.0,0.0,0.0,0.0,0.0,0,70,0.0,0.0,0.0
704,35.2,0.0,0.0,51.766,0.0,0.0,0.0,0.0,0.0,0.0,0,70,0.0,0.0,0.0
705,35.25,0.0,0.0,51.766,0.0,0.0,0.0,0.0,0.0,0.0,0,70,0.0,0.0,0.0
706,35.300000000000004,0.0,0.0,51.766,0.0,0.0,0.0,0.0,0.0,0.0,0,70,0.0,0.0,0.0
707,35.35,0.0,0.0,51.766,0.0,0.0,0.0,0.0,0.0,0.0,0,70,0.0,0.0,0.0
708,35.4,0.0,0.0,51.766,0.0,0.0,0.0,0.0,0.0,0.0,0,70,0.0,0.0,0.0
709,35.45,0.0,0.0,51.766,0.0,0.0,0.0,0.0,0.0,0.0,0,70,0.0,0.0,0.0
710,35.5,0.0,0.0,51.766,0.0,0.0,0.0,0.0,0.0,0.0,0,70,0.0,0.0,0.0
711,35.550000000000004,0.0,0.0,51.766,0.0,0.0,0.0,0.0,0.0,0.0,0,70,0.0,0.0,0.0
712,35.6,0.0,0.0,51.766,0.0,0.0,0.0,0.0,0.0,0.0,0,70,0.0,0.0,0.0
713,35.65,0.0,0.0,51.766,0.0,0.0,0.0,0.0,0.0,0.0,0,70,0.0,0.0,0.0
714,35.7,0.0,0.0,51.766,0.0,0.0,0.0,0.0,0.0,0.0,0,70,0.0,0.0,0.0
715,35.75,0.0,0.0,51.766,0.0,0.0,0.0,0.0,0.0,0.0,0,70,0.0,0.0,0.0
716,35.800000000000004,0.0,0.0,51.766,0.0,0.0,0.0,0.0,0.0,0.0,0,70,0.0,0.0,0.0
717,35.85,0.0,0.0,51.766,0.0,0.0,0.0,0.0,0.0,0.0,0,70,0.0,0.0,0.0
718,35.9,0.0,0.0,51.766,0.0,0.0,0.0,0.0,0.0,0.0,0,70,0.0,0.0,0.0
719,35.95,0.0,0.0,51.766,0.0,0.0,0.0,0.0,0.0,0.0,0,70,0.0,0.0,0.0
720,36.0,0.0,0.0,51.766,0.0,0.0,0.0,0.0,0.0,0.0,0,70,0.0,0.0,0.0
721,36.050000000000004,0.0,0.0,51.766,0.0,0.0,0.0,0.0,0.0,0.0,0,70,0.0,0.0,0.0
722,36.1,0.0,0.0,51.766,0.0,0.0,0.0,0.0,0.0,0.0,0,70,0.0,0.0,0.0
723,36.15,0.0,0.0,51.766,0.0,0.0,0.0,0.0,0.0,0.0,0,70,0.0,0.0,0.0
724,36.2,0.0,0.0,51.766,0.0,0.0,0.0,0.0,0.0,0.0,0,70,0.0,0.0,0.0
725,36.25,0.0,0.0,51.766,0.0,0.0,0.0,0.0,0.0,0.0,0,70,0.0,0.0,0.0
726,36.300000000000004,0.0,0.0,51.766,0.0,0.0,0.0,0.0,0.0,0.0,0,70,0.0,0.0,0.0
727,36.35,0.0,0.0,51.766,0.0,0.0,0.0,0.0,0.0,0.0,0,70,0.0,0.0,0.0
728,36.4,0.0,0.0,51.766,0.0,0.0,0.0,0.0,0.0,0.0,0,70,0.0,0.0,0.0
729,36.45,0.0,0.0,51.766,0.0,0.0,0.0,0.0,0.0,0.0,0,70,0.0,0.0,0.0
730,36.5,0.0,0.0,51.766,0.0,0.0,0.0,0.0,0.0,0.0,0,70,0.0,0.0,0.0
731,36.550000000000004,0.0,0.0,51.766,0.0,0.0,0.0,0.0,0.0,0.0,0,70,0.0,0.0,0.0
732,36.6,0.0,0.0,51.766,0.0,0.0,0.0,0.0,0.0,0.0,0,70,0.0,0.0,0.0
733,36.65,0.0,0.0,51.766,0.0,0.0,0.0,0.0,0.0,0.0,0,70,0.0,0.0,0.0
734,36.7,0.0,0.0,51.766,0.0,0.0,0.0,0.0,0.0,0.0,0,70,0.0,0.0,0.0
735,36.75,0.0,0.0,51.766,0.0,0.0,0.0,0.0,0.0,0.0,0,70,0.0,0.0,0.0
736,36.800000000000004,0.0,0.0,51.766,0.0,0.0,0.0,0.0,0.0,0.0,0,70,0.0,0.0,0.0
737,36.85,0.0,0.0,51.766,0.0,0.0,0.0,0.0,0.0,0.0,0,70,0.0,0.0,0.0
738,36.9,0.0,0.0,51.766,0.0,0.0,0.0,0.0,0.0,0.0,0,70,0.0,0.0,0.0
739,36.95,0.0,0.0,51.766,0.0,0.0,0.0,0.0,0.0,0.0,0,70,0.0,0.0,0.0
740,37.0,0.0,0.0,51.766,0.0,0.0,0.0,0.0,0.0,0.0,0,70,0.0,0.0,0.0
741,37.050000000000004,0.0,0.0,51.766,0.0,0.0,0.0,0.0,0.0,0.0,0,70,0.0,0.0,0.0
742,37.1,0.0,0.0,51.766,0.0,0.0,0.0,0.0,0.0,0.0,0,70,0.0,0.0,0.0
743,37.15,0.0,0.0,51.766,0.0,0.0,0.0,0.0,0.0,0.0,0,70,0.0,0.0,0.0
744,37.2,0.0,0.0,51.766,0.0,0.0,0.0,0.0,0.0,0.0,0,70,0.0,0.0,0.0
745,37.25,0.0,0.0,51.766,0.0,0.0,0.0,0.0,0.0,0.0,0,70,0.0,0.0,0.0
746,37.300000000000004,0.0,0.0,51.766,0.0,0.0,0.0,0.0,0.0,0.0,0,70,0.0,0.0,0.0
747,37.35,0.0,0.0,51.766,0.0,0.0,0.0,0.0,0.0,0.0,0,70,0.0,0.0,0.0
748,37.4,0.0,0.0,51.766,0.0,0.0,0.0,0.0,0.0,0.0,0,70,0.0,0.0,0.0
749,37.45,0.0,0.0,51.766,0.0,0.0,0.0,0.0,0.0,0.0,0,70,0.0,0.0,0.0
750,37.5,0.0,0.0,51.766,0.0,0.0,0.0,0.0,0.0,0.0,0,70,0.0,0.0,0.0
751,37.550000000000004,0.0,0.0,51.766,0.0,0.0,0.0,0.0,0.0,0.0,0,70,0.0,0.0,0.0
752,37.6,0.0,0.0,51.766,0.0,0.0,0.0,0.0,0.0,0.0,0,70,0.0,0.0,0.0
753,37.65,0.0,0.0,51.766,0.0,0.0,0.0,0.0,0.0,0.0,0,70,0.0,0.0,0.0
754,37.7,0.0,0.0,51.766,0.0,0.0,0.0,0.0,0.0,0.0,0,70,0.0,0.0,0.0
755,37.75,0.0,0.0,51.766,0.0,0.0,0.0,0.0,0.0,0.0,0,70,0.0,0.0,0.0
756,37.800000000000004,0.0,0.0,51.766,0.0,0.0,0.0,0.0,0.0,0.0,0,70,0.0,0.0,0.0
757,37.85,0.0,0.0,51.766,0.0,0.0,0.0,0.0,0.0,0.0,0,70,0.0,0.0,0.0
758,37.9,0.0,0.0,51.766,0.0,0.0,0.0,0.0,0.0,0.0,0,70,0.0,0.0,0.0
759,37.95,0.0,0.0,51.766,0.0,0.0,0.0,0.0,0.0,0.0,0,70,0.0,0.0,0.0
760,38.0,0.0,0.0,51.766,0.0,0.0,0.0,0.0,0.0,0.0,0,70,0.0,0.0,0.0
761,38.050000000000004,0.0,0.0,51.766,0.0,0.0,0.0,0.0,0.0,0.0,0,70,0.0,0.0,0.0
762,38.1,0.0,0.0,51.766,0.0,0.0,0.0,0.0,0.0,0.0,0,70,0.0,0.0,0.0
763,38.15,0.0,0.0,51.766,0.0,0.0,0.0,0.0,0.0,0.0,0,70,0.0,0.0,0.0
764,38.2,0.0,0.0,51.766,0.0,0.0,0.0,0.0,0.0,0.0,0,70,0.0,0.0,0.0
765,38.25,0.0,0.0,51.766,0.0,0.0,0.0,0.0,0.0,0.0,0,70,0.0,0.0,0.0
766,38.300000000000004,0.0,0.0,51.766,0.0,0.0,0.0,0.0,0.0,0.0,0,70,0.0,0.0,0.0
767,38.35,0.0,0.0,51.766,0.0,0.0,0.0,0.0,0.0,0.0,0,70,0.0,0.0,0.0
768,38.400000000000006,0.0,0.0,51.766,0.0,0.0,0.0,0.0,0.0,0.0,0,70,0.0,0.0,0.0
769,38.45,0.0,0.0,51.766,0.0,0.0,0.0,0.0,0.0,0.0,0,70,0.0,0.0,0.0
770,38.5,0.0,0.0,51.766,0.0,0.0,0.0,0.0,0.0,0.0,0,70,0.0,0.0,0.0
771,38.550000000000004,0.0,0.0,51.766,0.0,0.0,0.0,0.0,0.0,0.0,0,70,0.0,0.0,0.0
772,38.6,0.0,0.0,51.766,0.0,0.0,0.0,0.0,0.0,0.0,0,70,0.0,0.0,0.0
773,38.650000000000006,0.0,0.0,51.766,0.0,0.0,0.0,0.0,0.0,0.0,0,70,0.0,0.0,0.0
774,38.7,0.0,0.0,51.766,0.0,0.0,0.0,0.0,0.0,0.0,0,70,0.0,0.0,0.0
775,38.75,0.0,0.0,51.766,0.0,0.0,0.0,0.0,0.0,0.0,0,70,0.0,0.0,0.0
776,38.800000000000004,0.0,0.0,51.766,0.0,0.0,0.0,0.0,0.0,0.0,0,70,0.0,0.0,0.0
777,38.85,0.0,0.0,51.766,0.0,0.0,0.0,0.0,0.0,0.0,0,70,0.0,0.0,0.0
778,38.900000000000006,0.0,0.0,51.766,0.0,0.0,0.0,0.0,0.0,0.0,0,70,0.0,0.0,0.0
779,38.95,0.0,0.0,51.766,0.0,0.0,0.0,0.0,0.0,0.0,0,70,0.0,0.0,0.0
780,39.0,0.0,0.0,51.766,0.0,0.0,0.0,0.0,0.0,0.0,0,70,0.0,0.0,0.0
781,39.050000000000004,0.0,0.0,51.766,0.0,0.0,0.0,0.0,0.0,0.0,0,70,0.0,0.0,0.0
782,39.1,0.0,0.0,51.766,0.0,0.0,0.0,0.0,0.0,0.0,0,70,0.0,0.0,0.0
783,39.150000000000006,0.0,0.0,51.766,0.0,0.0,0.0,0.0,0.0,0.0,0,70,0.0,0.0,0.0
784,39.2,0.0,0.0,51.766,0.0,0.0,0.0,0.0,0.0,0.0,0,70,0.0,0.0,0.0
785,39.25,0.0,0.0,51.766,0.0,0.0,0.0,0.0,0.0,0.0,0,70,0.0,0.0,0.0
786,39.300000000000004,0.0,0.0,51.766,0.0,0.0,0.0,0.0,0.0,0.0,0,70,0.0,0.0,0.0
787,39.35,0.0,0.0,51.766,0.0,0.0,0.0,0.0,0.0,0.0,0,70,0.0,0.0,0.0
788,39.400000000000006,0.0,0.0,51.766,0.0,0.0,0.0,0.0,0.0,0.0,0,70,0.0,0.0,0.0
789,39.45,0.0,0.0,51.766,0.0,0.0,0.0,0.0,0.0,0.0,0,70,0.0,0.0,0.0
790,39.5,0.0,0.0,51.766,0.0,0.0,0.0,0.0,0.0,0.0,0,70,0.0,0.0,0.0
791,39.550000000000004,0.0,0.0,51.766,0.0,0.0,0.0,0.0,0.0,0.0,0,70,0.0,0.0,0.0
792,39.6,0.0,0.0,51.766,0.0,0.0,0.0,0.0,0.0,0.0,0,70,0.0,0.0,0.0
793,39.650000000000006,0.0,0.0,51.766,0.0,0.0,0.0,0.0,0.0,0.0,0,70,0.0,0.0,0.0
794,39.7,0.0,0.0,51.766,0.0,0.0,0.0,0.0,0.0,0.0,0,70,0.0,0.0,0.0
795,39.75,0.0,0.0,51.766,0.0,0.0,0.0,0.0,0.0,0.0,0,70,0.0,0.0,0.0
796,39.800000000000004,0.0,0.0,51.766,0.0,0.0,0.0,0.0,0.0,0.0,0,70,0.0,0.0,0.0
797,39.85,0.0,0.0,51.766,0.0,0.0,0.0,0.0,0.0,0.0,0,70,0.0,0.0,0.0
798,39.900000000000006,0.0,0.0,51.766,0.0,0.0,0.0,0.0,0.0,0.0,0,70,0.0,0.0,0.0
799,39.95,0.0,0.0,51.766,0.0,0.0,0.0,0.0,0.0,0.0,0,70,0.0,0.0,0.0
800,40.0,0.0,0.0,51.766,0.0,0.0,0.0,0.0,0.0,0.0,0,70,0.0,0.0,0.0
801,40.050000000000004,0.0,0.0,51.766,0.0,0.0,0.0,0.0,0.0,0.0,0,70,0.0,0.0,0.0
802,40.1,0.0,0.0,51.766,0.0,0.0,0.0,0.0,0.0,0.0,0,70,0.0,0.0,0.0
803,40.150000000000006,0.0,0.0,51.766,0.0,0.0,0.0,0.0,0.0,0.0,0,70,0.0,0.0,0.0
804,40.2,0.0,0.0,51.766,0.0,0.0,0.0,0.0,0.0,0.0,0,70,0.0,0.0,0.0
805,40.25,0.0,0.0,51.766,0.0,0.0,0.0,0.0,0.0,0.0,0,70,0.0,0.0,0.0
806,40.300000000000004,0.0,0.0,51.766,0.0,0.0,0.0,0.0,0.0,0.0,0,70,0.0,0.0,0.0
807,40.35,0.0,0.0,51.766,0.0,0.0,0.0,0.0,0.0,0.0,0,70,0.0,0.0,0.0
808,40.400000000000006,0.0,0.0,51.766,0.0,0.0,0.0,0.0,0.0,0.0,0,70,0.0,0.0,0.0
809,40.45,0.0,0.0,51.766,0.0,0.0,0.0,0.0,0.0,0.0,0,70,0.0,0.0,0.0
810,40.5,0.0,0.0,51.766,0.0,0.0,0.0,0.0,0.0,0.0,0,70,0.0,0.0,0.0
811,40.550000000000004,0.0,0.0,51.766,0.0,0.0,0.0,0.0,0.0,0.0,0,70,0.0,0.0,0.0
812,40.6,0.0,0.0,51.766,0.0,0.0,0.0,0.0,0.0,0.0,0,70,0.0,0.0,0.0
813,40.650000000000006,0.0,0.0,51.766,0.0,0.0,0.0,0.0,0.0,0.0,0,70,0.0,0.0,0.0
814,40.7,0.0,0.0,51.766,0.0,0.0,0.0,0.0,0.0,0.0,0,70,0.0,0.0,0.0
815,40.75,0.0,0.0,51.766,0.0,0.0,0.0,0.0,0.0,0.0,0,70,0.0,0.0,0.0
816,40.800000000000004,0.0,0.0,51.766,0.0,0.0,0.0,0.0,0.0,0.0,0,70,0.0,0.0,0.0
817,40.85,0.0,0.0,51.766,0.0,0.0,0.0,0.0,0.0,0.0,0,70,0.0,0.0,0.0
818,40.900000000000006,0.0,0.0,51.766,0.0,0.0,0.0,0.0,0.0,0.0,0,70,0.0,0.0,0.0
819,40.95,0.0,0.0,51.766,0.0,0.0,0.0,0.0,0.0,0.0,0,70,0.0,0.0,0.0
820,41.0,0.0,0.0,51.766,0.0,0.0,0.0,0.0,0.0,0.0,0,70,0.0,0.0,0.0
821,41.050000000000004,0.0,0.0,51.766,0.0,0.0,0.0,0.0,0.0,0.0,0,70,0.0,0.0,0.0
822,41.1,0.0,0.0,51.766,0.0,0.0,0.0,0.0,0.0,0.0,0,70,0.0,0.0,0.0
823,41.150000000000006,0.0,0.0,51.766,0.0,0.0,0.0,0.0,0.0,0.0,0,70,0.0,0.0,0.0
824,41.2,0.0,0.0,51.766,0.0,0.0,0.0,0.0,0.0,0.0,0,70,0.0,0.0,0.0
825,41.25,0.0,0.0,51.766,0.0,0.0,0.0,0.0,0.0,0.0,0,70,0.0,0.0,0.0
826,41.300000000000004,0.0,0.0,51.766,0.0,0.0,0.0,0.0,0.0,0.0,0,70,0.0,0.0,0.0
827,41.35,0.0,0.0,51.766,0.0,0.0,0.0,0.0,0.0,0.0,0,70,0.0,0.0,0.0
828,41.400000000000006,0.0,0.0,51.766,0.0,0.0,0.0,0.0,0.0,0.0,0,70,0.0,0.0,0.0
829,41.45,0.0,0.0,51.766,0.0,0.0,0.0,0.0,0.0,0.0,0,70,0.0,0.0,0.0
830,41.5,0.0,0.0,51.766,0.0,0.0,0.0,0.0,0.0,0.0,0,70,0.0,0.0,0.0
831,41.550000000000004,0.0,0.0,51.766,0.0,0.0,0.0,0.0,0.0,0.0,0,70,0.0,0.0,0.0
832,41.6,0.0,0.0,51.766,0.0,0.0,0.0,0.0,0.0,0.0,0,70,0.0,0.0,0.0
833,41.650000000000006,0.0,0.0,51.766,0.0,0.0,0.0,0.0,0.0,0.0,0,70,0.0,0.0,0.0
834,41.7,0.0,0.0,51.766,0.0,0.0,0.0,0.0,0.0,0.0,0,70,0.0,0.0,0.0
835,41.75,0.0,0.0,51.766,0.0,0.0,0.0,0.0,0.0,0.0,0,70,0.0,0.0,0.0
836,41.800000000000004,0.0,0.0,51.766,0.0,0.0,0.0,0.0,0.0,0.0,0,70,0.0,0.0,0.0
837,41.85,0.0,0.0,51.766,0.0,0.0,0.0,0.0,0.0,0.0,0,70,0.0,0.0,0.0
838,41.900000000000006,0.0,0.0,51.766,0.0,0.0,0.0,0.0,0.0,0.0,0,70,0.0,0.0,0.0
839,41.95,0.0,0.0,51.766,0.0,0.0,0.0,0.0,0.0,0.0,0,70,0.0,0.0,0.0
840,42.0,0.0,0.0,51.766,0.0,0.0,0.0,0.0,0.0,0.0,0,70,0.0,0.0,0.0
841,42.050000000000004,0.0,0.0,51.766,0.0,0.0,0.0,0.0,0.0,0.0,0,70,0.0,0.0,0.0
842,42.1,0.0,0.0,51.766,0.0,0.0,0.0,0.0,0.0,0.0,0,70,0.0,0.0,0.0
843,42.150000000000006,0.0,0.0,51.766,0.0,0.0,0.0,0.0,0.0,0.0,0,70,0.0,0.0,0.0
844,42.2,0.0,0.0,51.766,0.0,0.0,0.0,0.0,0.0,0.0,0,70,0.0,0.0,0.0
845,42.25,0.0,0.0,51.766,0.0,0.0,0.0,0.0,0.0,0.0,0,70,0.0,0.0,0.0
846,42.300000000000004,0.0,0.0,51.766,0.0,0.0,0.0,0.0,0.0,0.0,0,70,0.0,0.0,0.0
847,42.35,0.0,0.0,51.766,0.0,0.0,0.0,0.0,0.0,0.0,0,70,0.0,0.0,0.0
848,42.400000000000006,0.0,0.0,51.766,0.0,0.0,0.0,0.0,0.0,0.0,0,70,0.0,0.0,0.0
849,42.45,0.0,0.0,51.766,0.0,0.0,0.0,0.0,0.0,0.0,0,70,0.0,0.0,0.0
850,42.5,0.0,0.0,51.766,0.0,0.0,0.0,0.0,0.0,0.0,0,70,0.0,0.0,0.0
851,42.550000000000004,0.0,0.0,51.766,0.0,0.0,0.0,0.0,0.0,0.0,0,70,0.0,0.0,0.0
852,42.6,0.0,0.0,51.766,0.0,0.0,0.0,0.0,0.0,0.0,0,70,0.0,0.0,0.0
853,42.650000000000006,0.0,0.0,51.766,0.0,0.0,0.0,0.0,0.0,0.0,0,70,0.0,0.0,0.0
854,42.7,0.0,0.0,51.766,0.0,0.0,0.0,0.0,0.0,0.0,0,70,0.0,0.0,0.0
855,42.75,0.0,0.0,51.766,0.0,0.0,0.0,0.0,0.0,0.0,0,70,0.0,0.0,0.0
856,42.800000000000004,0.0,0.0,51.766,0.0,0.0,0.0,0.0,0.0,0.0,0,70,0.0,0.0,0.0
857,42.85,0.0,0.0,51.766,0.0,0.0,0.0,0.0,0.0,0.0,0,70,0.0,0.0,0.0
858,42.900000000000006,0.0,0.0,51.766,0.0,0.0,0.0,0.0,0.0,0.0,0,70,0.0,0.0,0.0
859,42.95,0.0,0.0,51.766,0.0,0.0,0.0,0.0,0.0,0.0,0,70,0.0,0.0,0.0
860,43.0,0.0,0.0,51.766,0.0,0.0,0.0,0.0,0.0,0.0,0,70,0.0,0.0,0.0
861,43.050000000000004,0.0,0.0,51.766,0.0,0.0,0.0,0.0,0.0,0.0,0,70,0.0,0.0,0.0
862,43.1,0.0,0.0,51.766,0.0,0.0,0.0,0.0,0.0,0.0,0,70,0.0,0.0,0.0
863,43.150000000000006,0.0,0.0,51.766,0.0,0.0,0.0,0.0,0.0,0.0,0,70,0.0,0.0,0.0
864,43.2,0.0,0.0,51.766,0.0,0.0,0.0,0.0,0.0,0.0,0,70,0.0,0.0,0.0
865,43.25,0.0,0.0,51.766,0.0,0.0,0.0,0.0,0.0,0.0,0,70,0.0,0.0,0.0
866,43.300000000000004,0.0,0.0,51.766,0.0,0.0,0.0,0.0,0.0,0.0,0,70,0.0,0.0,0.0
867,43.35,0.0,0.0,51.766,0.0,0.0,0.0,0.0,0.0,0.0,0,70,0.0,0.0,0.0
868,43.400000000000006,0.0,0.0,51.766,0.0,0.0,0.0,0.0,0.0,0.0,0,70,0.0,0.0,0.0
869,43.45,0.0,0.0,51.766,0.0,0.0,0.0,0.0,0.0,0.0,0,70,0.0,0.0,0.0
870,43.5,0.0,0.0,51.766,0.0,0.0,0.0,0.0,0.0,0.0,0,70,0.0,0.0,0.0
871,43.550000000000004,0.0,0.0,51.766,0.0,0.0,0.0,0.0,0.0,0.0,0,70,0.0,0.0,0.0
872,43.6,0.0,0.0,51.766,0.0,0.0,0.0,0.0,0.0,0.0,0,70,0.0,0.0,0.0
873,43.650000000000006,0.0,0.0,51.766,0.0,0.0,0.0,0.0,0.0,0.0,0,70,0.0,0.0,0.0
874,43.7,0.0,0.0,51.766,0.0,0.0,0.0,0.0,0.0,0.0,0,70,0.0,0.0,0.0
875,43.75,0.0,0.0,51.766,0.0,0.0,0.0,0.0,0.0,0.0,0,70,0.0,0.0,0.0
876,43.800000000000004,0.0,0.0,51.766,0.0,0.0,0.0,0.0,0.0,0.0,0,70,0.0,0.0,0.0
877,43.85,0.0,0.0,51.766,0.0,0.0,0.0,0.0,0.0,0.0,0,70,0.0,0.0,0.0
878,43.900000000000006,0.0,0.0,51.766,0.0,0.0,0.0,0.0,0.0,0.0,0,70,0.0,0.0,0.0
879,43.95,0.0,0.0,51.766,0.0,0.0,0.0,0.0,0.0,0.0,0,70,0.0,0.0,0.0
880,44.0,0.0,0.0,51.766,0.0,0.0,0.0,0.0,0.0,0.0,0,70,0.0,0.0,0.0
881,44.050000000000004,0.0,0.0,51.766,0.0,0.0,0.0,0.0,0.0,0.0,0,70,0.0,0.0,0.0
882,44.1,0.0,0.0,51.766,0.0,0.0,0.0,0.0,0.0,0.0,0,70,0.0,0.0,0.0
883,44.150000000000006,0.0,0.0,51.766,0.0,0.0,0.0,0.0,0.0,0.0,0,70,0.0,0.0,0.0
884,44.2,0.0,0.0,51.766,0.0,0.0,0.0,0.0,0.0,0.0,0,70,0.0,0.0,0.0
885,44.25,0.0,0.0,51.766,0.0,0.0,0.0,0.0,0.0,0.0,0,70,0.0,0.0,0.0
886,44.300000000000004,0.0,0.0,51.766,0.0,0.0,0.0,0.0,0.0,0.0,0,70,0.0,0.0,0.0
887,44.35,0.0,0.0,51.766,0.0,0.0,0.0,0.0,0.0,0.0,0,70,0.0,0.0,0.0
888,44.400000000000006,0.0,0.0,51.766,0.0,0.0,0.0,0.0,0.0,0.0,0,70,0.0,0.0,0.0
889,44.45,0.0,0.0,51.766,0.0,0.0,0.0,0.0,0.0,0.0,0,70,0.0,0.0,0.0
890,44.5,0.0,0.0,51.766,0.0,0.0,0.0,0.0,0.0,0.0,0,70,0.0,0.0,0.0
891,44.550000000000004,0.0,0.0,51.766,0.0,0.0,0.0,0.0,0.0,0.0,0,70,0.0,0.0,0.0
892,44.6,0.0,0.0,51.766,0.0,0.0,0.0,0.0,0.0,0.0,0,70,0.0,0.0,0.0
893,44.650000000000006,0.0,0.0,51.766,0.0,0.0,0.0,0.0,0.0,0.0,0,70,0.0,0.0,0.0
894,44.7,0.0,0.0,51.766,0.0,0.0,0.0,0.0,0.0,0.0,0,70,0.0,0.0,0.0
895,44.75,0.0,0.0,51.766,0.0,0.0,0.0,0.0,0.0,0.0,0,70,0.0,0.0,0.0
896,44.800000000000004,0.0,0.0,51.766,0.0,0.0,0.0,0.0,0.0,0.0,0,70,0.0,0.0,0.0
897,44.85,0.0,0.0,51.766,0.0,0.0,0.0,0.0,0.0,0.0,0,70,0.0,0.0,0.0
898,44.900000000000006,0.0,0.0,51.766,0.0,0.0,0.0,0.0,0.0,0.0,0,70,0.0,0.0,0.0
899,44.95,0.0,0.0,51.766,0.0,0.0,0.0,0.0,0.0,0.0,0,70,0.0,0.0,0.0
900,45.0,0.0,0.0,51.766,0.0,0.0,0.0,0.0,0.0,0.0,0,70,0.0,0.0,0.0
901,45.050000000000004,0.0,0.0,51.766,0.0,0.0,0.0,0.0,0.0,0.0,0,70,0.0,0.0,0.0
902,45.1,0.0,0.0,51.766,0.0,0.0,0.0,0.0,0.0,0.0,0,70,0.0,0.0,0.0
903,45.150000000000006,0.0,0.0,51.766,0.0,0.0,0.0,0.0,0.0,0.0,0,70,0.0,0.0,0.0
904,45.2,0.0,0.0,51.766,0.0,0.0,0.0,0.0,0.0,0.0,0,70,0.0,0.0,0.0
905,45.25,0.0,0.0,51.766,0.0,0.0,0.0,0.0,0.0,0.0,0,70,0.0,0.0,0.0
906,45.300000000000004,0.0,0.0,51.766,0.0,0.0,0.0,0.0,0.0,0.0,0,70,0.0,0.0,0.0
907,45.35,0.0,0.0,51.766,0.0,0.0,0.0,0.0,0.0,0.0,0,70,0.0,0.0,0.0
908,45.400000000000006,0.0,0.0,51.766,0.0,0.0,0.0,0.0,0.0,0.0,0,70,0.0,0.0,0.0
909,45.45,0.0,0.0,51.766,0.0,0.0,0.0,0.0,0.0,0.0,0,70,0.0,0.0,0.0
910,45.5,0.0,0.0,51.766,0.0,0.0,0.0,0.0,0.0,0.0,0,70,0.0,0.0,0.0
911,45.550000000000004,0.0,0.0,51.766,0.0,0.0,0.0,0.0,0.0,0.0,0,70,0.0,0.0,0.0
912,45.6,0.0,0.0,51.766,0.0,0.0,0.0,0.0,0.0,0.0,0,70,0.0,0.0,0.0
913,45.650000000000006,0.0,0.0,51.766,0.0,0.0,0.0,0.0,0.0,0.0,0,70,0.0,0.0,0.0
914,45.7,0.0,0.0,51.766,0.0,0.0,0.0,0.0,0.0,0.0,0,70,0.0,0.0,0.0
915,45.75,0.0,0.0,51.766,0.0,0.0,0.0,0.0,0.0,0.0,0,70,0.0,0.0,0.0
916,45.800000000000004,0.0,0.0,51.766,0.0,0.0,0.0,0.0,0.0,0.0,0,70,0.0,0.0,0.0
917,45.85,0.0,0.0,51.766,0.0,0.0,0.0,0.0,0.0,0.0,0,70,0.0,0.0,0.0
918,45.900000000000006,0.0,0.0,51.766,0.0,0.0,0.0,0.0,0.0,0.0,0,70,0.0,0.0,0.0
919,45.95,0.0,0.0,51.766,0.0,0.0,0.0,0.0,0.0,0.0,0,70,0.0,0.0,0.0
920,46.0,0.0,0.0,51.766,0.0,0.0,0.0,0.0,0.0,0.0,0,70,0.0,0.0,0.0
921,46.050000000000004,0.0,0.0,51.766,0.0,0.0,0.0,0.0,0.0,0.0,0,70,0.0,0.0,0.0
922,46.1,0.0,0.0,51.766,0.0,0.0,0.0,0.0,0.0,0.0,0,70,0.0,0.0,0.0
923,46.150000000000006,0.0,0.0,51.766,0.0,0.0,0.0,0.0,0.0,0.0,0,70,0.0,0.0,0.0
924,46.2,0.0,0.0,51.766,0.0,0.0,0.0,0.0,0.0,0.0,0,70,0.0,0.0,0.0
925,46.25,0.0,0.0,51.766,0.0,0.0,0.0,0.0,0.0,0.0,0,70,0.0,0.0,0.0
926,46.300000000000004,0.0,0.0,51.766,0.0,0.0,0.0,0.0,0.0,0.0,0,70,0.0,0.0,0.0
927,46.35,0.0,0.0,51.766,0.0,0.0,0.0,0.0,0.0,0.0,0,70,0.0,0.0,0.0
928,46.400000000000006,0.0,0.0,51.766,0.0,0.0,0.0,0.0,0.0,0.0,0,70,0.0,0.0,0.0
929,46.45,0.0,0.0,51.766,0.0,0.0,0.0,0.0,0.0,0.0,0,70,0.0,0.0,0.0
930,46.5,0.0,0.0,51.766,0.0,0.0,0.0,0.0,0.0,0.0,0,70,0.0,0.0,0.0
931,46.550000000000004,0.0,0.0,51.766,0.0,0.0,0.0,0.0,0.0,0.0,0,70,0.0,0.0,0.0
932,46.6,0.0,0.0,51.766,0.0,0.0,0.0,0.0,0.0,0.0,0,70,0.0,0.0,0.0
933,46.650000000000006,0.0,0.0,51.766,0.0,0.0,0.0,0.0,0.0,0.0,0,70,0.0,0.0,0.0
934,46.7,0.0,0.0,51.766,0.0,0.0,0.0,0.0,0.0,0.0,0,70,0.0,0.0,0.0
935,46.75,0.0,0.0,51.766,0.0,0.0,0.0,0.0,0.0,0.0,0,70,0.0,0.0,0.0
936,46.800000000000004,0.0,0.0,51.766,0.0,0.0,0.0,0.0,0.0,0.0,0,70,0.0,0.0,0.0
937,46.85,0.0,0.0,51.766,0.0,0.0,0.0,0.0,0.0,0.0,0,70,0.0,0.0,0.0
938,46.900000000000006,0.0,0.0,51.766,0.0,0.0,0.0,0.0,0.0,0.0,0,70,0.0,0.0,0.0
939,46.95,0.0,0.0,51.766,0.0,0.0,0.0,0.0,0.0,0.0,0,70,0.0,0.0,0.0
940,47.0,0.0,0.0,51.766,0.0,0.0,0.0,0.0,0.0,0.0,0,70,0.0,0.0,0.0
941,47.050000000000004,0.0,0.0,51.766,0.0,0.0,0.0,0.0,0.0,0.0,0,70,0.0,0.0,0.0
942,47.1,0.0,0.0,51.766,0.0,0.0,0.0,0.0,0.0,0.0,0,70,0.0,0.0,0.0
943,47.150000000000006,0.0,0.0,51.766,0.0,0.0,0.0,0.0,0.0,0.0,0,70,0.0,0.0,0.0
944,47.2,0.0,0.0,51.766,0.0,0.0,0.0,0.0,0.0,0.0,0,70,0.0,0.0,0.0
945,47.25,0.0,0.0,51.766,0.0,0.0,0.0,0.0,0.0,0.0,0,70,0.0,0.0,0.0
946,47.300000000000004,0.0,0.0,51.766,0.0,0.0,0.0,0.0,0.0,0.0,0,70,0.0,0.0,0.0
947,47.35,0.0,0.0,51.766,0.0,0.0,0.0,0.0,0.0,0.0,0,70,0.0,0.0,0.0
948,47.400000000000006,0.0,0.0,51.766,0.0,0.0,0.0,0.0,0.0,0.0,0,70,0.0,0.0,0.0
949,47.45,0.0,0.0,51.766,0.0,0.0,0.0,0.0,0.0,0.0,0,70,0.0,0.0,0.0
950,47.5,0.0,0.0,51.766,0.0,0.0,0.0,0.0,0.0,0.0,0,70,0.0,0.0,0.0
951,47.550000000000004,0.0,0.0,51.766,0.0,0.0,0.0,0.0,0.0,0.0,0,70,0.0,0.0,0.0
952,47.6,0.0,0.0,51.766,0.0,0.0,0.0,0.0,0.0,0.0,0,70,0.0,0.0,0.0
953,47.650000000000006,0.0,0.0,51.766,0.0,0.0,0.0,0.0,0.0,0.0,0,70,0.0,0.0,0.0
954,47.7,0.0,0.0,51.766,0.0,0.0,0.0,0.0,0.0,0.0,0,70,0.0,0.0,0.0
955,47.75,0.0,0.0,51.766,0.0,0.0,0.0,0.0,0.0,0.0,0,70,0.0,0.0,0.0
956,47.800000000000004,0.0,0.0,51.766,0.0,0.0,0.0,0.0,0.0,0.0,0,70,0.0,0.0,0.0
957,47.85,0.0,0.0,51.766,0.0,0.0,0.0,0.0,0.0,0.0,0,70,0.0,0.0,0.0
958,47.900000000000006,0.0,0.0,51.766,0.0,0.0,0.0,0.0,0.0,0.0,0,70,0.0,0.0,0.0
959,47.95,0.0,0.0,51.766,0.0,0.0,0.0,0.0,0.0,0.0,0,70,0.0,0.0,0.0
960,48.0,0.0,0.0,51.766,0.0,0.0,0.0,0.0,0.0,0.0,0,70,0.0,0.0,0.0
961,48.050000000000004,0.0,0.0,51.766,0.0,0.0,0.0,0.0,0.0,0.0,0,70,0.0,0.0,0.0
962,48.1,0.0,0.0,51.766,0.0,0.0,0.0,0.0,0.0,0.0,0,70,0.0,0.0,0.0
963,48.150000000000006,0.0,0.0,51.766,0.0,0.0,0.0,0.0,0.0,0.0,0,70,0.0,0.0,0.0
964,48.2,0.0,0.0,51.766,0.0,0.0,0.0,0.0,0.0,0.0,0,70,0.0,0.0,0.0
965,48.25,0.0,0.0,51.766,0.0,0.0,0.0,0.0,0.0,0.0,0,70,0.0,0.0,0.0
966,48.300000000000004,0.0,0.0,51.766,0.0,0.0,0.0,0.0,0.0,0.0,0,70,0.0,0.0,0.0
967,48.35,0.0,0.0,51.766,0.0,0.0,0.0,0.0,0.0,0.0,0,70,0.0,0.0,0.0
968,48.400000000000006,0.0,0.0,51.766,0.0,0.0,0.0,0.0,0.0,0.0,0,70,0.0,0.0,0.0
969,48.45,0.0,0.0,51.766,0.0,0.0,0.0,0.0,0.0,0.0,0,70,0.0,0.0,0.0
970,48.5,0.0,0.0,51.766,0.0,0.0,0.0,0.0,0.0,0.0,0,70,0.0,0.0,0.0
971,48.550000000000004,0.0,0.0,51.766,0.0,0.0,0.0,0.0,0.0,0.0,0,70,0.0,0.0,0.0
972,48.6,0.0,0.0,51.766,0.0,0.0,0.0,0.0,0.0,0.0,0,70,0.0,0.0,0.0
973,48.650000000000006,0.0,0.0,51.766,0.0,0.0,0.0,0.0,0.0,0.0,0,70,0.0,0.0,0.0
974,48.7,0.0,0.0,51.766,0.0,0.0,0.0,0.0,0.0,0.0,0,70,0.0,0.0,0.0
975,48.75,0.0,0.0,51.766,0.0,0.0,0.0,0.0,0.0,0.0,0,70,0.0,0.0,0.0
976,48.800000000000004,0.0,0.0,51.766,0.0,0.0,0.0,0.0,0.0,0.0,0,70,0.0,0.0,0.0
977,48.85,0.0,0.0,51.766,0.0,0.0,0.0,0.0,0.0,0.0,0,70,0.0,0.0,0.0
978,48.900000000000006,0.0,0.0,51.766,0.0,0.0,0.0,0.0,0.0,0.0,0,70,0.0,0.0,0.0
979,48.95,0.0,0.0,51.766,0.0,0.0,0.0,0.0,0.0,0.0,0,70,0.0,0.0,0.0
980,49.0,0.0,0.0,51.766,0.0,0.0,0.0,0.0,0.0,0.0,0,70,0.0,0.0,0.0
981,49.050000000000004,0.0,0.0,51.766,0.0,0.0,0.0,0.0,0.0,0.0,0,70,0.0,0.0,0.0
982,49.1,0.0,0.0,51.766,0.0,0.0,0.0,0.0,0.0,0.0,0,70,0.0,0.0,0.0
983,49.150000000000006,0.0,0.0,51.766,0.0,0.0,0.0,0.0,0.0,0.0,0,70,0.0,0.0,0.0
984,49.2,0.0,0.0,51.766,0.0,0.0,0.0,0.0,0.0,0.0,0,70,0.0,0.0,0.0
985,49.25,0.0,0.0,51.766,0.0,0.0,0.0,0.0,0.0,0.0,0,70,0.0,0.0,0.0
986,49.300000000000004,0.0,0.0,51.766,0.0,0.0,0.0,0.0,0.0,0.0,0,70,0.0,0.0,0.0
987,49.35,0.0,0.0,51.766,0.0,0.0,0.0,0.0,0.0,0.0,0,70,0.0,0.0,0.0
988,49.400000000000006,0.0,0.0,51.766,0.0,0.0,0.0,0.0,0.0,0.0,0,70,0.0,0.0,0.0
989,49.45,0.0,0.0,51.766,0.0,0.0,0.0,0.0,0.0,0.0,0,70,0.0,0.0,0.0
990,49.5,0.0,0.0,51.766,0.0,0.0,0.0,0.0,0.0,0.0,0,70,0.0,0.0,0.0
991,49.550000000000004,0.0,0.0,51.766,0.0,0.0,0.0,0.0,0.0,0.0,0,70,0.0,0.0,0.0
992,49.6,0.0,0.0,51.766,0.0,0.0,0.0,0.0,0.0,0.0,0,70,0.0,0.0,0.0
993,49.650000000000006,0.0,0.0,51.766,0.0,0.0,0.0,0.0,0.0,0.0,0,70,0.0,0.0,0.0
994,49.7,0.0,0.0,51.766,0.0,0.0,0.0,0.0,0.0,0.0,0,70,0.0,0.0,0.0
995,49.75,0.0,0.0,51.766,0.0,0.0,0.0,0.0,0.0,0.0,0,70,0.0,0.0,0.0
996,49.800000000000004,0.0,0.0,51.766,0.0,0.0,0.0,0.0,0.0,0.0,0,70,0.0,0.0,0.0
997,49.85,0.0,0.0,51.766,0.0,0.0,0.0,0.0,0.0,0.0,0,70,0.0,0.0,0.0
998,49.900000000000006,0.0,0.0,51.766,0.0,0.0,0.0,0.0,0.0,0.0,0,70,0.0,0.0,0.0
999,49.95,0.0,0.0,51.766,0.0,0.0,0.0,0.0,0.0,0.0,0,70,0.0,0.0,0.0
1000,50.0,0.0,0.0,51.766,0.0,0.0,0.0,0.0,0.0,0.0,0,70,0.0,0.0,0.0
1001,50.050000000000004,0.0,0.0,51.766,0.0,0.0,0.0,0.0,0.0,0.0,0,70,0.0,0.0,0.0
1002,50.1,0.0,0.0,51.766,0.0,0.0,0.0,0.0,0.0,0.0,0,70,0.0,0.0,0.0
1003,50.150000000000006,0.0,0.0,51.766,0.0,0.0,0.0,0.0,0.0,0.0,0,70,0.0,0.0,0.0
1004,50.2,0.0,0.0,51.766,0.0,0.0,0.0,0.0,0.0,0.0,0,70,0.0,0.0,0.0
1005,50.25,0.0,0.0,51.766,0.0,0.0,0.0,0.0,0.0,0.0,0,70,0.0,0.0,0.0
1006,50.300000000000004,0.0,0.0,51.766,0.0,0.0,0.0,0.0,0.0,0.0,0,70,0.0,0.0,0.0
1007,50.35,0.0,0.0,51.766,0.0,0.0,0.0,0.0,0.0,0.0,0,70,0.0,0.0,0.0
1008,50.400000000000006,0.0,0.0,51.766,0.0,0.0,0.0,0.0,0.0,0.0,0,70,0.0,0.0,0.0
1009,50.45,0.0,0.0,51.766,0.0,0.0,0.0,0.0,0.0,0.0,0,70,0.0,0.0,0.0
1010,50.5,0.0,0.0,51.766,0.0,0.0,0.0,0.0,0.0,0.0,0,70,0.0,0.0,0.0
1011,50.550000000000004,0.0,0.0,51.766,0.0,0.0,0.0,0.0,0.0,0.0,0,70,0.0,0.0,0.0
1012,50.6,0.0,0.0,51.766,0.0,0.0,0.0,0.0,0.0,0.0,0,70,0.0,0.0,0.0
1013,50.650000000000006,0.0,0.0,51.766,0.0,0.0,0.0,0.0,0.0,0.0,0,70,0.0,0.0,0.0
1014,50.7,0.0,0.0,51.766,0.0,0.0,0.0,0.0,0.0,0.0,0,70,0.0,0.0,0.0
1015,50.75,0.0,0.0,51.766,0.0,0.0,0.0,0.0,0.0,0.0,0,70,0.0,0.0,0.0
1016,50.800000000000004,0.0,0.0,51.766,0.0,0.0,0.0,0.0,0.0,0.0,0,70,0.0,0.0,0.0
1017,50.85,0.0,0.0,51.766,0.0,0.0,0.0,0.0,0.0,0.0,0,70,0.0,0.0,0.0
1018,50.900000000000006,0.0,0.0,51.766,0.0,0.0,0.0,0.0,0.0,0.0,0,70,0.0,0.0,0.0
1019,50.95,0.0,0.0,51.766,0.0,0.0,0.0,0.0,0.0,0.0,0,70,0.0,0.0,0.0
1020,51.0,0.0,0.0,51.766,0.0,0.0,0.0,0.0,0.0,0.0,0,70,0.0,0.0,0.0
1021,51.050000000000004,0.0,0.0,51.766,0.0,0.0,0.0,0.0,0.0,0.0,0,70,0.0,0.0,0.0
1022,51.1,0.0,0.0,51.766,0.0,0.0,0.0,0.0,0.0,0.0,0,70,0.0,0.0,0.0
1023,51.150000000000006,0.0,0.0,51.766,0.0,0.0,0.0,0.0,0.0,0.0,0,70,0.0,0.0,0.0
1024,51.2,0.0,0.0,51.766,0.0,0.0,0.0,0.0,0.0,0.0,0,70,0.0,0.0,0.0
1025,51.25,0.0,0.0,51.766,0.0,0.0,0.0,0.0,0.0,0.0,0,70,0.0,0.0,0.0
1026,51.300000000000004,0.0,0.0,51.766,0.0,0.0,0.0,0.0,0.0,0.0,0,70,0.0,0.0,0.0
1027,51.35,0.0,0.0,51.766,0.0,0.0,0.0,0.0,0.0,0.0,0,70,0.0,0.0,0.0
1028,51.400000000000006,0.0,0.0,51.766,0.0,0.0,0.0,0.0,0.0,0.0,0,70,0.0,0.0,0.0
1029,51.45,0.0,0.0,51.766,0.0,0.0,0.0,0.0,0.0,0.0,0,70,0.0,0.0,0.0
1030,51.5,0.0,0.0,51.766,0.0,0.0,0.0,0.0,0.0,0.0,0,70,0.0,0.0,0.0
1031,51.550000000000004,0.0,0.0,51.766,0.0,0.0,0.0,0.0,0.0,0.0,0,70,0.0,0.0,0.0
1032,51.6,0.0,0.0,51.766,0.0,0.0,0.0,0.0,0.0,0.0,0,70,0.0,0.0,0.0
1033,51.650000000000006,0.0,0.0,51.766,0.0,0.0,0.0,0.0,0.0,0.0,0,70,0.0,0.0,0.0
1034,51.7,0.0,0.0,51.766,0.0,0.0,0.0,0.0,0.0,0.0,0,70,0.0,0.0,0.0
1035,51.75,0.0,0.0,51.766,0.0,0.0,0.0,0.0,0.0,0.0,0,70,0.0,0.0,0.0
1036,51.800000000000004,0.0,0.0,51.766,0.0,0.0,0.0,0.0,0.0,0.0,0,70,0.0,0.0,0.0
1037,51.85,0.0,0.0,51.766,0.0,0.0,0.0,0.0,0.0,0.0,0,70,0.0,0.0,0.0
1038,51.900000000000006,0.0,0.0,51.766,0.0,0.0,0.0,0.0,0.0,0.0,0,70,0.0,0.0,0.0
1039,51.95,0.0,0.0,51.766,0.0,0.0,0.0,0.0,0.0,0.0,0,70,0.0,0.0,0.0
1040,52.0,0.0,0.0,51.766,0.0,0.0,0.0,0.0,0.0,0.0,0,70,0.0,0.0,0.0
1041,52.050000000000004,0.0,0.0,51.766,0.0,0.0,0.0,0.0,0.0,0.0,0,70,0.0,0.0,0.0
1042,52.1,0.0,0.0,51.766,0.0,0.0,0.0,0.0,0.0,0.0,0,70,0.0,0.0,0.0
1043,52.150000000000006,0.0,0.0,51.766,0.0,0.0,0.0,0.0,0.0,0.0,0,70,0.0,0.0,0.0
1044,52.2,0.0,0.0,51.766,0.0,0.0,0.0,0.0,0.0,0.0,0,70,0.0,0.0,0.0
1045,52.25,0.0,0.0,51.766,0.0,0.0,0.0,0.0,0.0,0.0,0,70,0.0,0.0,0.0
1046,52.300000000000004,0.0,0.0,51.766,0.0,0.0,0.0,0.0,0.0,0.0,0,70,0.0,0.0,0.0
1047,52.35,0.0,0.0,51.766,0.0,0.0,0.0,0.0,0.0,0.0,0,70,0.0,0.0,0.0
1048,52.400000000000006,0.0,0.0,51.766,0.0,0.0,0.0,0.0,0.0,0.0,0,70,0.0,0.0,0.0
1049,52.45,0.0,0.0,51.766,0.0,0.0,0.0,0.0,0.0,0.0,0,70,0.0,0.0,0.0
1050,52.5,0.0,0.0,51.766,0.0,0.0,0.0,0.0,0.0,0.0,0,70,0.0,0.0,0.0
1051,52.550000000000004,0.0,0.0,51.766,0.0,0.0,0.0,0.0,0.0,0.0,0,70,0.0,0.0,0.0
1052,52.6,0.0,0.0,51.766,0.0,0.0,0.0,0.0,0.0,0.0,0,70,0.0,0.0,0.0
1053,52.650000000000006,0.0,0.0,51.766,0.0,0.0,0.0,0.0,0.0,0.0,0,70,0.0,0.0,0.0
1054,52.7,0.0,0.0,51.766,0.0,0.0,0.0,0.0,0.0,0.0,0,70,0.0,0.0,0.0
1055,52.75,0.0,0.0,51.766,0.0,0.0,0.0,0.0,0.0,0.0,0,70,0.0,0.0,0.0
1056,52.800000000000004,0.0,0.0,51.766,0.0,0.0,0.0,0.0,0.0,0.0,0,70,0.0,0.0,0.0
1057,52.85,0.0,0.0,51.766,0.0,0.0,0.0,0.0,0.0,0.0,0,70,0.0,0.0,0.0
1058,52.900000000000006,0.0,0.0,51.766,0.0,0.0,0.0,0.0,0.0,0.0,0,70,0.0,0.0,0.0
1059,52.95,0.0,0.0,51.766,0.0,0.0,0.0,0.0,0.0,0.0,0,70,0.0,0.0,0.0
1060,53.0,0.0,0.0,51.766,0.0,0.0,0.0,0.0,0.0,0.0,0,70,0.0,0.0,0.0
1061,53.050000000000004,0.0,0.0,51.766,0.0,0.0,0.0,0.0,0.0,0.0,0,70,0.0,0.0,0.0
1062,53.1,0.0,0.0,51.766,0.0,0.0,0.0,0.0,0.0,0.0,0,70,0.0,0.0,0.0
1063,53.150000000000006,0.0,0.0,51.766,0.0,0.0,0.0,0.0,0.0,0.0,0,70,0.0,0.0,0.0
1064,53.2,0.0,0.0,51.766,0.0,0.0,0.0,0.0,0.0,0.0,0,70,0.0,0.0,0.0
1065,53.25,0.0,0.0,51.766,0.0,0.0,0.0,0.0,0.0,0.0,0,70,0.0,0.0,0.0
1066,53.300000000000004,0.0,0.0,51.766,0.0,0.0,0.0,0.0,0.0,0.0,0,70,0.0,0.0,0.0
1067,53.35,0.0,0.0,51.766,0.0,0.0,0.0,0.0,0.0,0.0,0,70,0.0,0.0,0.0
1068,53.400000000000006,0.0,0.0,51.766,0.0,0.0,0.0,0.0,0.0,0.0,0,70,0.0,0.0,0.0
1069,53.45,0.0,0.0,51.766,0.0,0.0,0.0,0.0,0.0,0.0,0,70,0.0,0.0,0.0
1070,53.5,0.0,0.0,51.766,0.0,0.0,0.0,0.0,0.0,0.0,0,70,0.0,0.0,0.0
1071,53.550000000000004,0.0,0.0,51.766,0.0,0.0,0.0,0.0,0.0,0.0,0,70,0.0,0.0,0.0
1072,53.6,0.0,0.0,51.766,0.0,0.0,0.0,0.0,0.0,0.0,0,70,0.0,0.0,0.0
1073,53.650000000000006,0.0,0.0,51.766,0.0,0.0,0.0,0.0,0.0,0.0,0,70,0.0,0.0,0.0
1074,53.7,0.0,0.0,51.766,0.0,0.0,0.0,0.0,0.0,0.0,0,70,0.0,0.0,0.0
1075,53.75,0.0,0.0,51.766,0.0,0.0,0.0,0.0,0.0,0.0,0,70,0.0,0.0,0.0
1076,53.800000000000004,0.0,0.0,51.766,0.0,0.0,0.0,0.0,0.0,0.0,0,70,0.0,0.0,0.0
1077,53.85,0.0,0.0,51.766,0.0,0.0,0.0,0.0,0.0,0.0,0,70,0.0,0.0,0.0
1078,53.900000000000006,0.0,0.0,51.766,0.0,0.0,0.0,0.0,0.0,0.0,0,70,0.0,0.0,0.0
1079,53.95,0.0,0.0,51.766,0.0,0.0,0.0,0.0,0.0,0.0,0,70,0.0,0.0,0.0
1080,54.0,0.0,0.0,51.766,0.0,0.0,0.0,0.0,0.0,0.0,0,70,0.0,0.0,0.0
1081,54.050000000000004,0.0,0.0,51.766,0.0,0.0,0.0,0.0,0.0,0.0,0,70,0.0,0.0,0.0
1082,54.1,0.0,0.0,51.766,0.0,0.0,0.0,0.0,0.0,0.0,0,70,0.0,0.0,0.0
1083,54.150000000000006,0.0,0.0,51.766,0.0,0.0,0.0,0.0,0.0,0.0,0,70,0.0,0.0,0.0
1084,54.2,0.0,0.0,51.766,0.0,0.0,0.0,0.0,0.0,0.0,0,70,0.0,0.0,0.0
1085,54.25,0.0,0.0,51.766,0.0,0.0,0.0,0.0,0.0,0.0,0,70,0.0,0.0,0.0
1086,54.300000000000004,0.0,0.0,51.766,0.0,0.0,0.0,0.0,0.0,0.0,0,70,0.0,0.0,0.0
1087,54.35,0.0,0.0,51.766,0.0,0.0,0.0,0.0,0.0,0.0,0,70,0.0,0.0,0.0
1088,54.400000000000006,0.0,0.0,51.766,0.0,0.0,0.0,0.0,0.0,0.0,0,70,0.0,0.0,0.0
1089,54.45,0.0,0.0,51.766,0.0,0.0,0.0,0.0,0.0,0.0,0,70,0.0,0.0,0.0
1090,54.5,0.0,0.0,51.766,0.0,0.0,0.0,0.0,0.0,0.0,0,70,0.0,0.0,0.0
1091,54.550000000000004,0.0,0.0,51.766,0.0,0.0,0.0,0.0,0.0,0.0,0,70,0.0,0.0,0.0
1092,54.6,0.0,0.0,51.766,0.0,0.0,0.0,0.0,0.0,0.0,0,70,0.0,0.0,0.0
1093,54.650000000000006,0.0,0.0,51.766,0.0,0.0,0.0,0.0,0.0,0.0,0,70,0.0,0.0,0.0
1094,54.7,0.0,0.0,51.766,0.0,0.0,0.0,0.0,0.0,0.0,0,70,0.0,0.0,0.0
1095,54.75,0.0,0.0,51.766,0.0,0.0,0.0,0.0,0.0,0.0,0,70,0.0,0.0,0.0
1096,54.800000000000004,0.0,0.0,51.766,0.0,0.0,0.0,0.0,0.0,0.0,0,70,0.0,0.0,0.0
1097,54.85,0.0,0.0,51.766,0.0,0.0,0.0,0.0,0.0,0.0,0,70,0.0,0.0,0.0
1098,54.900000000000006,0.0,0.0,51.766,0.0,0.0,0.0,0.0,0.0,0.0,0,70,0.0,0.0,0.0
1099,54.95,0.0,0.0,51.766,0.0,0.0,0.0,0.0,0.0,0.0,0,70,0.0,0.0,0.0
1100,55.0,0.0,0.0,51.766,0.0,0.0,0.0,0.0,0.0,0.0,0,70,0.0,0.0,0.0
1101,55.050000000000004,0.0,0.0,51.766,0.0,0.0,0.0,0.0,0.0,0.0,0,70,0.0,0.0,0.0
1102,55.1,0.0,0.0,51.766,0.0,0.0,0.0,0.0,0.0,0.0,0,70,0.0,0.0,0.0
1103,55.150000000000006,0.0,0.0,51.766,0.0,0.0,0.0,0.0,0.0,0.0,0,70,0.0,0.0,0.0
1104,55.2,0.0,0.0,51.766,0.0,0.0,0.0,0.0,0.0,0.0,0,70,0.0,0.0,0.0
1105,55.25,0.0,0.0,51.766,0.0,0.0,0.0,0.0,0.0,0.0,0,70,0.0,0.0,0.0
1106,55.300000000000004,0.0,0.0,51.766,0.0,0.0,0.0,0.0,0.0,0.0,0,70,0.0,0.0,0.0
1107,55.35,0.0,0.0,51.766,0.0,0.0,0.0,0.0,0.0,0.0,0,70,0.0,0.0,0.0
1108,55.400000000000006,0.0,0.0,51.766,0.0,0.0,0.0,0.0,0.0,0.0,0,70,0.0,0.0,0.0
1109,55.45,0.0,0.0,51.766,0.0,0.0,0.0,0.0,0.0,0.0,0,70,0.0,0.0,0.0
1110,55.5,0.0,0.0,51.766,0.0,0.0,0.0,0.0,0.0,0.0,0,70,0.0,0.0,0.0
1111,55.550000000000004,0.0,0.0,51.766,0.0,0.0,0.0,0.0,0.0,0.0,0,70,0.0,0.0,0.0
1112,55.6,0.0,0.0,51.766,0.0,0.0,0.0,0.0,0.0,0.0,0,70,0.0,0.0,0.0
1113,55.650000000000006,0.0,0.0,51.766,0.0,0.0,0.0,0.0,0.0,0.0,0,70,0.0,0.0,0.0
1114,55.7,0.0,0.0,51.766,0.0,0.0,0.0,0.0,0.0,0.0,0,70,0.0,0.0,0.0
1115,55.75,0.0,0.0,51.766,0.0,0.0,0.0,0.0,0.0,0.0,0,70,0.0,0.0,0.0
1116,55.800000000000004,0.0,0.0,51.766,0.0,0.0,0.0,0.0,0.0,0.0,0,70,0.0,0.0,0.0
1117,55.85,0.0,0.0,51.766,0.0,0.0,0.0,0.0,0.0,0.0,0,70,0.0,0.0,0.0
1118,55.900000000000006,0.0,0.0,51.766,0.0,0.0,0.0,0.0,0.0,0.0,0,70,0.0,0.0,0.0
1119,55.95,0.0,0.0,51.766,0.0,0.0,0.0,0.0,0.0,0.0,0,70,0.0,0.0,0.0
1120,56.0,0.0,0.0,51.766,0.0,0.0,0.0,0.0,0.0,0.0,0,70,0.0,0.0,0.0
1121,56.050000000000004,0.0,0.0,51.766,0.0,0.0,0.0,0.0,0.0,0.0,0,70,0.0,0.0,0.0
1122,56.1,0.0,0.0,51.766,0.0,0.0,0.0,0.0,0.0,0.0,0,70,0.0,0.0,0.0
1123,56.150000000000006,0.0,0.0,51.766,0.0,0.0,0.0,0.0,0.0,0.0,0,70,0.0,0.0,0.0
1124,56.2,0.0,0.0,51.766,0.0,0.0,0.0,0.0,0.0,0.0,0,70,0.0,0.0,0.0
1125,56.25,0.0,0.0,51.766,0.0,0.0,0.0,0.0,0.0,0.0,0,70,0.0,0.0,0.0
1126,56.300000000000004,0.0,0.0,51.766,0.0,0.0,0.0,0.0,0.0,0.0,0,70,0.0,0.0,0.0
1127,56.35,0.0,0.0,51.766,0.0,0.0,0.0,0.0,0.0,0.0,0,70,0.0,0.0,0.0
1128,56.400000000000006,0.0,0.0,51.766,0.0,0.0,0.0,0.0,0.0,0.0,0,70,0.0,0.0,0.0
1129,56.45,0.0,0.0,51.766,0.0,0.0,0.0,0.0,0.0,0.0,0,70,0.0,0.0,0.0
1130,56.5,0.0,0.0,51.766,0.0,0.0,0.0,0.0,0.0,0.0,0,70,0.0,0.0,0.0
1131,56.550000000000004,0.0,0.0,51.766,0.0,0.0,0.0,0.0,0.0,0.0,0,70,0.0,0.0,0.0
1132,56.6,0.0,0.0,51.766,0.0,0.0,0.0,0.0,0.0,0.0,0,70,0.0,0.0,0.0
1133,56.650000000000006,0.0,0.0,51.766,0.0,0.0,0.0,0.0,0.0,0.0,0,70,0.0,0.0,0.0
1134,56.7,0.0,0.0,51.766,0.0,0.0,0.0,0.0,0.0,0.0,0,70,0.0,0.0,0.0
1135,56.75,0.0,0.0,51.766,0.0,0.0,0.0,0.0,0.0,0.0,0,70,0.0,0.0,0.0
1136,56.800000000000004,0.0,0.0,51.766,0.0,0.0,0.0,0.0,0.0,0.0,0,70,0.0,0.0,0.0
1137,56.85,0.0,0.0,51.766,0.0,0.0,0.0,0.0,0.0,0.0,0,70,0.0,0.0,0.0
1138,56.900000000000006,0.0,0.0,51.766,0.0,0.0,0.0,0.0,0.0,0.0,0,70,0.0,0.0,0.0
1139,56.95,0.0,0.0,51.766,0.0,0.0,0.0,0.0,0.0,0.0,0,70,0.0,0.0,0.0
1140,57.0,0.0,0.0,51.766,0.0,0.0,0.0,0.0,0.0,0.0,0,70,0.0,0.0,0.0
1141,57.050000000000004,0.0,0.0,51.766,0.0,0.0,0.0,0.0,0.0,0.0,0,70,0.0,0.0,0.0
1142,57.1,0.0,0.0,51.766,0.0,0.0,0.0,0.0,0.0,0.0,0,70,0.0,0.0,0.0
1143,57.150000000000006,0.0,0.0,51.766,0.0,0.0,0.0,0.0,0.0,0.0,0,70,0.0,0.0,0.0
1144,57.2,0.0,0.0,51.766,0.0,0.0,0.0,0.0,0.0,0.0,0,70,0.0,0.0,0.0
1145,57.25,0.0,0.0,51.766,0.0,0.0,0.0,0.0,0.0,0.0,0,70,0.0,0.0,0.0
1146,57.300000000000004,0.0,0.0,51.766,0.0,0.0,0.0,0.0,0.0,0.0,0,70,0.0,0.0,0.0
1147,57.35,0.0,0.0,51.766,0.0,0.0,0.0,0.0,0.0,0.0,0,70,0.0,0.0,0.0
1148,57.400000000000006,0.0,0.0,51.766,0.0,0.0,0.0,0.0,0.0,0.0,0,70,0.0,0.0,0.0
1149,57.45,0.0,0.0,51.766,0.0,0.0,0.0,0.0,0.0,0.0,0,70,0.0,0.0,0.0
1150,57.5,0.0,0.0,51.766,0.0,0.0,0.0,0.0,0.0,0.0,0,70,0.0,0.0,0.0
1151,57.550000000000004,0.0,0.0,51.766,0.0,0.0,0.0,0.0,0.0,0.0,0,70,0.0,0.0,0.0
1152,57.6,0.0,0.0,51.766,0.0,0.0,0.0,0.0,0.0,0.0,0,70,0.0,0.0,0.0
1153,57.650000000000006,0.0,0.0,51.766,0.0,0.0,0.0,0.0,0.0,0.0,0,70,0.0,0.0,0.0
1154,57.7,0.0,0.0,51.766,0.0,0.0,0.0,0.0,0.0,0.0,0,70,0.0,0.0,0.0
1155,57.75,0.0,0.0,51.766,0.0,0.0,0.0,0.0,0.0,0.0,0,70,0.0,0.0,0.0
1156,57.800000000000004,0.0,0.0,51.766,0.0,0.0,0.0,0.0,0.0,0.0,0,70,0.0,0.0,0.0
1157,57.85,0.0,0.0,51.766,0.0,0.0,0.0,0.0,0.0,0.0,0,70,0.0,0.0,0.0
1158,57.900000000000006,0.0,0.0,51.766,0.0,0.0,0.0,0.0,0.0,0.0,0,70,0.0,0.0,0.0
1159,57.95,0.0,0.0,51.766,0.0,0.0,0.0,0.0,0.0,0.0,0,70,0.0,0.0,0.0
1160,58.0,0.0,0.0,51.766,0.0,0.0,0.0,0.0,0.0,0.0,0,70,0.0,0.0,0.0
1161,58.050000000000004,0.0,0.0,51.766,0.0,0.0,0.0,0.0,0.0,0.0,0,70,0.0,0.0,0.0
1162,58.1,0.0,0.0,51.766,0.0,0.0,0.0,0.0,0.0,0.0,0,70,0.0,0.0,0.0
1163,58.150000000000006,0.0,0.0,51.766,0.0,0.0,0.0,0.0,0.0,0.0,0,70,0.0,0.0,0.0
1164,58.2,0.0,0.0,51.766,0.0,0.0,0.0,0.0,0.0,0.0,0,70,0.0,0.0,0.0
1165,58.25,0.0,0.0,51.766,0.0,0.0,0.0,0.0,0.0,0.0,0,70,0.0,0.0,0.0
1166,58.300000000000004,0.0,0.0,51.766,0.0,0.0,0.0,0.0,0.0,0.0,0,70,0.0,0.0,0.0
1167,58.35,0.0,0.0,51.766,0.0,0.0,0.0,0.0,0.0,0.0,0,70,0.0,0.0,0.0
1168,58.400000000000006,0.0,0.0,51.766,0.0,0.0,0.0,0.0,0.0,0.0,0,70,0.0,0.0,0.0
1169,58.45,0.0,0.0,51.766,0.0,0.0,0.0,0.0,0.0,0.0,0,70,0.0,0.0,0.0
1170,58.5,0.0,0.0,51.766,0.0,0.0,0.0,0.0,0.0,0.0,0,70,0.0,0.0,0.0
1171,58.550000000000004,0.0,0.0,51.766,0.0,0.0,0.0,0.0,0.0,0.0,0,70,0.0,0.0,0.0
1172,58.6,0.0,0.0,51.766,0.0,0.0,0.0,0.0,0.0,0.0,0,70,0.0,0.0,0.0
1173,58.650000000000006,0.0,0.0,51.766,0.0,0.0,0.0,0.0,0.0,0.0,0,70,0.0,0.0,0.0
1174,58.7,0.0,0.0,51.766,0.0,0.0,0.0,0.0,0.0,0.0,0,70,0.0,0.0,0.0
1175,58.75,0.0,0.0,51.766,0.0,0.0,0.0,0.0,0.0,0.0,0,70,0.0,0.0,0.0
1176,58.800000000000004,0.0,0.0,51.766,0.0,0.0,0.0,0.0,0.0,0.0,0,70,0.0,0.0,0.0
1177,58.85,0.0,0.0,51.766,0.0,0.0,0.0,0.0,0.0,0.0,0,70,0.0,0.0,0.0
1178,58.900000000000006,0.0,0.0,51.766,0.0,0.0,0.0,0.0,0.0,0.0,0,70,0.0,0.0,0.0
1179,58.95,0.0,0.0,51.766,0.0,0.0,0.0,0.0,0.0,0.0,0,70,0.0,0.0,0.0
1180,59.0,0.0,0.0,51.766,0.0,0.0,0.0,0.0,0.0,0.0,0,70,0.0,0.0,0.0
1181,59.050000000000004,0.0,0.0,51.766,0.0,0.0,0.0,0.0,0.0,0.0,0,70,0.0,0.0,0.0
1182,59.1,0.0,0.0,51.766,0.0,0.0,0.0,0.0,0.0,0.0,0,70,0.0,0.0,0.0
1183,59.150000000000006,0.0,0.0,51.766,0.0,0.0,0.0,0.0,0.0,0.0,0,70,0.0,0.0,0.0
1184,59.2,0.0,0.0,51.766,0.0,0.0,0.0,0.0,0.0,0.0,0,70,0.0,0.0,0.0
1185,59.25,0.0,0.0,51.766,0.0,0.0,0.0,0.0,0.0,0.0,0,70,0.0,0.0,0.0
1186,59.300000000000004,0.0,0.0,51.766,0.0,0.0,0.0,0.0,0.0,0.0,0,70,0.0,0.0,0.0
1187,59.35,0.0,0.0,51.766,0.0,0.0,0.0,0.0,0.0,0.0,0,70,0.0,0.0,0.0
1188,59.400000000000006,0.0,0.0,51.766,0.0,0.0,0.0,0.0,0.0,0.0,0,70,0.0,0.0,0.0
1189,59.45,0.0,0.0,51.766,0.0,0.0,0.0,0.0,0.0,0.0,0,70,0.0,0.0,0.0
1190,59.5,0.0,0.0,51.766,0.0,0.0,0.0,0.0,0.0,0.0,0,70,0.0,0.0,0.0
1191,59.550000000000004,0.0,0.0,51.766,0.0,0.0,0.0,0.0,0.0,0.0,0,70,0.0,0.0,0.0
1192,59.6,0.0,0.0,51.766,0.0,0.0,0.0,0.0,0.0,0.0,0,70,0.0,0.0,0.0
1193,59.650000000000006,0.0,0.0,51.766,0.0,0.0,0.0,0.0,0.0,0.0,0,70,0.0,0.0,0.0
1194,59.7,0.0,0.0,51.766,0.0,0.0,0.0,0.0,0.0,0.0,0,70,0.0,0.0,0.0
1195,59.75,0.0,0.0,51.766,0.0,0.0,0.0,0.0,0.0,0.0,0,70,0.0,0.0,0.0
1196,59.800000000000004,0.0,0.0,51.766,0.0,0.0,0.0,0.0,0.0,0.0,0,70,0.0,0.0,0.0
1197,59.85,0.0,0.0,51.766,0.0,0.0,0.0,0.0,0.0,0.0,0,70,0.0,0.0,0.0
1198,59.900000000000006,0.0,0.0,51.766,0.0,0.0,0.0,0.0,0.0,0.0,0,70,0.0,0.0,0.0
1199,59.95,0.0,0.0,51.766,0.0,0.0,0.0,0.0,0.0,0.0,0,70,0.0,0.0,0.0
1200,60.0,0.0,0.0,51.766,0.0,0.0,0.0,0.0,0.0,0.0,0,70,0.0,0.0,0.0
1201,60.050000000000004,0.0,0.0,51.766,0.0,0.0,0.0,0.0,0.0,0.0,0,70,0.0,0.0,0.0
1202,60.1,0.0,0.0,51.766,0.0,0.0,0.0,0.0,0.0,0.0,0,70,0.0,0.0,0.0
1203,60.150000000000006,0.0,0.0,51.766,0.0,0.0,0.0,0.0,0.0,0.0,0,70,0.0,0.0,0.0
1204,60.2,0.0,0.0,51.766,0.0,0.0,0.0,0.0,0.0,0.0,0,70,0.0,0.0,0.0
1205,60.25,0.0,0.0,51.766,0.0,0.0,0.0,0.0,0.0,0.0,0,70,0.0,0.0,0.0
1206,60.300000000000004,0.0,0.0,51.766,0.0,0.0,0.0,0.0,0.0,0.0,0,70,0.0,0.0,0.0
1207,60.35,0.0,0.0,51.766,0.0,0.0,0.0,0.0,0.0,0.0,0,70,0.0,0.0,0.0
1208,60.400000000000006,0.0,0.0,51.766,0.0,0.0,0.0,0.0,0.0,0.0,0,70,0.0,0.0,0.0
1209,60.45,0.0,0.0,51.766,0.0,0.0,0.0,0.0,0.0,0.0,0,70,0.0,0.0,0.0
1210,60.5,0.0,0.0,51.766,0.0,0.0,0.0,0.0,0.0,0.0,0,70,0.0,0.0,0.0
1211,60.550000000000004,0.0,0.0,51.766,0.0,0.0,0.0,0.0,0.0,0.0,0,70,0.0,0.0,0.0
1212,60.6,0.0,0.0,51.766,0.0,0.0,0.0,0.0,0.0,0.0,0,70,0.0,0.0,0.0
1213,60.650000000000006,0.0,0.0,51.766,0.0,0.0,0.0,0.0,0.0,0.0,0,70,0.0,0.0,0.0
1214,60.7,0.0,0.0,51.766,0.0,0.0,0.0,0.0,0.0,0.0,0,70,0.0,0.0,0.0
1215,60.75,0.0,0.0,51.766,0.0,0.0,0.0,0.0,0.0,0.0,0,70,0.0,0.0,0.0
1216,60.800000000000004,0.0,0.0,51.766,0.0,0.0,0.0,0.0,0.0,0.0,0,70,0.0,0.0,0.0
1217,60.85,0.0,0.0,51.766,0.0,0.0,0.0,0.0,0.0,0.0,0,70,0.0,0.0,0.0
1218,60.900000000000006,0.0,0.0,51.766,0.0,0.0,0.0,0.0,0.0,0.0,0,70,0.0,0.0,0.0
1219,60.95,0.0,0.0,51.766,0.0,0.0,0.0,0.0,0.0,0.0,0,70,0.0,0.0,0.0
1220,61.0,0.0,0.0,51.766,0.0,0.0,0.0,0.0,0.0,0.0,0,70,0.0,0.0,0.0
1221,61.050000000000004,0.0,0.0,51.766,0.0,0.0,0.0,0.0,0.0,0.0,0,70,0.0,0.0,0.0
1222,61.1,0.0,0.0,51.766,0.0,0.0,0.0,0.0,0.0,0.0,0,70,0.0,0.0,0.0
1223,61.150000000000006,0.0,0.0,51.766,0.0,0.0,0.0,0.0,0.0,0.0,0,70,0.0,0.0,0.0
1224,61.2,0.0,0.0,51.766,0.0,0.0,0.0,0.0,0.0,0.0,0,70,0.0,0.0,0.0
1225,61.25,0.0,0.0,51.766,0.0,0.0,0.0,0.0,0.0,0.0,0,70,0.0,0.0,0.0
1226,61.300000000000004,0.0,0.0,51.766,0.0,0.0,0.0,0.0,0.0,0.0,0,70,0.0,0.0,0.0
1227,61.35,0.0,0.0,51.766,0.0,0.0,0.0,0.0,0.0,0.0,0,70,0.0,0.0,0.0
1228,61.400000000000006,0.0,0.0,51.766,0.0,0.0,0.0,0.0,0.0,0.0,0,70,0.0,0.0,0.0
1229,61.45,0.0,0.0,51.766,0.0,0.0,0.0,0.0,0.0,0.0,0,70,0.0,0.0,0.0
1230,61.5,0.0,0.0,51.766,0.0,0.0,0.0,0.0,0.0,0.0,0,70,0.0,0.0,0.0
1231,61.550000000000004,0.0,0.0,51.766,0.0,0.0,0.0,0.0,0.0,0.0,0,70,0.0,0.0,0.0
1232,61.6,0.0,0.0,51.766,0.0,0.0,0.0,0.0,0.0,0.0,0,70,0.0,0.0,0.0
1233,61.650000000000006,0.0,0.0,51.766,0.0,0.0,0.0,0.0,0.0,0.0,0,70,0.0,0.0,0.0
1234,61.7,0.0,0.0,51.766,0.0,0.0,0.0,0.0,0.0,0.0,0,70,0.0,0.0,0.0
1235,61.75,0.0,0.0,51.766,0.0,0.0,0.0,0.0,0.0,0.0,0,70,0.0,0.0,0.0
1236,61.800000000000004,0.0,0.0,51.766,0.0,0.0,0.0,0.0,0.0,0.0,0,70,0.0,0.0,0.0
1237,61.85,0.0,0.0,51.766,0.0,0.0,0.0,0.0,0.0,0.0,0,70,0.0,0.0,0.0
1238,61.900000000000006,0.0,0.0,51.766,0.0,0.0,0.0,0.0,0.0,0.0,0,70,0.0,0.0,0.0
1239,61.95,0.0,0.0,51.766,0.0,0.0,0.0,0.0,0.0,0.0,0,70,0.0,0.0,0.0
1240,62.0,0.0,0.0,51.766,0.0,0.0,0.0,0.0,0.0,0.0,0,70,0.0,0.0,0.0
1241,62.050000000000004,0.0,0.0,51.766,0.0,0.0,0.0,0.0,0.0,0.0,0,70,0.0,0.0,0.0
1242,62.1,0.0,0.0,51.766,0.0,0.0,0.0,0.0,0.0,0.0,0,70,0.0,0.0,0.0
1243,62.150000000000006,0.0,0.0,51.766,0.0,0.0,0.0,0.0,0.0,0.0,0,70,0.0,0.0,0.0
1244,62.2,0.0,0.0,51.766,0.0,0.0,0.0,0.0,0.0,0.0,0,70,0.0,0.0,0.0
1245,62.25,0.0,0.0,51.766,0.0,0.0,0.0,0.0,0.0,0.0,0,70,0.0,0.0,0.0
1246,62.300000000000004,0.0,0.0,51.766,0.0,0.0,0.0,0.0,0.0,0.0,0,70,0.0,0.0,0.0
1247,62.35,0.0,0.0,51.766,0.0,0.0,0.0,0.0,0.0,0.0,0,70,0.0,0.0,0.0
1248,62.400000000000006,0.0,0.0,51.766,0.0,0.0,0.0,0.0,0.0,0.0,0,70,0.0,0.0,0.0
1249,62.45,0.0,0.0,51.766,0.0,0.0,0.0,0.0,0.0,0.0,0,70,0.0,0.0,0.0
1250,62.5,0.0,0.0,51.766,0.0,0.0,0.0,0.0,0.0,0.0,0,70,0.0,0.0,0.0
1251,62.550000000000004,0.0,0.0,51.766,0.0,0.0,0.0,0.0,0.0,0.0,0,70,0.0,0.0,0.0
1252,62.6,0.0,0.0,51.766,0.0,0.0,0.0,0.0,0.0,0.0,0,70,0.0,0.0,0.0
1253,62.650000000000006,0.0,0.0,51.766,0.0,0.0,0.0,0.0,0.0,0.0,0,70,0.0,0.0,0.0
1254,62.7,0.0,0.0,51.766,0.0,0.0,0.0,0.0,0.0,0.0,0,70,0.0,0.0,0.0
1255,62.75,0.0,0.0,51.766,0.0,0.0,0.0,0.0,0.0,0.0,0,70,0.0,0.0,0.0
1256,62.800000000000004,0.0,0.0,51.766,0.0,0.0,0.0,0.0,0.0,0.0,0,70,0.0,0.0,0.0
1257,62.85,0.0,0.0,51.766,0.0,0.0,0.0,0.0,0.0,0.0,0,70,0.0,0.0,0.0
1258,62.900000000000006,0.0,0.0,51.766,0.0,0.0,0.0,0.0,0.0,0.0,0,70,0.0,0.0,0.0
1259,62.95,0.0,0.0,51.766,0.0,0.0,0.0,0.0,0.0,0.0,0,70,0.0,0.0,0.0
1260,63.0,0.0,0.0,51.766,0.0,0.0,0.0,0.0,0.0,0.0,0,70,0.0,0.0,0.0
1261,63.050000000000004,0.0,0.0,51.766,0.0,0.0,0.0,0.0,0.0,0.0,0,70,0.0,0.0,0.0
1262,63.1,0.0,0.0,51.766,0.0,0.0,0.0,0.0,0.0,0.0,0,70,0.0,0.0,0.0
1263,63.150000000000006,0.0,0.0,51.766,0.0,0.0,0.0,0.0,0.0,0.0,0,70,0.0,0.0,0.0
1264,63.2,0.0,0.0,51.766,0.0,0.0,0.0,0.0,0.0,0.0,0,70,0.0,0.0,0.0
1265,63.25,0.0,0.0,51.766,0.0,0.0,0.0,0.0,0.0,0.0,0,70,0.0,0.0,0.0
1266,63.300000000000004,0.0,0.0,51.766,0.0,0.0,0.0,0.0,0.0,0.0,0,70,0.0,0.0,0.0
1267,63.35,0.0,0.0,51.766,0.0,0.0,0.0,0.0,0.0,0.0,0,70,0.0,0.0,0.0
1268,63.400000000000006,0.0,0.0,51.766,0.0,0.0,0.0,0.0,0.0,0.0,0,70,0.0,0.0,0.0
1269,63.45,0.0,0.0,51.766,0.0,0.0,0.0,0.0,0.0,0.0,0,70,0.0,0.0,0.0
1270,63.5,0.0,0.0,51.766,0.0,0.0,0.0,0.0,0.0,0.0,0,70,0.0,0.0,0.0
1271,63.550000000000004,0.0,0.0,51.766,0.0,0.0,0.0,0.0,0.0,0.0,0,70,0.0,0.0,0.0
1272,63.6,0.0,0.0,51.766,0.0,0.0,0.0,0.0,0.0,0.0,0,70,0.0,0.0,0.0
1273,63.650000000000006,0.0,0.0,51.766,0.0,0.0,0.0,0.0,0.0,0.0,0,70,0.0,0.0,0.0
1274,63.7,0.0,0.0,51.766,0.0,0.0,0.0,0.0,0.0,0.0,0,70,0.0,0.0,0.0
1275,63.75,0.0,0.0,51.766,0.0,0.0,0.0,0.0,0.0,0.0,0,70,0.0,0.0,0.0
1276,63.800000000000004,0.0,0.0,51.766,0.0,0.0,0.0,0.0,0.0,0.0,0,70,0.0,0.0,0.0
1277,63.85,0.0,0.0,51.766,0.0,0.0,0.0,0.0,0.0,0.0,0,70,0.0,0.0,0.0
1278,63.900000000000006,0.0,0.0,51.766,0.0,0.0,0.0,0.0,0.0,0.0,0,70,0.0,0.0,0.0
1279,63.95,0.0,0.0,51.766,0.0,0.0,0.0,0.0,0.0,0.0,0,70,0.0,0.0,0.0
1280,64.0,0.0,0.0,51.766,0.0,0.0,0.0,0.0,0.0,0.0,0,70,0.0,0.0,0.0
1281,64.05,0.0,0.0,51.766,0.0,0.0,0.0,0.0,0.0,0.0,0,70,0.0,0.0,0.0
1282,64.10000000000001,0.0,0.0,51.766,0.0,0.0,0.0,0.0,0.0,0.0,0,70,0.0,0.0,0.0
1283,64.15,0.0,0.0,51.766,0.0,0.0,0.0,0.0,0.0,0.0,0,70,0.0,0.0,0.0
1284,64.2,0.0,0.0,51.766,0.0,0.0,0.0,0.0,0.0,0.0,0,70,0.0,0.0,0.0
1285,64.25,0.0,0.0,51.766,0.0,0.0,0.0,0.0,0.0,0.0,0,70,0.0,0.0,0.0
1286,64.3,0.0,0.0,51.766,0.0,0.0,0.0,0.0,0.0,0.0,0,70,0.0,0.0,0.0
1287,64.35000000000001,0.0,0.0,51.766,0.0,0.0,0.0,0.0,0.0,0.0,0,70,0.0,0.0,0.0
1288,64.4,0.0,0.0,51.766,0.0,0.0,0.0,0.0,0.0,0.0,0,70,0.0,0.0,0.0
1289,64.45,0.0,0.0,51.766,0.0,0.0,0.0,0.0,0.0,0.0,0,70,0.0,0.0,0.0
1290,64.5,0.0,0.0,51.766,0.0,0.0,0.0,0.0,0.0,0.0,0,70,0.0,0.0,0.0
1291,64.55,0.0,0.0,51.766,0.0,0.0,0.0,0.0,0.0,0.0,0,70,0.0,0.0,0.0
1292,64.60000000000001,0.0,0.0,51.766,0.0,0.0,0.0,0.0,0.0,0.0,0,70,0.0,0.0,0.0
1293,64.65,0.0,0.0,51.766,0.0,0.0,0.0,0.0,0.0,0.0,0,70,0.0,0.0,0.0
1294,64.7,0.0,0.0,51.766,0.0,0.0,0.0,0.0,0.0,0.0,0,70,0.0,0.0,0.0
1295,64.75,0.0,0.0,51.766,0.0,0.0,0.0,0.0,0.0,0.0,0,70,0.0,0.0,0.0
1296,64.8,0.0,0.0,51.766,0.0,0.0,0.0,0.0,0.0,0.0,0,70,0.0,0.0,0.0
1297,64.85000000000001,0.0,0.0,51.766,0.0,0.0,0.0,0.0,0.0,0.0,0,70,0.0,0.0,0.0
1298,64.9,0.0,0.0,51.766,0.0,0.0,0.0,0.0,0.0,0.0,0,70,0.0,0.0,0.0
1299,64.95,0.0,0.0,51.766,0.0,0.0,0.0,0.0,0.0,0.0,0,70,0.0,0.0,0.0
1300,65.0,0.0,0.0,51.766,0.0,0.0,0.0,0.0,0.0,0.0,0,70,0.0,0.0,0.0
1301,65.05,0.0,0.0,51.766,0.0,0.0,0.0,0.0,0.0,0.0,0,70,0.0,0.0,0.0
1302,65.10000000000001,0.0,0.0,51.766,0.0,0.0,0.0,0.0,0.0,0.0,0,70,0.0,0.0,0.0
1303,65.15,0.0,0.0,51.766,0.0,0.0,0.0,0.0,0.0,0.0,0,70,0.0,0.0,0.0
1304,65.2,0.0,0.0,51.766,0.0,0.0,0.0,0.0,0.0,0.0,0,70,0.0,0.0,0.0
1305,65.25,0.0,0.0,51.766,0.0,0.0,0.0,0.0,0.0,0.0,0,70,0.0,0.0,0.0
1306,65.3,0.0,0.0,51.766,0.0,0.0,0.0,0.0,0.0,0.0,0,70,0.0,0.0,0.0
1307,65.35000000000001,0.0,0.0,51.766,0.0,0.0,0.0,0.0,0.0,0.0,0,70,0.0,0.0,0.0
1308,65.4,0.0,0.0,51.766,0.0,0.0,0.0,0.0,0.0,0.0,0,70,0.0,0.0,0.0
1309,65.45,0.0,0.0,51.766,0.0,0.0,0.0,0.0,0.0,0.0,0,70,0.0,0.0,0.0
1310,65.5,0.0,0.0,51.766,0.0,0.0,0.0,0.0,0.0,0.0,0,70,0.0,0.0,0.0
1311,65.55,0.0,0.0,51.766,0.0,0.0,0.0,0.0,0.0,0.0,0,70,0.0,0.0,0.0
1312,65.60000000000001,0.0,0.0,51.766,0.0,0.0,0.0,0.0,0.0,0.0,0,70,0.0,0.0,0.0
1313,65.65,0.0,0.0,51.766,0.0,0.0,0.0,0.0,0.0,0.0,0,70,0.0,0.0,0.0
1314,65.7,0.0,0.0,51.766,0.0,0.0,0.0,0.0,0.0,0.0,0,70,0.0,0.0,0.0
1315,65.75,0.0,0.0,51.766,0.0,0.0,0.0,0.0,0.0,0.0,0,70,0.0,0.0,0.0
1316,65.8,0.0,0.0,51.766,0.0,0.0,0.0,0.0,0.0,0.0,0,70,0.0,0.0,0.0
1317,65.85000000000001,0.0,0.0,51.766,0.0,0.0,0.0,0.0,0.0,0.0,0,70,0.0,0.0,0.0
1318,65.9,0.0,0.0,51.766,0.0,0.0,0.0,0.0,0.0,0.0,0,70,0.0,0.0,0.0
1319,65.95,0.0,0.0,51.766,0.0,0.0,0.0,0.0,0.0,0.0,0,70,0.0,0.0,0.0
1320,66.0,0.0,0.0,51.766,0.0,0.0,0.0,0.0,0.0,0.0,0,70,0.0,0.0,0.0
1321,66.05,0.0,0.0,51.766,0.0,0.0,0.0,0.0,0.0,0.0,0,70,0.0,0.0,0.0
1322,66.10000000000001,0.0,0.0,51.766,0.0,0.0,0.0,0.0,0.0,0.0,0,70,0.0,0.0,0.0
1323,66.15,0.0,0.0,51.766,0.0,0.0,0.0,0.0,0.0,0.0,0,70,0.0,0.0,0.0
1324,66.2,0.0,0.0,51.766,0.0,0.0,0.0,0.0,0.0,0.0,0,70,0.0,0.0,0.0
1325,66.25,0.0,0.0,51.766,0.0,0.0,0.0,0.0,0.0,0.0,0,70,0.0,0.0,0.0
1326,66.3,0.0,0.0,51.766,0.0,0.0,0.0,0.0,0.0,0.0,0,70,0.0,0.0,0.0
1327,66.35000000000001,0.0,0.0,51.766,0.0,0.0,0.0,0.0,0.0,0.0,0,70,0.0,0.0,0.0
1328,66.4,0.0,0.0,51.766,0.0,0.0,0.0,0.0,0.0,0.0,0,70,0.0,0.0,0.0
1329,66.45,0.0,0.0,51.766,0.0,0.0,0.0,0.0,0.0,0.0,0,70,0.0,0.0,0.0
1330,66.5,0.0,0.0,51.766,0.0,0.0,0.0,0.0,0.0,0.0,0,70,0.0,0.0,0.0
1331,66.55,0.0,0.0,51.766,0.0,0.0,0.0,0.0,0.0,0.0,0,70,0.0,0.0,0.0
1332,66.60000000000001,0.0,0.0,51.766,0.0,0.0,0.0,0.0,0.0,0.0,0,70,0.0,0.0,0.0
1333,66.65,0.0,0.0,51.766,0.0,0.0,0.0,0.0,0.0,0.0,0,70,0.0,0.0,0.0
1334,66.7,0.0,0.0,51.766,0.0,0.0,0.0,0.0,0.0,0.0,0,70,0.0,0.0,0.0
1335,66.75,0.0,0.0,51.766,0.0,0.0,0.0,0.0,0.0,0.0,0,70,0.0,0.0,0.0
1336,66.8,0.0,0.0,51.766,0.0,0.0,0.0,0.0,0.0,0.0,0,70,0.0,0.0,0.0
1337,66.85000000000001,0.0,0.0,51.766,0.0,0.0,0.0,0.0,0.0,0.0,0,70,0.0,0.0,0.0
1338,66.9,0.0,0.0,51.766,0.0,0.0,0.0,0.0,0.0,0.0,0,70,0.0,0.0,0.0
1339,66.95,0.0,0.0,51.766,0.0,0.0,0.0,0.0,0.0,0.0,0,70,0.0,0.0,0.0
1340,67.0,0.0,0.0,51.766,0.0,0.0,0.0,0.0,0.0,0.0,0,70,0.0,0.0,0.0
1341,67.05,0.0,0.0,51.766,0.0,0.0,0.0,0.0,0.0,0.0,0,70,0.0,0.0,0.0
1342,67.10000000000001,0.0,0.0,51.766,0.0,0.0,0.0,0.0,0.0,0.0,0,70,0.0,0.0,0.0
1343,67.15,0.0,0.0,51.766,0.0,0.0,0.0,0.0,0.0,0.0,0,70,0.0,0.0,0.0
1344,67.2,0.0,0.0,51.766,0.0,0.0,0.0,0.0,0.0,0.0,0,70,0.0,0.0,0.0
1345,67.25,0.0,0.0,51.766,0.0,0.0,0.0,0.0,0.0,0.0,0,70,0.0,0.0,0.0
1346,67.3,0.0,0.0,51.766,0.0,0.0,0.0,0.0,0.0,0.0,0,70,0.0,0.0,0.0
1347,67.35000000000001,0.0,0.0,51.766,0.0,0.0,0.0,0.0,0.0,0.0,0,70,0.0,0.0,0.0
1348,67.4,0.0,0.0,51.766,0.0,0.0,0.0,0.0,0.0,0.0,0,70,0.0,0.0,0.0
1349,67.45,0.0,0.0,51.766,0.0,0.0,0.0,0.0,0.0,0.0,0,70,0.0,0.0,0.0
1350,67.5,0.0,0.0,51.766,0.0,0.0,0.0,0.0,0.0,0.0,0,70,0.0,0.0,0.0
1351,67.55,0.0,0.0,51.766,0.0,0.0,0.0,0.0,0.0,0.0,0,70,0.0,0.0,0.0
1352,67.60000000000001,0.0,0.0,51.766,0.0,0.0,0.0,0.0,0.0,0.0,0,70,0.0,0.0,0.0
1353,67.65,0.0,0.0,51.766,0.0,0.0,0.0,0.0,0.0,0.0,0,70,0.0,0.0,0.0
1354,67.7,0.0,0.0,51.766,0.0,0.0,0.0,0.0,0.0,0.0,0,70,0.0,0.0,0.0
1355,67.75,0.0,0.0,51.766,0.0,0.0,0.0,0.0,0.0,0.0,0,70,0.0,0.0,0.0
1356,67.8,0.0,0.0,51.766,0.0,0.0,0.0,0.0,0.0,0.0,0,70,0.0,0.0,0.0
1357,67.85000000000001,0.0,0.0,51.766,0.0,0.0,0.0,0.0,0.0,0.0,0,70,0.0,0.0,0.0
1358,67.9,0.0,0.0,51.766,0.0,0.0,0.0,0.0,0.0,0.0,0,70,0.0,0.0,0.0
1359,67.95,0.0,0.0,51.766,0.0,0.0,0.0,0.0,0.0,0.0,0,70,0.0,0.0,0.0
1360,68.0,0.0,0.0,51.766,0.0,0.0,0.0,0.0,0.0,0.0,0,70,0.0,0.0,0.0
1361,68.05,0.0,0.0,51.766,0.0,0.0,0.0,0.0,0.0,0.0,0,70,0.0,0.0,0.0
1362,68.10000000000001,0.0,0.0,51.766,0.0,0.0,0.0,0.0,0.0,0.0,0,70,0.0,0.0,0.0
1363,68.15,0.0,0.0,51.766,0.0,0.0,0.0,0.0,0.0,0.0,0,70,0.0,0.0,0.0
1364,68.2,0.0,0.0,51.766,0.0,0.0,0.0,0.0,0.0,0.0,0,70,0.0,0.0,0.0
1365,68.25,0.0,0.0,51.766,0.0,0.0,0.0,0.0,0.0,0.0,0,70,0.0,0.0,0.0
1366,68.3,0.0,0.0,51.766,0.0,0.0,0.0,0.0,0.0,0.0,0,70,0.0,0.0,0.0
1367,68.35000000000001,0.0,0.0,51.766,0.0,0.0,0.0,0.0,0.0,0.0,0,70,0.0,0.0,0.0
1368,68.4,0.0,0.0,51.766,0.0,0.0,0.0,0.0,0.0,0.0,0,70,0.0,0.0,0.0
1369,68.45,0.0,0.0,51.766,0.0,0.0,0.0,0.0,0.0,0.0,0,70,0.0,0.0,0.0
1370,68.5,0.0,0.0,51.766,0.0,0.0,0.0,0.0,0.0,0.0,0,70,0.0,0.0,0.0
1371,68.55,0.0,0.0,51.766,0.0,0.0,0.0,0.0,0.0,0.0,0,70,0.0,0.0,0.0
1372,68.60000000000001,0.0,0.0,51.766,0.0,0.0,0.0,0.0,0.0,0.0,0,70,0.0,0.0,0.0
1373,68.65,0.0,0.0,51.766,0.0,0.0,0.0,0.0,0.0,0.0,0,70,0.0,0.0,0.0
1374,68.7,0.0,0.0,51.766,0.0,0.0,0.0,0.0,0.0,0.0,0,70,0.0,0.0,0.0
1375,68.75,0.0,0.0,51.766,0.0,0.0,0.0,0.0,0.0,0.0,0,70,0.0,0.0,0.0
1376,68.8,0.0,0.0,51.766,0.0,0.0,0.0,0.0,0.0,0.0,0,70,0.0,0.0,0.0
1377,68.85000000000001,0.0,0.0,51.766,0.0,0.0,0.0,0.0,0.0,0.0,0,70,0.0,0.0,0.0
1378,68.9,0.0,0.0,51.766,0.0,0.0,0.0,0.0,0.0,0.0,0,70,0.0,0.0,0.0
1379,68.95,0.0,0.0,51.766,0.0,0.0,0.0,0.0,0.0,0.0,0,70,0.0,0.0,0.0
1380,69.0,0.0,0.0,51.766,0.0,0.0,0.0,0.0,0.0,0.0,0,70,0.0,0.0,0.0
1381,69.05,0.0,0.0,51.766,0.0,0.0,0.0,0.0,0.0,0.0,0,70,0.0,0.0,0.0
1382,69.10000000000001,0.0,0.0,51.766,0.0,0.0,0.0,0.0,0.0,0.0,0,70,0.0,0.0,0.0
1383,69.15,0.0,0.0,51.766,0.0,0.0,0.0,0.0,0.0,0.0,0,70,0.0,0.0,0.0
1384,69.2,0.0,0.0,51.766,0.0,0.0,0.0,0.0,0.0,0.0,0,70,0.0,0.0,0.0
1385,69.25,0.0,0.0,51.766,0.0,0.0,0.0,0.0,0.0,0.0,0,70,0.0,0.0,0.0
1386,69.3,0.0,0.0,51.766,0.0,0.0,0.0,0.0,0.0,0.0,0,70,0.0,0.0,0.0
1387,69.35000000000001,0.0,0.0,51.766,0.0,0.0,0.0,0.0,0.0,0.0,0,70,0.0,0.0,0.0
1388,69.4,0.0,0.0,51.766,0.0,0.0,0.0,0.0,0.0,0.0,0,70,0.0,0.0,0.0
1389,69.45,0.0,0.0,51.766,0.0,0.0,0.0,0.0,0.0,0.0,0,70,0.0,0.0,0.0
1390,69.5,0.0,0.0,51.766,0.0,0.0,0.0,0.0,0.0,0.0,0,70,0.0,0.0,0.0
1391,69.55,0.0,0.0,51.766,0.0,0.0,0.0,0.0,0.0,0.0,0,70,0.0,0.0,0.0
1392,69.60000000000001,0.0,0.0,51.766,0.0,0.0,0.0,0.0,0.0,0.0,0,70,0.0,0.0,0.0
1393,69.65,0.0,0.0,51.766,0.0,0.0,0.0,0.0,0.0,0.0,0,70,0.0,0.0,0.0
1394,69.7,0.0,0.0,51.766,0.0,0.0,0.0,0.0,0.0,0.0,0,70,0.0,0.0,0.0
1395,69.75,0.0,0.0,51.766,0.0,0.0,0.0,0.0,0.0,0.0,0,70,0.0,0.0,0.0
1396,69.8,0.0,0.0,51.766,0.0,0.0,0.0,0.0,0.0,0.0,0,70,0.0,0.0,0.0
1397,69.85000000000001,0.0,0.0,51.766,0.0,0.0,0.0,0.0,0.0,0.0,0,70,0.0,0.0,0.0
1398,69.9,0.0,0.0,51.766,0.0,0.0,0.0,0.0,0.0,0.0,0,70,0.0,0.0,0.0
1399,69.95,0.0,0.0,51.766,0.0,0.0,0.0,0.0,0.0,0.0,0,70,0.0,0.0,0.0
1400,70.0,0.0,0.0,51.766,0.0,0.0,0.0,0.0,0.0,0.0,0,70,0.0,0.0,0.0
1401,70.05,0.0,0.0,51.766,0.0,0.0,0.0,0.0,0.0,0.0,0,70,0.0,0.0,0.0
1402,70.10000000000001,0.0,0.0,51.766,0.0,0.0,0.0,0.0,0.0,0.0,0,70,0.0,0.0,0.0
1403,70.15,0.0,0.0,51.766,0.0,0.0,0.0,0.0,0.0,0.0,0,70,0.0,0.0,0.0
1404,70.2,0.0,0.0,51.766,0.0,0.0,0.0,0.0,0.0,0.0,0,70,0.0,0.0,0.0
1405,70.25,0.0,0.0,51.766,0.0,0.0,0.0,0.0,0.0,0.0,0,70,0.0,0.0,0.0
1406,70.3,0.0,0.0,51.766,0.0,0.0,0.0,0.0,0.0,0.0,0,70,0.0,0.0,0.0
1407,70.35000000000001,0.0,0.0,51.766,0.0,0.0,0.0,0.0,0.0,0.0,0,70,0.0,0.0,0.0
1408,70.4,0.0,0.0,51.766,0.0,0.0,0.0,0.0,0.0,0.0,0,70,0.0,0.0,0.0
1409,70.45,0.0,0.0,51.766,0.0,0.0,0.0,0.0,0.0,0.0,0,70,0.0,0.0,0.0
1410,70.5,0.0,0.0,51.766,0.0,0.0,0.0,0.0,0.0,0.0,0,70,0.0,0.0,0.0
1411,70.55,0.0,0.0,51.766,0.0,0.0,0.0,0.0,0.0,0.0,0,70,0.0,0.0,0.0
1412,70.60000000000001,0.0,0.0,51.766,0.0,0.0,0.0,0.0,0.0,0.0,0,70,0.0,0.0,0.0
1413,70.65,0.0,0.0,51.766,0.0,0.0,0.0,0.0,0.0,0.0,0,70,0.0,0.0,0.0
1414,70.7,0.0,0.0,51.766,0.0,0.0,0.0,0.0,0.0,0.0,0,70,0.0,0.0,0.0
1415,70.75,0.0,0.0,51.766,0.0,0.0,0.0,0.0,0.0,0.0,0,70,0.0,0.0,0.0
1416,70.8,0.0,0.0,51.766,0.0,0.0,0.0,0.0,0.0,0.0,0,70,0.0,0.0,0.0
1417,70.85000000000001,0.0,0.0,51.766,0.0,0.0,0.0,0.0,0.0,0.0,0,70,0.0,0.0,0.0
1418,70.9,0.0,0.0,51.766,0.0,0.0,0.0,0.0,0.0,0.0,0,70,0.0,0.0,0.0
1419,70.95,0.0,0.0,51.766,0.0,0.0,0.0,0.0,0.0,0.0,0,70,0.0,0.0,0.0
1420,71.0,0.0,0.0,51.766,0.0,0.0,0.0,0.0,0.0,0.0,0,70,0.0,0.0,0.0
1421,71.05,0.0,0.0,51.766,0.0,0.0,0.0,0.0,0.0,0.0,0,70,0.0,0.0,0.0
1422,71.10000000000001,0.0,0.0,51.766,0.0,0.0,0.0,0.0,0.0,0.0,0,70,0.0,0.0,0.0
1423,71.15,0.0,0.0,51.766,0.0,0.0,0.0,0.0,0.0,0.0,0,70,0.0,0.0,0.0
1424,71.2,0.0,0.0,51.766,0.0,0.0,0.0,0.0,0.0,0.0,0,70,0.0,0.0,0.0
1425,71.25,0.0,0.0,51.766,0.0,0.0,0.0,0.0,0.0,0.0,0,70,0.0,0.0,0.0
1426,71.3,0.0,0.0,51.766,0.0,0.0,0.0,0.0,0.0,0.0,0,70,0.0,0.0,0.0
1427,71.35000000000001,0.0,0.0,51.766,0.0,0.0,0.0,0.0,0.0,0.0,0,70,0.0,0.0,0.0
1428,71.4,0.0,0.0,51.766,0.0,0.0,0.0,0.0,0.0,0.0,0,70,0.0,0.0,0.0
1429,71.45,0.0,0.0,51.766,0.0,0.0,0.0,0.0,0.0,0.0,0,70,0.0,0.0,0.0
1430,71.5,0.0,0.0,51.766,0.0,0.0,0.0,0.0,0.0,0.0,0,70,0.0,0.0,0.0
1431,71.55,0.0,0.0,51.766,0.0,0.0,0.0,0.0,0.0,0.0,0,70,0.0,0.0,0.0
1432,71.60000000000001,0.0,0.0,51.766,0.0,0.0,0.0,0.0,0.0,0.0,0,70,0.0,0.0,0.0
1433,71.65,0.0,0.0,51.766,0.0,0.0,0.0,0.0,0.0,0.0,0,70,0.0,0.0,0.0
1434,71.7,0.0,0.0,51.766,0.0,0.0,0.0,0.0,0.0,0.0,0,70,0.0,0.0,0.0
1435,71.75,0.0,0.0,51.766,0.0,0.0,0.0,0.0,0.0,0.0,0,70,0.0,0.0,0.0
1436,71.8,0.0,0.0,51.766,0.0,0.0,0.0,0.0,0.0,0.0,0,70,0.0,0.0,0.0
1437,71.85000000000001,0.0,0.0,51.766,0.0,0.0,0.0,0.0,0.0,0.0,0,70,0.0,0.0,0.0
1438,71.9,0.0,0.0,51.766,0.0,0.0,0.0,0.0,0.0,0.0,0,70,0.0,0.0,0.0
1439,71.95,0.0,0.0,51.766,0.0,0.0,0.0,0.0,0.0,0.0,0,70,0.0,0.0,0.0
1440,72.0,0.0,0.0,51.766,0.0,0.0,0.0,0.0,0.0,0.0,0,70,0.0,0.0,0.0
1441,72.05,0.0,0.0,51.766,0.0,0.0,0.0,0.0,0.0,0.0,0,70,0.0,0.0,0.0
1442,72.10000000000001,0.0,0.0,51.766,0.0,0.0,0.0,0.0,0.0,0.0,0,70,0.0,0.0,0.0
1443,72.15,0.0,0.0,51.766,0.0,0.0,0.0,0.0,0.0,0.0,0,70,0.0,0.0,0.0
1444,72.2,0.0,0.0,51.766,0.0,0.0,0.0,0.0,0.0,0.0,0,70,0.0,0.0,0.0
1445,72.25,0.0,0.0,51.766,0.0,0.0,0.0,0.0,0.0,0.0,0,70,0.0,0.0,0.0
1446,72.3,0.0,0.0,51.766,0.0,0.0,0.0,0.0,0.0,0.0,0,70,0.0,0.0,0.0
1447,72.35000000000001,0.0,0.0,51.766,0.0,0.0,0.0,0.0,0.0,0.0,0,70,0.0,0.0,0.0
1448,72.4,0.0,0.0,51.766,0.0,0.0,0.0,0.0,0.0,0.0,0,70,0.0,0.0,0.0
1449,72.45,0.0,0.0,51.766,0.0,0.0,0.0,0.0,0.0,0.0,0,70,0.0,0.0,0.0
1450,72.5,0.0,0.0,51.766,0.0,0.0,0.0,0.0,0.0,0.0,0,70,0.0,0.0,0.0
1451,72.55,0.0,0.0,51.766,0.0,0.0,0.0,0.0,0.0,0.0,0,70,0.0,0.0,0.0
1452,72.60000000000001,0.0,0.0,51.766,0.0,0.0,0.0,0.0,0.0,0.0,0,70,0.0,0.0,0.0
1453,72.65,0.0,0.0,51.766,0.0,0.0,0.0,0.0,0.0,0.0,0,70,0.0,0.0,0.0
1454,72.7,0.0,0.0,51.766,0.0,0.0,0.0,0.0,0.0,0.0,0,70,0.0,0.0,0.0
1455,72.75,0.0,0.0,51.766,0.0,0.0,0.0,0.0,0.0,0.0,0,70,0.0,0.0,0.0
1456,72.8,0.0,0.0,51.766,0.0,0.0,0.0,0.0,0.0,0.0,0,70,0.0,0.0,0.0
1457,72.85000000000001,0.0,0.0,51.766,0.0,0.0,0.0,0.0,0.0,0.0,0,70,0.0,0.0,0.0
1458,72.9,0.0,0.0,51.766,0.0,0.0,0.0,0.0,0.0,0.0,0,70,0.0,0.0,0.0
1459,72.95,0.0,0.0,51.766,0.0,0.0,0.0,0.0,0.0,0.0,0,70,0.0,0.0,0.0
1460,73.0,0.0,0.0,51.766,0.0,0.0,0.0,0.0,0.0,0.0,0,70,0.0,0.0,0.0
1461,73.05,0.0,0.0,51.766,0.0,0.0,0.0,0.0,0.0,0.0,0,70,0.0,0.0,0.0
1462,73.10000000000001,0.0,0.0,51.766,0.0,0.0,0.0,0.0,0.0,0.0,0,70,0.0,0.0,0.0
1463,73.15,0.0,0.0,51.766,0.0,0.0,0.0,0.0,0.0,0.0,0,70,0.0,0.0,0.0
1464,73.2,0.0,0.0,51.766,0.0,0.0,0.0,0.0,0.0,0.0,0,70,0.0,0.0,0.0
1465,73.25,0.0,0.0,51.766,0.0,0.0,0.0,0.0,0.0,0.0,0,70,0.0,0.0,0.0
1466,73.3,0.0,0.0,51.766,0.0,0.0,0.0,0.0,0.0,0.0,0,70,0.0,0.0,0.0
1467,73.35000000000001,0.0,0.0,51.766,0.0,0.0,0.0,0.0,0.0,0.0,0,70,0.0,0.0,0.0
1468,73.4,0.0,0.0,51.766,0.0,0.0,0.0,0.0,0.0,0.0,0,70,0.0,0.0,0.0
1469,73.45,0.0,0.0,51.766,0.0,0.0,0.0,0.0,0.0,0.0,0,70,0.0,0.0,0.0
1470,73.5,0.0,0.0,51.766,0.0,0.0,0.0,0.0,0.0,0.0,0,70,0.0,0.0,0.0
1471,73.55,0.0,0.0,51.766,0.0,0.0,0.0,0.0,0.0,0.0,0,70,0.0,0.0,0.0
1472,73.60000000000001,0.0,0.0,51.766,0.0,0.0,0.0,0.0,0.0,0.0,0,70,0.0,0.0,0.0
1473,73.65,0.0,0.0,51.766,0.0,0.0,0.0,0.0,0.0,0.0,0,70,0.0,0.0,0.0
1474,73.7,0.0,0.0,51.766,0.0,0.0,0.0,0.0,0.0,0.0,0,70,0.0,0.0,0.0
1475,73.75,0.0,0.0,51.766,0.0,0.0,0.0,0.0,0.0,0.0,0,70,0.0,0.0,0.0
1476,73.8,0.0,0.0,51.766,0.0,0.0,0.0,0.0,0.0,0.0,0,70,0.0,0.0,0.0
1477,73.85000000000001,0.0,0.0,51.766,0.0,0.0,0.0,0.0,0.0,0.0,0,70,0.0,0.0,0.0
1478,73.9,0.0,0.0,51.766,0.0,0.0,0.0,0.0,0.0,0.0,0,70,0.0,0.0,0.0
1479,73.95,0.0,0.0,51.766,0.0,0.0,0.0,0.0,0.0,0.0,0,70,0.0,0.0,0.0
1480,74.0,0.0,0.0,51.766,0.0,0.0,0.0,0.0,0.0,0.0,0,70,0.0,0.0,0.0
1481,74.05,0.0,0.0,51.766,0.0,0.0,0.0,0.0,0.0,0.0,0,70,0.0,0.0,0.0
1482,74.10000000000001,0.0,0.0,51.766,0.0,0.0,0.0,0.0,0.0,0.0,0,70,0.0,0.0,0.0
1483,74.15,0.0,0.0,51.766,0.0,0.0,0.0,0.0,0.0,0.0,0,70,0.0,0.0,0.0
1484,74.2,0.0,0.0,51.766,0.0,0.0,0.0,0.0,0.0,0.0,0,70,0.0,0.0,0.0
1485,74.25,0.0,0.0,51.766,0.0,0.0,0.0,0.0,0.0,0.0,0,70,0.0,0.0,0.0
1486,74.3,0.0,0.0,51.766,0.0,0.0,0.0,0.0,0.0,0.0,0,70,0.0,0.0,0.0
1487,74.35000000000001,0.0,0.0,51.766,0.0,0.0,0.0,0.0,0.0,0.0,0,70,0.0,0.0,0.0
1488,74.4,0.0,0.0,51.766,0.0,0.0,0.0,0.0,0.0,0.0,0,70,0.0,0.0,0.0
1489,74.45,0.0,0.0,51.766,0.0,0.0,0.0,0.0,0.0,0.0,0,70,0.0,0.0,0.0
1490,74.5,0.0,0.0,51.766,0.0,0.0,0.0,0.0,0.0,0.0,0,70,0.0,0.0,0.0
1491,74.55,0.0,0.0,51.766,0.0,0.0,0.0,0.0,0.0,0.0,0,70,0.0,0.0,0.0
1492,74.60000000000001,0.0,0.0,51.766,0.0,0.0,0.0,0.0,0.0,0.0,0,70,0.0,0.0,0.0
1493,74.65,0.0,0.0,51.766,0.0,0.0,0.0,0.0,0.0,0.0,0,70,0.0,0.0,0.0
1494,74.7,0.0,0.0,51.766,0.0,0.0,0.0,0.0,0.0,0.0,0,70,0.0,0.0,0.0
1495,74.75,0.0,0.0,51.766,0.0,0.0,0.0,0.0,0.0,0.0,0,70,0.0,0.0,0.0
1496,74.8,0.0,0.0,51.766,0.0,0.0,0.0,0.0,0.0,0.0,0,70,0.0,0.0,0.0
1497,74.85000000000001,0.0,0.0,51.766,0.0,0.0,0.0,0.0,0.0,0.0,0,70,0.0,0.0,0.0
1498,74.9,0.0,0.0,51.766,0.0,0.0,0.0,0.0,0.0,0.0,0,70,0.0,0.0,0.0
1499,74.95,0.0,0.0,51.766,0.0,0.0,0.0,0.0,0.0,0.0,0,70,0.0,0.0,0.0
1500,75.0,0.0,0.0,51.766,0.0,0.0,0.0,0.0,0.0,0.0,0,70,0.0,0.0,0.0
1501,75.05,0.0,0.0,51.766,0.0,0.0,0.0,0.0,0.0,0.0,0,70,0.0,0.0,0.0
1502,75.10000000000001,0.0,0.0,51.766,0.0,0.0,0.0,0.0,0.0,0.0,0,70,0.0,0.0,0.0
1503,75.15,0.0,0.0,51.766,0.0,0.0,0.0,0.0,0.0,0.0,0,70,0.0,0.0,0.0
1504,75.2,0.0,0.0,51.766,0.0,0.0,0.0,0.0,0.0,0.0,0,70,0.0,0.0,0.0
1505,75.25,0.0,0.0,51.766,0.0,0.0,0.0,0.0,0.0,0.0,0,70,0.0,0.0,0.0
1506,75.3,0.0,0.0,51.766,0.0,0.0,0.0,0.0,0.0,0.0,0,70,0.0,0.0,0.0
1507,75.35000000000001,0.0,0.0,51.766,0.0,0.0,0.0,0.0,0.0,0.0,0,70,0.0,0.0,0.0
1508,75.4,0.0,0.0,51.766,0.0,0.0,0.0,0.0,0.0,0.0,0,70,0.0,0.0,0.0
1509,75.45,0.0,0.0,51.766,0.0,0.0,0.0,0.0,0.0,0.0,0,70,0.0,0.0,0.0
1510,75.5,0.0,0.0,51.766,0.0,0.0,0.0,0.0,0.0,0.0,0,70,0.0,0.0,0.0
1511,75.55,0.0,0.0,51.766,0.0,0.0,0.0,0.0,0.0,0.0,0,70,0.0,0.0,0.0
1512,75.60000000000001,0.0,0.0,51.766,0.0,0.0,0.0,0.0,0.0,0.0,0,70,0.0,0.0,0.0
1513,75.65,0.0,0.0,51.766,0.0,0.0,0.0,0.0,0.0,0.0,0,70,0.0,0.0,0.0
1514,75.7,0.0,0.0,51.766,0.0,0.0,0.0,0.0,0.0,0.0,0,70,0.0,0.0,0.0
1515,75.75,0.0,0.0,51.766,0.0,0.0,0.0,0.0,0.0,0.0,0,70,0.0,0.0,0.0
1516,75.8,0.0,0.0,51.766,0.0,0.0,0.0,0.0,0.0,0.0,0,70,0.0,0.0,0.0
1517,75.85000000000001,0.0,0.0,51.766,0.0,0.0,0.0,0.0,0.0,0.0,0,70,0.0,0.0,0.0
1518,75.9,0.0,0.0,51.766,0.0,0.0,0.0,0.0,0.0,0.0,0,70,0.0,0.0,0.0
1519,75.95,0.0,0.0,51.766,0.0,0.0,0.0,0.0,0.0,0.0,0,70,0.0,0.0,0.0
1520,76.0,0.0,0.0,51.766,0.0,0.0,0.0,0.0,0.0,0.0,0,70,0.0,0.0,0.0
1521,76.05,0.0,0.0,51.766,0.0,0.0,0.0,0.0,0.0,0.0,0,70,0.0,0.0,0.0
1522,76.10000000000001,0.0,0.0,51.766,0.0,0.0,0.0,0.0,0.0,0.0,0,70,0.0,0.0,0.0
1523,76.15,0.0,0.0,51.766,0.0,0.0,0.0,0.0,0.0,0.0,0,70,0.0,0.0,0.0
1524,76.2,0.0,0.0,51.766,0.0,0.0,0.0,0.0,0.0,0.0,0,70,0.0,0.0,0.0
1525,76.25,0.0,0.0,51.766,0.0,0.0,0.0,0.0,0.0,0.0,0,70,0.0,0.0,0.0
1526,76.3,0.0,0.0,51.766,0.0,0.0,0.0,0.0,0.0,0.0,0,70,0.0,0.0,0.0
1527,76.35000000000001,0.0,0.0,51.766,0.0,0.0,0.0,0.0,0.0,0.0,0,70,0.0,0.0,0.0
1528,76.4,0.0,0.0,51.766,0.0,0.0,0.0,0.0,0.0,0.0,0,70,0.0,0.0,0.0
1529,76.45,0.0,0.0,51.766,0.0,0.0,0.0,0.0,0.0,0.0,0,70,0.0,0.0,0.0
1530,76.5,0.0,0.0,51.766,0.0,0.0,0.0,0.0,0.0,0.0,0,70,0.0,0.0,0.0
1531,76.55,0.0,0.0,51.766,0.0,0.0,0.0,0.0,0.0,0.0,0,70,0.0,0.0,0.0
1532,76.60000000000001,0.0,0.0,51.766,0.0,0.0,0.0,0.0,0.0,0.0,0,70,0.0,0.0,0.0
1533,76.65,0.0,0.0,51.766,0.0,0.0,0.0,0.0,0.0,0.0,0,70,0.0,0.0,0.0
1534,76.7,0.0,0.0,51.766,0.0,0.0,0.0,0.0,0.0,0.0,0,70,0.0,0.0,0.0
1535,76.75,0.0,0.0,51.766,0.0,0.0,0.0,0.0,0.0,0.0,0,70,0.0,0.0,0.0
1536,76.80000000000001,0.0,0.0,51.766,0.0,0.0,0.0,0.0,0.0,0.0,0,70,0.0,0.0,0.0
1537,76.85000000000001,0.0,0.0,51.766,0.0,0.0,0.0,0.0,0.0,0.0,0,70,0.0,0.0,0.0
1538,76.9,0.0,0.0,51.766,0.0,0.0,0.0,0.0,0.0,0.0,0,70,0.0,0.0,0.0
1539,76.95,0.0,0.0,51.766,0.0,0.0,0.0,0.0,0.0,0.0,0,70,0.0,0.0,0.0
1540,77.0,0.0,0.0,51.766,0.0,0.0,0.0,0.0,0.0,0.0,0,70,0.0,0.0,0.0
1541,77.05000000000001,0.0,0.0,51.766,0.0,0.0,0.0,0.0,0.0,0.0,0,70,0.0,0.0,0.0
1542,77.10000000000001,0.0,0.0,51.766,0.0,0.0,0.0,0.0,0.0,0.0,0,70,0.0,0.0,0.0
1543,77.15,0.0,0.0,51.766,0.0,0.0,0.0,0.0,0.0,0.0,0,70,0.0,0.0,0.0
1544,77.2,0.0,0.0,51.766,0.0,0.0,0.0,0.0,0.0,0.0,0,70,0.0,0.0,0.0
1545,77.25,0.0,0.0,51.766,0.0,0.0,0.0,0.0,0.0,0.0,0,70,0.0,0.0,0.0
1546,77.30000000000001,0.0,0.0,51.766,0.0,0.0,0.0,0.0,0.0,0.0,0,70,0.0,0.0,0.0
1547,77.35000000000001,0.0,0.0,51.766,0.0,0.0,0.0,0.0,0.0,0.0,0,70,0.0,0.0,0.0
1548,77.4,0.0,0.0,51.766,0.0,0.0,0.0,0.0,0.0,0.0,0,70,0.0,0.0,0.0
1549,77.45,0.0,0.0,51.766,0.0,0.0,0.0,0.0,0.0,0.0,0,70,0.0,0.0,0.0
1550,77.5,0.0,0.0,51.766,0.0,0.0,0.0,0.0,0.0,0.0,0,70,0.0,0.0,0.0
1551,77.55000000000001,0.0,0.0,51.766,0.0,0.0,0.0,0.0,0.0,0.0,0,70,0.0,0.0,0.0
1552,77.60000000000001,0.0,0.0,51.766,0.0,0.0,0.0,0.0,0.0,0.0,0,70,0.0,0.0,0.0
1553,77.65,0.0,0.0,51.766,0.0,0.0,0.0,0.0,0.0,0.0,0,70,0.0,0.0,0.0
1554,77.7,0.0,0.0,51.766,0.0,0.0,0.0,0.0,0.0,0.0,0,70,0.0,0.0,0.0
1555,77.75,0.0,0.0,51.766,0.0,0.0,0.0,0.0,0.0,0.0,0,70,0.0,0.0,0.0
1556,77.80000000000001,0.0,0.0,51.766,0.0,0.0,0.0,0.0,0.0,0.0,0,70,0.0,0.0,0.0
1557,77.85000000000001,0.0,0.0,51.766,0.0,0.0,0.0,0.0,0.0,0.0,0,70,0.0,0.0,0.0
1558,77.9,0.0,0.0,51.766,0.0,0.0,0.0,0.0,0.0,0.0,0,70,0.0,0.0,0.0
1559,77.95,0.0,0.0,51.766,0.0,0.0,0.0,0.0,0.0,0.0,0,70,0.0,0.0,0.0
1560,78.0,0.0,0.0,51.766,0.0,0.0,0.0,0.0,0.0,0.0,0,70,0.0,0.0,0.0
1561,78.05000000000001,0.0,0.0,51.766,0.0,0.0,0.0,0.0,0.0,0.0,0,70,0.0,0.0,0.0
1562,78.10000000000001,0.0,0.0,51.766,0.0,0.0,0.0,0.0,0.0,0.0,0,70,0.0,0.0,0.0
1563,78.15,0.0,0.0,51.766,0.0,0.0,0.0,0.0,0.0,0.0,0,70,0.0,0.0,0.0
1564,78.2,0.0,0.0,51.766,0.0,0.0,0.0,0.0,0.0,0.0,0,70,0.0,0.0,0.0
1565,78.25,0.0,0.0,51.766,0.0,0.0,0.0,0.0,0.0,0.0,0,70,0.0,0.0,0.0
1566,78.30000000000001,0.0,0.0,51.766,0.0,0.0,0.0,0.0,0.0,0.0,0,70,0.0,0.0,0.0
1567,78.35000000000001,0.0,0.0,51.766,0.0,0.0,0.0,0.0,0.0,0.0,0,70,0.0,0.0,0.0
1568,78.4,0.0,0.0,51.766,0.0,0.0,0.0,0.0,0.0,0.0,0,70,0.0,0.0,0.0
1569,78.45,0.0,0.0,51.766,0.0,0.0,0.0,0.0,0.0,0.0,0,70,0.0,0.0,0.0
1570,78.5,0.0,0.0,51.766,0.0,0.0,0.0,0.0,0.0,0.0,0,70,0.0,0.0,0.0
1571,78.55000000000001,0.0,0.0,51.766,0.0,0.0,0.0,0.0,0.0,0.0,0,70,0.0,0.0,0.0
1572,78.60000000000001,0.0,0.0,51.766,0.0,0.0,0.0,0.0,0.0,0.0,0,70,0.0,0.0,0.0
1573,78.65,0.0,0.0,51.766,0.0,0.0,0.0,0.0,0.0,0.0,0,70,0.0,0.0,0.0
1574,78.7,0.0,0.0,51.766,0.0,0.0,0.0,0.0,0.0,0.0,0,70,0.0,0.0,0.0
1575,78.75,0.0,0.0,51.766,0.0,0.0,0.0,0.0,0.0,0.0,0,70,0.0,0.0,0.0
1576,78.80000000000001,0.0,0.0,51.766,0.0,0.0,0.0,0.0,0.0,0.0,0,70,0.0,0.0,0.0
1577,78.85000000000001,0.0,0.0,51.766,0.0,0.0,0.0,0.0,0.0,0.0,0,70,0.0,0.0,0.0
1578,78.9,0.0,0.0,51.766,0.0,0.0,0.0,0.0,0.0,0.0,0,70,0.0,0.0,0.0
1579,78.95,0.0,0.0,51.766,0.0,0.0,0.0,0.0,0.0,0.0,0,70,0.0,0.0,0.0
1580,79.0,0.0,0.0,51.766,0.0,0.0,0.0,0.0,0.0,0.0,0,70,0.0,0.0,0.0
1581,79.05000000000001,0.0,0.0,51.766,0.0,0.0,0.0,0.0,0.0,0.0,0,70,0.0,0.0,0.0
1582,79.10000000000001,0.0,0.0,51.766,0.0,0.0,0.0,0.0,0.0,0.0,0,70,0.0,0.0,0.0
1583,79.15,0.0,0.0,51.766,0.0,0.0,0.0,0.0,0.0,0.0,0,70,0.0,0.0,0.0
1584,79.2,0.0,0.0,51.766,0.0,0.0,0.0,0.0,0.0,0.0,0,70,0.0,0.0,0.0
1585,79.25,0.0,0.0,51.766,0.0,0.0,0.0,0.0,0.0,0.0,0,70,0.0,0.0,0.0
1586,79.30000000000001,0.0,0.0,51.766,0.0,0.0,0.0,0.0,0.0,0.0,0,70,0.0,0.0,0.0
1587,79.35000000000001,0.0,0.0,51.766,0.0,0.0,0.0,0.0,0.0,0.0,0,70,0.0,0.0,0.0
1588,79.4,0.0,0.0,51.766,0.0,0.0,0.0,0.0,0.0,0.0,0,70,0.0,0.0,0.0
1589,79.45,0.0,0.0,51.766,0.0,0.0,0.0,0.0,0.0,0.0,0,70,0.0,0.0,0.0
1590,79.5,0.0,0.0,51.766,0.0,0.0,0.0,0.0,0.0,0.0,0,70,0.0,0.0,0.0
1591,79.55000000000001,0.0,0.0,51.766,0.0,0.0,0.0,0.0,0.0,0.0,0,70,0.0,0.0,0.0
1592,79.60000000000001,0.0,0.0,51.766,0.0,0.0,0.0,0.0,0.0,0.0,0,70,0.0,0.0,0.0
1593,79.65,0.0,0.0,51.766,0.0,0.0,0.0,0.0,0.0,0.0,0,70,0.0,0.0,0.0
1594,79.7,0.0,0.0,51.766,0.0,0.0,0.0,0.0,0.0,0.0,0,70,0.0,0.0,0.0
1595,79.75,0.0,0.0,51.766,0.0,0.0,0.0,0.0,0.0,0.0,0,70,0.0,0.0,0.0
1596,79.80000000000001,0.0,0.0,51.766,0.0,0.0,0.0,0.0,0.0,0.0,0,70,0.0,0.0,0.0
1597,79.85000000000001,0.0,0.0,51.766,0.0,0.0,0.0,0.0,0.0,0.0,0,70,0.0,0.0,0.0
1598,79.9,0.0,0.0,51.766,0.0,0.0,0.0,0.0,0.0,0.0,0,70,0.0,0.0,0.0
1599,79.95,0.0,0.0,51.766,0.0,0.0,0.0,0.0,0.0,0.0,0,70,0.0,0.0,0.0
1600,80.0,0.0,0.0,51.766,0.0,0.0,0.0,0.0,0.0,0.0,0,70,0.0,0.0,0.0
1601,80.05000000000001,0.0,0.0,51.766,0.0,0.0,0.0,0.0,0.0,0.0,0,70,0.0,0.0,0.0
1602,80.10000000000001,0.0,0.0,51.766,0.0,0.0,0.0,0.0,0.0,0.0,0,70,0.0,0.0,0.0
1603,80.15,0.0,0.0,51.766,0.0,0.0,0.0,0.0,0.0,0.0,0,70,0.0,0.0,0.0
1604,80.2,0.0,0.0,51.766,0.0,0.0,0.0,0.0,0.0,0.0,0,70,0.0,0.0,0.0
1605,80.25,0.0,0.0,51.766,0.0,0.0,0.0,0.0,0.0,0.0,0,70,0.0,0.0,0.0
1606,80.30000000000001,0.0,0.0,51.766,0.0,0.0,0.0,0.0,0.0,0.0,0,70,0.0,0.0,0.0
1607,80.35000000000001,0.0,0.0,51.766,0.0,0.0,0.0,0.0,0.0,0.0,0,70,0.0,0.0,0.0
1608,80.4,0.0,0.0,51.766,0.0,0.0,0.0,0.0,0.0,0.0,0,70,0.0,0.0,0.0
1609,80.45,0.0,0.0,51.766,0.0,0.0,0.0,0.0,0.0,0.0,0,70,0.0,0.0,0.0
1610,80.5,0.0,0.0,51.766,0.0,0.0,0.0,0.0,0.0,0.0,0,70,0.0,0.0,0.0
1611,80.55000000000001,0.0,0.0,51.766,0.0,0.0,0.0,0.0,0.0,0.0,0,70,0.0,0.0,0.0
1612,80.60000000000001,0.0,0.0,51.766,0.0,0.0,0.0,0.0,0.0,0.0,0,70,0.0,0.0,0.0
1613,80.65,0.0,0.0,51.766,0.0,0.0,0.0,0.0,0.0,0.0,0,70,0.0,0.0,0.0
1614,80.7,0.0,0.0,51.766,0.0,0.0,0.0,0.0,0.0,0.0,0,70,0.0,0.0,0.0
1615,80.75,0.0,0.0,51.766,0.0,0.0,0.0,0.0,0.0,0.0,0,70,0.0,0.0,0.0
1616,80.80000000000001,0.0,0.0,51.766,0.0,0.0,0.0,0.0,0.0,0.0,0,70,0.0,0.0,0.0
1617,80.85000000000001,0.0,0.0,51.766,0.0,0.0,0.0,0.0,0.0,0.0,0,70,0.0,0.0,0.0
1618,80.9,0.0,0.0,51.766,0.0,0.0,0.0,0.0,0.0,0.0,0,70,0.0,0.0,0.0
1619,80.95,0.0,0.0,51.766,0.0,0.0,0.0,0.0,0.0,0.0,0,70,0.0,0.0,0.0
1620,81.0,0.0,0.0,51.766,0.0,0.0,0.0,0.0,0.0,0.0,0,70,0.0,0.0,0.0
1621,81.05000000000001,0.0,0.0,51.766,0.0,0.0,0.0,0.0,0.0,0.0,0,70,0.0,0.0,0.0
1622,81.10000000000001,0.0,0.0,51.766,0.0,0.0,0.0,0.0,0.0,0.0,0,70,0.0,0.0,0.0
1623,81.15,0.0,0.0,51.766,0.0,0.0,0.0,0.0,0.0,0.0,0,70,0.0,0.0,0.0
1624,81.2,0.0,0.0,51.766,0.0,0.0,0.0,0.0,0.0,0.0,0,70,0.0,0.0,0.0
1625,81.25,0.0,0.0,51.766,0.0,0.0,0.0,0.0,0.0,0.0,0,70,0.0,0.0,0.0
1626,81.30000000000001,0.0,0.0,51.766,0.0,0.0,0.0,0.0,0.0,0.0,0,70,0.0,0.0,0.0
1627,81.35000000000001,0.0,0.0,51.766,0.0,0.0,0.0,0.0,0.0,0.0,0,70,0.0,0.0,0.0
1628,81.4,0.0,0.0,51.766,0.0,0.0,0.0,0.0,0.0,0.0,0,70,0.0,0.0,0.0
1629,81.45,0.0,0.0,51.766,0.0,0.0,0.0,0.0,0.0,0.0,0,70,0.0,0.0,0.0
1630,81.5,0.0,0.0,51.766,0.0,0.0,0.0,0.0,0.0,0.0,0,70,0.0,0.0,0.0
1631,81.55000000000001,0.0,0.0,51.766,0.0,0.0,0.0,0.0,0.0,0.0,0,70,0.0,0.0,0.0
1632,81.60000000000001,0.0,0.0,51.766,0.0,0.0,0.0,0.0,0.0,0.0,0,70,0.0,0.0,0.0
1633,81.65,0.0,0.0,51.766,0.0,0.0,0.0,0.0,0.0,0.0,0,70,0.0,0.0,0.0
1634,81.7,0.0,0.0,51.766,0.0,0.0,0.0,0.0,0.0,0.0,0,70,0.0,0.0,0.0
1635,81.75,0.0,0.0,51.766,0.0,0.0,0.0,0.0,0.0,0.0,0,70,0.0,0.0,0.0
1636,81.80000000000001,0.0,0.0,51.766,0.0,0.0,0.0,0.0,0.0,0.0,0,70,0.0,0.0,0.0
1637,81.85000000000001,0.0,0.0,51.766,0.0,0.0,0.0,0.0,0.0,0.0,0,70,0.0,0.0,0.0
1638,81.9,0.0,0.0,51.766,0.0,0.0,0.0,0.0,0.0,0.0,0,70,0.0,0.0,0.0
1639,81.95,0.0,0.0,51.766,0.0,0.0,0.0,0.0,0.0,0.0,0,70,0.0,0.0,0.0
1640,82.0,0.0,0.0,51.766,0.0,0.0,0.0,0.0,0.0,0.0,0,70,0.0,0.0,0.0
1641,82.05000000000001,0.0,0.0,51.766,0.0,0.0,0.0,0.0,0.0,0.0,0,70,0.0,0.0,0.0
1642,82.10000000000001,0.0,0.0,51.766,0.0,0.0,0.0,0.0,0.0,0.0,0,70,0.0,0.0,0.0
1643,82.15,0.0,0.0,51.766,0.0,0.0,0.0,0.0,0.0,0.0,0,70,0.0,0.0,0.0
1644,82.2,0.0,0.0,51.766,0.0,0.0,0.0,0.0,0.0,0.0,0,70,0.0,0.0,0.0
1645,82.25,0.0,0.0,51.766,0.0,0.0,0.0,0.0,0.0,0.0,0,70,0.0,0.0,0.0
1646,82.30000000000001,0.0,0.0,51.766,0.0,0.0,0.0,0.0,0.0,0.0,0,70,0.0,0.0,0.0
1647,82.35000000000001,0.0,0.0,51.766,0.0,0.0,0.0,0.0,0.0,0.0,0,70,0.0,0.0,0.0
1648,82.4,0.0,0.0,51.766,0.0,0.0,0.0,0.0,0.0,0.0,0,70,0.0,0.0,0.0
1649,82.45,0.0,0.0,51.766,0.0,0.0,0.0,0.0,0.0,0.0,0,70,0.0,0.0,0.0
1650,82.5,0.0,0.0,51.766,0.0,0.0,0.0,0.0,0.0,0.0,0,70,0.0,0.0,0.0
1651,82.55000000000001,0.0,0.0,51.766,0.0,0.0,0.0,0.0,0.0,0.0,0,70,0.0,0.0,0.0
1652,82.60000000000001,0.0,0.0,51.766,0.0,0.0,0.0,0.0,0.0,0.0,0,70,0.0,0.0,0.0
1653,82.65,0.0,0.0,51.766,0.0,0.0,0.0,0.0,0.0,0.0,0,70,0.0,0.0,0.0
1654,82.7,0.0,0.0,51.766,0.0,0.0,0.0,0.0,0.0,0.0,0,70,0.0,0.0,0.0
1655,82.75,0.0,0.0,51.766,0.0,0.0,0.0,0.0,0.0,0.0,0,70,0.0,0.0,0.0
1656,82.80000000000001,0.0,0.0,51.766,0.0,0.0,0.0,0.0,0.0,0.0,0,70,0.0,0.0,0.0
1657,82.85000000000001,0.0,0.0,51.766,0.0,0.0,0.0,0.0,0.0,0.0,0,70,0.0,0.0,0.0
1658,82.9,0.0,0.0,51.766,0.0,0.0,0.0,0.0,0.0,0.0,0,70,0.0,0.0,0.0
1659,82.95,0.0,0.0,51.766,0.0,0.0,0.0,0.0,0.0,0.0,0,70,0.0,0.0,0.0
1660,83.0,0.0,0.0,51.766,0.0,0.0,0.0,0.0,0.0,0.0,0,70,0.0,0.0,0.0
1661,83.05000000000001,0.0,0.0,51.766,0.0,0.0,0.0,0.0,0.0,0.0,0,70,0.0,0.0,0.0
1662,83.10000000000001,0.0,0.0,51.766,0.0,0.0,0.0,0.0,0.0,0.0,0,70,0.0,0.0,0.0
1663,83.15,0.0,0.0,51.766,0.0,0.0,0.0,0.0,0.0,0.0,0,70,0.0,0.0,0.0
1664,83.2,0.0,0.0,51.766,0.0,0.0,0.0,0.0,0.0,0.0,0,70,0.0,0.0,0.0
1665,83.25,0.0,0.0,51.766,0.0,0.0,0.0,0.0,0.0,0.0,0,70,0.0,0.0,0.0
1666,83.30000000000001,0.0,0.0,51.766,0.0,0.0,0.0,0.0,0.0,0.0,0,70,0.0,0.0,0.0
1667,83.35000000000001,0.0,0.0,51.766,0.0,0.0,0.0,0.0,0.0,0.0,0,70,0.0,0.0,0.0
1668,83.4,0.0,0.0,51.766,0.0,0.0,0.0,0.0,0.0,0.0,0,70,0.0,0.0,0.0
1669,83.45,0.0,0.0,51.766,0.0,0.0,0.0,0.0,0.0,0.0,0,70,0.0,0.0,0.0
1670,83.5,0.0,0.0,51.766,0.0,0.0,0.0,0.0,0.0,0.0,0,70,0.0,0.0,0.0
1671,83.55000000000001,0.0,0.0,51.766,0.0,0.0,0.0,0.0,0.0,0.0,0,70,0.0,0.0,0.0
1672,83.60000000000001,0.0,0.0,51.766,0.0,0.0,0.0,0.0,0.0,0.0,0,70,0.0,0.0,0.0
1673,83.65,0.0,0.0,51.766,0.0,0.0,0.0,0.0,0.0,0.0,0,70,0.0,0.0,0.0
1674,83.7,0.0,0.0,51.766,0.0,0.0,0.0,0.0,0.0,0.0,0,70,0.0,0.0,0.0
1675,83.75,0.0,0.0,51.766,0.0,0.0,0.0,0.0,0.0,0.0,0,70,0.0,0.0,0.0
1676,83.80000000000001,0.0,0.0,51.766,0.0,0.0,0.0,0.0,0.0,0.0,0,70,0.0,0.0,0.0
1677,83.85000000000001,0.0,0.0,51.766,0.0,0.0,0.0,0.0,0.0,0.0,0,70,0.0,0.0,0.0
1678,83.9,0.0,0.0,51.766,0.0,0.0,0.0,0.0,0.0,0.0,0,70,0.0,0.0,0.0
1679,83.95,0.0,0.0,51.766,0.0,0.0,0.0,0.0,0.0,0.0,0,70,0.0,0.0,0.0
1680,84.0,0.0,0.0,51.766,0.0,0.0,0.0,0.0,0.0,0.0,0,70,0.0,0.0,0.0
1681,84.05000000000001,0.0,0.0,51.766,0.0,0.0,0.0,0.0,0.0,0.0,0,70,0.0,0.0,0.0
1682,84.10000000000001,0.0,0.0,51.766,0.0,0.0,0.0,0.0,0.0,0.0,0,70,0.0,0.0,0.0
1683,84.15,0.0,0.0,51.766,0.0,0.0,0.0,0.0,0.0,0.0,0,70,0.0,0.0,0.0
1684,84.2,0.0,0.0,51.766,0.0,0.0,0.0,0.0,0.0,0.0,0,70,0.0,0.0,0.0
1685,84.25,0.0,0.0,51.766,0.0,0.0,0.0,0.0,0.0,0.0,0,70,0.0,0.0,0.0
1686,84.30000000000001,0.0,0.0,51.766,0.0,0.0,0.0,0.0,0.0,0.0,0,70,0.0,0.0,0.0
1687,84.35000000000001,0.0,0.0,51.766,0.0,0.0,0.0,0.0,0.0,0.0,0,70,0.0,0.0,0.0
1688,84.4,0.0,0.0,51.766,0.0,0.0,0.0,0.0,0.0,0.0,0,70,0.0,0.0,0.0
1689,84.45,0.0,0.0,51.766,0.0,0.0,0.0,0.0,0.0,0.0,0,70,0.0,0.0,0.0
1690,84.5,0.0,0.0,51.766,0.0,0.0,0.0,0.0,0.0,0.0,0,70,0.0,0.0,0.0
1691,84.55000000000001,0.0,0.0,51.766,0.0,0.0,0.0,0.0,0.0,0.0,0,70,0.0,0.0,0.0
1692,84.60000000000001,0.0,0.0,51.766,0.0,0.0,0.0,0.0,0.0,0.0,0,70,0.0,0.0,0.0
1693,84.65,0.0,0.0,51.766,0.0,0.0,0.0,0.0,0.0,0.0,0,70,0.0,0.0,0.0
1694,84.7,0.0,0.0,51.766,0.0,0.0,0.0,0.0,0.0,0.0,0,70,0.0,0.0,0.0
1695,84.75,0.0,0.0,51.766,0.0,0.0,0.0,0.0,0.0,0.0,0,70,0.0,0.0,0.0
1696,84.80000000000001,0.0,0.0,51.766,0.0,0.0,0.0,0.0,0.0,0.0,0,70,0.0,0.0,0.0
1697,84.85000000000001,0.0,0.0,51.766,0.0,0.0,0.0,0.0,0.0,0.0,0,70,0.0,0.0,0.0
1698,84.9,0.0,0.0,51.766,0.0,0.0,0.0,0.0,0.0,0.0,0,70,0.0,0.0,0.0
1699,84.95,0.0,0.0,51.766,0.0,0.0,0.0,0.0,0.0,0.0,0,70,0.0,0.0,0.0
1700,85.0,0.0,0.0,51.766,0.0,0.0,0.0,0.0,0.0,0.0,0,70,0.0,0.0,0.0
1701,85.05000000000001,0.0,0.0,51.766,0.0,0.0,0.0,0.0,0.0,0.0,0,70,0.0,0.0,0.0
1702,85.10000000000001,0.0,0.0,51.766,0.0,0.0,0.0,0.0,0.0,0.0,0,70,0.0,0.0,0.0
1703,85.15,0.0,0.0,51.766,0.0,0.0,0.0,0.0,0.0,0.0,0,70,0.0,0.0,0.0
1704,85.2,0.0,0.0,51.766,0.0,0.0,0.0,0.0,0.0,0.0,0,70,0.0,0.0,0.0
1705,85.25,0.0,0.0,51.766,0.0,0.0,0.0,0.0,0.0,0.0,0,70,0.0,0.0,0.0
