idx,t,px,py,pz,vx,vy,vz,ax,ay,az,yaw,mode,ledr,ledg,ledb
0,0.0,-4.5,4.5,0.0,0.0008211088625414559,0.000681776527694731,0.0024729949593249277,-0.02265330635048185,-0.012981318332361113,-0.06807593951189914,0,70,255.0,255.0,255.0
1,0.05,-4.499987240080949,4.500018143954997,3.862781853569739e-05,-0.00031028992323025055,4.961720273852178e-05,-0.0009264223187105335,-0.022602645080386407,-0.012305054665887258,-0.0679007516095193,0,70,255.0,255.0,255.0
2,0.1,-4.500030986774598,4.5000055252733295,-9.249624195240354e-05,-0.001439155645497185,-0.0005487289388939947,-0.004317080201627003,-0.022551983810290964,-0.011628790999413403,-0.06772556370713947,0,70,255.0,255.0,255.0
3,0.15000000000000002,-4.5001311134277735,4.499963834614164,-0.0003929342117083532,-0.0025654883042593476,-0.0011132618972028187,-0.007698978689424483,-0.022501322540195524,-0.010952527332939548,-0.06755037580475966,0,70,255.0,255.0,255.0
4,0.2,-4.500287493387299,4.499894762636664,-0.0008622481209762021,-0.003689287899516737,-0.0016439816721879495,-0.011072117782102969,-0.02245066127010008,-0.010276263666465692,-0.06737518790237983,0,70,255.0,255.0,255.0
5,0.25,-4.5005,4.4998,-0.0015,-0.004810554431269355,-0.0021408882638493877,-0.014436497479662464,-0.02240000000000464,-0.009599999999991834,-0.06719999999999997,0,70,255.0,255.0,255.0
6,0.30000000000000004,-4.500768506612701,4.499681237363335,-0.0023057518790237995,-0.005929287899517202,-0.0026039816721871336,-0.01779211778210297,-0.022349338729909195,-0.00892373633351798,-0.06702481209762017,0,70,255.0,255.0,255.0
7,0.35000000000000003,-4.501092886572226,4.499540165385836,-0.003279065788291647,-0.007045488304260276,-0.003033261897201186,-0.021138978689424482,-0.022298677459813752,-0.008247472667044127,-0.06684962419524036,0,70,255.0,255.0,255.0
8,0.4,-4.501473013225401,4.4993784747266705,-0.004419503758047597,-0.008159155645498576,-0.003428728938891546,-0.024477080201627005,-0.022248016189718313,-0.0075712090005702745,-0.06667443629286056,0,70,255.0,255.0,255.0
9,0.45,-4.501908759919052,4.499197856045002,-0.005726627818535698,-0.009270289923232106,-0.0037903827972582136,-0.027806422318710534,-0.02219735491962287,-0.006894945334096422,-0.06649924839048076,0,70,255.0,255.0,255.0
10,0.5,-4.5024,4.499,-0.0072,-0.010378891137460863,-0.004118223472301188,-0.031127005040675077,-0.022146693649527427,-0.006218681667622579,-0.06632406048810094,0,70,255.0,255.0,255.0
11,0.55,-4.502946733468248,4.498785706591661,-0.008839620302440506,-0.011492558478699165,-0.0044656905139916605,-0.0344651065528776,-0.02240000000000464,-0.00767999999999632,-0.06720000000000002,0,70,255.0,255.0,255.0
12,0.6000000000000001,-4.503549466936495,4.4985522131833235,-0.010647240604881012,-0.012618891137461329,-0.00488622347230082,-0.037847005040675084,-0.02265330635048185,-0.009141318332370061,-0.06807593951189911,0,70,255.0,255.0,255.0
13,0.65,-4.50420883367062,4.498295866479155,-0.012625050756101262,-0.01375788911374735,-0.005379822347228666,-0.04127270050406751,-0.02290661270095906,-0.0106026366647438,-0.06895187902379818,0,70,255.0,255.0,255.0
14,0.7000000000000001,-4.504925466936495,4.498013013183324,-0.014775240604881012,-0.014909552407557236,-0.005946487138775201,-0.044742192943054905,-0.023159919051436273,-0.01206395499711754,-0.06982781853569726,0,70,255.0,255.0,255.0
15,0.75,-4.5057,4.4977,-0.0171,-0.016073881018890977,-0.006586217846940421,-0.04825548235763724,-0.02341322540191343,-0.013525273329491314,-0.07070375804759665,0,70,255.0,255.0,255.0
16,0.8,-4.506532559514309,4.497354336270018,-0.019600566911214187,-0.017220478185690887,-0.007229256271839661,-0.05175545600638665,-0.022450661270083005,-0.012196263666478276,-0.06929518790237991,0,70,255.0,255.0,255.0
17,0.8500000000000001,-4.507421245681792,4.496978181880869,-0.022274371792184326,-0.01831894714589928,-0.00780584421358825,-0.05518500114787524,-0.02148809713825258,-0.010867254003465238,-0.06788661775716318,0,70,255.0,255.0,255.0
18,0.9,-4.508363652092122,4.496574859356712,-0.02511789321754736,-0.019369287899516148,-0.008315981672186185,-0.05854411778210297,-0.02052553300642216,-0.009538244340452202,-0.06647804761194645,0,70,255.0,255.0,255.0
19,0.9500000000000001,-4.509357372334968,4.496147691221703,-0.028127609761940273,-0.020371500446541492,-0.00875966864763347,-0.061832805909069886,-0.019562968874591732,-0.008209234677439167,-0.06506947746672971,0,70,255.0,255.0,255.0
20,1.0,-4.5104,4.4957,-0.0313,-0.021325584786975316,-0.009136905139930103,-0.06505106552877594,-0.01860040474276123,-0.0068802250144261445,-0.06366090732151297,0,70,255.0,255.0,255.0
21,1.05,-4.511490228474518,4.49523454832827,-0.03463251205270276,-0.022297528778535032,-0.009481284398643595,-0.06825706942157579,-0.02027735491962734,-0.006894945334113467,-0.0645792483904806,0,70,255.0,255.0,255.0
22,1.1,-4.512631150336334,4.494751859293203,-0.03812647222638173,-0.023353320278938054,-0.00982639967334145,-0.07150899036782402,-0.021954305096493452,-0.006909665653800789,-0.06549758945944821,0,70,255.0,255.0,255.0
23,1.1500000000000001,-4.513826957960892,4.494251896094002,-0.04178417637370931,-0.024492959288184377,-0.010172250964023674,-0.07480682836752062,-0.02363125527335956,-0.006924385973488112,-0.06641593052841584,0,70,255.0,255.0,255.0
24,1.2000000000000002,-4.515081843723633,4.4937346219298675,-0.04560792034735794,-0.02571644580627401,-0.010518838270690261,-0.0781505834206656,-0.025308205450225673,-0.006939106293175434,-0.06733427159738346,0,70,255.0,255.0,255.0
25,1.25,-4.5164,4.4932,-0.0496,-0.027023779833206942,-0.010866161593341216,-0.08154025552725894,-0.026985155627091723,-0.006953826612862757,-0.06825261266635074,0,70,255.0,255.0,255.0
26,1.3,-4.51778412658762,4.492647470416906,-0.05376218487797479,-0.028325406700170457,-0.011245606133590522,-0.08494426630731014,-0.025079919051448823,-0.008223954997109453,-0.06790781853569738,0,70,255.0,255.0,255.0
27,1.35,-4.51923095297287,4.49207438094632,-0.05809413930228881,-0.029531771738351826,-0.011688557093052162,-0.08833103738082868,-0.02317468247580592,-0.009494083381356147,-0.06756302440504403,0,70,255.0,255.0,255.0
28,1.4000000000000001,-4.520735716064309,4.491477556267281,-0.06259500128761546,-0.030642874947751052,-0.012195014471726136,-0.09170056874781456,-0.02126944590016302,-0.01076421176560284,-0.06721823027439067,0,70,255.0,255.0,255.0
29,1.4500000000000002,-4.5222936527705,4.4908538210588285,-0.06726390884862805,-0.03165871632836813,-0.012764978269612447,-0.09505286040826776,-0.01936420932452012,-0.012034340149849537,-0.06687343614373731,0,70,255.0,255.0,255.0
30,1.5,-4.5239,4.4902,-0.0721,-0.032579295880203064,-0.013398448486711087,-0.09838791236218827,-0.017458972748877366,-0.013304468534096128,-0.06652864201308417,0,70,255.0,255.0,255.0
31,1.55,-4.525551665174999,4.489513970004103,-0.07710274843539812,-0.03350484442078937,-0.014032291066998819,-0.10172586534918363,-0.019562968874574684,-0.012049234677413147,-0.06698947746672998,0,70,255.0,255.0,255.0
32,1.6,-4.527252237772184,4.4887978169215135,-0.08227297056446307,-0.034535592767660536,-0.014603371954452403,-0.10508686010886127,-0.021666965000272,-0.010794000820730166,-0.0674503129203758,0,70,255.0,255.0,255.0
33,1.6500000000000001,-4.5290069777818704,4.488054678836872,-0.08761181847582895,-0.03567154092081657,-0.015111691149071836,-0.10847089664122121,-0.02377096112596932,-0.009538766964047185,-0.06791114837402161,0,70,255.0,255.0,255.0
34,1.7000000000000002,-4.530821145194371,4.48728769383482,-0.0931204442581299,-0.03691268888025747,-0.015557248650857121,-0.11187797494626345,-0.025874957251666636,-0.008283533107364204,-0.06837198382766743,0,70,255.0,255.0,255.0
35,1.75,-4.5327,4.4865,-0.0988,-0.038259036645983235,-0.015940044459808254,-0.11530809502398796,-0.027978953377364002,-0.007028299250681103,-0.06883281928131357,0,70,255.0,255.0,255.0
36,1.8,-4.534646812712384,4.485694249566679,-0.10465082138043275,-0.039591215616672976,-0.01628922959840509,-0.11871227229595539,-0.025308205450225604,-0.0069391062931924655,-0.06733427159738341,0,70,255.0,255.0,255.0
37,1.85,-4.536656895938395,4.484871151367624,-0.11066997843985894,-0.0407898571910058,-0.016633955089127503,-0.12204152218372631,-0.02263745752308721,-0.006849913335703828,-0.06583572391345324,0,70,255.0,255.0,255.0
38,1.9000000000000001,-4.5387235728082125,4.48403092838523,-0.11685372480906876,-0.0418549613689817,-0.016974220931975478,-0.1252958446873007,-0.01996670959594881,-0.00676072037821519,-0.06433717622952308,0,70,255.0,255.0,255.0
39,1.9500000000000002,-4.54084016645202,4.4831738036018915,-0.12319831411885242,-0.04278652815060068,-0.017310027126949023,-0.12847523980667863,-0.017295961668810415,-0.006671527420726553,-0.06283862854559291,0,70,255.0,255.0,255.0
40,2.0,-4.543,4.4823,-0.1297,-0.04358455753586274,-0.017641373674048128,-0.13157970754186,-0.014625213741672027,-0.006582334463237777,-0.06134008086166265,0,70,255.0,255.0,255.0
41,2.0500000000000003,-4.545198683975463,4.481409031729183,-0.136356366042871,-0.044386293112517655,-0.018010790539375963,-0.134689045466995,-0.017444209324524677,-0.008194340149875481,-0.06303343614373685,0,70,255.0,255.0,255.0
42,2.1,-4.547440978474238,4.4804975776079905,-0.14317031567610122,-0.04532897846831521,-0.018460807689035675,-0.13788305115623367,-0.0202632049073773,-0.009806345836513172,-0.06472679142581104,0,70,255.0,255.0,255.0
43,2.15,-4.549733930985281,4.479561607622207,-0.15014608228789603,-0.04641261360325538,-0.018991425123027275,-0.14116172460957607,-0.023082200490229927,-0.011418351523150863,-0.06642014670788522,0,70,255.0,255.0,255.0
44,2.2,-4.552084588997549,4.478597091757616,-0.1572878992664606,-0.047637198517338206,-0.019602642841350763,-0.1445250658270222,-0.025901196073082576,-0.013030357209788568,-0.06811350198995943,0,70,255.0,255.0,255.0
45,2.25,-4.5545,4.4776,-0.1646,-0.04900273321056365,-0.020294460844006133,-0.14797307480857205,-0.028720191655935146,-0.014642362896426148,-0.0698068572720334,0,70,255.0,255.0,255.0
46,2.3000000000000003,-4.556984851385763,4.476568023516592,-0.1720853144480835,-0.0503676119332537,-0.02096360824410024,-0.1514275458360646,-0.025874957251666615,-0.012123533107338116,-0.06837198382766742,0,70,255.0,255.0,255.0
47,2.35,-4.5595343901646554,4.475505738200414,-0.17974155885573614,-0.051590228935730315,-0.021506814154739946,-0.1548102731913388,-0.02302972284739811,-0.00960470331825011,-0.06693711038330145,0,70,255.0,255.0,255.0
48,2.4000000000000004,-4.562141503250666,4.474419441125941,-0.18756514603934712,-0.05267058421799351,-0.021924078575925255,-0.15812125687439474,-0.020184488443129582,-0.007085873529162077,-0.06550223693893548,0,70,255.0,255.0,255.0
49,2.45,-4.564799077557784,4.473315429367645,-0.19555248881530535,-0.05360867778004328,-0.022215401507656156,-0.16136049688523235,-0.017339254038861072,-0.0045670437400740695,-0.06406736349456951,0,70,255.0,255.0,255.0
50,2.5,-4.5675,4.4722,-0.2037,-0.05440450962187961,-0.022380782949932655,-0.16452799322385167,-0.014494019634592403,-0.0020482139509859776,-0.06263249005020355,0,70,255.0,255.0,255.0
51,2.5500000000000003,-4.570239510481485,4.471077274204451,-0.21200477616479513,-0.05519925915446468,-0.022550776484225155,-0.16766477118874662,-0.017295961668810415,-0.004751527420713922,-0.06283862854559338,0,70,255.0,255.0,255.0
52,2.6,-4.573022260867141,4.4699426695903535,-0.22046664890095416,-0.056134105788760644,-0.022855935692004045,-0.17081185607841104,-0.020097903703028403,-0.007454840890441843,-0.06304476704098323,0,70,255.0,255.0,255.0
53,2.6500000000000004,-4.575855256012056,4.468789427874027,-0.22908613355471574,-0.057209049524767526,-0.02329626057326934,-0.17396924789284493,-0.022899845737246412,-0.010158154360169787,-0.06325090553637307,0,70,255.0,255.0,255.0
54,2.7,-4.578745500771314,4.467610790771801,-0.23786374547231814,-0.05842409036248529,-0.023871751128021024,-0.17713694663204832,-0.025701787771464403,-0.01286146782989771,-0.06345704403176292,0,70,255.0,255.0,255.0
55,2.75,-4.5817,4.4664,-0.2468,-0.059779228301913956,-0.024582407356259106,-0.1803149522960212,-0.028503729805682276,-0.015564781299625685,-0.06366318252715275,0,70,255.0,255.0,255.0
56,2.8000000000000003,-4.584723506688297,4.4651524796656,-0.25589558089273623,-0.06113935144888351,-0.025297285818994892,-0.18351336940894905,-0.025901196073099604,-0.013030357209805596,-0.06427350198995936,0,70,255.0,255.0,255.0
57,2.85,-4.5878117663667775,4.463872383438176,-0.26515184554044724,-0.06236934790922392,-0.025885443077239667,-0.18674230249501714,-0.02329866234051696,-0.010495933119985531,-0.06488382145276597,0,70,255.0,255.0,255.0
58,2.9000000000000004,-4.5909582727011085,4.462566047377951,-0.2745703197417903,-0.06346921768293522,-0.026346879130993445,-0.19000175155422563,-0.020696128607934287,-0.007961509030165442,-0.06549414091557258,0,70,255.0,255.0,255.0
59,2.95,-4.594156519356961,4.461239807545152,-0.2841525292954221,-0.06443896077001735,-0.026681593980256213,-0.1932917165865744,-0.01809359487535164,-0.005427084940345375,-0.06610446037837918,0,70,255.0,255.0,255.0
60,3.0,-4.5974,4.4599,-0.2939,-0.06527857717047038,-0.026889587625027984,-0.1966121975920635,-0.015491061142769769,-0.0028926608505253915,-0.06671477984118646,0,70,255.0,255.0,255.0
61,3.0500000000000003,-4.6006840627653265,4.458551207133148,-0.30381370026426024,-0.06609933505001073,-0.02707608023979297,-0.19992975117545742,-0.017339254038844207,-0.004567043740074043,-0.06598736349457024,0,70,255.0,255.0,255.0
62,3.1,-4.604011473665748,4.457190996656945,-0.31389236893725686,-0.0670125025743548,-0.027346291999035387,-0.20321093394152054,-0.019187446934918632,-0.006241426629622679,-0.06525994714795402,0,70,255.0,255.0,255.0
63,3.1500000000000004,-4.607386853183508,4.45581518261417,-0.3241341874781235,-0.0680180797435026,-0.02770022290275524,-0.20645574589025284,-0.02103563983099307,-0.00791580951917133,-0.0645325308013378,0,70,255.0,255.0,255.0
64,3.2,-4.610814821800845,4.454419579047596,-0.3345373373459934,-0.06911606655745411,-0.02813787295095252,-0.20966418702165432,-0.022883832727067496,-0.009590192408719967,-0.06380511445472159,0,70,255.0,255.0,255.0
65,3.25,-4.6143,4.453,-0.3451,-0.07030646301620934,-0.028659242143627233,-0.21283625733572498,-0.02473202562314214,-0.01126457529826888,-0.06307769810810626,0,70,255.0,255.0,255.0
66,3.3000000000000003,-4.617845842250401,4.451553091801808,-0.3558208180502229,-0.07151930835107419,-0.029214393221831517,-0.2159996258892217,-0.023781787771451696,-0.010941467829902289,-0.06345704403176207,0,70,255.0,255.0,255.0
67,3.35,-4.621451138970231,4.45007882993404,-0.36670027871052524,-0.07268464179335452,-0.029753388926617462,-0.2191819617389012,-0.02283154991976126,-0.0106183603615357,-0.06383638995541788,0,70,255.0,255.0,255.0
68,3.4000000000000004,-4.625113514564861,4.4485780221653695,-0.3777393303457162,-0.07380246334305032,-0.030276229257985086,-0.22238326488476348,-0.021881312068070816,-0.010295252893169108,-0.06421573587907368,0,70,255.0,255.0,255.0
69,3.45,-4.62883059343966,4.447051476264466,-0.3889389213206047,-0.0748727730001616,-0.030782914215934376,-0.22560353532680857,-0.020931074216380383,-0.009972145424802518,-0.06459508180272948,0,70,255.0,255.0,255.0
70,3.5,-4.6326,4.4455,-0.4003,-0.07589557076468836,-0.03127344380046534,-0.2288427730650364,-0.019980836364690058,-0.009649037956436068,-0.06497442772638551,0,70,255.0,255.0,255.0
71,3.5500000000000003,-4.63641976823307,4.443924425659621,-0.4118230275348482,-0.07689543154568974,-0.031746346872884655,-0.23207174526765556,-0.020013594875364537,-0.009267084940336465,-0.0641844603783801,0,70,255.0,255.0,255.0
72,3.6,-4.640289570453327,4.442325683606892,-0.4235065162206422,-0.07789693025222483,-0.03220015229449899,-0.2352612191028744,-0.020046353386039016,-0.008885131924236865,-0.0633944930303747,0,70,255.0,255.0,255.0
73,3.6500000000000004,-4.644209488557051,4.440704728724351,-0.4353484911390123,-0.07890006688429363,-0.032634860065308344,-0.238411194570693,-0.0200791118967135,-0.008503178908137263,-0.0626045256823693,0,70,255.0,255.0,255.0
74,3.7,-4.648179604440516,4.439062515894542,-0.44734697737158824,-0.07990484144189618,-0.03305047018531271,-0.24152167167111135,-0.020111870407387978,-0.008121225892037663,-0.06181455833436389,0,70,255.0,255.0,255.0
75,3.75,-4.6522,4.4374,-0.4595,-0.08091125392503241,-0.03344698265451211,-0.24459265040412936,-0.020144628918062124,-0.007739272875938119,-0.061024590986356486,0,70,255.0,255.0,255.0
76,3.8000000000000003,-4.65627108481732,4.435718005559708,-0.47180627181038465,-0.08193896546616078,-0.03383221928662868,-0.24766539304015628,-0.020963832727071967,-0.0076701924087245075,-0.061885114454720384,0,70,255.0,255.0,255.0
77,3.85,-4.660394579216456,4.434016835638394,-0.484267256406906,-0.08300763719773963,-0.03421400189538456,-0.2507811618496014,-0.021783036536081803,-0.007601111941510896,-0.06274563792308428,0,70,255.0,255.0,255.0
78,3.9000000000000004,-4.664572531206934,4.432296662937226,-0.49688510509823514,-0.08411726911976895,-0.03459233048077977,-0.25393995683246473,-0.022602240345091645,-0.007532031474297284,-0.06360616139144817,0,70,255.0,255.0,255.0
79,3.95,-4.668806988798275,4.430557660157372,-0.5096619691930429,-0.08526786123224878,-0.034967205042814295,-0.25714177798874627,-0.02342144415410148,-0.007462951007083673,-0.06446668485981207,0,70,255.0,255.0,255.0
80,4.0,-4.6731,4.4288,-0.5226,-0.08645941353517908,-0.03533862558148813,-0.26038662531844586,-0.024240647963111206,-0.007393870539869674,-0.06532720832817462,0,70,255.0,255.0,255.0
81,4.05,-4.677452692497651,4.427023552101549,-0.5357006852236135,-0.08763670658966669,-0.03572477598060504,-0.26363468257171846,-0.02285107421639317,-0.008052145424806931,-0.06459508180273064,0,70,255.0,255.0,255.0
82,4.1000000000000005,-4.681862512680844,4.425226973839536,-0.5489628581517341,-0.08874452095681841,-0.036143840123968825,-0.26684613349871894,-0.021461500469675106,-0.0087104203097442,-0.06386295527728664,0,70,255.0,255.0,255.0
83,4.15,-4.686325986615211,4.423408619526747,-0.5623846884680477,-0.0897828566366342,-0.03659581801157947,-0.2700209780994472,-0.02007192672295707,-0.009368695194681458,-0.06313082875184266,0,70,255.0,255.0,255.0
84,4.2,-4.690839640366385,4.421566843475973,-0.5759643458562409,-0.0907517136291141,-0.03708070964343697,-0.2731592163739032,-0.018682352976239033,-0.010026970079618716,-0.06239870222639867,0,70,255.0,255.0,255.0
85,4.25,-4.6954,4.4197,-0.5897,-0.0916510919342581,-0.037598515019541326,-0.2762608483220871,-0.01729277922952077,-0.010685244964555696,-0.06166657570095335,0,70,255.0,255.0,255.0
86,4.3,-4.700004545192074,4.417806986034097,-0.603590187295161,-0.09253820817518008,-0.03811667679095562,-0.27934787667296995,-0.018191870407358077,-0.010041225892016194,-0.061814558334362425,0,70,255.0,255.0,255.0
87,4.3500000000000005,-4.704654570060167,4.415888869003465,-0.6176349109861583,-0.09347027897499392,-0.03860263760874295,-0.28244230415552335,-0.019090961585195396,-0.009397206819476683,-0.0619625409677715,0,70,255.0,255.0,255.0
88,4.4,-4.709352322332221,4.413947258955783,-0.6318345410295747,-0.09444730433369962,-0.03905639747290329,-0.28554413076974716,-0.0199900527630327,-0.008753187746937181,-0.06211052360118057,0,70,255.0,255.0,255.0
89,4.45,-4.714100049736184,4.411983765938734,-0.6461894473819941,-0.09546928425129718,-0.039477956383436666,-0.2886533565156414,-0.020889143940870006,-0.00810916867439768,-0.06225850623458964,0,70,255.0,255.0,255.0
90,4.5,-4.7189,4.41,-0.6607,-0.09653621872778662,-0.03986731434034305,-0.2917699813932061,-0.021788235118706423,-0.007465149601858012,-0.06240648886799871,0,70,255.0,255.0,255.0
91,4.55,-4.7237539267340525,4.407997303762062,-0.6753665655957418,-0.0976184607096069,-0.04024051685556702,-0.29489381073640136,-0.021501444154105532,-0.00746295100710056,-0.06254668485981174,0,70,255.0,255.0,255.0
92,4.6000000000000005,-4.7286616070784895,4.405975950146606,-0.6901894979036334,-0.09868636314319718,-0.04061360944105311,-0.2980246498791873,-0.021214653189504638,-0.007460752412343108,-0.06268688085162477,0,70,255.0,255.0,255.0
93,4.65,-4.733622324055901,4.403935944650118,-0.7051691474136539,-0.09973992602855739,-0.04098659209680133,-0.3011624988215638,-0.020927862224903747,-0.007458553817585656,-0.0628270768434378,0,70,255.0,255.0,255.0
94,4.7,-4.738635360688875,4.401877292769088,-0.7203058646157828,-0.10077914936568755,-0.04135946482281168,-0.30430735756353106,-0.020641071260302856,-0.007456355222828203,-0.06296727283525083,0,70,255.0,255.0,255.0
95,4.75,-4.7437,4.3998,-0.7356,-0.10180403315458766,-0.04173222761908415,-0.30745922610508897,-0.020354280295702187,-0.007454156628070641,-0.0631074688270643,0,70,255.0,255.0,255.0
96,4.800000000000001,-4.748815747871716,4.397703798917656,-0.7510515503218717,-0.10282794898638695,-0.042121255786776494,-0.3105968803814256,-0.020602352976268848,-0.008106970079623042,-0.06239870222639831,0,70,255.0,255.0,255.0
97,4.8500000000000005,-4.753983001625872,4.3955873304101125,-0.7666590973993088,-0.10386426845221455,-0.04254292462704645,-0.3136990963277288,-0.020850425656835505,-0.008759783531175432,-0.06168993562573232,0,70,255.0,255.0,255.0
98,4.9,-4.759202381444171,4.393448962443742,-0.7824208693158105,-0.1049129915520705,-0.042997234139894036,-0.3167658739439988,-0.021098498337402162,-0.009412596982727821,-0.06098116902506633,0,70,255.0,255.0,255.0
99,4.95,-4.7644745075083135,4.3912870629849134,-0.7983350941548747,-0.10597411828595477,-0.04348418432531924,-0.31979721323023547,-0.02134657101796882,-0.010065410434280211,-0.06027240242440035,0,70,255.0,255.0,255.0
100,5.0,-4.7698,4.3891,-0.8144,-0.10704764865386737,-0.044003775183322054,-0.3227931141864388,-0.021594643698535032,-0.0107182238858326,-0.05956363582373525,0,70,255.0,255.0,255.0
101,5.050000000000001,-4.775179081779085,4.386886700567315,-0.8306144331167731,-0.10810974334485207,-0.04452245999732771,-0.32579066773789694,-0.020889143940852364,-0.01002916867439312,-0.060338506234587995,0,70,255.0,255.0,255.0
102,5.1000000000000005,-4.78061038641802,4.384648328212943,-0.8469797124991323,-0.10913656304795262,-0.04500669205076137,-0.32882696480989765,-0.020183644183169706,-0.009340113462953652,-0.061113376645440726,0,70,255.0,255.0,255.0
103,5.15,-4.7860921501674145,4.382386605574915,-0.863497775323105,-0.11012810776316903,-0.045456471343623066,-0.33190200540244097,-0.019478144425487048,-0.008651058251514182,-0.06188824705629346,0,70,255.0,255.0,255.0
104,5.2,-4.791622609277873,4.3801032552912575,-0.8801705587647186,-0.11108437749050133,-0.045871797875912786,-0.33501578951552696,-0.018772644667804393,-0.007962003040074713,-0.06266311746714619,0,70,255.0,255.0,255.0
105,5.25,-4.7972,4.3778,-0.897,-0.11200537222994945,-0.046252671647630535,-0.3381683171491556,-0.018067144910121846,-0.007272947828635246,-0.06343798787799892,0,70,255.0,255.0,255.0
106,5.300000000000001,-4.802823125011948,4.375478198813084,-0.9139875172110378,-0.11292507763420978,-0.046620904223917126,-0.3413284486669869,-0.018721071260290576,-0.007456355222828162,-0.06296727283525322,0,70,255.0,255.0,255.0
107,5.3500000000000005,-4.808493052702046,4.373137756738113,-0.9311324526041633,-0.11387747935597851,-0.04699830716991335,-0.34446504443268094,-0.019374997610459296,-0.007639762617021075,-0.062496557792507526,0,70,255.0,255.0,255.0
108,5.4,-4.81421141788617,4.370778215256599,-0.94843362939177,-0.1148625773952557,-0.04738488048561923,-0.34757810444623766,-0.02002892396062801,-0.007823170011213989,-0.062025842749761834,0,70,255.0,255.0,255.0
109,5.45,-4.819979855380197,4.368399115850055,-0.9658898707862513,-0.11588037175204131,-0.04778062417103475,-0.35066762870765705,-0.02068285031079673,-0.008006577405406902,-0.06155512770701614,0,70,255.0,255.0,255.0
110,5.5,-4.8258,4.366,-0.9835,-0.11693086242633538,-0.04818553822615992,-0.35373361721693924,-0.021336776660965562,-0.008189984799599703,-0.06108441266426956,0,70,255.0,255.0,255.0
111,5.550000000000001,-4.831673218173125,4.3635805041803435,-1.0012626980390775,-0.11799794611830876,-0.0485939231070066,-0.356767537594156,-0.021346571017968597,-0.008145410434267586,-0.06027240242440034,0,70,255.0,255.0,255.0
112,5.6000000000000005,-4.837599802773796,4.361140644834602,-1.019176077084216,-0.11906551952813225,-0.04900007926958668,-0.35976085745937936,-0.021356365374971632,-0.008100836068935469,-0.059460392184531134,0,70,255.0,255.0,255.0
113,5.65,-4.843579778287903,4.35868053339869,-1.0372381071098156,-0.1201335826558059,-0.04940400671390015,-0.36271357681260913,-0.021366159731974664,-0.008056261703603351,-0.058648381944661925,0,70,255.0,255.0,255.0
114,5.7,-4.84961316920134,4.356200281308518,-1.0554467580902767,-0.12120213550132972,-0.049805705439947015,-0.36562569565384545,-0.0213759540889777,-0.008011687338271234,-0.05783637170479272,0,70,255.0,255.0,255.0
115,5.75,-4.8557,4.3537,-1.0738,-0.12227117806470365,-0.05020517544772726,-0.3684972139830884,-0.021385748445980846,-0.007967112972938839,-0.057024361464922624,0,70,255.0,255.0,255.0
116,5.800000000000001,-4.861840002295551,4.351179784465535,-1.0922968906326536,-0.12332313789254862,-0.050603403348052606,-0.37139340095639006,-0.02069264466781703,-0.007962003040074661,-0.058823117467142194,0,70,255.0,255.0,255.0
117,5.8500000000000005,-4.868031736202773,4.348639663923472,-1.1109408390589743,-0.12434044253148537,-0.05100137575173473,-0.37437952572980265,-0.019999540889653226,-0.007956893107210483,-0.06062187346936174,0,70,255.0,255.0,255.0
118,5.9,-4.874273468962218,4.34607965114864,-1.1297363421689688,-0.12532309198151392,-0.05139909265877365,-0.3774555883033262,-0.01930643711148942,-0.007951783174346305,-0.06242062947158128,0,70,255.0,255.0,255.0
119,5.95,-4.880563467814443,4.343499758915872,-1.1486878968526422,-0.1262710862426343,-0.051796554069169366,-0.3806215886769607,-0.01861333333332562,-0.007946673241482127,-0.06421938547380082,0,70,255.0,255.0,255.0
120,6.0,-4.8869,4.3409,-1.1678,-0.1271844253148465,-0.052193759982921854,-0.3838775268507062,-0.017920229555161926,-0.00794156330861756,-0.06601814147601814,0,70,255.0,255.0,255.0
121,6.050000000000001,-4.893281972644667,4.338280357957511,-1.1870753394303102,-0.12810150231149559,-0.052592463500772894,-0.38711485858028216,-0.01876285031080128,-0.008006577405423843,-0.06347512770701937,0,70,255.0,255.0,255.0
122,6.1000000000000005,-4.8997108524151125,4.335640699471509,-1.2065093666798874,-0.12906071034592664,-0.05299441772346424,-0.3902250396214082,-0.019605471066440627,-0.008071591502230125,-0.06093211393802062,0,70,255.0,255.0,255.0
123,6.15,-4.906188745863224,4.332980862006751,-1.22609572421431,-0.13006204941813965,-0.053399622650995904,-0.3932080699740842,-0.020448091822079968,-0.008136605599036407,-0.058389100169021886,0,70,255.0,255.0,255.0
124,6.2,-4.9127177595408895,4.330300683027995,-1.2458280544991551,-0.13110551952813462,-0.05380807828336788,-0.3960639496383104,-0.02129071257771931,-0.008201619695842688,-0.05584608640002314,0,70,255.0,255.0,255.0
125,6.25,-4.9193,4.3276,-1.2657,-0.1321911206759116,-0.05421978462058018,-0.39879267861408657,-0.022133333333358873,-0.008266633792648914,-0.05330307263102574,0,70,255.0,255.0,255.0
126,6.300000000000001,-4.925936907125777,4.3248787837044205,-1.2857073516461073,-0.13327885286147,-0.05462674264885361,-0.4015231647224821,-0.0213759540889776,-0.008011687338288161,-0.05591637170479333,0,70,255.0,255.0,255.0
127,6.3500000000000005,-4.932627254136777,4.322137538190494,-1.3058544942214765,-0.13432871608480937,-0.055020953354409,-0.40438431578456596,-0.02061857484459634,-0.007756740883927413,-0.05852967077856087,0,70,255.0,255.0,255.0
128,6.4,-4.9393691475848875,4.319376900824357,-1.326147960973792,-0.13534071034592965,-0.05540241673724635,-0.40737613180033816,-0.01986119560021508,-0.007501794429566664,-0.06114296985232841,0,70,255.0,255.0,255.0
129,6.45,-4.946160694021999,4.316597508972147,-1.3465942851507384,-0.13631483564483085,-0.05577113279736566,-0.41049861276979877,-0.019103816355833823,-0.007246847975205916,-0.06375626892609595,0,70,255.0,255.0,255.0
130,6.5,-4.953,4.3138,-1.3672,-0.137251091981513,-0.05612710153476694,-0.4137517586929477,-0.018346437111451896,-0.006991901520845056,-0.06636956799986349,0,70,255.0,255.0,255.0
131,6.550000000000001,-4.959885598852225,4.31098450722481,-1.3879696539852617,-0.13817508624263203,-0.05650056590382426,-0.41701648252978923,-0.018613333333308505,-0.007946673241447813,-0.0642193854737951,0,70,255.0,255.0,255.0
132,6.6000000000000005,-4.966817731037781,4.308149147766517,-1.4088998564342075,-0.13911242531484386,-0.05692176885891172,-0.42017369724032727,-0.01888022955516511,-0.008901444962050552,-0.062069202947726755,0,70,255.0,255.0,255.0
133,6.65,-4.973797063797226,4.305291534695819,-1.4299852318905224,-0.14006310919814852,-0.05739071040002932,-0.4232234028245619,-0.019147125777021715,-0.009856216682653293,-0.059919020421658406,0,70,255.0,255.0,255.0
134,6.7,-4.980824264371115,4.302409281083413,-1.4512204048978918,-0.14102713789254603,-0.05790739052717705,-0.4261655992824931,-0.019414021998878317,-0.010810988403256032,-0.05776883789559006,0,70,255.0,255.0,255.0
135,6.75,-4.9879,4.2995,-1.4726,-0.14200451139803635,-0.058471809240354916,-0.4290002866141209,-0.019680918220734922,-0.011765760123858549,-0.05561865536951993,0,70,255.0,255.0,255.0
136,6.800000000000001,-4.995024697465326,4.296562387396339,-1.4941196324128474,-0.14298080216799786,-0.05901899373584734,-0.4317869051583596,-0.01937071257772413,-0.010121619695838134,-0.05584608640002751,0,70,255.0,255.0,255.0
137,6.8500000000000005,-5.002197821712097,4.293599470743438,-1.5157788800416947,-0.14394158265580878,-0.05948397120993874,-0.4345848952541237,-0.019060506934713346,-0.00847747926781775,-0.05607351743053508,0,70,255.0,255.0,255.0
138,6.9,-5.009418597226205,4.290615360392369,-1.5375783114641184,-0.14488685286146916,-0.05986674166262911,-0.4373942569014131,-0.018750301291702562,-0.006833338839797364,-0.05630094846104266,0,70,255.0,255.0,255.0
139,6.95,-5.016686248493541,4.287614166694199,-1.5595184952576946,-0.14581661278497904,-0.06016730509391847,-0.4402149901002279,-0.018440095648691777,-0.00518919841177698,-0.05652837949155023,0,70,255.0,255.0,255.0
140,7.0,-5.024,4.2846,-1.5816,-0.14673086242633834,-0.0603856615038068,-0.4430470948505681,-0.018129890005680993,-0.003545057983756539,-0.056755810522056915,0,70,255.0,255.0,255.0
141,7.050000000000001,-5.0313596112864705,4.281575543189834,-1.6038238163633496,-0.14766170508537665,-0.06060745915278141,-0.44591589683677196,-0.01910381635585049,-0.005326847975227481,-0.05799626892609659,0,70,255.0,255.0,255.0
142,7.1000000000000005,-5.038766982113829,4.278537769259729,-1.626192623399014,-0.14864124406192342,-0.06091834630132955,-0.4488467217431778,-0.020077742706019974,-0.007108637966698391,-0.05923672733013624,0,70,255.0,255.0,255.0
143,7.15,-5.046224547297954,4.275482223734707,-1.648709522253004,-0.14966947935597863,-0.06131832294945124,-0.45183956956978555,-0.021051669056189454,-0.008890427958169302,-0.060477185734175896,0,70,255.0,255.0,255.0
144,7.2,-5.0537347416547185,4.272404452139791,-1.671377614071329,-0.15074641096754235,-0.06180738909714648,-0.45489444031659537,-0.022025595406358938,-0.010672217949640211,-0.061717644138215545,0,70,255.0,255.0,255.0
145,7.25,-5.0613,4.2693,-1.6942,-0.15187203889661452,-0.06238554474441526,-0.4580113339836071,-0.022999521756528862,-0.012454007941111123,-0.06295810254225254,0,70,255.0,255.0,255.0
146,7.300000000000001,-5.0689216573887945,4.266165839844327,-1.7171787021337557,-0.1529803774904992,-0.06296716965302444,-0.46112550749455317,-0.021334021998856943,-0.010810988403255926,-0.06160883789558802,0,70,255.0,255.0,255.0
147,7.3500000000000005,-5.076596649832586,4.263004652217646,-1.74031142636225,-0.15400544109650022,-0.06346664358474087,-0.4641722177731659,-0.019668522241185052,-0.00916796886540076,-0.06025957324892353,0,70,255.0,255.0,255.0
148,7.4,-5.0843208135819795,4.259820544668801,-1.7635947995238666,-0.1549472297146177,-0.06388396653956452,-0.4671514648194455,-0.018003022483513164,-0.0075249493275455935,-0.05891030860225904,0,70,255.0,255.0,255.0
149,7.45,-5.092089984887583,4.256617624746638,-1.787025448456989,-0.15580574334485153,-0.06421913851749542,-0.47006324863339183,-0.016337522725841276,-0.005881929789690426,-0.057561043955594554,0,70,255.0,255.0,255.0
150,7.5,-5.0999,4.2534,-1.8106,-0.1565809819872018,-0.06447215951853356,-0.4729075692150049,-0.014672022968169385,-0.004238910251835315,-0.056211779308927845,0,70,255.0,255.0,255.0
151,7.550000000000001,-5.107748159158354,4.250170697432859,-1.8343157751016297,-0.15736078495262346,-0.06470786223512387,-0.47572607318501686,-0.016520095648696193,-0.005189198411776932,-0.05652837949154979,0,70,255.0,255.0,255.0
152,7.6000000000000005,-5.115637618555829,4.246928421869688,-1.8581728711519874,-0.1582329915520714,-0.06499107935971125,-0.47856040716415993,-0.018368168329222966,-0.006139486571718532,-0.05684497967417173,0,70,255.0,255.0,255.0
153,7.65,-5.1235729983741285,4.243670797590087,-1.8821720796515307,-0.15919760178554573,-0.06532181089229572,-0.48141057115243396,-0.02021624100974974,-0.007089774731660132,-0.05716157985679367,0,70,255.0,255.0,255.0
154,7.7,-5.13155891879495,4.240395448873659,-1.906314192100716,-0.1602546156530464,-0.06570005683287727,-0.48427656514983924,-0.02206431369027651,-0.008040062891601732,-0.057478180039415606,0,70,255.0,255.0,255.0
155,7.75,-5.1396,4.2371,-1.9306,-0.16140403315457338,-0.06612581718145591,-0.48715838915637555,-0.023912386370802396,-0.008990351051543444,-0.05779478022203577,0,70,255.0,255.0,255.0
156,7.800000000000001,-5.14769930597779,4.233782570424238,-1.9550301974597286,-0.16255248269900285,-0.06656938140648519,-0.49005019976538167,-0.022025595406375782,-0.008752217949627591,-0.05787764413820611,0,70,255.0,255.0,255.0
157,7.8500000000000005,-5.155853675944096,4.230443260303604,-1.9796050890298023,-0.16360659269521097,-0.06700103897641868,-0.4929461535701962,-0.0201388044419492,-0.008514084847711743,-0.05796050805437645,0,70,255.0,255.0,255.0
158,7.9,-5.164058392921508,4.227082664970848,-2.0043248818700117,-0.16456636314319775,-0.06742078989125637,-0.4958462505708192,-0.01825201347752262,-0.008275951745795894,-0.058043371970546785,0,70,255.0,255.0,255.0
159,7.95,-5.172308739932612,4.223701379758729,-2.029189783140147,-0.16543179404296324,-0.06782863415099825,-0.49875049076725086,-0.016365222513096037,-0.008037818643880045,-0.05812623588671713,0,70,255.0,255.0,255.0
160,8.0,-5.1806,4.2203,-2.0542,-0.16620288539450734,-0.06822457175564435,-0.501658874159491,-0.014478431548668347,-0.007799685541963863,-0.058209099802887465,0,70,255.0,255.0,255.0
161,8.05,-5.188929016930485,4.216879020870187,-2.0793554350594587,-0.16697328425136965,-0.0686146121389356,-0.5045531277534533,-0.01633752272582412,-0.007801929789685924,-0.05756104395560228,0,70,255.0,255.0,255.0
162,8.1,-5.197298877667785,4.2134385369159,-2.104654772728806,-0.16783663766708973,-0.06900476473461295,-0.5074149785550511,-0.018196613902979827,-0.007804174037407985,-0.05691298810831711,0,70,255.0,255.0,255.0
163,8.15,-5.205714229939843,4.209978542526519,-2.130096392868424,-0.16879294564166766,-0.06939502954267639,-0.5102444265642849,-0.0200557050801356,-0.007806418285130045,-0.05626493226103193,0,70,255.0,255.0,255.0
164,8.200000000000001,-5.214179721474599,4.2064990320914255,-2.1556786753386956,-0.16984220817510334,-0.06978540656312596,-0.5130414717811544,-0.021914796257291376,-0.007808662532852106,-0.05561687641374674,0,70,255.0,255.0,255.0
165,8.25,-5.2227,4.203,-2.1814,-0.17098442526739674,-0.0701758957959616,-0.5158061142056595,-0.023773887434446417,-0.007810906780574389,-0.05496882056645891,0,70,255.0,255.0,255.0
166,8.3,-5.23127822630027,4.199481346095013,-2.207259262302439,-0.17213038029551483,-0.07057217003776645,-0.5185692892208064,-0.022064313690276213,-0.008040062891619052,-0.05555818003941884,0,70,255.0,255.0,255.0
167,8.35,-5.2399116133847645,4.1959425920327975,-2.2332574200549744,-0.17319085663642436,-0.07097990208512352,-0.5213619322096014,-0.020354739946106072,-0.008269219002663706,-0.05614753951237876,0,70,255.0,255.0,255.0
168,8.4,-5.248595887319125,4.192383164923075,-2.2593959466562925,-0.1741658542901254,-0.0713990919380328,-0.5241840431720443,-0.01864516620193587,-0.00849837511370837,-0.05673689898533869,0,70,255.0,255.0,255.0
169,8.450000000000001,-5.257326774168991,4.188802491875569,-2.2856763155050737,-0.175055373256618,-0.07182973959649436,-0.5270356221081354,-0.016935592457765665,-0.008727531224753032,-0.05732625845829863,0,70,255.0,255.0,255.0
170,8.5,-5.2661,4.1852,-2.3121,-0.17585941353590195,-0.07227184506050813,-0.529916669017874,-0.01522601871359397,-0.008956687335798241,-0.057915617931254104,0,70,255.0,255.0,255.0
171,8.55,-5.274912477868437,4.181575594749759,-2.3386683157307897,-0.17664919456656963,-0.07269670771000009,-0.5328177153633231,-0.01636522251311218,-0.008037818643879945,-0.05812623588670789,0,70,255.0,255.0,255.0
172,8.6,-5.283765868793156,4.17793109495291,-2.365381947051295,-0.17749593578721315,-0.07307562692489612,-0.5357292926065448,-0.017504426312630352,-0.007118949951961679,-0.058336853842161675,0,70,255.0,255.0,255.0
173,8.65,-5.292663020783658,4.17426879778118,-2.392241420506407,-0.17839963719783267,-0.07340860270519625,-0.5386514007475394,-0.018643630112148566,-0.006200081260043382,-0.05854747179761546,0,70,255.0,255.0,255.0
174,8.700000000000001,-5.301606781849439,4.170591000406301,-2.4192472626410124,-0.17936029879842805,-0.07369563505090047,-0.5415840397863064,-0.019782833911666776,-0.005281212568125085,-0.058758089753069245,0,70,255.0,255.0,255.0
175,8.75,-5.3106,4.1669,-2.4464,-0.18037792058899932,-0.07393672396200877,-0.5445272097228461,-0.020922037711184505,-0.004362343876207153,-0.05896870770852036,0,70,255.0,255.0,255.0
176,8.8,-5.319644662225983,4.163197074905947,-2.473699474774406,-0.1814008414382109,-0.07419299912223494,-0.5474398493259027,-0.01999479625727848,-0.005888662532839595,-0.057536876413741014,0,70,255.0,255.0,255.0
177,8.85,-5.328739311442609,4.159479428155564,-2.501142791739845,-0.18237740021472715,-0.07452559021529272,-0.5502808973642201,-0.019067554803372484,-0.007414981189471981,-0.056105045118961715,0,70,255.0,255.0,255.0
178,8.9,-5.337881629546244,4.155743243952204,-2.5287263713180814,-0.18330759691854814,-0.07493449724118215,-0.5530503538377988,-0.018140313349466457,-0.008941299846104422,-0.054673213824182366,0,70,255.0,255.0,255.0
179,8.950000000000001,-5.347069298433253,4.15198470649923,-2.5564466339308796,-0.18419143154967382,-0.07541972019990319,-0.5557482187466384,-0.01721307189556043,-0.010467618502736864,-0.05324138252940302,0,70,255.0,255.0,255.0
180,9.0,-5.3563,4.1482,-2.5843,-0.1850289041081042,-0.07598125909145581,-0.5583744920907391,-0.016285830441653992,-0.011993937159368917,-0.05180955123462194,0,70,255.0,255.0,255.0
181,9.05,-5.365572073227631,4.144386505626451,-2.6122841851715903,-0.18585943968058966,-0.07654729580105919,-0.5610068873330623,-0.016935592457764867,-0.01064753122476574,-0.053486258458305104,0,70,255.0,255.0,255.0
182,9.1,-5.374886485436407,4.140546392424839,-2.640402085989326,-0.18672246335388065,-0.07704601221393238,-0.5637231179365696,-0.01758535447387572,-0.009301125290162613,-0.05516296568198821,0,70,255.0,255.0,255.0
183,9.15,-5.384244861031366,4.136683026410004,-2.668657894221267,-0.18761797512797726,-0.07747740833007544,-0.5665231839012611,-0.018235116489986596,-0.007954719355559439,-0.056839672905671365,0,70,255.0,255.0,255.0
184,9.200000000000001,-5.393648824417551,4.132799773596778,-2.6970558016354724,-0.18854597500287937,-0.07784148414948834,-0.5694070852271368,-0.01888487850609747,-0.006608313420956262,-0.058516380129354534,0,70,255.0,255.0,255.0
185,9.25,-5.4031,4.1289,-2.7256,-0.18950646297858698,-0.07813823967217107,-0.5723748219141966,-0.01953464052220788,-0.005261907486352468,-0.060193087353036745,0,70,255.0,255.0,255.0
186,9.3,-5.412599844863494,4.124986502588249,-2.754293384539235,-0.19048939983943383,-0.07840181767353258,-0.5753486013418493,-0.01978283391166649,-0.0052812125681080515,-0.05875808975306709,0,70,255.0,255.0,255.0
187,9.35,-5.422149146811769,4.121059802145079,-2.7831336643028517,-0.1914847463697536,-0.07866636092898187,-0.5782506308895033,-0.02003102730112509,-0.005300517649863634,-0.057323092153097485,0,70,255.0,255.0,255.0
188,9.4,-5.4317485263282945,4.117119850407782,-2.8121172517968516,-0.19249250256954636,-0.07893186943851895,-0.581080910557159,-0.020279220690583702,-0.0053198227316192176,-0.055888094553127834,0,70,255.0,255.0,255.0
189,9.450000000000001,-5.441398603896547,4.113166599113658,-2.8412405595272348,-0.193512668438812,-0.07919834320214379,-0.5838394403448162,-0.02052741408004231,-0.005339127813374801,-0.05445309695315818,0,70,255.0,255.0,255.0
190,9.5,-5.4511,4.1092,-2.8705,-0.19454524397755055,-0.07946578221985641,-0.5865262202524748,-0.020775607469500246,-0.00535843289513005,-0.0530180993531868,0,70,255.0,255.0,255.0
191,9.55,-5.460852547318392,4.105219484020552,-2.8998926766714725,-0.19554296096167695,-0.07976543350480331,-0.5891827072995396,-0.01913307189555573,-0.006627618502745665,-0.053241382529401804,0,70,255.0,255.0,255.0
192,9.600000000000001,-5.470652927316523,4.101222398994848,-2.929418456799268,-0.19645855116710614,-0.080128544070131,-0.591850358505415,-0.017490536321611214,-0.00789680411036128,-0.053464665705616816,0,70,255.0,255.0,255.0
193,9.65,-5.480497033655458,4.097205571958866,-2.959077898591327,-0.19729201459383808,-0.08055511391583943,-0.5945291738701012,-0.015848000747666756,-0.009165989717976851,-0.053687948881831815,0,70,255.0,255.0,255.0
194,9.700000000000001,-5.4903807599962615,4.09316582994859,-2.9888715602555913,-0.1980433512418728,-0.08104514304192867,-0.5972191533935982,-0.014205465173722242,-0.010435175325592466,-0.05391123205804683,0,70,255.0,255.0,255.0
195,9.75,-5.5003,4.0891,-3.0188,-0.19871256111121027,-0.08159863144839867,-0.5999202970759058,-0.012562929599777117,-0.011704360933208258,-0.05413451523425916,0,70,255.0,255.0,255.0
196,9.8,-5.5102523658629385,4.085005961329544,-3.0488639087748783,-0.19940275631385737,-0.08215244830725342,-0.6026405694599962,-0.015044878506106266,-0.010448313420981318,-0.054676380129354926,0,70,255.0,255.0,255.0
197,9.850000000000001,-5.520242343922141,4.080885801875534,-3.0790645085000796,-0.2002170489618209,-0.08264346279049682,-0.6053879350888414,-0.017526827412435414,-0.009192265908754379,-0.05521824502445069,0,70,255.0,255.0,255.0
198,9.9,-5.530276139049875,4.076742661756754,-3.1094031538378415,-0.20115543905510092,-0.08307167489812886,-0.6081623939624412,-0.020008776318764472,-0.007936218396527486,-0.055760109919546434,0,70,255.0,255.0,255.0
199,9.950000000000001,-5.540359956118406,4.072579681091982,-3.1398811994504032,-0.20221792659369736,-0.08343708463014957,-0.610963946080796,-0.02249072522509362,-0.006680170884300547,-0.0563019748146422,0,70,255.0,255.0,255.0
200,10.0,-5.5505,4.0684,-3.1705,-0.20340451157761025,-0.08373969198655892,-0.6137925914439054,-0.024972674131421346,-0.005424123372073764,-0.056843839709736166,0,70,255.0,255.0,255.0
201,10.05,-5.560700389229857,4.0642062706612725,-3.2012604882290177,-0.2045900137828967,-0.08400877326619428,-0.6166230148604774,-0.022447414080036997,-0.005339127813340426,-0.05637309695314431,0,70,255.0,255.0,255.0
202,10.100000000000001,-5.570956896994914,4.059999193503012,-3.232161909200418,-0.20564925298561396,-0.08427360476789297,-0.6194299011392199,-0.019922154028652644,-0.005254132254607089,-0.055902354196552456,0,70,255.0,255.0,255.0
203,10.15,-5.581263210145043,4.055778981014115,-3.263203086057309,-0.206582229185762,-0.08453418649165498,-0.6222132502801327,-0.017396893977268384,-0.005169136695873754,-0.05543161143996062,0,70,255.0,255.0,255.0
204,10.200000000000001,-5.591613015530114,4.05154584568348,-3.294382841942801,-0.2073889423833408,-0.08479051843748035,-0.6249730622832159,-0.014871633925884033,-0.005084141137140417,-0.05496086868336877,0,70,255.0,255.0,255.0
205,10.25,-5.602,4.0473,-3.3257,-0.2080693925783504,-0.08504260060536903,-0.6277093371484694,-0.012346373874499772,-0.004999145578407083,-0.054490125926770716,0,70,255.0,255.0,255.0
206,10.3,-5.612419677217636,4.043040956025364,-3.357153338309054,-0.20873318855455553,-0.08533245862796882,-0.6304193710980903,-0.014205465173705117,-0.006595175325584424,-0.05391123205806067,0,70,255.0,255.0,255.0
207,10.350000000000001,-5.622874868098206,4.038765424112413,-3.3887414546982524,-0.20948993909572092,-0.08570211813792748,-0.6331004603542756,-0.01606455647291046,-0.008191205072761765,-0.05333233818935062,0,70,255.0,255.0,255.0
208,10.4,-5.633370220369957,4.034469414186782,-3.420462901932924,-0.21033964420184656,-0.08615157913524499,-0.6357526049170253,-0.01792364777211574,-0.00978723481993905,-0.052753444320640594,0,70,255.0,255.0,255.0
209,10.450000000000001,-5.643910381761139,4.0301489361741005,-3.4523162327783976,-0.21128230387293248,-0.08668084161992137,-0.6383758047863396,-0.01978273907132108,-0.011383264567116393,-0.05217455045193054,0,70,255.0,255.0,255.0
210,10.5,-5.6545,4.0258,-3.4843,-0.21231791810897868,-0.08728990559195664,-0.6409700599622183,-0.021641830370526582,-0.012979294314293788,-0.05159565658321519,0,70,255.0,255.0,255.0
211,10.55,-5.665142501899601,4.021420305237273,-3.51641335853477,-0.2133732319988697,-0.08787739222192213,-0.6435715007471646,-0.0205707252251145,-0.010520170884325785,-0.052461974814632495,0,70,255.0,255.0,255.0
212,10.600000000000001,-5.675836430612265,4.017014310047332,-3.548657872006577,-0.21437499063149015,-0.08834192268038923,-0.6462162574436816,-0.01949962007970242,-0.00806104745435778,-0.0533282930460498,0,70,255.0,255.0,255.0
213,10.65,-5.6865791083751285,4.012588162238758,-3.5810357062109976,-0.21532319400683997,-0.08868349696735792,-0.6489043300517695,-0.018428514934290378,-0.005601924024389864,-0.05419461127746708,0,70,255.0,255.0,255.0
214,10.700000000000001,-5.697367857425329,4.008148009620122,-3.6135490269436135,-0.21621784212491918,-0.08890211508282822,-0.6516357185714283,-0.017357409788878297,-0.00314280059442186,-0.05506092950888439,0,70,255.0,255.0,255.0
215,10.75,-5.7082,4.0037,-3.6462,-0.21705893498572779,-0.0889977770268001,-0.654410423002658,-0.016286304643465366,-0.0006836771644537221,-0.055927247740298114,0,70,255.0,255.0,255.0
216,10.8,-5.7190735151839585,3.9992482230255493,-3.6789900275518685,-0.21788588344996185,-0.08909397248434006,-0.6571826259132496,-0.016791633925896273,-0.0031641411371448177,-0.05496086868336539,0,70,255.0,255.0,255.0
217,10.850000000000001,-5.729989009452731,3.9947885356982553,-3.711917457275445,-0.21873809837831742,-0.08931419114051459,-0.6599065098709946,-0.01729696320832718,-0.005644605109835913,-0.05399448962643267,0,70,255.0,255.0,255.0
218,10.9,-5.7409477461295255,3.990314736858187,-3.7449798732230866,-0.21961557977079454,-0.08965843299532365,-0.6625820748758928,-0.017802292490758067,-0.008125069082526921,-0.05302811056949998,0,70,255.0,255.0,255.0
219,10.950000000000001,-5.751950988537546,3.9858206253454127,-3.7781748594471534,-0.22051832762739323,-0.09012669804876729,-0.6652093209279445,-0.018307621773188974,-0.010605533055218016,-0.05206173151256726,0,70,255.0,255.0,255.0
220,11.0,-5.763,3.9813,-3.8115,-0.22144634194811344,-0.09071898630084545,-0.6677882480271494,-0.018812951055619864,-0.013085997027909468,-0.05109535245563013,0,70,255.0,255.0,255.0
221,11.05,-5.774095437364565,3.9767484026605313,-3.8449537312577595,-0.22236323420128667,-0.09133071784072089,-0.6703699955998386,-0.01786273907130885,-0.01138326456710814,-0.05217455045193643,0,70,255.0,255.0,255.0
222,11.100000000000001,-5.7852355315768085,3.972168347159645,-3.8785378988916484,-0.22323261585524434,-0.09185731275755628,-0.6730057030723432,-0.016912527086997836,-0.009680532106306813,-0.05325374844824274,0,70,255.0,255.0,255.0
223,11.15,-5.796417907106769,3.967564090328493,-3.912255200896657,-0.22405448690998644,-0.09229877105135158,-0.6756953704446629,-0.015962315102686857,-0.007977799645505546,-0.05433294644454901,0,70,255.0,255.0,255.0
224,11.200000000000001,-5.807640188424487,3.962939888998227,-3.9461083352677777,-0.22482884736551303,-0.09265509272210683,-0.6784389977167979,-0.015012103118375843,-0.006275067184704217,-0.055412144440855314,0,70,255.0,255.0,255.0
225,11.25,-5.8189,3.9583,-3.9801,-0.22555569722182403,-0.09292627776982201,-0.6812365848887484,-0.014061891134064863,-0.004572334723902616,-0.056491342437161585,0,70,255.0,255.0,255.0
226,11.3,-5.830195935357782,3.9536477663323244,-4.014231847417098,-0.2262931797448973,-0.09316715615278001,-0.6840253916873991,-0.015437409788865406,-0.005062800594417068,-0.05506092950886676,0,70,255.0,255.0,255.0
227,11.350000000000001,-5.841530464240035,3.9489828756631633,-4.048501347157967,-0.2270994382007106,-0.09343255782926373,-0.6867426778396352,-0.01681292844366595,-0.00555326646493152,-0.05363051658057195,0,70,255.0,255.0,255.0
228,11.4,-5.852907025443399,3.9443041018278397,-4.082904923190287,-0.22797447258926387,-0.09372248279927317,-0.6893884433454563,-0.01818844709846644,-0.006043732335445954,-0.052200103652277174,0,70,255.0,255.0,255.0
229,11.450000000000001,-5.8643290577645075,3.939610218661677,-4.117438999481739,-0.22891828291055724,-0.09403693106280833,-0.6919626882048628,-0.019563965753266983,-0.0065341982059604065,-0.05076969072398235,0,70,255.0,255.0,255.0
230,11.5,-5.8758,3.9349,-4.1521,-0.22993086916459057,-0.0943759026198692,-0.6944654124178546,-0.02093948440806792,-0.007024664076474396,-0.0493392777956867,0,70,255.0,255.0,255.0
231,11.55,-5.887322421204308,3.93017253201017,-4.186885279073853,-0.23096004681912236,-0.09472065754816153,-0.6969524376505613,-0.02022762177320171,-0.006765533055218449,-0.050141731512577094,0,70,255.0,255.0,255.0
232,11.600000000000001,-5.89889541146305,3.9254281501877015,-4.2217959124764874,-0.23195363134191077,-0.09505245592539106,-0.6994795855691124,-0.0195157591383355,-0.0065064020339625035,-0.05094418522946749,0,70,255.0,255.0,255.0
233,11.65,-5.910517191119637,3.9206675023601485,-4.2568339063421945,-0.23291162273295588,-0.09537129775155777,-0.7020468561735079,-0.018803896503469315,-0.006247271012706566,-0.05174663894635785,0,70,255.0,255.0,255.0
234,11.700000000000001,-5.922185980517483,3.9158912363550633,-4.2920012668052685,-0.2338340209922577,-0.0956771830266617,-0.7046542494637482,-0.018092033868603103,-0.0059881399914506195,-0.05254909266324825,0,70,255.0,255.0,255.0
235,11.75,-5.9339,3.9111,-4.3273,-0.23472082611981618,-0.09597011175070283,-0.7073017654398328,-0.017380171233737363,-0.005729008970194904,-0.05335154638013684,0,70,255.0,255.0,255.0
236,11.8,-5.945657579824985,3.906294105626996,-4.362731836287493,-0.2355786329786189,-0.09627021365457532,-0.7099728577103576,-0.016932103118371473,-0.006275067184704371,-0.05349214444085071,0,70,255.0,255.0,255.0
237,11.850000000000001,-5.957457489907767,3.90147252358603,-4.3982974029360875,-0.23641403643165335,-0.09659761846917328,-0.7126509798839179,-0.01648403500300558,-0.006821125399213839,-0.053632742501564586,0,70,255.0,255.0,255.0
238,11.9,-5.969298610078055,3.8966338887315666,-4.433997051440935,-0.23722703647891946,-0.0969523261944967,-0.7153361319605139,-0.016035966887639704,-0.007367183613723287,-0.05377334056227845,0,70,255.0,255.0,255.0
239,11.950000000000001,-5.981179820165561,3.8917768359180682,-4.469831133297189,-0.23801763312041732,-0.09733433683054561,-0.7180283139401458,-0.015587898772273814,-0.007913241828232755,-0.05391393862299232,0,70,255.0,255.0,255.0
240,12.0,-5.9931,3.8869,-4.5058,-0.23878582635614687,-0.09774365037731997,-0.7207275258228131,-0.015139830656909048,-0.008459300042741758,-0.054054536683703525,0,70,255.0,255.0,255.0
241,12.05,-6.005058459495752,3.882002245481846,-4.5419033757761795,-0.2395574212664011,-0.0981664878335374,-0.7233961315080052,-0.01572396575325926,-0.008454198205955521,-0.05268969072397789,0,70,255.0,255.0,255.0
242,12.100000000000001,-6.017056228905887,3.8770833554681765,-4.578138475779168,-0.2403582229314728,-0.09858907019791553,-0.7259964948952109,-0.01630810084960947,-0.008449096369169285,-0.05132484476425226,0,70,255.0,255.0,255.0
243,12.15,-6.029094768568147,3.8721433427135845,-4.6145018878940665,-0.24118823135136203,-0.09901139747045433,-0.7285286159844304,-0.01689223594595966,-0.008443994532383047,-0.04995999880452667,0,70,255.0,255.0,255.0
244,12.200000000000001,-6.041175538820271,3.867182219972662,-4.650990200005978,-0.24204744652606877,-0.09943346965115384,-0.7309924947756635,-0.01747637104230987,-0.008438892695596811,-0.048595152844801044,0,70,255.0,255.0,255.0
245,12.25,-6.0533,3.8622,-4.6876,-0.24293586845559303,-0.09985528674001401,-0.7333881312689104,-0.018060506138660726,-0.008433790858809909,-0.04723030688507723,0,70,255.0,255.0,255.0
246,12.3,-6.065469382192007,3.85719691244562,-4.7243290606077935,-0.24383968195577507,-0.10026383501127063,-0.7357866162576189,-0.018092033868620263,-0.00790813999145458,-0.048709092663257736,0,70,255.0,255.0,255.0
247,12.350000000000001,-6.0776839944686865,3.8521740545412624,-4.761179893947244,-0.2447450718424551,-0.10064610073915947,-0.7382590405352363,-0.018123561598579797,-0.0073824891240992525,-0.05018787844143824,0,70,255.0,255.0,255.0
248,12.4,-6.0899439156493615,3.847132740414094,-4.798156196982798,-0.24565203811563305,-0.10100208392368056,-0.7408054041017627,-0.01815508932853933,-0.006856838256743943,-0.051666664219618685,0,70,255.0,255.0,255.0
249,12.450000000000001,-6.102249224553358,3.8420742841912836,-4.8352616666789014,-0.246560580775309,-0.10133178456483387,-0.7434257069571982,-0.018186617058498868,-0.006331187389388615,-0.05314544999779919,0,70,255.0,255.0,255.0
250,12.5,-6.1146,3.837,-4.8725,-0.24747069982148293,-0.10163520266261941,-0.7461199491015427,-0.018218144788457957,-0.005805536522032861,-0.05462423577597697,0,70,255.0,255.0,255.0
251,12.55,-6.12699601173622,3.8319109047356723,-4.90987398179265,-0.2483638509105007,-0.10193017212137638,-0.7488334034615168,-0.01750789877225255,-0.005993241828245524,-0.05391393862298876,0,70,255.0,255.0,255.0
252,12.600000000000001,-6.139435793219371,3.826806826366774,-4.947382748431858,-0.24922148969870822,-0.10223452684544397,-0.7515113429638416,-0.016797652756047145,-0.006180947134458187,-0.05320364147000054,0,70,255.0,255.0,255.0
253,12.65,-6.151917568834411,3.8216872956300394,-4.98502452417474,-0.2500436161861054,-0.10254826683482218,-0.7541537676085169,-0.016087406739841763,-0.0063686524406708425,-0.05249334431701235,0,70,255.0,255.0,255.0
254,12.700000000000001,-6.164439562966301,3.816551843262203,-5.022797533278415,-0.2508302303726924,-0.10287139208951106,-0.7567606773955429,-0.015377160723636358,-0.006556357746883505,-0.05178304716402414,0,70,255.0,255.0,255.0
255,12.75,-6.177,3.8114,-5.0607,-0.251581332258469,-0.10320390260951053,-0.7593320723249192,-0.014666914707430756,-0.006744063053095606,-0.051072750011033285,0,70,255.0,255.0,255.0
256,12.8,-6.189597770863114,3.8062314686116903,-5.098730212221608,-0.25233691440221306,-0.10353547650322752,-0.7618717698963154,-0.01555637104233193,-0.006518892695583897,-0.05051515284481435,0,70,255.0,255.0,255.0
257,12.850000000000001,-6.202234432653834,3.801046639991642,-5.136886712325327,-0.2531369693627022,-0.10385579187906893,-0.7643835876094007,-0.016445827377233106,-0.006293722338072187,-0.04995755567859542,0,70,255.0,255.0,255.0
258,12.9,-6.214912209012996,3.795846077065748,-5.175168106318242,-0.2539814971399364,-0.10416484873703473,-0.7668675254641749,-0.017335283712134247,-0.006068551980560486,-0.0493999585123765,0,70,255.0,255.0,255.0
259,12.950000000000001,-6.227633323581439,3.7906303427599024,-5.21357300020744,-0.2548704977339156,-0.10446264707712496,-0.7693235834606383,-0.018224740047035424,-0.005843381623048777,-0.04884236134615757,0,70,255.0,255.0,255.0
260,13.0,-6.2404,3.7854,-5.2521,-0.25580397114463993,-0.10474918689933961,-0.7717517615987906,-0.01911419638193479,-0.005618211265537076,-0.048284764179934214,0,70,255.0,255.0,255.0
261,13.05,-6.2532137048113245,3.780155220817566,-5.290748369320923,-0.25673649148065075,-0.10504792186571275,-0.7741915169532333,-0.01818661705849801,-0.006331187389388569,-0.04930544999777277,0,70,255.0,255.0,255.0
262,13.100000000000001,-6.266072876165296,3.7748946136666586,-5.32952000226684,-0.25762263285048975,-0.10538230563827848,-0.7766823065985679,-0.01725903773506123,-0.007044163513240062,-0.05032613581561132,0,70,255.0,255.0,255.0
263,13.15,-6.278975195113604,3.7696163961069686,-5.368417450552294,-0.2584623952541569,-0.10575233821703676,-0.7792241305347943,-0.01633145841162448,-0.00775713963709153,-0.05134682163344984,0,70,255.0,255.0,255.0
264,13.200000000000001,-6.291918342707942,3.764318785698185,-5.407443265891834,-0.25925577869165223,-0.10615801960198762,-0.7818169887619129,-0.015403879088187702,-0.008470115760943024,-0.052367507451288396,0,70,255.0,255.0,255.0
265,13.25,-6.3049,3.759,-5.4466,-0.26000278316297565,-0.10659934979313106,-0.7844608812799231,-0.014476299764749179,-0.00918309188479427,-0.053388193269122475,0,70,255.0,255.0,255.0
266,13.3,-6.317918609891588,3.753658848118045,-5.485889110494706,-0.2607491196751849,-0.1070408360339231,-0.7870901622907518,-0.015377160723618756,-0.008476357746887165,-0.051783047164022177,0,70,255.0,255.0,255.0
267,13.350000000000001,-6.330975662684985,3.7482965053417225,-5.525307678607322,-0.26154049923533756,-0.10744698556781979,-0.7896391859963253,-0.016278021682488333,-0.007769623608980061,-0.05017790105892188,0,70,255.0,255.0,255.0
268,13.4,-6.344073410532587,3.742914738506378,-5.564851691472584,-0.2623769218434337,-0.10781779839482111,-0.7921079523966439,-0.01717888264135788,-0.007062889471072981,-0.04857275495382164,0,70,255.0,255.0,255.0
269,13.450000000000001,-6.3572141055867935,3.7375153144473554,-5.604517136225232,-0.26325838749947333,-0.10815327451492708,-0.7944964614917075,-0.018079743600227457,-0.0063561553331658764,-0.046967608848721344,0,70,255.0,255.0,255.0
270,13.5,-6.3704,3.7321,-5.6443,-0.2641848962034564,-0.10845341392813769,-0.796804713281516,-0.018980604559095227,-0.005649421195259019,-0.045362462743619325,0,70,255.0,255.0,255.0
271,13.55,-6.383632655622325,3.726670186710254,-5.684197588700257,-0.2651150298186101,-0.10874073399859517,-0.7991118338837605,-0.01822474004705138,-0.005843381623040392,-0.046922361346159944,0,70,255.0,255.0,255.0
272,13.600000000000001,-6.396910873094768,3.7212257649664506,-5.72421248330388,-0.2660073702081616,-0.10903775209044174,-0.8014969494161321,-0.017468875535007533,-0.0060373420508217646,-0.04848225994870057,0,70,255.0,255.0,255.0
273,13.65,-6.410232762756047,3.71576624986752,-5.764348583557372,-0.26686191737211085,-0.10934446820367735,-0.8039600598786306,-0.016713011022963714,-0.00623130247860313,-0.05004215855124113,0,70,255.0,255.0,255.0
274,13.700000000000001,-6.423596434944885,3.710291156512393,-5.804609789207245,-0.26767867131045797,-0.10966088233830204,-0.8065011652712561,-0.015957146510919867,-0.006425262906384503,-0.05160205715378176,0,70,255.0,255.0,255.0
275,13.75,-6.437,3.7048,-5.845,-0.26845763202320283,-0.1099869944943158,-0.8091202655940087,-0.015201281998877825,-0.006619223334165203,-0.05316195575632232,0,70,255.0,255.0,255.0
276,13.8,-6.450441967619113,3.699292405040939,-5.885522134704269,-0.26922276105037907,-0.11031622797169383,-0.811758502174199,-0.015403879088171027,-0.00655011576095561,-0.05236750745128641,0,70,255.0,255.0,255.0
277,13.850000000000001,-6.463922444935946,3.6937684347924753,-5.926175188177167,-0.26999801993201994,-0.11064200607041137,-0.8143570163391375,-0.01560647617746423,-0.006481008187746016,-0.0515730591462505,0,70,255.0,255.0,255.0
278,13.9,-6.4774419384432225,3.688228262023542,-5.966957174297928,-0.27078340866812545,-0.11096432879046843,-0.816915808088824,-0.015809073266757425,-0.006411900614536425,-0.050778610841214614,0,70,255.0,255.0,255.0
279,13.950000000000001,-6.491000954633667,3.682672059503073,-6.007866106945794,-0.2715789272586957,-0.11128319613186502,-0.8194348774232589,-0.016011670356050625,-0.006342793041326832,-0.049984162536178704,0,70,255.0,255.0,255.0
280,14.0,-6.5046,3.6771,-6.0489,-0.27238457570373054,-0.11159860809460112,-0.8219142243424419,-0.01621426744534471,-0.006273685468116907,-0.049189714231137494,0,70,255.0,255.0,255.0
281,14.05,-6.518239473901224,3.671512193125991,-6.090057072482669,-0.2731939259798699,-0.11191435411463298,-0.8243661574194386,-0.016159743600231202,-0.0063561553331573884,-0.048887608848731105,0,70,255.0,255.0,255.0
282,14.100000000000001,-6.531919347161449,3.6659084958636488,-6.13133636398746,-0.2740005500637537,-0.11223422362791687,-0.8268029852273151,-0.016105219755117695,-0.0064386251981978695,-0.048585503466324724,0,70,255.0,255.0,255.0
283,14.15,-6.545639483471062,3.6602887020383115,-6.1727371192509155,-0.2748044479553817,-0.11255821663445277,-0.8292247077660712,-0.016050695910004187,-0.006521095063238348,-0.04828339808391835,0,70,255.0,255.0,255.0
284,14.200000000000001,-6.559399746520451,3.654652605475316,-6.214258583009581,-0.27560561965475405,-0.11288633313424071,-0.8316313250357068,-0.01599617206489068,-0.006603564928278828,-0.04798129270151196,0,70,255.0,255.0,255.0
285,14.25,-6.5732,3.649,-6.2559,-0.2764040651618708,-0.11321857312728063,-0.8340228370362222,-0.015941648219776727,-0.0066860347933194175,-0.047679187319101146,0,70,255.0,255.0,255.0
286,14.3,-6.58704013677599,3.6433308224550975,-6.297660775365058,-0.27720153503013867,-0.11354635556977323,-0.8364088681480445,-0.015957146510937027,-0.006425262906384406,-0.0477620571537905,0,70,255.0,255.0,255.0
287,14.350000000000001,-6.600920166418257,3.6376455817529285,-6.339540955873002,-0.2779997798129646,-0.11386109941791908,-0.8387990427516012,-0.015972644802097324,-0.0061644910194493955,-0.04784492698847984,0,70,255.0,255.0,255.0
288,14.4,-6.614840127672529,3.631944929823211,-6.381540748698414,-0.2787987995103484,-0.11416280467171817,-0.8411933608468924,-0.015988143093257624,-0.0059037191325143935,-0.04792779682316919,0,70,255.0,255.0,255.0
289,14.450000000000001,-6.628800059284534,3.6262295185956623,-6.423660361015886,-0.2795985941222903,-0.11445147133117052,-0.8435918224339182,-0.01600364138441792,-0.005642947245579383,-0.04801066665785854,0,70,255.0,255.0,255.0
290,14.5,-6.6428,3.6205,-6.4659,-0.28039916364879014,-0.11472709939627611,-0.8459944275126784,-0.016019139675577776,-0.005382175358643715,-0.04809353649255055,0,70,255.0,255.0,255.0
291,14.55,-6.656839978994818,3.61475651705362,-6.5082598260571025,-0.2811999338995805,-0.11502022360627537,-0.8483983699883959,-0.016011670356034104,-0.006342793041326491,-0.04806416253614838,0,70,255.0,255.0,255.0
292,14.600000000000001,-6.670919987165526,3.6089971771246363,-6.550739812520544,-0.2820003306843936,-0.11536137870040876,-0.8508008437662934,-0.016004201036490428,-0.007303410724009268,-0.04803478857974621,0,70,255.0,255.0,255.0
293,14.65,-6.6850400058388235,3.6032195786688437,-6.593339885955435,-0.2828003540032295,-0.11575056467867628,-0.8532018488463705,-0.015996731716946756,-0.00826402840669201,-0.048005414623344046,0,70,255.0,255.0,255.0
294,14.700000000000001,-6.6992000163414165,3.5974213201420335,-6.636059972926884,-0.28360000385608825,-0.11618778154107796,-0.8556013852286276,-0.01598926239740308,-0.009224646089374787,-0.047976040666941874,0,70,255.0,255.0,255.0
295,14.75,-6.7134,3.5916,-6.6789,-0.28439928024296984,-0.11667302928761376,-0.8579994529130646,-0.01598179307786074,-0.010185263772057085,-0.04794666671053527,0,70,255.0,255.0,255.0
296,14.8,-6.727639947244741,3.5857543093304227,-6.721859920406539,-0.2851987293715386,-0.11714075000512227,-0.8603976518983657,-0.015996172064891123,-0.008523564928282788,-0.04798129270150788,0,70,255.0,255.0,255.0
297,14.850000000000001,-6.741919884919644,3.579887309748524,-6.76493979404483,-0.285998897449459,-0.11752538578044205,-0.8627975821832153,-0.016010551051921507,-0.006861866084508492,-0.0480159186924805,0,70,255.0,255.0,255.0
298,14.9,-6.756239848972175,3.574003155501415,-6.808139707479852,-0.2867997844767308,-0.11782693661357312,-0.8651992437676137,-0.01602493003895189,-0.005200167240734254,-0.048050544683453114,0,70,255.0,255.0,255.0
299,14.950000000000001,-6.770599875349806,3.5681060008362033,-6.851459747276583,-0.28760139045335414,-0.11804540250451548,-0.8676026366515607,-0.016039309025982273,-0.0035384683969599574,-0.04808517067442573,0,70,255.0,255.0,255.0
300,15.0,-6.785,3.5622,-6.8949,-0.288403715379329,-0.11818078345326911,-0.8700077608350564,-0.016053688013013545,-0.0018767695531857198,-0.04811979666539745,0,70,255.0,255.0,255.0
301,15.05,-6.799440232026221,3.556287845624689,-6.938460492316748,-0.2892051486142648,-0.11832077637323814,-0.8724110224181387,-0.016003641384417566,-0.003722947245575185,-0.04801066665789424,0,70,255.0,255.0,255.0
302,15.100000000000001,-6.813920473155903,3.5503663838812654,-6.982141011300142,-0.2900040795177708,-0.11855307817782663,-0.8748088275008459,-0.015953594755821587,-0.00556912493796465,-0.04790153665039103,0,70,255.0,255.0,255.0
303,15.15,-6.828440598272474,3.5444309993254968,-7.02594128412516,-0.290800508089847,-0.11887768886703459,-0.8772011760831778,-0.01590354812722561,-0.0074153026303540506,-0.047792406642887815,0,70,255.0,255.0,255.0
304,15.200000000000001,-6.843000482259364,3.5384770765131517,-7.0698610379667866,-0.2915944343304933,-0.11929460844086204,-0.8795880681651347,-0.01585350149862963,-0.009261480322743515,-0.0476832766353846,0,70,255.0,255.0,255.0
305,15.25,-6.8576,3.5325,-7.1139,-0.29238585823971,-0.11980383689930893,-0.8819695037467161,-0.015803454870034095,-0.011107658015132582,-0.04757414662788051,0,70,255.0,255.0,255.0
306,15.3,-6.872239124650376,3.5264967081708183,-7.158058110326471,-0.2931806761713959,-0.12031214450192163,-0.8843582584290859,-0.015989262397403618,-0.009224646089374495,-0.04797604066690582,0,70,255.0,255.0,255.0
307,15.350000000000001,-6.886918222456746,3.5204703547264122,-7.2023361607546095,-0.29398478447945037,-0.12072630150824638,-0.8867671078134067,-0.01617506992477314,-0.007341634163616408,-0.04837793470593114,0,70,255.0,255.0,255.0
308,15.4,-6.9016377579379276,3.5144256471965982,-7.24673515601951,-0.29479818316387324,-0.12104630791828325,-0.889196051899679,-0.016360877452142653,-0.005458622237858388,-0.048779828744956434,0,70,255.0,255.0,255.0
309,15.450000000000001,-6.9163981956127385,3.508367293111189,-7.291256100856276,-0.2956208722246646,-0.12127216373203223,-0.8916450906879023,-0.016546684979512175,-0.0035756103121003012,-0.04918172278398175,0,70,255.0,255.0,255.0
310,15.5,-6.9312,3.5023,-7.3359,-0.29645285166182445,-0.12140386894949329,-0.8941142241780772,-0.01673249250688258,-0.001692598386342059,-0.049583616823004384,0,70,255.0,255.0,255.0
311,15.55,-6.946043269372273,3.496226921692038,-7.380667066377371,-0.2972721467001465,-0.12153464561907605,-0.8965559438655134,-0.01603930902599994,-0.0035384683969685235,-0.04808517067444151,0,70,255.0,255.0,255.0
312,15.600000000000001,-6.9609266370171134,3.4901449972130836,-7.425554345681429,-0.29805678256442447,-0.12175771578919015,-0.8989227412455213,-0.015346125545117297,-0.005384338407594988,-0.04658672452587864,0,70,255.0,255.0,255.0
313,15.65,-6.975848369975816,3.4840496118881097,-7.470558091796799,-0.29880675925465827,-0.12207307945983555,-0.9012146163181012,-0.014652942064234682,-0.0072302084182213865,-0.04508827837731583,0,70,255.0,255.0,255.0
314,15.700000000000001,-6.990806735289679,3.477936151042091,-7.515674558608114,-0.2995220767708479,-0.12248073663101229,-0.903431569083253,-0.013959758583352041,-0.009076078428847851,-0.043589832228752956,0,70,255.0,255.0,255.0
315,15.75,-7.0058,3.4718,-7.5609,-0.30020273511299345,-0.12298068730272034,-0.9055735995409765,-0.013266575102469425,-0.010921948439473916,-0.04209138608018481,0,70,255.0,255.0,255.0
316,15.8,-7.020826997860526,3.46563800506103,-7.606232024164048,-0.30088273702802065,-0.12348527302177556,-0.9077219661088659,-0.013933501498617327,-0.00926148032273457,-0.043843276635391094,0,70,255.0,255.0,255.0
317,15.850000000000001,-7.0358888294748,3.459452856421253,-7.651673656519685,-0.3015960852628552,-0.1239068353349938,-0.9099579272045156,-0.01460042789476523,-0.007601012205995225,-0.04559516719059738,0,70,255.0,255.0,255.0
318,15.9,-7.050987162158808,3.453248705250961,-7.697229276793295,-0.30234277981749713,-0.12424537424237508,-0.9122814828279256,-0.01526735429091311,-0.0059405440892559384,-0.047347057745803604,0,70,255.0,255.0,255.0
319,15.950000000000001,-7.066123663228545,3.447029702720446,-7.742903264711272,-0.30312282069194646,-0.1245008897439194,-0.9146926329790961,-0.01593428068706101,-0.004280075972516593,-0.04909894830100989,0,70,255.0,255.0,255.0
320,16.0,-7.0813,3.4408,-7.7887,-0.30393620788620324,-0.12467338183962674,-0.9171913776580266,-0.016601207083208003,-0.002619607855777306,-0.05085083885621611,0,70,255.0,255.0,255.0
321,16.05,-7.096517539185621,3.434562658063842,-7.834622436966442,-0.3047649051877712,-0.1248282622938237,-0.9196921916990313,-0.016546684979512172,-0.0035756103121003325,-0.049181722783965195,0,70,255.0,255.0,255.0
322,16.1,-7.111776445083691,3.4283163771019036,-7.880667828239844,-0.3055908763841545,-0.12503094287083677,-0.9221095499364232,-0.01649216287581634,-0.004531612768423359,-0.047512606711714284,0,70,255.0,255.0,255.0
323,16.150000000000002,-7.12707658138895,3.422058767108044,-7.926832001030027,-0.3064141214753529,-0.12528142357066602,-0.9244434523702028,-0.016437640772120506,-0.005487615224746386,-0.04584349063946337,0,70,255.0,255.0,255.0
324,16.2,-7.142417811796139,3.415787438076124,-7.973110782546803,-0.3072346404613665,-0.1255797043933114,-0.9266938990003694,-0.01638311866842468,-0.006443617681069344,-0.044174374567212585,0,70,255.0,255.0,255.0
325,16.25,-7.1578,3.4095,-8.0195,-0.3080524333421953,-0.12592578533877297,-0.9288608898269239,-0.016328596564727516,-0.007399620137392482,-0.04250525849496256,0,70,255.0,255.0,255.0
326,16.3,-7.17322284539699,3.4031945626836015,-8.065996627970188,-0.3088576422208972,-0.12628967780292888,-0.9310132670950163,-0.015879758583347486,-0.007156078428843667,-0.043589832228733645,0,70,255.0,255.0,255.0
327,16.35,-7.188685390190439,3.3968712351711305,-8.112602230520949,-0.30964040920053004,-0.12664139318165735,-0.9332198730497974,-0.015430920601967456,-0.006912536720294853,-0.04467440596250472,0,70,255.0,255.0,255.0
328,16.400000000000002,-7.204186512285393,3.3905306263168593,-8.159319519086614,-0.31040073428109394,-0.12698093147495837,-0.9354807076912669,-0.014982082620587426,-0.006668995011746038,-0.045758979696275806,0,70,255.0,255.0,255.0
329,16.45,-7.2197250895868965,3.3841733449750593,-8.206151205101518,-0.3111386174625888,-0.12730829268283192,-0.9377957710194249,-0.014533244639207427,-0.006425453303197241,-0.04684355343004681,0,70,255.0,255.0,255.0
330,16.5,-7.2353,3.3778,-8.2531,-0.3118540587450147,-0.1276234768052781,-0.9401650630342715,-0.014084406657827842,-0.006181911594648204,-0.04792812716381434,0,70,255.0,255.0,255.0
331,16.55,-7.250910279226419,3.371411091201752,-8.30016785115281,-0.31255652592863703,-0.12793302649445754,-0.9425427399208922,-0.014014280687065294,-0.006200075972528962,-0.04717894830101271,0,70,255.0,255.0,255.0
332,16.6,-7.266555594154555,3.365006682213573,-8.347353649676371,-0.3132554868137213,-0.128243484402531,-0.9448829578643729,-0.013944154716302747,-0.006218240350409721,-0.04642976943821109,0,70,255.0,255.0,255.0
333,16.650000000000002,-7.282235769469483,3.358586727624517,-8.394655522623527,-0.3139509414002673,-0.1285548505294985,-0.9471857168647134,-0.013874028745540197,-0.006236404728290479,-0.04568059057540946,0,70,255.0,255.0,255.0
334,16.7,-7.297950629856272,3.352151182023641,-8.442071597047121,-0.31464288968827525,-0.12886712487536006,-0.9494510169219137,-0.013803902774777655,-0.0062545691061712365,-0.044931411712607894,0,70,255.0,255.0,255.0
335,16.75,-7.3137,3.3457,-8.4896,-0.3153313316777451,-0.1291803074401156,-0.9516788580359741,-0.013733776804015108,-0.006272733484050885,-0.044182232849802716,0,70,255.0,255.0,255.0
336,16.8,-7.329484037697336,3.33923307250939,-8.537239167418576,-0.3160362540645562,-0.1294982162192434,-0.9538877732214003,-0.014463118668428275,-0.006443617681060679,-0.04417437456724684,0,70,255.0,255.0,255.0
337,16.85,-7.345304233191343,3.332750035974578,-8.584988770773572,-0.31677764354458793,-0.12982466920822167,-0.9560962954926988,-0.015192460532841444,-0.006614501878070471,-0.04416651628469097,0,70,255.0,255.0,255.0
338,16.900000000000002,-7.361162409836682,3.3262504631850702,-8.63284879041928,-0.31755550011784034,-0.13015966640705046,-0.9583044248498694,-0.01592180239725461,-0.006785386075080265,-0.0441586580021351,0,70,255.0,255.0,255.0
339,16.95,-7.377060390988014,3.3197339269303754,-8.680819206709987,-0.31836982378431333,-0.1305032078157297,-0.9605121612929123,-0.01665114426166773,-0.0069562702720900454,-0.04415079971957923,0,70,255.0,255.0,255.0
340,17.0,-7.393,3.3132,-8.7289,-0.31922061454400713,-0.13085529343425942,-0.9627195048218272,-0.017380486126080452,-0.007127154469098729,-0.04414294143702069,0,70,255.0,255.0,255.0
341,17.05,-7.408982369984238,3.3066486187606863,-8.777091479172883,-0.32006645781313925,-0.1311941086285668,-0.964946167193504,-0.016453244639202932,-0.006425453303197183,-0.04492355343005007,0,70,255.0,255.0,255.0
342,17.1,-7.425005873080075,3.3000811738881146,-8.825395267229345,-0.3208659390079274,-0.13149783876457913,-0.9672118601648323,-0.015526003152325414,-0.005723752137295637,-0.045704165423079444,0,70,255.0,255.0,255.0
343,17.150000000000002,-7.441068191183792,3.2934994196352,-8.873813315699365,-0.32161905812837177,-0.13176648384229642,-0.9695165837358121,-0.014598761665447895,-0.00502205097139409,-0.046484777416108826,0,70,255.0,255.0,255.0
344,17.2,-7.457167006191672,3.286905110254857,-8.92234757611292,-0.32232581517447223,-0.13200004386171854,-0.971860337906443,-0.013671520178570443,-0.004320349805492595,-0.047265389409138145,0,70,255.0,255.0,255.0
345,17.25,-7.4733,3.2803,-8.971,-0.32298621014622875,-0.13219851882284564,-0.9742431226767256,-0.012744278691690702,-0.003618648639591049,-0.04804600140216486,0,70,255.0,255.0,255.0
346,17.3,-7.4894656823657115,3.2736852524478635,-9.019771715889885,-0.32364991468289045,-0.1323973492664898,-0.9766155580045941,-0.013803902774777136,-0.004334569106175367,-0.04685141171256786,0,70,255.0,255.0,255.0
347,17.35,-7.5056658744883595,3.267059668472962,-9.068660560309052,-0.32436660042370646,-0.1326319757334632,-0.9789282638479825,-0.01486352685786357,-0.005050489572759685,-0.04565682202297087,0,70,255.0,255.0,255.0
348,17.400000000000002,-7.521903225428151,3.2604214582741284,-9.117663546783279,-0.32513626736867685,-0.1329023982237658,-0.9811812402068912,-0.015923150940950006,-0.0057664100393440025,-0.04446223233337387,0,70,255.0,255.0,255.0
349,17.45,-7.538180384245295,3.253768832050197,-9.166777688838334,-0.32595891551780143,-0.13320861673739756,-0.9833744870813197,-0.016982775024036362,-0.0064823305059282695,-0.04326764264377696,0,70,255.0,255.0,255.0
350,17.5,-7.5545,3.2471,-9.216,-0.3268345448710804,-0.13355063127435862,-0.9855080044712687,-0.018042399107121465,-0.0071982509725123656,-0.042073052954185286,0,70,255.0,255.0,255.0
351,17.55,-7.570863700552919,3.240413571447858,-9.265328057267576,-0.32770188345530016,-0.1339044943054737,-0.9876156007881131,-0.016651144261667986,-0.006956270272089246,-0.042230799719584766,0,70,255.0,255.0,255.0
352,17.6,-7.587269028966493,3.233709752220036,-9.31476169153445,-0.32849965929724717,-0.13424625830156756,-0.9897310844432272,-0.015259889416214506,-0.006714289571666125,-0.04238854648498425,0,70,255.0,255.0,255.0
353,17.650000000000002,-7.603712507103607,3.226989147268285,-9.364301297167538,-0.3292278723969216,-0.13457592326264028,-0.9918544554366114,-0.013868634570761026,-0.006472308871243005,-0.042546293250383733,0,70,255.0,255.0,255.0
354,17.7,-7.6201906568271465,3.2202523615443566,-9.413947268533747,-0.3298865227543233,-0.13489348918869185,-0.9939857137682656,-0.012477379725307644,-0.006230328170819902,-0.04270404001578321,0,70,255.0,255.0,255.0
355,17.75,-7.6367,3.2135,-9.4637,-0.33047561036945233,-0.13519895607972227,-0.9961248594381897,-0.011086124879854165,-0.005988347470396782,-0.042861786781179134,0,70,255.0,255.0,255.0
356,17.8,-7.653237915422615,3.2067324617607027,-9.513560055039813,-0.3310465514959126,-0.1355046735116194,-0.9982820388429486,-0.011751520178556971,-0.006240349805488158,-0.04342538940917714,0,70,255.0,255.0,255.0
357,17.85,-7.6698052096456735,3.1999493226468916,-9.563528673553153,-0.33165076238730806,-0.1358229910602711,-1.0004673983791075,-0.01241691547725978,-0.006492352140579534,-0.04398899203717514,0,70,255.0,255.0,255.0
358,17.900000000000002,-7.686403546157428,3.1931499526527296,-9.613607264546582,-0.33228824304363863,-0.13615390872567734,-1.0026809380466661,-0.013082310775962586,-0.00674435447567091,-0.04455259466517314,0,70,255.0,255.0,255.0
359,17.95,-7.703034588446119,3.186333721772378,-9.663797237026673,-0.33295899346490426,-0.13649742650783817,-1.0049226578456247,-0.013747706074665345,-0.0069963568107622685,-0.0451161972931711,0,70,255.0,255.0,255.0
360,18.0,-7.7197,3.1795,-9.7141,-0.3336630136511051,-0.13685354440675357,-1.0071925577759833,-0.014413101373369042,-0.007248359145854089,-0.04567979992117266,0,70,255.0,255.0,255.0
361,18.05,-7.736401437756626,3.1726485815093297,-9.764516522573167,-0.3343999105610408,-0.13719681164804814,-1.0094642438401062,-0.015062775024057472,-0.0064823305059284915,-0.045187642643742615,0,70,255.0,255.0,255.0
362,18.1,-7.7531405324508125,3.165780957192395,-9.815046014252948,-0.3351692911535109,-0.13750177745734643,-1.0117113220403575,-0.015712448674745902,-0.0057163018660028935,-0.04469548536631257,0,70,255.0,255.0,255.0
363,18.150000000000002,-7.769918908266686,3.1588990421207948,-9.865687244646141,-0.3359711554285154,-0.13776844183464845,-1.0139337923767375,-0.016362122325434332,-0.004950273226077296,-0.04420332808888252,0,70,255.0,255.0,255.0
364,18.2,-7.786738189388372,3.1520047513661305,-9.916438983359555,-0.33680550338605425,-0.13799680477995413,-1.0161316548492456,-0.017011795976122714,-0.004184244586151752,-0.04371117081145251,0,70,255.0,255.0,255.0
365,18.25,-7.8036,3.1451,-9.9673,-0.33767233502612765,-0.1381868662932636,-1.0183049094578827,-0.017661469626809367,-0.003418215946226155,-0.04321901353401536,0,70,255.0,255.0,255.0
366,18.3,-7.820505133550881,3.138186012201977,-10.018269054667513,-0.33852180625993034,-0.13838007989618986,-1.0204529857966276,-0.016317379725297766,-0.004310328170824297,-0.042704040015778225,0,70,255.0,255.0,255.0
367,18.35,-7.837451060551076,3.131261248583527,-10.069344869435065,-0.33930407299865745,-0.13861789911034603,-1.0225753134594604,-0.014973289823786168,-0.00520244039542244,-0.04218906649754109,0,70,255.0,255.0,255.0
368,18.400000000000002,-7.85443442077583,3.124323478864088,-10.120526156868861,-0.340019135242309,-0.1389003239357321,-1.0246718924463816,-0.013629199922274569,-0.006094552620020581,-0.04167409297930395,0,70,255.0,255.0,255.0
369,18.45,-7.871451854000388,3.1173704727631,-10.171811629535103,-0.3406669929908849,-0.1392273543723481,-1.0267427227573909,-0.012285110020763065,-0.00698666484461866,-0.04115911946106686,0,70,255.0,255.0,255.0
370,18.5,-7.8885,3.1104,-10.2232,-0.34124764624438525,-0.13959899042019394,-1.0287878043924883,-0.010941020119252354,-0.007878777069217024,-0.04064414594282617,0,70,255.0,255.0,255.0
371,18.55,-7.905576428039849,3.103410569682761,-10.274690458756785,-0.3418168643992329,-0.13997086876719322,-1.0308358129733883,-0.011827706074653856,-0.006996356810754133,-0.041276197293181494,0,70,255.0,255.0,255.0
372,18.6,-7.9226824253448855,3.0964036484734954,-10.3262841080068,-0.3424304168518506,-0.14029862610126936,-1.0329154241218066,-0.012714392030055357,-0.006113936552291241,-0.04190824864353681,0,70,255.0,255.0,255.0
373,18.650000000000002,-7.939820208629999,3.0893814424228494,-10.377982527878423,-0.34308830360223846,-0.14058226242242236,-1.0350266378377422,-0.01360107798545686,-0.005231516293828349,-0.04254029999389213,0,70,255.0,255.0,255.0
374,18.7,-7.956991994610072,3.082346157581469,-10.42978729850003,-0.3437905246503963,-0.1408217777306522,-1.0371694541211958,-0.014487763940858298,-0.00434909603536552,-0.043172351344247406,0,70,255.0,255.0,255.0
375,18.75,-7.9742,3.0753,-10.4817,-0.34453707999632427,-0.14101717202595893,-1.039343872972167,-0.015374449896258913,-0.00346667577690285,-0.04380440269460273,0,70,255.0,255.0,255.0
376,18.8,-7.99144595428972,3.0682445090669765,-10.53372191030536,-0.3452987361431348,-0.14120844503503552,-1.0415317623098181,-0.015091795976160057,-0.00418424458616019,-0.04371117081145037,0,70,255.0,255.0,255.0
377,18.85,-8.008729638069381,3.061178557522488,-10.585853098537749,-0.3460462595939403,-0.14143559648457493,-1.043714990053312,-0.0148091420560612,-0.00490181339541753,-0.04361793892829802,0,70,255.0,255.0,255.0
378,18.900000000000002,-8.026050344704181,3.0541003514445113,-10.638093331617455,-0.34677965034874086,-0.14169862637457725,-1.0458935562026481,-0.014526488135962344,-0.00561938220467487,-0.043524707045145654,0,70,255.0,255.0,255.0
379,18.95,-8.043407367559322,3.047008096911023,-10.690442376464773,-0.3474989084075365,-0.14199753470504242,-1.0480674607578264,-0.014243834215863508,-0.006336951013932158,-0.043431475161993305,0,70,255.0,255.0,255.0
380,19.0,-8.0608,3.0399,-10.7429,-0.34820403377032716,-0.14233232147597044,-1.0502367037188474,-0.013961180295762432,-0.007054519823188832,-0.04333824327883384,0,70,255.0,255.0,255.0
381,19.05,-8.078227754801272,3.03277459404933,-10.795465900021785,-0.3489081910282398,-0.14268335109266542,-1.052397137787345,-0.014205110020741433,-0.006986664844609924,-0.04307911946105811,0,70,255.0,255.0,255.0
382,19.1,-8.095691022377595,3.025631721436549,-10.848139497842222,-0.34962454477240135,-0.14303098796043143,-1.0545446156649532,-0.014449039745720434,-0.006918809866031015,-0.04281999564328238,0,70,255.0,255.0,255.0
383,19.150000000000002,-8.113190412553283,3.018471551799102,-10.900920145651767,-0.3503530950028118,-0.14337523207926853,-1.056679137351673,-0.014692969470699434,-0.006850954887452107,-0.04256087182550664,0,70,255.0,255.0,255.0
384,19.200000000000003,-8.130726535152647,3.011294254774437,-10.953807195640875,-0.3510938417194713,-0.14371608344917666,-1.058800702847504,-0.014936899195678435,-0.006783099908873199,-0.042301748007730906,0,70,255.0,255.0,255.0
385,19.25,-8.1483,3.0041,-11.0068,-0.3518467849223796,-0.14405354207015583,-1.0609093121524458,-0.015180828920656975,-0.006715244930293851,-0.04204262418994631,0,70,255.0,255.0,255.0
386,19.3,-8.165911026505196,2.996889114735702,-11.059897689607508,-0.35258849974391704,-0.14437815059429743,-1.0629916865408007,-0.014487763940841426,-0.006269096035369731,-0.041252351344250815,0,70,255.0,255.0,255.0
387,19.35,-8.183558272420242,2.989662556731316,-11.113098510093376,-0.3532955613164638,-0.1446804516736928,-1.0650345472868707,-0.013794698961025878,-0.005822947140445609,-0.04046207849855532,0,70,255.0,255.0,255.0
388,19.400000000000002,-8.201240005082692,2.982421441359079,-11.166400485775492,-0.35396796964001964,-0.14496044530834198,-1.0670378943906562,-0.01310163398121033,-0.005376798245521489,-0.039671805652859826,0,70,255.0,255.0,255.0
389,19.450000000000003,-8.218954491830097,2.9751668839912275,-11.21980164097174,-0.35460572471458485,-0.14521813149824495,-1.069001727852157,-0.012408569001394781,-0.0049306493505973685,-0.03888153280716433,0,70,255.0,255.0,255.0
390,19.5,-8.2367,2.9679,-11.2733,-0.3552088265401591,-0.14545351024340175,-1.070926047671373,-0.011715504021579282,-0.004484500455673501,-0.03809125996147422,0,70,255.0,255.0,255.0
391,19.55,-8.254475339177949,2.960621747007861,-11.326894541548189,-0.3558098099960953,-0.1456760465301422,-1.072868116049459,-0.012323834215866922,-0.004416951013944813,-0.03959147516196817,0,70,255.0,255.0,255.0
392,19.6,-8.272281487941438,2.9533324516381874,-11.380588061784282,-0.35644120996174583,-0.14589520534479622,-1.0748851951875698,-0.012932164410154563,-0.004349401572216125,-0.041091690362462116,0,70,255.0,255.0,255.0
393,19.650000000000002,-8.290119967115956,2.9460322827645826,-11.434384311246282,-0.3571030264371108,-0.14611098668736383,-1.0769772850857053,-0.013540494604442203,-0.004281852130487437,-0.04259190556295606,0,70,255.0,255.0,255.0
394,19.700000000000003,-8.30799229752698,2.938721409260652,-11.488287040472187,-0.35779525942219004,-0.146323390557845,-1.0791443857438654,-0.014148824798729843,-0.004214302688758749,-0.04409212076345001,0,70,255.0,255.0,255.0
395,19.75,-8.3259,2.9314,-11.5423,-0.35851790891698376,-0.1465324169562397,-1.0813864971620504,-0.014757154993016997,-0.004146753247029178,-0.04559233596394918,0,70,255.0,255.0,255.0
396,19.8,-8.343844416783009,2.9240678972328533,-11.596425744199742,-0.3592602602717011,-0.14675766328513692,-1.083631849261343,-0.014936899195677535,-0.004863099908860057,-0.04422174800775591,0,70,255.0,255.0,255.0
397,19.85,-8.361826175814008,2.916723636715935,-11.650662042769504,-0.36001159883655154,-0.14701872694712573,-1.085808671962826,-0.015116643398338075,-0.005579446570690936,-0.04285116005156265,0,70,255.0,255.0,255.0
398,19.900000000000002,-8.3798457264535,2.909365427582589,-11.705005469239396,-0.360771924611535,-0.14731560794220602,-1.0879169652664993,-0.015296387600998614,-0.006295793232521815,-0.04148057209536938,0,70,255.0,255.0,255.0
399,19.950000000000003,-8.397903518061996,2.901991478966162,-11.759452597139525,-0.3615412375966514,-0.1476483062703779,-1.089956729172363,-0.015476131803659154,-0.007012139894352695,-0.040109984139176116,0,70,255.0,255.0,255.0
400,20.0,-8.416,2.8946,-11.814,-0.36231953779190085,-0.14801682193164126,-1.091927963680417,-0.015655876006318792,-0.007728486556182412,-0.03873939618297939,0,70,255.0,255.0,255.0
401,20.05,-8.434134993690018,2.887189864060725,-11.868644881652843,-0.3630691489170936,-0.14838130032931066,-1.0938684869051714,-0.014328569001390061,-0.006850649350592995,-0.03888153280719919,0,70,255.0,255.0,255.0
402,20.1,-8.452305808802539,2.8797626014980735,-11.923386967137706,-0.3637523946920399,-0.14870188686670055,-1.095816116961137,-0.013001261996461328,-0.005972812145003578,-0.039023669431419,0,70,255.0,255.0,255.0
403,20.150000000000002,-8.470509127070052,2.872320406905059,-11.978226611796146,-0.3643692751167397,-0.14897858154381102,-1.0977708538483133,-0.011673954991532596,-0.005094974939414161,-0.039165806055638804,0,70,255.0,255.0,255.0
404,20.200000000000003,-8.488741630225045,2.864865474874697,-12.033164170969727,-0.3649197901911932,-0.149211384360642,-1.0997326975667008,-0.010346647986603865,-0.004217137733824744,-0.039307942679858605,0,70,255.0,255.0,255.0
405,20.25,-8.507,2.8574,-12.0882,-0.36540393991540016,-0.14940029531719348,-1.1017016481162991,-0.009019340981675672,-0.0033393005282353894,-0.0394500793040784,0,70,255.0,255.0,255.0
406,20.3,-8.525282008456921,2.8499254465242467,-12.143334729188886,-0.3658871440599106,-0.14958913539761856,-1.103694203117986,-0.010308824798738955,-0.004214302688767159,-0.040252120763394586,0,70,255.0,255.0,255.0
407,20.35,-8.54358978897584,2.8424403572917707,-12.198570088679682,-0.3664348223952741,-0.14982172558607018,-1.1057268601926387,-0.011598308615802237,-0.005089304849298928,-0.041054162222710765,0,70,255.0,255.0,255.0
408,20.400000000000002,-8.561926565266296,2.8349425447971726,-12.253908083576034,-0.3670469749214908,-0.15009806588254845,-1.107799619340257,-0.012887792432865518,-0.005964307009830697,-0.04185620368202695,0,70,255.0,255.0,255.0
409,20.450000000000003,-8.580295561037836,2.8274298215350493,-12.309350718981593,-0.36772360163856066,-0.1504181562870533,-1.1099124805608414,-0.0141772762499288,-0.006839309170362467,-0.042658245141343136,0,70,255.0,255.0,255.0
410,20.5,-8.5987,2.8199,-12.3649,-0.3684647025464836,-0.1507819967995847,-1.1120654438543915,-0.015466760066990215,-0.0077143113308935085,-0.04346028660066459,0,70,255.0,255.0,255.0
411,20.55,-8.617142572482297,2.812351549842289,-12.420557001591613,-0.36923827484325067,-0.15115015808021584,-1.1142027006228876,-0.015476131803692094,-0.007012139894351666,-0.04202998413917134,0,70,255.0,255.0,255.0
412,20.6,-8.635623835294103,2.8047855693348422,-12.476319078143574,-0.37001231572685284,-0.15148321078901988,-1.1162684422683087,-0.015485503540393976,-0.006309968457809825,-0.04059968167767809,0,70,255.0,255.0,255.0
413,20.650000000000002,-8.654143811864765,2.7972038139062505,-12.532182653899726,-0.3707868251972901,-0.15178115492599684,-1.1182626687906554,-0.015494875277095855,-0.005607797021267983,-0.039169379216184845,0,70,255.0,255.0,255.0
414,20.700000000000003,-8.672702525623617,2.789608038985106,-12.588144153103922,-0.37156180325456245,-0.1520439904911467,-1.1201853801899273,-0.015504247013797734,-0.004905625584726141,-0.0377390767546916,0,70,255.0,255.0,255.0
415,20.75,-8.6913,2.782,-12.6442,-0.3723372498986698,-0.15227171748446944,-1.1220365764661242,-0.015513618750497393,-0.004203454148184349,-0.03630877429318602,0,70,255.0,255.0,255.0
416,20.8,-8.709935701613887,2.7743811541065972,-12.700347664444667,-0.37307975656709713,-0.15248223228151966,-1.1238789943904512,-0.01418664798659515,-0.004217137733824927,-0.03738794267989222,0,70,255.0,255.0,255.0
417,20.85,-8.728606869847741,2.7667517653688596,-12.756588798746035,-0.37375591469732933,-0.15269343125785195,-1.1257753707341134,-0.012859677222692907,-0.004230821319465505,-0.03846711106659842,0,70,255.0,255.0,255.0
418,20.900000000000002,-8.747310187274651,2.759111799577824,-12.81292610082507,-0.3743657242893664,-0.15290531441346625,-1.127725705497111,-0.011532706458790664,-0.004244504905106084,-0.03954627945330463,0,70,255.0,255.0,255.0
419,20.950000000000003,-8.76604233646771,2.751461222524525,-12.869362268602737,-0.3749091853432084,-0.15311788174836255,-1.129729998679444,-0.010205735694888422,-0.0042581884907466625,-0.04062544784001083,0,70,255.0,255.0,255.0
420,21.0,-8.7848,2.7438,-12.9259,-0.3753862978588552,-0.15333113326254091,-1.131788250281112,-0.00887876493098494,-0.004271872076387906,-0.0417046162267134,0,70,255.0,255.0,255.0
421,21.05,-8.803581021062156,2.7361278337313215,-12.98254114062972,-0.37586669888837654,-0.15356091279370956,-1.1338493218153138,-0.010337276249868953,-0.004919309170358375,-0.04073824514135181,0,70,255.0,255.0,255.0
422,21.1,-8.822387885314937,2.7284433691897174,-13.039284126872294,-0.3764200254838421,-0.15382306417957675,-1.1358620747952473,-0.011795787568752967,-0.005566746264328844,-0.039771874055990225,0,70,255.0,255.0,255.0
423,21.150000000000002,-8.841224239036642,2.720744987782452,-13.09612654280001,-0.3770462776452519,-0.15411758742014245,-1.1378265092209128,-0.013254298887636979,-0.006214183358299314,-0.03880550297062864,0,70,255.0,255.0,255.0
424,21.200000000000003,-8.860093728505563,2.713031070916791,-13.153065972485152,-0.37774545537260584,-0.15444448251540668,-1.1397426250923104,-0.014712810206520993,-0.006861620452269782,-0.03783913188526705,0,70,255.0,255.0,255.0
425,21.25,-8.879,2.7053,-13.2101,-0.378517558665904,-0.15480374946536946,-1.1416104224094392,-0.016171321525405347,-0.007509057546240427,-0.036872760799900206,0,70,255.0,255.0,255.0
426,21.3,-8.897945814137488,2.697550710968116,-13.267226973036454,-0.37930944787938486,-0.1551621165436435,-1.143475718348303,-0.015504247013830854,-0.006825625584721519,-0.03773907675465119,0,70,255.0,255.0,255.0
427,21.35,-8.916930388892512,2.68978435787227,-13.324448293764796,-0.3800679833672871,-0.1554863120238416,-1.1453843300849043,-0.01483717250225636,-0.00614219362320261,-0.03860539270940218,0,70,255.0,255.0,255.0
428,21.400000000000002,-8.93595205657879,2.6820026492923663,-13.38176612797491,-0.38079316512961053,-0.1557763359059638,-1.1473362576192432,-0.014170097990681868,-0.005458761661683702,-0.039471708664153164,0,70,255.0,255.0,255.0
429,21.450000000000003,-8.955009149510047,2.674207293808308,-13.439182641456682,-0.3814849931663553,-0.15603218819001,-1.1493315009513199,-0.013503023479107375,-0.004775329700164793,-0.04033802461890415,0,70,255.0,255.0,255.0
430,21.5,-8.9741,2.6664,-13.4967,-0.3821434674775212,-0.15625386887598022,-1.1513700600811334,-0.012835948967533373,-0.004091897738646155,-0.0412043405736533,0,70,255.0,255.0,255.0
431,21.55,-8.99322292238789,2.658582122396214,-13.554319767224468,-0.38276750959408246,-0.15646262103171507,-1.153415804791475,-0.012125735694917672,-0.004258188490747241,-0.04062544784001076,0,70,255.0,255.0,255.0
432,21.6,-9.012376159115014,2.650753599321201,-13.612041098068538,-0.383356041047013,-0.15667968772505494,-1.1554326048651344,-0.011415522422301974,-0.004424479242848328,-0.04004655510636822,0,70,255.0,255.0,255.0
433,21.650000000000002,-9.031557934648198,2.6429140150480817,-13.669862545300372,-0.3839090618363127,-0.1569050689559999,-1.1574204603021119,-0.010705309149686273,-0.004590769994949413,-0.03946766237272567,0,70,255.0,255.0,255.0
434,21.700000000000003,-9.050766473454253,2.6350629538499746,-13.72778266168814,-0.38442657196198166,-0.15713876472454988,-1.1593793711024072,-0.009995095877070575,-0.004757060747050499,-0.03888876963908313,0,70,255.0,255.0,255.0
435,21.75,-9.07,2.6272,-13.7858,-0.3849085714240198,-0.15738077503070497,-1.1613093372660201,-0.009284882604453593,-0.004923351499151796,-0.038309876905433526,0,70,255.0,255.0,255.0
436,21.8,-9.089257696310957,2.619324799447027,-13.843913158065675,-0.38541251374429353,-0.15762739932949085,-1.1632130624857875,-0.010872810206495331,-0.00494162045228288,-0.03783913188526142,0,70,255.0,255.0,255.0
437,21.85,-9.108542574647432,2.6114372448429233,-13.902120913961063,-0.3859958524446694,-0.15787493707593325,-1.1650932504545464,-0.01246073780853707,-0.004959889405413965,-0.03736838686508931,0,70,255.0,255.0,255.0
438,21.900000000000002,-9.127858604828427,2.603537290515306,-13.960422090823613,-0.38665858752514726,-0.15812338827003222,-1.1669499011722964,-0.014048665410578809,-0.0049781583585450494,-0.0368976418449172,0,70,255.0,255.0,255.0
439,21.950000000000003,-9.147209756672948,2.5956248907917923,-14.018815511790779,-0.38740071898572725,-0.1583727529117878,-1.168783014639038,-0.015636593012620548,-0.004996427311676134,-0.036426896824745085,0,70,255.0,255.0,255.0
440,22.0,-9.1666,2.5877,-14.0773,-0.3882222468264092,-0.15862303100119982,-1.1705925908547707,-0.017224520614660843,-0.0050146962648056626,-0.03595615180456768,0,70,255.0,255.0,255.0
441,22.05,-9.186031892368282,2.5797626798156776,-14.135874800512834,-0.3890384354287525,-0.15886778165032406,-1.1724039452653587,-0.015423023479068716,-0.004775329700164251,-0.036498024618945746,0,70,255.0,255.0,255.0
442,22.1,-9.205502342295265,2.5718134213071044,-14.194540846087216,-0.3897645491743161,-0.15910056397121625,-1.1742423933166655,-0.013621526343476591,-0.00453596313552284,-0.0370398974333238,0,70,255.0,255.0,255.0
443,22.150000000000002,-9.225006846038102,2.563852822890693,-14.25329949140518,-0.39040058806310013,-0.15932137796387635,-1.1761079350086912,-0.011820029207884466,-0.004296596570881429,-0.037581770247701866,0,70,255.0,255.0,255.0
444,22.200000000000003,-9.24454089985396,2.5558814829828536,-14.312152091148764,-0.39094655209510454,-0.1595302236283044,-1.1780005703414356,-0.010018532072292339,-0.004057230006240017,-0.03812364306207992,0,70,255.0,255.0,255.0
445,22.25,-9.2641,2.5479,-14.3711,-0.39140244127032936,-0.15972710096450032,-1.1799202993148992,-0.008217034936699452,-0.0038178634415984014,-0.03866551587646683,0,70,255.0,255.0,255.0
446,22.3,-9.283681134215913,2.539908481290262,-14.430144439882993,-0.39185774454067446,-0.15994147406921613,-1.181859156452787,-0.00999509587710439,-0.004757060747034028,-0.038888769639049775,0,70,255.0,255.0,255.0
447,22.35,-9.303287256171517,2.531905069928657,-14.489286101690082,-0.3924019508580398,-0.16020280703920373,-1.1838091762788043,-0.01177315681750933,-0.005696258052469654,-0.039112023401632716,0,70,255.0,255.0,255.0
448,22.400000000000002,-9.322922811019165,2.52388741792192,-14.548525543555678,-0.3930350602224254,-0.1605110998744631,-1.1857703587929505,-0.013551217757914267,-0.00663545535790528,-0.039335277164215664,0,70,255.0,255.0,255.0
449,22.450000000000003,-9.342592243911213,2.5158531772767896,-14.60786332361418,-0.39375707263383125,-0.16086635257499426,-1.1877427039952257,-0.015329278698319206,-0.007574652663340906,-0.03955853092679861,0,70,255.0,255.0,255.0
450,22.5,-9.3623,2.5078,-14.6673,-0.39456798809225735,-0.16126856514079718,-1.18972621188563,-0.017107339638722685,-0.008513849968776466,-0.03978178468937621,0,70,255.0,255.0,255.0
451,22.55,-9.382049170768067,2.4997265950232728,-14.726835439955199,-0.3953865864085418,-0.1616543220728088,-1.1916794289234829,-0.015636593012653122,-0.006916427311687978,-0.03834689682473458,0,70,255.0,255.0,255.0
452,22.6,-9.401837433018667,2.4916358989782665,-14.786466747152463,-0.3961316473935227,-0.16196020787196597,-1.1935609015681035,-0.014165846386583561,-0.00531900465459949,-0.036912008960092946,0,70,255.0,255.0,255.0
453,22.650000000000002,-9.421661109885232,2.4835319054216236,-14.846190334372125,-0.39680317104720014,-0.16218622253826875,-1.1953706298194922,-0.012695099760513999,-0.0037215819975110016,-0.03547712109545132,0,70,255.0,255.0,255.0
454,22.700000000000003,-9.441516524501198,2.4754186079099867,-14.906002614394525,-0.3974011573695741,-0.1623323660717171,-1.1971086136776488,-0.011224353134444438,-0.0021241593404225136,-0.03404223323080969,0,70,255.0,255.0,255.0
455,22.75,-9.4614,2.4673,-14.9659,-0.3979256063606445,-0.16239863847231104,-1.198774853142573,-0.009753606508373647,-0.0005267366833339171,-0.03260734536616816,0,70,255.0,255.0,255.0
456,22.8,-9.481308582711819,2.4591787386166453,-15.02588020029621,-0.3984199098251603,-0.1624652376395503,-1.2004471278532804,-0.010018532072257983,-0.0021372300062355585,-0.03428364306212866,0,70,255.0,255.0,255.0
457,22.85,-9.50124221175382,2.4510521341582754,-15.085946109700075,-0.3989274595678703,-0.1626123614729346,-1.202203217448786,-0.01028345763614232,-0.0037477233291371994,-0.03595994075808915,0,70,255.0,255.0,255.0
458,22.900000000000002,-9.52120154943991,2.4429161603915825,-15.146101918955837,-0.3994482555887745,-0.162840009972464,-1.2040431219290895,-0.010548383200026656,-0.00535821665203884,-0.03763623845404965,0,70,255.0,255.0,255.0
459,22.950000000000003,-9.541187258084001,2.4347667910832596,-15.206351818807734,-0.39998229788787304,-0.16314818313813848,-1.205966841294191,-0.010813308763910994,-0.006968709974940482,-0.03931253615001014,0,70,255.0,255.0,255.0
460,23.0,-9.5612,2.4266,-15.2667,-0.4005295864651657,-0.163536880969958,-1.2079743755440904,-0.011078234327794867,-0.008579203297840898,-0.04098883384597052,0,70,255.0,255.0,255.0
461,23.05,-9.581240498384656,2.418412850510144,-15.327149358859963,-0.4010937742908187,-0.16394072736898754,-1.2099880596634087,-0.011489278698327615,-0.007574652663340572,-0.03955853092676127,0,70,255.0,255.0,255.0
462,23.1,-9.601309719966057,2.4102067643886302,-15.387697614047243,-0.40167851433499846,-0.16429434623629208,-1.2119302286367666,-0.011900323068860364,-0.006570102028840246,-0.03812822800755203,0,70,255.0,255.0,255.0
463,23.150000000000002,-9.621408692355132,2.401984253012044,-15.448341189804541,-0.4022838065977048,-0.16459773757187157,-1.213800882464164,-0.012311367439393112,-0.00556555139433992,-0.036697925088342784,0,70,255.0,255.0,255.0
464,23.200000000000003,-9.641538443162803,2.393747827756971,-15.509076510374562,-0.4029096510789378,-0.16485090137572606,-1.2156000211456008,-0.012722411809925862,-0.004561000759839594,-0.03526762216913354,0,70,255.0,255.0,255.0
465,23.25,-9.6617,2.3855,-15.5699,-0.40355604777869736,-0.16505383764785553,-1.2173276446810775,-0.013133456180457692,-0.003556450125339339,-0.03383731924992617,0,70,255.0,255.0,255.0
466,23.3,-9.681894223749557,2.3772426593427776,-15.630808764263945,-0.40421299301156977,-0.1652438528844997,-1.219024633493095,-0.01314435313443898,-0.00404415934042693,-0.034042233230775314,0,70,255.0,255.0,255.0
467,23.35,-9.702121308381951,2.3689752082872038,-15.691802634110962,-0.4048704830921413,-0.16545825358189822,-1.2207318680041552,-0.013155250088420268,-0.00453186855551452,-0.03424714721162446,0,70,255.0,255.0,255.0
468,23.400000000000002,-9.722381281139567,2.360696427560242,-15.752882121826012,-0.40552851802041184,-0.16569703974005115,-1.2224493482142575,-0.013166147042401556,-0.0050195777706021115,-0.0344520611924736,0,70,255.0,255.0,255.0
469,23.450000000000003,-9.74267416926479,2.352405097888853,-15.814047739694042,-0.4061870977963814,-0.16596021135895844,-1.2241770741234024,-0.013177043996382844,-0.005507286985689702,-0.034656975173322745,0,70,255.0,255.0,255.0
470,23.5,-9.763,2.3441,-15.8753,-0.4068462224200501,-0.1662477684386201,-1.22591504573159,-0.01318794095036413,-0.005994996200777258,-0.03486188915416655,0,70,255.0,255.0,255.0
471,23.55,-9.783358606617114,2.3357805121187454,-15.93663958408427,-0.40749425366290687,-0.16652386109301293,-1.2276734063641954,-0.012733308763906763,-0.005048709974935748,-0.035472536150049555,0,70,255.0,255.0,255.0
472,23.6,-9.803749046506137,2.327448402462553,-15.998067849508917,-0.4081195532964408,-0.16675263943611368,-1.229462299346595,-0.012278676577449398,-0.004102423749094237,-0.03608318314593257,0,70,255.0,255.0,255.0
473,23.650000000000002,-9.824170183086602,2.3191060367469887,-16.05958632289143,-0.40872212132065183,-0.16693410346792237,-1.2312817246787888,-0.011824044390992031,-0.003156137523252726,-0.03669383014181558,0,70,255.0,255.0,255.0
474,23.700000000000003,-9.844620879778047,2.310755780687616,-16.121196530849293,-0.40930195773554,-0.16706825318843896,-1.2331316823607765,-0.011369412204534664,-0.0022098512974112155,-0.03730447713769859,0,70,255.0,255.0,255.0
475,23.75,-9.8651,2.3024,-16.1829,-0.4098590625411053,-0.16715508859766345,-1.2350121723925584,-0.010914780018077774,-0.0012635650715699942,-0.03791512413357445,0,70,255.0,255.0,255.0
476,23.8,-9.88560654978199,2.2940400921822404,-16.244697699398976,-0.4104019923368055,-0.1672527027434488,-1.236889741050126,-0.010802411809929866,-0.0026410007598443672,-0.03718762216912913,0,70,255.0,255.0,255.0
477,23.85,-9.906140105593508,2.285673581862581,-16.306588367853376,-0.41093930372209836,-0.1674191886736479,-1.2387309346094713,-0.010690043601781959,-0.00401843644811874,-0.03646012020468381,0,70,255.0,255.0,255.0
478,23.900000000000002,-9.926700386514028,2.277297025451802,-16.36857018660829,-0.4114709966969837,-0.1676545463882607,-1.2405357530705945,-0.01057767539363405,-0.005395872136393112,-0.03573261824023849,0,70,255.0,255.0,255.0
479,23.950000000000003,-9.947287111623034,2.2689069793606813,-16.430641336908803,-0.41199707126146173,-0.16795877588728722,-1.2423041964334953,-0.010465307185486144,-0.0067733078246674855,-0.03500511627579317,0,70,255.0,255.0,255.0
480,24.0,-9.9679,2.2605,-16.4928,-0.4125175274155323,-0.16833187717072745,-1.244036264698174,-0.010352938977336468,-0.00815074351294287,-0.03427761431134968,0,70,255.0,255.0,255.0
481,24.05,-9.988539194254924,2.252073519152292,-16.55504481831982,-0.41305777698987545,-0.16872132793319317,-1.2457596294352908,-0.01125704399638653,-0.007427286985685456,-0.03465697517332274,0,70,255.0,255.0,255.0
482,24.1,-10.009206531119837,2.2436284700871196,-16.61737627907758,-0.413643231815171,-0.169074605869296,-1.2475019622155064,-0.012161149015436593,-0.006703830458428041,-0.0350363360352958,0,70,255.0,255.0,255.0
483,24.150000000000002,-10.02990427085729,2.2351666614458012,-16.679795330675425,-0.4142738918914191,-0.16939171097903596,-1.2492632630388205,-0.013065254034486655,-0.0059803739311706265,-0.03541569689726886,0,70,255.0,255.0,255.0
484,24.200000000000003,-10.050634673729828,2.2266899018696553,-16.742302921515517,-0.41494975721861965,-0.16967264326241308,-1.251043531905233,-0.013969359053536719,-0.005256917403913212,-0.035795057759241924,0,70,255.0,255.0,255.0
485,24.25,-10.0714,2.2182,-16.8049,-0.41567082779677267,-0.16991740271942732,-1.2528427688147445,-0.014873464072586273,-0.004533460876655626,-0.03617441862121851,0,70,255.0,255.0,255.0
486,24.3,-10.092201473198319,2.2096986312085902,-16.86758702732173,-0.4163748997037006,-0.17013398552377887,-1.2546317412087176,-0.013289412204531082,-0.0041298512974063005,-0.035384477137701244,0,70,255.0,255.0,255.0
487,24.35,-10.113036169927147,2.201186937788938,-16.930362515836304,-0.4169997690172258,-0.17033038784916796,-1.2563812165285149,-0.011705360336475889,-0.003726241718156975,-0.03459453565418398,0,70,255.0,255.0,255.0
488,24.400000000000002,-10.133900130056817,2.1926659287649897,-16.99322449069001,-0.4175454357373482,-0.17050660969559456,-1.258091194774136,-0.010121308468420697,-0.003322632138907649,-0.03380459417066671,0,70,255.0,255.0,255.0
489,24.450000000000003,-10.15478939345766,2.184136613160694,-17.05617097702915,-0.4180118998640679,-0.17066265106305872,-1.2597616759455814,-0.008537256600365504,-0.0029190225596583234,-0.03301465268714945,0,70,255.0,255.0,255.0
490,24.5,-10.1757,2.1756,-17.1192,-0.41839916139738476,-0.17079851195156037,-1.2613926600428509,-0.006953204732308649,-0.0025154129804088043,-0.03222471120363224,0,70,255.0,255.0,255.0
491,24.55,-10.196629312951808,2.167056756013345,-17.18231027239326,-0.41878662419532886,-0.17093472997168752,-1.2630254057298367,-0.008545307185455209,-0.0029333078246770285,-0.033085116275798764,0,70,255.0,255.0,255.0
492,24.6,-10.217579989171579,2.1585061787571274,-17.245503257577212,-0.41925369211593033,-0.17109184273402808,-1.2647011716704308,-0.010137409638601769,-0.003351202668945253,-0.033945521347965295,0,70,255.0,255.0,255.0
493,24.650000000000002,-10.238556008915447,2.1499472234942383,-17.308781106564535,-0.41980036515918906,-0.17126985023858207,-1.2664199578646331,-0.011729512091748329,-0.0037690975132134777,-0.03480592642013182,0,70,255.0,255.0,255.0
494,24.700000000000003,-10.259561352439542,2.1413788454875657,-17.372145970367903,-0.42042664332510515,-0.17146875248534943,-1.268181764312444,-0.01332161454489489,-0.004186992357481702,-0.035666331492298343,0,70,255.0,255.0,255.0
495,24.75,-10.2806,2.1328,-17.4356,-0.42113252661367856,-0.17168854947433018,-1.269986591013863,-0.014913716998040893,-0.00460488720174923,-0.03652673656445771,0,70,255.0,255.0,255.0
496,24.8,-10.301674874994456,2.12420954473803,-17.499144683105232,-0.42185460351496884,-0.17193509458947176,-1.2717946358719556,-0.013969359053570227,-0.005256917403913218,-0.03579505775924047,0,70,255.0,255.0,255.0
497,24.85,-10.322784673386543,2.1156059471825506,-17.562778853854862,-0.4225294625190356,-0.1722142412147215,-1.273566096789787,-0.01302500110909956,-0.005908947606077204,-0.03506337895402323,0,70,255.0,255.0,255.0
498,24.900000000000002,-10.343927034281405,2.106987577258056,-17.626500683051876,-0.4231571036258788,-0.17252598935007948,-1.2753009737673577,-0.012080643164628894,-0.006560977808241192,-0.03433170014880599,0,70,255.0,255.0,255.0
499,24.950000000000003,-10.36509959678418,2.0983528048890405,-17.69030834149926,-0.42373752683549853,-0.17287033899554563,-1.2769992668046677,-0.011136285220158228,-0.007213008010405178,-0.03360002134358875,0,70,255.0,255.0,255.0
500,25.0,-10.3863,2.0897,-17.7542,-0.4242707321478946,-0.17324729015111998,-1.2786609759017167,-0.010191927275690293,-0.007865038212568676,-0.032868342538360906,0,70,255.0,255.0,255.0
501,25.05,-10.407526387070375,2.0810282650345333,-17.818174195185822,-0.4247869617447959,-0.17361289167042565,-1.2803080507823528,-0.010457256600361568,-0.006759022559657641,-0.03301465268707844,0,70,255.0,255.0,255.0
502,25.1,-10.428778917282253,2.0723396325126684,-17.882230927003366,-0.4253164578079308,-0.17392319240708576,-1.2819624411704245,-0.010722585925032842,-0.005653006906746607,-0.033160962835795976,0,70,255.0,255.0,255.0
503,25.150000000000002,-10.45005825395894,2.0636368674735355,-17.94637056122799,-0.4258592203372992,-0.1741781923611003,-1.2836241470659324,-0.010987915249704116,-0.004546991253835573,-0.03330727298451351,0,70,255.0,255.0,255.0
504,25.200000000000003,-10.47136506042375,2.0549227349562686,-18.01059346363508,-0.4264152493329012,-0.1743778915324693,-1.285293168468876,-0.011253244574375392,-0.003440975600924538,-0.033453583133231046,0,70,255.0,255.0,255.0
505,25.25,-10.4927,2.0462,-18.0749,-0.4269845447947368,-0.17452228992119276,-1.2869695053792551,-0.011518573899046203,-0.002334959948013582,-0.03359989328193613,0,70,255.0,255.0,255.0
506,25.3,-10.514063576724046,2.0374709951238343,-18.13929053615149,-0.4275575495058354,-0.17463733872883005,-1.2886531609986127,-0.011401614544898384,-0.0022669923574773145,-0.03374633149236637,0,70,255.0,255.0,255.0
507,25.35,-10.535455657484455,2.0287363227667754,-18.203765438131708,-0.42812470624922666,-0.17474898915694048,-1.290344138528492,-0.011284655190750566,-0.002199024766941047,-0.0338927697027966,0,70,255.0,255.0,255.0
508,25.400000000000002,-10.55687594988284,2.0199961528477988,-18.26832507203618,-0.4286860150249105,-0.17485724120552415,-1.2920424379688924,-0.011167695836602749,-0.0021310571764047797,-0.034039207913226836,0,70,255.0,255.0,255.0
509,25.450000000000003,-10.578324161520818,2.0112506552858815,-18.332969803960438,-0.42924147583288697,-0.17496209487458098,-1.2937480593198147,-0.01105073648245493,-0.0020630895858685123,-0.03418564612365707,0,70,255.0,255.0,255.0
510,25.5,-10.5998,2.0025,-18.3977,-0.42979108867315596,-0.175063550164111,-1.2954610025812578,-0.010933777128304456,-0.0019951219953318056,-0.03433208433407842,0,70,255.0,255.0,255.0
511,25.55,-10.62130330603344,1.9937437544701273,-18.462515660208233,-0.43034284023186753,-0.1751977534142543,-1.2971593052231996,-0.011136285220158373,-0.003373008010400966,-0.033600021343584516,0,70,255.0,255.0,255.0
512,25.6,-10.64283445277993,1.9849790764202282,-18.52741532046983,-0.4309047171951718,-0.1754008509651511,-1.2988210047156163,-0.01133879331201229,-0.004750894025470126,-0.03286795835309062,0,70,255.0,255.0,255.0
513,25.650000000000002,-10.664393946509701,1.9762025211352658,-18.592397150627306,-0.4314767195630688,-0.17567284281680132,-1.3004461010585087,-0.011541301403866208,-0.006128780040539287,-0.03213589536259673,0,70,255.0,255.0,255.0
514,25.700000000000003,-10.68598229349298,1.967410643900202,-18.65745932052319,-0.4320588473355585,-0.17601372896920503,-1.302034594251876,-0.011743809495720126,-0.007506666055608447,-0.03140383237210283,0,70,255.0,255.0,255.0
515,25.75,-10.7076,1.9586,-18.7226,-0.43265110051264083,-0.17642350942236215,-1.3035864842957186,-0.011946317587573585,-0.008884552070678398,-0.03067176938161076,0,70,255.0,255.0,255.0
516,25.8,-10.729247199142195,1.9497683869956557,-18.787818023015575,-0.43323108956668954,-0.17682764761415246,-1.305141618108588,-0.011253244574375544,-0.007280975600933126,-0.03153358313316482,0,70,255.0,255.0,255.0
517,25.85,-10.750922531395823,1.9409185715523092,-18.853114879988986,-0.4337764249700784,-0.17715160698245547,-1.306739842609035,-0.010560171561177504,-0.005677399131187854,-0.03239539688471889,0,70,255.0,255.0,255.0
518,25.900000000000002,-10.772624264078358,1.932054562611135,-18.91849272545461,-0.43428710672280735,-0.17739538752727124,-1.3083811577970599,-0.009867098547979462,-0.004073822661442582,-0.03325721063627295,0,70,255.0,255.0,255.0
519,25.950000000000003,-10.794350664507263,1.9231803691133067,-18.98395371394682,-0.43476313482487633,-0.17755898924859975,-1.3100655636726626,-0.009174025534781421,-0.0024702461916973097,-0.03411902438782702,0,70,255.0,255.0,255.0
520,26.0,-10.8161,1.9143,-19.0495,-0.4352045092762855,-0.177642412146441,-1.3117930602358427,-0.008480952521583873,-0.0008666697219519293,-0.0349808381393828,0,70,255.0,255.0,255.0
521,26.05,-10.837871097397786,1.9054162975472486,-19.115133047729458,-0.4356448015013866,-0.17771565612913637,-1.3135222223424203,-0.009130736482458355,-0.0020630895858636924,-0.03418564612371994,0,70,255.0,255.0,255.0
522,26.1,-10.859665021636774,1.8965274373705328,-19.18085155957423,-0.43611758292453134,-0.17784872110502736,-1.3152116248482146,-0.009780520443332837,-0.003259509449775456,-0.03339045410805708,0,70,255.0,255.0,255.0
523,26.150000000000002,-10.881483397176872,1.8876304284201924,-19.246653547554267,-0.4366228535457199,-0.17804160707411393,-1.316861267753226,-0.010430304404207318,-0.004455929313687219,-0.03259526209239422,0,70,255.0,255.0,255.0
524,26.200000000000003,-10.903327848477982,1.8787222796465677,-19.31253702368954,-0.4371606133649521,-0.17829431403639612,-1.3184711510574543,-0.0110800883650818,-0.0056523491775989825,-0.03180007007673136,0,70,255.0,255.0,255.0
525,26.25,-10.9252,1.8698,-19.3785,-0.437730862382228,-0.17860684199187382,-1.3200412747608992,-0.011729872325955348,-0.006848769041510661,-0.031004878061068553,0,70,255.0,255.0,255.0
526,26.3,-10.947101211266672,1.8608616228153483,-19.444540986066585,-0.438317704427769,-0.17891772786930182,-1.3216014925217285,-0.011743809495685653,-0.0055866660556089616,-0.03140383237210216,0,70,255.0,255.0,255.0
527,26.35,-10.969031782057087,1.8519092789655578,-19.510660481714098,-0.43890524333179665,-0.17916550859743474,-1.3231816579981095,-0.011757746665415958,-0.0043245630697072625,-0.03180278668313578,0,70,255.0,255.0,255.0
528,26.400000000000002,-10.990991747214162,1.8429461237080929,-19.57685948432832,-0.4394934790943107,-0.17935018417627255,-1.324781771190042,-0.011771683835146263,-0.0030624600838055644,-0.032201740994169385,0,70,255.0,255.0,255.0
529,26.450000000000003,-11.012981141580827,1.8339753123004185,-19.643138991295032,-0.4400824117153112,-0.17947175460581527,-1.3264018320975266,-0.011785621004876567,-0.0018003570979038654,-0.032600695305203,0,70,255.0,255.0,255.0
530,26.5,-11.035,1.825,-19.7095,-0.4406720411947983,-0.17953021988606294,-1.328041840720562,-0.011799558174605984,-0.0005382541120027007,-0.03299964961623125,0,70,255.0,255.0,255.0
531,26.55,-11.057048057535525,1.8160220111913568,-19.7759430080042,-0.44124438078753375,-0.17960543239365542,-1.3296718075706637,-0.011094025534811348,-0.00247024619169765,-0.03219902438783214,0,70,255.0,255.0,255.0
532,26.6,-11.079123850134888,1.8070378467672343,-19.842466513569377,-0.44178144374827943,-0.17977724450523272,-1.3312617431593454,-0.010388492895016713,-0.0044022382713925995,-0.03139839915943303,0,70,255.0,255.0,255.0
533,26.650000000000002,-11.101225613966488,1.7980426767474336,-19.909068515132446,-0.44228323007703546,-0.18004565622079471,-1.3328116474866072,-0.009682960255222077,-0.0063342303510875485,-0.030597773931033922,0,70,255.0,255.0,255.0
534,26.700000000000003,-11.123351585198726,1.7890316711517549,-19.97574701113035,-0.44274973977380166,-0.1804106675403415,-1.3343215205524488,-0.00897742761542744,-0.008266222430782498,-0.02979714870263481,0,70,255.0,255.0,255.0
535,26.75,-11.1455,1.78,-20.0425,-0.4431809728385781,-0.18087227846387294,-1.3357913623568705,-0.008271894975629746,-0.010198214510476422,-0.028996523474228653,0,70,255.0,255.0,255.0
536,26.8,-11.167669758591229,1.7709447324192233,-20.109326181916604,-0.44361677242209596,-0.18131654255607493,-1.3372632771956445,-0.009160088365085096,-0.007572349177602485,-0.029880070076734114,0,70,255.0,255.0,255.0
537,26.85,-11.189862417403367,1.7618705339655032,-20.1762270640084,-0.44409698167508666,-0.1816295133816332,-1.338779369364544,-0.010048281754540447,-0.004946483844728547,-0.03076361667923957,0,70,255.0,255.0,255.0
538,26.900000000000002,-11.212080196919894,1.7527839693021707,-20.243204855141897,-0.44462160059755007,-0.1818111909405478,-1.3403396388635687,-0.010936475143995799,-0.002320618511854609,-0.03164716328174503,0,70,255.0,255.0,255.0
539,26.950000000000003,-11.234325317624283,1.7436916030925587,-20.310261764183597,-0.44519062918948626,-0.18186157523281868,-1.3419440856927185,-0.01182466853345115,0.0003052468210193275,-0.03253070988425049,0,70,255.0,255.0,255.0
540,27.0,-11.2566,1.7346,-20.3774,-0.44580406745089507,-0.18178066625844583,-1.3435927098519935,-0.012712861922905994,0.0029311121538946328,-0.03341425648674878,0,70,255.0,255.0,255.0
541,27.05,-11.278905708099566,1.7255134591317485,-20.444621064329386,-0.44641652952408883,-0.18170439738204597,-1.3452430836467903,-0.011785621004842803,0.00011964290210020757,-0.032600695305130135,0,70,255.0,255.0,255.0
542,27.1,-11.301240880251646,1.7164272173707518,-20.511923630397032,-0.44698262955137935,-0.1817687019682358,-1.3468527793825067,-0.010858380086779614,-0.0026918263496942176,-0.03178713412351148,0,70,255.0,255.0,255.0
543,27.150000000000002,-11.32360319835394,1.7073342460438814,-20.579305664299984,-0.4475023675327668,-0.18197358001701538,-1.3484217970591417,-0.009931139168716423,-0.005503295601488642,-0.030973572941892832,0,70,255.0,255.0,255.0
544,27.200000000000003,-11.345990344304157,1.6982275164780067,-20.646765132135293,-0.44797574346825103,-0.1823190315283847,-1.349950136676696,-0.009003898250653234,-0.008314764853283068,-0.030160011760274184,0,70,255.0,255.0,255.0
545,27.25,-11.3684,1.6891,-20.7143,-0.4484027573578321,-0.18280505650234363,-1.3514377982351689,-0.008076657332591886,-0.01112623410507707,-0.029346450578650263,0,70,255.0,255.0,255.0
546,27.3,-11.390830609010507,1.6799470310537825,-20.781908760765866,-0.44882910948153343,-0.18328986791574012,-1.352916388217201,-0.008977427615460888,-0.008266222430782347,-0.029797148702632375,0,70,255.0,255.0,255.0
547,27.35,-11.413283661590055,1.6707733965514877,-20.849592014403495,-0.44930050011937817,-0.18363167874542188,-1.3544175131054321,-0.009878197898329891,-0.005406210756487625,-0.03024784682661449,0,70,255.0,255.0,255.0
548,27.400000000000002,-11.435761409664348,1.661586246522302,-20.91735088765818,-0.4498169292713664,-0.18383048899138887,-1.3559411728998625,-0.010778968181198894,-0.0025461990821929025,-0.030698544950596603,0,70,255.0,255.0,255.0
549,27.450000000000003,-11.458266105159097,1.6523927309954105,-20.98518650727525,-0.4503783969374981,-0.18388629865364117,-1.357487367600492,-0.011679738464067897,0.0003138125921018208,-0.03114924307457872,0,70,255.0,255.0,255.0
550,27.5,-11.4808,1.6432,-21.0531,-0.45098490311777323,-0.18379910773217875,-1.3590560972073202,-0.01258050874693728,0.003173824266396119,-0.031599941198567905,0,70,255.0,255.0,255.0
551,27.55,-11.5033646558584,1.6340128166531216,-21.121091892607154,-0.45159503254978295,-0.18371213095499347,-1.3606113634843908,-0.0118246685334502,0.0003052468210156291,-0.030610709884255967,0,70,255.0,255.0,255.0
552,27.6,-11.525958873388136,1.6248263964232958,-21.189160311989014,-0.4521673699711183,-0.18376858305007718,-1.3621171681957458,-0.011068828319963121,-0.002563330624364861,-0.029621478569944033,0,70,255.0,255.0,255.0
553,27.650000000000002,-11.548580762988667,1.6156335678669091,-21.2573027850673,-0.45270191538177923,-0.18396846401742997,-1.3635735113413852,-0.010312988106476042,-0.005431908069745351,-0.028632247255632095,0,70,255.0,255.0,255.0
554,27.700000000000003,-11.571228435059469,1.6064271595403483,-21.325516838763726,-0.4531986687817659,-0.18431177385705172,-1.3649803929213091,-0.00955714789298896,-0.008300485515125841,-0.02764301594132016,0,70,255.0,255.0,255.0
555,27.75,-11.5939,1.5972,-21.3938,-0.45365763017107813,-0.1847985125689425,-1.3663378129355173,-0.008801307679501935,-0.011169062960505682,-0.026653784627008292,0,70,255.0,255.0,255.0
556,27.8,-11.616593967555891,1.58794730233373,-21.462150868805534,-0.4541027603193312,-0.1852856082642871,-1.367710157845201,-0.009003898250619804,-0.008314764853278159,-0.02824001176034232,0,70,255.0,255.0,255.0
557,27.85,-11.639310444857408,1.578673817755327,-21.530572337640468,-0.4545580199961401,-0.18562998905427033,-1.3691618141115516,-0.009206488821737675,-0.005460466746050637,-0.02982623889367635,0,70,255.0,255.0,255.0
558,27.900000000000002,-11.662049938380981,1.5693866820100588,-21.599068372072633,-0.45502340920150497,-0.18583165493889217,-1.3706927817345687,-0.009409079392855544,-0.002606168638823115,-0.03141246602701038,0,70,255.0,255.0,255.0
559,27.950000000000003,-11.684812954603036,1.5600930308431935,-21.66764293766987,-0.4554989279354257,-0.18589060591815265,-1.3723030607142526,-0.009611669963973413,0.0002481294684044087,-0.03299869316034441,0,70,255.0,255.0,255.0
