idx,t,px,py,pz,vx,vy,vz,ax,ay,az,yaw,mode,ledr,ledg,ledb
0,0.0,1.5,13.5,0.0,0.00018975738305525725,0.00011793583798850715,0.003133747139874306,-0.01027708859666043,-0.00941523005581502,-0.07920496567849168,0,70,255.0,255.0,255.0
1,0.05,1.49999643126579,13.499993845690167,5.761489703547498e-05,-0.0003367116037944728,-0.0003697495145233038,-0.0008304763156578197,-0.010781670877328772,-0.010092184044657417,-0.07936397254279334,0,70,255.0,255.0,255.0
2,0.1,1.4999659083543866,13.499962460920223,-8.318013728603344e-05,-0.00088840970467762,-0.0008912825664772347,-0.004802650114405028,-0.011286253157997115,-0.010769138033499817,-0.079522979407095,0,70,255.0,255.0,255.0
3,0.15000000000000002,1.4999071698100883,13.499904153305197,-0.0004227826201252795,-0.0014653369195941845,-0.0014466633178732858,-0.008782774256367322,-0.011790835438665458,-0.011446092022342215,-0.07968198627139667,0,70,255.0,255.0,255.0
4,0.2,1.4998189541771936,13.499817230460112,-0.0009615900686430171,-0.002067493248544166,-0.002035891768711456,-0.012770848741544695,-0.0122954177193338,-0.012123046011184614,-0.07984099313569833,0,70,255.0,255.0,255.0
5,0.25,1.4997,13.4997,-0.0017,-0.0026948786915275643,-0.0026589679189917468,-0.01676687356993715,-0.01280000000000214,-0.012800000000027015,-0.07999999999999993,0,70,255.0,255.0,255.0
6,0.30000000000000004,1.4995490458228067,13.499550769539889,-0.002638409931356984,-0.0033474932485443804,-0.003315891768714158,-0.020770848741544695,-0.013304582280670484,-0.013476953988869413,-0.08015900686430164,0,70,255.0,255.0,255.0
7,0.35000000000000003,1.4993648301899116,13.499367846694804,-0.0037772173798747213,-0.004025336919594613,-0.004006663317878688,-0.024782774256367317,-0.01380916456133883,-0.01415390797771181,-0.08031801372860334,0,70,255.0,255.0,255.0
8,0.4,1.4991460916456134,13.499149539079777,-0.005116819862713967,-0.004728409704678263,-0.0047312825664853385,-0.028802650114405026,-0.014313746842007175,-0.014830861966554205,-0.08047702059290504,0,70,255.0,255.0,255.0
9,0.45,1.4988915687342101,13.498894154309832,-0.006657614897035475,-0.00545671160379533,-0.005489749514534109,-0.032830476315657824,-0.014818329122675519,-0.015507815955396602,-0.08063602745720674,0,70,255.0,255.0,255.0
10,0.5,1.4986,13.4986,-0.0084,-0.006210242616945814,-0.006282064162024999,-0.0368662528601257,-0.015322911403343888,-0.016184769944239,-0.08079503432150859,0,70,255.0,255.0,255.0
11,0.55,1.4982705854429832,13.498266276150279,-0.010343975171607542,-0.006961315402029354,-0.007054683410629832,-0.040886128718163425,-0.01471999999999768,-0.014719999999954322,-0.08000000000000007,0,70,255.0,255.0,255.0
12,0.6000000000000001,1.4979043708859663,13.497895752300558,-0.012487950343215088,-0.007682242616945583,-0.0077540641620204315,-0.044866252860125716,-0.014117088596651473,-0.013255230055669644,-0.07920496567849156,0,70,255.0,255.0,255.0
13,0.65,1.497502863607458,13.497492090375697,-0.014829937929018856,-0.008373024261694501,-0.008380206416196795,-0.048806625286012574,-0.013514177193305266,-0.011790460111384968,-0.07840993135698304,0,70,255.0,255.0,255.0
14,0.7000000000000001,1.4970675708859662,13.497058952300558,-0.01736795034321509,-0.00903366033627611,-0.00893311017315893,-0.05270724599582402,-0.01291126578995906,-0.01032569016710029,-0.07761489703547453,0,70,255.0,255.0,255.0
15,0.75,1.4966,13.4966,-0.0201,-0.009664150840690408,-0.009412775432906825,-0.05656811498956003,-0.012308354386612916,-0.008860920222815608,-0.07681986271396574,0,70,255.0,255.0,255.0
16,0.8,1.4961014124052603,13.496117725859,-0.02302488938221285,-0.010279245143338969,-0.009889374588756942,-0.060436636385801636,-0.012295417719329552,-0.010203046011189092,-0.07792099313569824,0,70,255.0,255.0,255.0
17,0.8500000000000001,1.495572086266222,13.495609944102966,-0.026144581247264945,-0.010893692612623363,-0.010433080034025734,-0.06436021430312985,-0.012282481052046188,-0.011545171799562576,-0.07902212355743074,0,70,255.0,255.0,255.0
18,0.9,1.495012053924554,13.49507329941744,-0.029461828421210614,-0.011507493248543589,-0.0110438917687132,-0.06833884874154471,-0.012269544384762823,-0.012887297587936056,-0.08012325397916323,0,70,255.0,255.0,255.0
19,0.9500000000000001,1.494421347721924,13.49450443648794,-0.032979383730104186,-0.012120647051099645,-0.011721809792819341,-0.07237253970104618,-0.012256607717479459,-0.01422942337630954,-0.08122438440089573,0,70,255.0,255.0,255.0
20,1.0,1.4938,13.4939,-0.0367,-0.012733154020291534,-0.012466834106344152,-0.07646128718163427,-0.01224367105019615,-0.015571549164683035,-0.08232551482262818,0,70,255.0,255.0,255.0
21,1.05,1.493147764935976,13.493257220413732,-0.04062526729954108,-0.013361704024613438,-0.013243818234346998,-0.08053532573863013,-0.012898329122680012,-0.015507815955430725,-0.08063602745720667,0,70,255.0,255.0,255.0
22,1.1,1.4924632840491447,13.492575671287572,-0.04475212466772518,-0.014022986932559538,-0.014017615701887226,-0.08452488992735495,-0.013552987195163872,-0.015444082746178417,-0.07894654009178519,0,70,255.0,255.0,255.0
23,1.1500000000000001,1.4917449206943263,13.49185551195455,-0.04907634838613873,-0.014717002744129827,-0.014788226508964839,-0.08842997974780867,-0.014207645267647732,-0.015380349536926107,-0.07725705272636368,0,70,255.0,255.0,255.0
24,1.2000000000000002,1.4909910382263383,13.491096901747683,-0.053593714736368196,-0.01544375145932431,-0.015555650655579838,-0.09225059519999132,-0.014862303340131593,-0.015316616327673798,-0.0755675653609422,0,70,255.0,255.0,255.0
25,1.25,1.4902,13.4903,-0.0583,-0.016203233078142986,-0.016319888141732217,-0.09598673628390288,-0.01551696141261541,-0.015252883118421517,-0.07387807799552049,0,70,255.0,255.0,255.0
26,1.3,1.4893707278508364,13.48946539248608,-0.06319244141962287,-0.016961938758207343,-0.01705535247386919,-0.09972606065967775,-0.014831265789958841,-0.014165690167057238,-0.07569489703547438,0,70,255.0,255.0,255.0
27,1.35,1.4885043775371982,13.488595370746738,-0.06827412008183441,-0.01768635965713887,-0.01773645715843794,-0.10355622598745033,-0.014145570167302272,-0.013078497215692956,-0.07751171607542828,0,70,255.0,255.0,255.0
28,1.4000000000000001,1.4876026632981416,13.48769265276436,-0.07354957803423454,-0.018376495774937572,-0.018363202195438483,-0.10747723226722058,-0.013459874544645704,-0.011991304264328675,-0.07932853511538218,0,70,255.0,255.0,255.0
29,1.4500000000000002,1.4866672993727232,13.48675995652132,-0.0790233573244231,-0.019032347111603443,-0.01893558758487081,-0.11148907949898854,-0.012774178921989135,-0.010904111312964395,-0.08114535415533608,0,70,255.0,255.0,255.0
30,1.5,1.4857,13.4858,-0.0847,-0.019653913667136483,-0.019453613326734925,-0.11559176768275417,-0.012088483299332514,-0.009816918361600202,-0.08296217319528965,0,70,255.0,255.0,255.0
31,1.55,1.484702123660678,13.484814809641955,-0.09058256702196749,-0.020262540942556785,-0.01995877187018204,-0.11969643162265882,-0.012256607717479467,-0.01038942337628439,-0.08122438440089579,0,70,255.0,255.0,255.0
32,1.6,1.4836736058020625,13.48380364572547,-0.09666819500493722,-0.02087957443888443,-0.020492555664363366,-0.12371420612284376,-0.01242473213562642,-0.01096192839096858,-0.07948659560650193,0,70,255.0,255.0,255.0
33,1.6500000000000001,1.482614026113108,13.482765076988006,-0.10295253947692322,-0.021505014156119426,-0.0210549647092789,-0.12764509118330902,-0.012592856553773374,-0.011534433405652769,-0.07774880681210806,0,70,255.0,255.0,255.0
34,1.7000000000000002,1.4815229642827688,13.48169767216703,-0.10943125596593947,-0.022138860094261772,-0.021645999004928643,-0.13148908680405455,-0.012760980971920327,-0.012106938420336957,-0.0760110180177142,0,70,255.0,255.0,255.0
35,1.75,1.4804,13.4806,-0.1161,-0.022781112253311454,-0.022265658551312593,-0.13524619298508045,-0.012929105390067197,-0.012679443435021198,-0.07427322922332058,0,70,255.0,255.0,255.0
36,1.8,1.479244777506451,13.479470568946102,-0.1229556904925072,-0.02342789747156643,-0.022917560045380935,-0.13899221284968702,-0.01294230334013179,-0.013396616327712397,-0.075567565360942,0,70,255.0,255.0,255.0
37,1.85,1.4780571992545515,13.478307646351384,-0.13000029989841672,-0.024075342587324636,-0.023605320184083838,-0.14280294952117464,-0.01295550129019638,-0.014113789220403596,-0.07686190149856342,0,70,255.0,255.0,255.0
38,1.9000000000000001,1.4768372322494265,13.477109439283618,-0.1372370640580727,-0.024723447600586066,-0.024328938967421294,-0.14667840299954335,-0.012968699240260973,-0.014830962113094794,-0.07815623763618484,0,70,255.0,255.0,255.0
39,1.9500000000000002,1.4755848434962011,13.475874154810567,-0.1446692188118191,-0.025372212511350734,-0.025088416395393314,-0.15061857328479314,-0.012981897190325564,-0.015548135005785993,-0.07945057377380627,0,70,255.0,255.0,255.0
40,2.0,1.4743,13.4746,-0.1523,-0.026021637319618623,-0.025883752467999895,-0.15462346037692395,-0.0129950951403901,-0.016265307898477327,-0.08074490991142658,0,70,255.0,255.0,255.0
41,2.0500000000000003,1.472982766313518,13.47328611457364,-0.16013147100800382,-0.026665869171178,-0.026658987948286573,-0.15862271697859304,-0.012774178921984845,-0.014744111312989625,-0.07922535415533559,0,70,255.0,255.0,255.0
42,2.1,1.4716335971797307,13.471935368868992,-0.16816100540139592,-0.027299055211817108,-0.02735816359929886,-0.16254599579245751,-0.012553262703579593,-0.013222914727501936,-0.07770579839924463,0,70,255.0,255.0,255.0
43,2.15,1.4702530448891848,13.47055156587753,-0.1763848042907861,-0.027921195441535956,-0.027981279421036762,-0.16639329681851747,-0.01233234648517434,-0.011701718142014247,-0.07618624264315366,0,70,255.0,255.0,255.0
44,2.2,1.4688416617324258,13.46913850859071,-0.18479906878678426,-0.028532289860334546,-0.028528335413500285,-0.1701646200567729,-0.012111430266769085,-0.010180521556526545,-0.07466668688706268,0,70,255.0,255.0,255.0
45,2.25,1.4674,13.4677,-0.1934,-0.02913233846821286,-0.028999331576689418,-0.17385996550722377,-0.01189051404836397,-0.008659324971038856,-0.07314713113097016,0,70,255.0,255.0,255.0
46,2.3000000000000003,1.4659281572394773,13.46623857275935,-0.20218482547547775,-0.02974862584372008,-0.029470488161473078,-0.1775409192359409,-0.01276098097192463,-0.010186938420307327,-0.07409101801771412,0,70,255.0,255.0,255.0
47,2.35,1.4644244120265253,13.464751678172645,-0.2111548784959997,-0.030408436565405324,-0.03001802541872015,-0.1812690673089952,-0.013631447895485278,-0.011714551869575781,-0.07503490490445808,0,70,255.0,255.0,255.0
48,2.4000000000000004,1.462886588193834,13.46323549720627,-0.2203125187787829,-0.031111770633268608,-0.030641943348430657,-0.18504440972638672,-0.014501914819045936,-0.01324216531884425,-0.07597879179120204,0,70,255.0,255.0,255.0
49,2.45,1.4613125095740953,13.461686210826596,-0.229660106041044,-0.03185862804730992,-0.031342241950604574,-0.1888669464881154,-0.015372381742606587,-0.014769778768112706,-0.076922678677946,0,70,255.0,255.0,255.0
50,2.5,1.4597,13.4601,-0.2392,-0.032649008807529266,-0.03211892122524192,-0.19273667759418125,-0.016242848666167264,-0.016297392217381135,-0.07786656556469018,0,70,255.0,255.0,255.0
51,2.5500000000000003,1.4580478047285725,13.45847399438897,-0.24893402709008547,-0.03342762745394159,-0.03291505940582195,-0.19662160607764367,-0.014901897190325291,-0.01554813500582017,-0.07753057377380616,0,70,255.0,255.0,255.0
52,2.6,1.4563583547141692,13.456809118440429,-0.2588618806146053,-0.0341391985265618,-0.03367373472582393,-0.20048973497156186,-0.013560945714483328,-0.014798877794259212,-0.07719458198292214,0,70,255.0,255.0,255.0
53,2.6500000000000004,1.4546350023354795,13.455107245297398,-0.26898272059408257,-0.034783722025389915,-0.03439494718524788,-0.2043410642759359,-0.012219994238641355,-0.014049620582698246,-0.07685859019203813,0,70,255.0,255.0,255.0
54,2.7,1.4528810999711932,13.453370248102912,-0.2792957070490399,-0.03536119795042593,-0.03507869678409376,-0.2081755939907657,-0.010879042762799392,-0.013300363371137288,-0.07652259840115412,0,70,255.0,255.0,255.0
55,2.75,1.4511,13.4516,-0.2898,-0.035871626301669846,-0.03572498352236161,-0.2119933241160513,-0.00953809128695704,-0.012551106159576497,-0.07618660661026788,0,70,255.0,255.0,255.0
56,2.8000000000000003,1.449294223846233,13.449798249684765,-0.30049506616418076,-0.036364864340513,-0.03634127421526322,-0.21581265645348455,-0.010191430266769212,-0.012100521556488006,-0.07658668688706105,0,70,255.0,255.0,255.0
57,2.85,1.447462969116799,13.447966248065642,-0.31138159904557916,-0.03689076932834677,-0.03693503567801041,-0.2196519928047574,-0.010844769246581377,-0.011649936953399519,-0.07698676716385422,0,70,255.0,255.0,255.0
58,2.9000000000000004,1.4456046024642484,13.446105121604134,-0.3224605988448872,-0.037449341265171146,-0.03750626791060318,-0.22351133316986996,-0.01149810822639355,-0.011199352350311028,-0.07738684744064739,0,70,255.0,255.0,255.0
59,2.95,1.443717490541132,13.444215996761752,-0.3337330657627968,-0.03804058015098612,-0.03805497091304151,-0.22739067754882217,-0.012151447206205715,-0.010748767747222542,-0.07778692771744056,0,70,255.0,255.0,255.0
60,3.0,1.4418,13.4423,-0.3452,-0.03866448598579171,-0.03858114468532543,-0.231290025941614,-0.012804786186017991,-0.010298183144134221,-0.07818700799423328,0,70,255.0,255.0,255.0
61,3.0500000000000003,1.439850499886496,13.44035780687196,-0.35686170825319175,-0.03932091518400734,-0.03911184373313098,-0.2351677681084185,-0.013452381742606948,-0.01092977876808752,-0.07692267867794568,0,70,255.0,255.0,255.0
62,3.1,1.4378673688186354,13.438388289297,-0.36871572320307827,-0.04000972416005241,-0.039674122562134186,-0.23898229380940858,-0.0140999772991959,-0.011561374392040814,-0.07565834936165809,0,70,255.0,255.0,255.0
63,3.1500000000000004,1.4358489878075267,13.436389868286058,-0.3807588840263691,-0.04073091291392693,-0.04026798117233506,-0.2427336030445843,-0.014747572855784857,-0.012192970015994113,-0.07439402004537049,0,70,255.0,255.0,255.0
64,3.2,1.4337937378642789,13.43436096485008,-0.39298802989977316,-0.04148448144563089,-0.0408934195637336,-0.2464216958139456,-0.015395168412373808,-0.012824565639947407,-0.0731296907290829,0,70,255.0,255.0,255.0
65,3.25,1.4317,13.4323,-0.4054,-0.04227042975516431,-0.0415504377363298,-0.25004657211749254,-0.016042763968963036,-0.013456161263900923,-0.07186536141279509,0,70,255.0,255.0,255.0
66,3.3000000000000003,1.4295669766077832,13.430205722827392,-0.4179925008230525,-0.043039474923458255,-0.042219350852206614,-0.2536602711128413,-0.014719042762794569,-0.013300363371171553,-0.07268259840115432,0,70,255.0,255.0,255.0
67,3.35,1.4273971556086593,13.428078194746357,-0.43076670814210777,-0.043742334031443765,-0.04288047407344695,-0.25731483195760796,-0.013395321556626115,-0.013144565478442182,-0.07349983538951355,0,70,255.0,255.0,255.0
68,3.4000000000000004,1.425193846305644,13.425917805251625,-0.4437246650496369,-0.04437900707912087,-0.043533807400050833,-0.2610102546517926,-0.012071600350457647,-0.012988767585712812,-0.07431707237787277,0,70,255.0,255.0,255.0
69,3.45,1.4229603580017522,13.423724943837929,-0.4568684146381107,-0.044949494066489536,-0.04417935083201824,-0.26474653919539526,-0.010747879144289192,-0.012832969692983441,-0.075134309366232,0,70,255.0,255.0,255.0
70,3.5,1.4207,13.4215,-0.4702,-0.04545379499354978,-0.04481710436934917,-0.2685236855884158,-0.009424157938120736,-0.012677171800254405,-0.0759515463545899,0,70,255.0,255.0,255.0
71,3.5500000000000003,1.4184151936823717,13.419243301818472,-0.48372108845459866,-0.045945185122158054,-0.045450752858035987,-0.2723191474402165,-0.01023144720621018,-0.012668767747218257,-0.0758669277174393,0,70,255.0,255.0,255.0
72,3.6,1.4161048087467274,13.416954931717575,-0.49743184422849074,-0.0464769397141708,-0.046083981144071,-0.2761103783601597,-0.011038736474299617,-0.012660363694182108,-0.07578230908028871,0,70,255.0,255.0,255.0
73,3.6500000000000004,1.4137668269698977,13.414634910707441,-0.5113320557750837,-0.047049058769588016,-0.04671678922745421,-0.2798973783482454,-0.01184602574238906,-0.01265195964114596,-0.07569769044313812,0,70,255.0,255.0,255.0
74,3.7,1.411399230128712,13.412283259798206,-0.5254215115477844,-0.04766154228840971,-0.04734917710818559,-0.2836801474044735,-0.012653315010478497,-0.012643555588109812,-0.07561307180598753,0,70,255.0,255.0,255.0
75,3.75,1.409,13.4099,-0.5397,-0.04831439027063587,-0.04798114478626519,-0.2874586855288441,-0.013460604278567823,-0.012635151535073608,-0.07552845316883605,0,70,255.0,255.0,255.0
76,3.8000000000000003,1.406567448662731,13.407485069898726,-0.5541671453585534,-0.048987784587909415,-0.04861763771564072,-0.2912231391262921,-0.013475168412374117,-0.012824565639947372,-0.07504969072908345,0,70,255.0,255.0,255.0
77,3.85,1.4041012094044307,13.405038078383349,-0.5688219149439293,-0.04966190711187328,-0.04926360135025992,-0.29496365460175245,-0.01348973254618041,-0.013013979744821135,-0.07457092828933085,0,70,255.0,255.0,255.0
78,3.9000000000000004,1.4016012458147655,13.402558551918611,-0.5836631118500287,-0.05033675784252746,-0.04991903569012283,-0.2986802319552252,-0.013504296679986705,-0.013203393849694902,-0.07409216584957824,0,70,255.0,255.0,255.0
79,3.95,1.3990675214833999,13.400046016969249,-0.5986895391707522,-0.05101233677987195,-0.05058394073522942,-0.3023728711867103,-0.013518860813792999,-0.013392807954568665,-0.07361340340982565,0,70,255.0,255.0,255.0
80,4.0,1.3965,13.3975,-0.6139,-0.05168864392390676,-0.051258316485579686,-0.30604157229620776,-0.01353342494759957,-0.013582222059442484,-0.07313464097007127,0,70,255.0,255.0,255.0
81,4.05,1.393899011666705,13.394920418586633,-0.629293530111188,-0.052343676526203975,-0.051918696279391184,-0.3097002960546153,-0.012667879144289088,-0.01283296969301775,-0.07321430936623088,0,70,255.0,255.0,255.0
82,4.1000000000000005,1.3912663536355492,13.392308754749033,-0.6448700959957918,-0.052955431838335676,-0.05254161345488147,-0.3133630032328309,-0.01180233334097859,-0.012083717326593005,-0.07329397776239048,0,70,255.0,255.0,255.0
83,4.15,1.3886041897710408,13.389666881618117,-0.6606298968248014,-0.053523909860301845,-0.0531270680120505,-0.3170296938308544,-0.010936787537668108,-0.011334464960168272,-0.07337364615855009,0,70,255.0,255.0,255.0
84,4.2,1.3859146839376884,13.386996672324802,-0.6765731317692073,-0.05404911059210249,-0.053675059950898295,-0.3207003678486859,-0.010071241734357625,-0.01058521259374354,-0.07345331455470969,0,70,255.0,255.0,255.0
85,4.25,1.3832,13.3843,-0.6927,-0.0545310340337376,-0.05418558927142485,-0.3243750252863253,-0.00920569593104692,-0.009835960227318696,-0.07353298295086619,0,70,255.0,255.0,255.0
86,4.3,1.3804613046704497,13.381578055754742,-0.7090107341966944,-0.05502950930727574,-0.054699577166809815,-0.32805567665524654,-0.01073331501047851,-0.010723555588080132,-0.0736930718059857,0,70,255.0,255.0,255.0
87,4.3500000000000005,1.3776957760533728,13.378829302620517,-0.725505701072904,-0.05560436553478546,-0.055257944830232865,-0.33174433246692386,-0.012260934089910129,-0.011611150948841586,-0.07385316066110521,0,70,255.0,255.0,255.0
88,4.4,1.3748995951010716,13.37605152160892,-0.7421853008507663,-0.056255602716266756,-0.055860692261693976,-0.33544099272135713,-0.013788553169341721,-0.012498746309603022,-0.07401324951622472,0,70,255.0,255.0,255.0
89,4.45,1.3720689427658466,13.37324249373155,-0.7590499337524189,-0.056983220851719626,-0.05650781946119317,-0.33914565741854635,-0.015316172248773314,-0.013386341670364458,-0.07417333837134424,0,70,255.0,255.0,255.0
90,4.5,1.3692,13.3704,-0.7761,-0.05778721994114407,-0.05719932642873042,-0.34285832655849147,-0.016843791328204738,-0.014273937031125894,-0.0743334272264633,0,70,255.0,255.0,255.0
91,4.55,1.3662901696514966,13.36752255839439,-0.7933355331020341,-0.058594286244693906,-0.057890995053371926,-0.34655699732439865,-0.015438860813788684,-0.013392807954534573,-0.07361340340982565,0,70,255.0,255.0,255.0
92,4.6000000000000005,1.3633417421509593,13.364611634768893,-0.8107550997125929,-0.05933110602252295,-0.05853860722418388,-0.3502196668994741,-0.014033930299372607,-0.012511678877943236,-0.07289337959318799,0,70,255.0,255.0,255.0
93,4.65,1.3603582298246732,13.3616694319462,-0.8283568997721343,-0.05999767927463117,-0.05914216294116626,-0.35384633528371756,-0.012628999784956553,-0.011630549801351912,-0.07217335577655035,0,70,255.0,255.0,255.0
94,4.7,1.3573431449989248,13.358698152749007,-0.8461391332211173,-0.0605940060010186,-0.05970166220431907,-0.35743700247712906,-0.0112240692705405,-0.010749420724760591,-0.0714533319599127,0,70,255.0,255.0,255.0
95,4.75,1.3543,13.3557,-0.8641,-0.06112008620168523,-0.060217105013642316,-0.3609916684797088,-0.009819138756124834,-0.00986829164816927,-0.07073330814327639,0,70,255.0,255.0,255.0
96,4.800000000000001,1.351231616723563,13.352676510667697,-0.8822383333951695,-0.061617345713947405,-0.060728442619691854,-0.3645483340471585,-0.010071241734361962,-0.01058521259381172,-0.07153331455470877,0,70,255.0,255.0,255.0
97,4.8500000000000005,1.3481380553427902,13.34962655830391,-0.9005555000767255,-0.06212721037512143,-0.06127562627302349,-0.3681449999351797,-0.010323344712599084,-0.011302133539454159,-0.07233332096614112,0,70,255.0,255.0,255.0
98,4.9,1.3450186856002357,13.346548350606275,-0.9190535000606969,-0.06264968018520731,-0.06185865597363726,-0.3717816661437726,-0.010575447690836206,-0.012019054485096596,-0.07313332737757348,0,70,255.0,255.0,255.0
99,4.95,1.3418728772384543,13.343440095272426,-0.9377343333631123,-0.06318475514420505,-0.06247753172153315,-0.37545833267293705,-0.010827550669073328,-0.012735975430739035,-0.07393333378900584,0,70,255.0,255.0,255.0
100,5.0,1.3387,13.3403,-0.9566,-0.06373243525211464,-0.06313225351671116,-0.3791749995226732,-0.011079653647310561,-0.013452896376381474,-0.07473334020043865,0,70,255.0,255.0,255.0
101,5.050000000000001,1.3354993634542511,13.33712659893482,-0.9756519333172889,-0.06429633089951675,-0.06380323446787896,-0.3828976664869679,-0.011476172248773602,-0.013386341670330348,-0.07417333837134556,0,70,255.0,255.0,255.0
102,5.1000000000000005,1.3322700364778803,13.333919732015467,-0.9948892999805061,-0.06488005247699201,-0.06447088768374419,-0.3865923333598078,-0.011872690850236638,-0.013319786964279223,-0.07361333654225248,0,70,255.0,255.0,255.0
103,5.15,1.329011027774384,13.330679565628703,-1.0143106999850788,-0.06548359998454041,-0.06513521316430688,-0.3902590001411931,-0.012269209451699672,-0.013253232258228097,-0.0730533347131594,0,70,255.0,255.0,255.0
104,5.2,1.3257213460472586,13.327406266161292,-1.0339147333264345,-0.06610697342216197,-0.06579621090956701,-0.3938976668311237,-0.012665728053162708,-0.013186677552176973,-0.07249333288406631,0,70,255.0,255.0,255.0
105,5.25,1.3224,13.3241,-1.0537,-0.06675017278985669,-0.06645388091952456,-0.3975083334295996,-0.013062246654626075,-0.013120122846125737,-0.0719333310549719,0,70,255.0,255.0,255.0
106,5.300000000000001,1.3190461294594322,13.320761093593017,-1.0736651333356761,-0.06740533068798586,-0.06709861950879575,-0.4010930000049717,-0.013144069270540527,-0.01266942072472203,-0.07145333195990888,0,70,255.0,255.0,255.0
107,5.3500000000000005,1.3156593987456882,13.317390513634221,-1.0938089000012514,-0.06806457971691074,-0.06772082299199678,-0.40465366662559055,-0.013225891886454977,-0.01221871860331833,-0.07097333286484586,0,70,255.0,255.0,255.0
108,5.4,1.3122396033022279,13.313989386878918,-1.114130099998989,-0.06872791987663136,-0.06832049136912759,-0.4081903332914562,-0.013307714502369429,-0.01176801648191463,-0.07049333376978284,0,70,255.0,255.0,255.0
109,5.45,1.3087865385725117,13.310558840082411,-1.1346275333311513,-0.06939535116714769,-0.06889762464018824,-0.4117030000025688,-0.01338953711828388,-0.011317314360510932,-0.07001333467471982,0,70,255.0,255.0,255.0
110,5.5,1.3053,13.3071,-1.1553,-0.07006687358845975,-0.0694522228051787,-0.41519166675892816,-0.013471359734198218,-0.010866612239107343,-0.06953333557965724,0,70,255.0,255.0,255.0
111,5.550000000000001,1.3017801187080196,13.303613826693113,-1.1761467333400086,-0.07072234634854144,-0.06999428749692582,-0.4186823334931449,-0.012747550669068708,-0.010815975430777613,-0.07009333378900956,0,70,255.0,255.0,255.0
112,5.6000000000000005,1.2982283685393667,13.300100613447649,-1.197168700014489,-0.07134162865536664,-0.07053382034825646,-0.42220100013782913,-0.012023741603939212,-0.010765338622447884,-0.07065333199836187,0,70,255.0,255.0,255.0
113,5.65,1.2946465590167038,13.296560486855627,-1.2183673000189656,-0.07192472050893535,-0.07107082135917062,-0.42574766669298103,-0.011299932538809716,-0.010714701814118155,-0.07121333020771417,0,70,255.0,255.0,255.0
114,5.7,1.291036499662694,13.292993573509072,-1.2397439333489615,-0.07247162190924761,-0.07160529052966827,-0.4293223331586006,-0.010576123473680218,-0.010664065005788426,-0.07177332841706648,0,70,255.0,255.0,255.0
115,5.75,1.2874,13.2894,-1.2613,-0.07298233285630337,-0.07213722785974945,-0.43292499953468766,-0.009852314408550722,-0.010613428197458696,-0.07233332662641878,0,70,255.0,255.0,255.0
116,5.800000000000001,1.283738195708489,13.285779599634536,-1.283036733304292,-0.07349728391784632,-0.07268423050349046,-0.43654566602244976,-0.010745728053167414,-0.011266677552181324,-0.0724933328840633,0,70,255.0,255.0,255.0
117,5.8500000000000005,1.280049527096845,13.282131032575188,-1.3049546999407933,-0.07405690566162013,-0.07326389561496759,-0.44017433282309404,-0.011639141697784093,-0.01191992690690394,-0.07265333914170782,0,70,255.0,255.0,255.0
118,5.9,1.2763317606309563,13.278452665698577,-1.3270542999251491,-0.07466119808762474,-0.07387622319418086,-0.4438109999366205,-0.01253255534240077,-0.012573176261626556,-0.07281334539935233,0,70,255.0,255.0,255.0
119,5.95,1.2725826627767118,13.274742865881308,-1.3493359332730033,-0.07531016119586019,-0.07452121324113023,-0.4474556673630293,-0.013425968987017449,-0.013226425616349171,-0.07297335165699685,0,70,255.0,255.0,255.0
120,6.0,1.2688,13.271,-1.3718,-0.07600379498632648,-0.07519886575581577,-0.4511083351023202,-0.014319382631633903,-0.01387967497107212,-0.07313335791464048,0,70,255.0,255.0,255.0
121,6.050000000000001,1.2649822984580246,13.26722297476875,-1.3944463334428263,-0.07669651798007443,-0.0758767904891061,-0.4547350024170542,-0.0133895371182838,-0.013237314360540733,-0.07193333467471914,0,70,255.0,255.0,255.0
122,6.1000000000000005,1.2611311230732534,13.2634128562516,-1.417272500222339,-0.07734274869815487,-0.07652259719186985,-0.45830166856979215,-0.012459691604933711,-0.012594953750009356,-0.07073331143479783,0,70,255.0,255.0,255.0
123,6.15,1.2572487984594702,13.259571250350072,-1.4402755002804386,-0.0779424871405678,-0.07713628586410703,-0.46180833356053397,-0.011529846091583622,-0.01195259313947798,-0.06953328819487652,0,70,255.0,255.0,255.0
124,6.2,1.253337649230458,13.255699762965698,-1.4634523335590257,-0.07849573330731323,-0.07771785650581765,-0.4652549973892798,-0.010600000578233534,-0.011310232528946605,-0.06833326495495519,0,70,255.0,255.0,255.0
125,6.25,1.2494,13.2518,-1.4868,-0.07900248719839115,-0.0782673091170017,-0.4686416600560295,-0.009670155064883446,-0.010667871918415006,-0.0671332417150321,0,70,255.0,255.0,255.0
126,6.300000000000001,1.2454374104594124,13.247873301290467,-1.5103163329244047,-0.07950864416185514,-0.07880060754010594,-0.47201832430933216,-0.010576123473676015,-0.010664065005754165,-0.0679333284170749,0,70,255.0,255.0,255.0
127,6.3500000000000005,1.2414483806101406,13.243919942418415,-1.5340024991698518,-0.08006009954575875,-0.07933371561757711,-0.475434992897737,-0.011482091882468569,-0.010660258093093322,-0.0687334151191177,0,70,255.0,255.0,255.0
128,6.4,1.2374306455311623,13.239939932901136,-1.5578604989530966,-0.08065685335010199,-0.07986663334941525,-0.478891665821244,-0.012388060291261122,-0.01065645118043248,-0.06953350182116047,0,70,255.0,255.0,255.0
129,6.45,1.2333819403014565,13.2359332822559,-1.5818923324908942,-0.08129890557488487,-0.08039936073562036,-0.482388343079853,-0.013294028700053676,-0.010652644267771638,-0.07033358852320326,0,70,255.0,255.0,255.0
130,6.5,1.2293,13.2319,-1.6061,-0.08198625622010737,-0.08093189777619243,-0.4859250246735642,-0.014199997108845896,-0.01064883735511113,-0.07113367522524472,0,70,255.0,255.0,255.0
131,6.550000000000001,1.225183259704326,13.227839820069388,-1.6304851348595568,-0.08267690537250416,-0.08148077935047822,-0.48947970034562005,-0.013425968987025671,-0.011306425616319858,-0.07105335165698827,0,70,255.0,255.0,255.0
132,6.6000000000000005,1.2210329544861844,13.223751374074734,-1.6550479030982554,-0.08332885311880994,-0.08206254033782442,-0.493030359839263,-0.01265194086520546,-0.011964013877528575,-0.07097302808873182,0,70,255.0,255.0,255.0
133,6.65,1.2168510194158797,13.219633018045387,-1.6797881039071758,-0.08394209945902471,-0.08267718073823106,-0.4965770031544932,-0.01187791274338525,-0.012621602138737292,-0.07089270452047539,0,70,255.0,255.0,255.0
134,6.7,1.2126393895637169,13.215483108010694,-1.7047055364773978,-0.08451664439314847,-0.08332470055169815,-0.5001196302913106,-0.011103884621565039,-0.013279190399946008,-0.07081238095221894,0,70,255.0,255.0,255.0
135,6.75,1.2084,13.2113,-1.7298,-0.08505248792118121,-0.08400509977822568,-0.5036582412497151,-0.010329856499744605,-0.013936778661154836,-0.07073205738396293,0,70,255.0,255.0,255.0
136,6.800000000000001,1.2041343507232833,13.207082618431983,-1.7550711276373705,-0.08557573434813046,-0.08468427505797896,-0.5071828743081881,-0.010600000578224992,-0.01323023252897605,-0.07025326495495444,0,70,255.0,255.0,255.0
137,6.8500000000000005,1.1998422014451213,13.202832161282643,-1.7805178884371282,-0.08611248797900371,-0.08532812303112329,-0.5106835677452106,-0.010870144656705374,-0.012523686396797276,-0.06977447252594597,0,70,255.0,255.0,255.0
138,6.9,1.1955228768053177,13.198550394917314,-1.8061390854182007,-0.08666274881380098,-0.08593664369765869,-0.5141603215607826,-0.011140288735185758,-0.011817140264618504,-0.0692956800969375,0,70,255.0,255.0,255.0
139,6.95,1.191175701443676,13.194239085701323,-1.8319335215995154,-0.08722651685252229,-0.08650983705758514,-0.5176131357549044,-0.01141043281366614,-0.01111059413243973,-0.06881688766792901,0,70,255.0,255.0,255.0
140,7.0,1.1868,13.1899,-1.8579,-0.0878037920951676,-0.08704770311090267,-0.5210420103275755,-0.011680576892146521,-0.01040404800026129,-0.06833809523891787,0,70,255.0,255.0,255.0
141,7.050000000000001,1.1823953374025398,13.185534506202677,-1.8840375545909631,-0.08838015723497261,-0.08757412041760351,-0.5244608024216285,-0.011374028700053858,-0.010652644267771886,-0.06841358852320205,0,70,255.0,255.0,255.0
142,7.1000000000000005,1.1779622397333294,13.181142380794682,-1.9103461431532336,-0.088941194965173,-0.08811296753767986,-0.5278833691798956,-0.011067480507961198,-0.010901240535282478,-0.06848908180748622,0,70,255.0,255.0,255.0
143,7.15,1.1735014733628493,13.176723002285351,-1.9368259544200226,-0.08948690528576873,-0.08866424447113175,-0.5313097106023771,-0.01076093231586854,-0.01114983680279307,-0.06856457509177041,0,70,255.0,255.0,255.0
144,7.2,1.1690138046615792,13.172275749184013,-1.9634771771245412,-0.09001728819675985,-0.08922795121795916,-0.5347398266890727,-0.010454384123775882,-0.01139843307030366,-0.06864006837605459,0,70,255.0,255.0,255.0
145,7.25,1.1645,13.1678,-1.9903,-0.09053234369814632,-0.08980408777816212,-0.5381737174399825,-0.010147835931683002,-0.011647029337814585,-0.06871556166034054,0,70,255.0,255.0,255.0
146,7.300000000000001,1.1599602996665572,13.16329535675731,-2.0172946539987797,-0.09106363671197773,-0.09037924327160626,-0.5416139160052965,-0.011103884621573403,-0.011359190399950588,-0.06889238095221657,0,70,255.0,255.0,255.0
147,7.3500000000000005,1.1553928396215607,13.15876231553862,-2.04446153894994,-0.09164273216030368,-0.09094000681815718,-0.5450629555352042,-0.012059933311463787,-0.011071351462086595,-0.0690692002440926,0,70,255.0,255.0,255.0
148,7.4,1.1507952297432853,13.154201595941275,-2.07180109690171,-0.0922696300431241,-0.09148637841781491,-0.5485208360297057,-0.013015982001354173,-0.010783512524222603,-0.06924601953596862,0,70,255.0,255.0,255.0
149,7.45,1.1461650799100067,13.149613917562622,-2.09931376990232,-0.09294433036043909,-0.09201835807057944,-0.5519875574888011,-0.013972030691244556,-0.01049567358635861,-0.06942283882784465,0,70,255.0,255.0,255.0
150,7.5,1.1415,13.145,-2.127,-0.09366683311224855,-0.09253594577645077,-0.5554631199124903,-0.014928079381134607,-0.010207834648494618,-0.06959965811972157,0,70,255.0,255.0,255.0
151,7.550000000000001,1.1367986639312309,13.14036006676808,-2.1548598294139194,-0.09437329591711847,-0.09306890649597414,-0.5589235335571818,-0.013330432813661619,-0.011110594132439878,-0.0688168876679354,0,70,255.0,255.0,255.0
152,7.6000000000000005,1.1320640017804275,13.135692357050832,-2.1828917010470086,-0.09499987639361472,-0.09364700518969477,-0.5623448086792839,-0.011732786246188658,-0.012013353616385124,-0.06803411721614924,0,70,255.0,255.0,255.0
153,7.65,1.127300007664009,13.130994613949541,-2.2110936579731377,-0.09554657454173732,-0.09427024185761265,-0.5657269452787967,-0.0101351396787157,-0.012916113100330369,-0.06725134676436308,0,70,255.0,255.0,255.0
154,7.7,1.1225106756983936,13.1262645805655,-2.239463743266178,-0.09601339036148629,-0.09493861649972779,-0.5690699433557201,-0.008537493111242737,-0.013818872584275613,-0.06646857631257692,0,70,255.0,255.0,255.0
155,7.75,1.1177,13.1215,-2.268,-0.0964003238528616,-0.09565212911604021,-0.5723738029100544,-0.006939846543769557,-0.014721632068220414,-0.06568580586079076,0,70,255.0,255.0,255.0
156,7.800000000000001,1.1128706446085188,13.116699576170362,-2.296701228345544,-0.09678717961955013,-0.09635313074450236,-0.5756839497659755,-0.008534384123771744,-0.013318433070265081,-0.06672006837605535,0,70,255.0,255.0,255.0
157,7.8500000000000005,1.1080199532567283,13.11186585625805,-2.3255692568620265,-0.09725376226523878,-0.09698397242306672,-0.57904580974766,-0.010128921703773903,-0.011915234072309773,-0.06775433089131991,0,70,255.0,255.0,255.0
158,7.9,1.1031439396006781,13.107002348260552,-2.354606671205739,-0.09780007178992753,-0.09754465415173333,-0.5824593828551076,-0.01172345928377606,-0.010512035074354466,-0.06878859340658448,0,70,255.0,255.0,255.0
159,7.95,1.0982386172964187,13.102112560175371,-2.383816057032967,-0.09842610819361637,-0.09803517593050216,-0.5859246690883183,-0.013317996863778221,-0.009108836076399156,-0.06982285592184904,0,70,255.0,255.0,255.0
160,8.0,1.0933,13.0972,-2.4132,-0.09913187147630535,-0.09845553775937324,-0.5894416684472925,-0.014912534443780268,-0.007705637078444072,-0.07085711843711451,0,70,255.0,255.0,255.0
161,8.05,1.0883251576346935,13.09226722855047,-2.4427600572039077,-0.09985398560468098,-0.09886257052599429,-0.5929486673789166,-0.013972030691244273,-0.008575673586397383,-0.06942283882784535,0,70,255.0,255.0,255.0
162,8.1,1.083315385192659,13.087313017916978,-2.4724936715048837,-0.10052907454542977,-0.09931310511801297,-0.596383952330077,-0.01303152693870831,-0.009445710094350662,-0.06798855921857624,0,70,255.0,255.0,255.0
163,8.15,1.0782730339332776,13.082335193008248,-2.5023972572039073,-0.1011571382985518,-0.09980714153542934,-0.5997475233007742,-0.012091023186172317,-0.010315746602303971,-0.06655427960930707,0,70,255.0,255.0,255.0
164,8.200000000000001,1.0732004551159309,13.07733157873301,-2.532467228601954,-0.10173817686404701,-0.10034467977824338,-0.6030393802910078,-0.01115051943363632,-0.011185783110257282,-0.06512000000003791,0,70,255.0,255.0,255.0
165,8.25,1.0681,13.0723,-2.5627,-0.10227219024191543,-0.10092571984645508,-0.606259523300778,-0.010210015681100582,-0.01205581961821045,-0.06368572039077147,0,70,255.0,255.0,255.0
166,8.3,1.062973524852707,13.067238709627752,-2.5930929428388287,-0.10278887796172413,-0.1015245871515182,-0.6094653807183616,-0.010457493111246823,-0.011898872584313856,-0.06454857631257324,0,70,255.0,255.0,255.0
167,8.35,1.057820905972636,13.062147672074044,-2.6236472571184373,-0.10331793955304011,-0.10211560710488646,-0.6127143809320353,-0.010704970541393053,-0.011741925550417266,-0.06541143223437497,0,70,255.0,255.0,255.0
168,8.4,1.052641524666211,13.057027279706459,-2.654365099978633,-0.10385937501586343,-0.10269877970655993,-0.6160065239417991,-0.010952447971539294,-0.011584978516520671,-0.06627428815617674,0,70,255.0,255.0,255.0
169,8.450000000000001,1.0474347622398577,13.051877924892581,-2.6852486285592194,-0.10441318435019406,-0.10327410495653855,-0.6193418097476532,-0.011199925401685535,-0.011428031482624076,-0.06713714407797851,0,70,255.0,255.0,255.0
170,8.5,1.0422,13.0467,-2.7163,-0.10497936755603199,-0.10384158285482231,-0.622720238349597,-0.01144740283183232,-0.011271084448726931,-0.06799999999977846,0,70,255.0,255.0,255.0
171,8.55,1.0369367429544785,13.041493932938518,-2.747520971440781,-0.10555050254842227,-0.10439908086794865,-0.6261178097476376,-0.011397996863778558,-0.011028836076326428,-0.06790285592184464,0,70,255.0,255.0,255.0
172,8.6,1.031644990916798,13.036260293786848,-2.778911700021365,-0.10611916724240984,-0.10494446646245496,-0.6295105239417814,-0.011348590895724797,-0.010786587703925933,-0.06780571184391082,0,70,255.0,255.0,255.0
173,8.65,1.0263248674018774,13.030999688165917,-2.8104719428815605,-0.10668536163799475,-0.10547773963834124,-0.6328983809320287,-0.011299184927671036,-0.01054433933152543,-0.067708567765977,0,70,255.0,255.0,255.0
174,8.700000000000001,1.0209764959246381,13.025712721696658,-2.842201457161171,-0.10724908573517695,-0.1059989003956075,-0.6362813807183793,-0.011249778959617273,-0.010302090959124927,-0.06761142368804318,0,70,255.0,255.0,255.0
175,8.75,1.0156,13.0204,-2.8741,-0.10781033953395647,-0.10650794873425373,-0.639659523300833,-0.011200372991563512,-0.010059842586724876,-0.06751427961010759,0,70,255.0,255.0,255.0
176,8.8,1.0101955033293786,13.01506155861817,-2.906167171398051,-0.10836911184458646,-0.10703908937667916,-0.6430233802910867,-0.011150519433636319,-0.011185783110291697,-0.06704000000004323,0,70,255.0,255.0,255.0
177,8.85,1.0047631303601732,13.009695152778562,-2.9384019427961,-0.1089253914773201,-0.1076265270452829,-0.6463635233008372,-0.011100665875709126,-0.012311723633858476,-0.0665657203899789,0,70,255.0,255.0,255.0
178,8.9,0.9993030057262782,13.00429796762987,-2.9708031284951253,-0.10947917843215739,-0.108270261740065,-0.6496799523300847,-0.011050812317781933,-0.013437664157425297,-0.06609144077991455,0,70,255.0,255.0,255.0
179,8.950000000000001,0.9938152540615888,12.998867188320787,-3.003369542796101,-0.1100304727090983,-0.10897029346102545,-0.6529726673788289,-0.011000958759854738,-0.014563604680992118,-0.0656171611698502,0,70,255.0,255.0,255.0
180,9.0,0.9883,12.9934,-3.0361,-0.11057927430814286,-0.10972662220816419,-0.6562416684470695,-0.010951105201926992,-0.015689545204558564,-0.06514288155978498,0,70,255.0,255.0,255.0
181,9.05,0.9827572437280071,12.987895032588803,-3.068993542967019,-0.11113305007323313,-0.11045256162534364,-0.6595006690880137,-0.011199925401683401,-0.013348031482619127,-0.06521714407798278,0,70,255.0,255.0,255.0
182,9.1,0.9771864876425103,12.9823566950989,-3.1020501287942324,-0.11169926684831119,-0.1110614253564261,-0.6627633828548678,-0.0114487456014398,-0.011006517760679773,-0.06529140659618057,0,70,255.0,255.0,255.0
183,9.15,0.9715871096930095,12.976790841314594,-3.135269943137938,-0.11227792463337712,-0.11155321340141161,-0.6660298097476318,-0.01169756580119621,-0.008665004038740338,-0.06536566911437838,0,70,255.0,255.0,255.0
184,9.200000000000001,0.9659584878290058,12.971203325020193,-3.168653171654429,-0.11286902342843083,-0.11192792576030014,-0.6692999497663058,-0.01194638600095262,-0.006323490316800901,-0.06543993163257618,0,70,255.0,255.0,255.0
185,9.25,0.9603,12.9656,-3.2022,-0.11347256323347235,-0.11218556243309169,-0.6725738029108894,-0.012195206200708242,-0.003981976594861658,-0.06551419415077397,0,70,255.0,255.0,255.0
186,9.3,0.9546115217585925,12.959984711026618,-3.235910656733874,-0.11405868786248048,-0.11244666412194074,-0.6758539433568598,-0.011249778959617127,-0.006462090959100166,-0.0656914236880386,0,70,255.0,255.0,255.0
187,9.35,0.9488949190697863,12.954353266825837,-3.2697855420269666,-0.11459754112943406,-0.1128317715290017,-0.6791429452796933,-0.010304351718526046,-0.008942205323338587,-0.06586865322530322,0,70,255.0,255.0,255.0
188,9.4,0.9431525555016834,12.948699467111746,-3.303825098953124,-0.1150891230343331,-0.1133408846542746,-0.68244080867939,-0.009358924477434931,-0.011422319687577093,-0.06604588276256784,0,70,255.0,255.0,255.0
189,9.450000000000001,0.9373867946223869,12.943017111598438,-3.3380297705861874,-0.11553343357717756,-0.11397400349775944,-0.6857475335559501,-0.008413497236343817,-0.013902434051815602,-0.06622311229983247,0,70,255.0,255.0,255.0
190,9.5,0.9316,12.9373,-3.3724,-0.11593047275796747,-0.11473112805945615,-0.6890631199093733,-0.007468069995252957,-0.0163825484160538,-0.06640034183709353,0,70,255.0,255.0,255.0
191,9.55,0.9257934692376222,12.931543723304731,-3.4069358300974875,-0.11634419847684524,-0.11550478188688315,-0.6923635574845468,-0.009080958759857195,-0.014563604681025862,-0.06561716116984789,0,70,255.0,255.0,255.0
192,9.600000000000001,0.9199642360783448,12.925751037597756,-3.4416357030978992,-0.11683856863395321,-0.11618748852755875,-0.6956248360263582,-0.010693847524461432,-0.012744660945997924,-0.06483398050260225,0,70,255.0,255.0,255.0
193,9.65,0.9141082683002565,12.91992649023842,-3.476497661049567,-0.11741358322929137,-0.11677924798148294,-0.6988469555348071,-0.012306736289065612,-0.010925717210970052,-0.06405079983535664,0,70,255.0,255.0,255.0
194,9.700000000000001,0.9082215336814452,12.914074628586055,-3.5115197460008236,-0.11806924226285977,-0.11728006024865575,-0.7020299160098938,-0.01391962505366985,-0.009106773475942114,-0.063267619168111,0,70,255.0,255.0,255.0
195,9.75,0.9023,12.9082,-3.5467,-0.11880554573465836,-0.11768992532907716,-0.7051737174516182,-0.015532513818274807,-0.007287829740914464,-0.062484438500863604,0,70,255.0,255.0,255.0
196,9.8,0.8963410012909181,12.902305995754466,-3.5820372228761785,-0.11954051823013899,-0.11807820833051993,-0.7083238267049543,-0.01386638600095007,-0.0082434903167966,-0.06351993163258067,0,70,255.0,255.0,255.0
197,9.850000000000001,0.8903473366168336,12.896391382783136,-3.6175332455814395,-0.12019218433475339,-0.11851427436075683,-0.7115257106148763,-0.012200258183625332,-0.009199150892678736,-0.06455542476429772,0,70,255.0,255.0,255.0
198,9.9,0.8843231712972905,12.890453771934576,-3.6531906568486097,-0.12076054404850152,-0.11899812341978781,-0.7147793691813841,-0.010534130366300652,-0.01015481146856084,-0.06559091789601475,0,70,255.0,255.0,255.0
199,9.950000000000001,0.8782726706518315,12.884490774057344,-3.6890120454105206,-0.12124559737138345,-0.11952975550761291,-0.7180848024044778,-0.008868002548975915,-0.011110472044442973,-0.06662641102773181,0,70,255.0,255.0,255.0
200,10.0,0.8722,12.8785,-3.725,-0.12164734430339912,-0.1201091706242321,-0.7214420102841572,-0.007201874731651459,-0.012066132620325298,-0.06766190415944706,0,70,255.0,255.0,255.0
201,10.05,0.866108125598705,12.872479493677417,-3.7611560783977995,-0.12203772860259901,-0.12071038479103574,-0.724789135695639,-0.008413497236343876,-0.011982434051819977,-0.06622311229982214,0,70,255.0,255.0,255.0
202,10.100000000000001,0.8599952174543194,12.866429031269705,-3.7974777145763485,-0.12248869402703351,-0.12130741402941411,-0.7280643215141396,-0.009625119741036293,-0.011898735483314658,-0.06478432044019722,0,70,255.0,255.0,255.0
203,10.15,0.8538582465105812,12.860348822023282,-3.833961311555997,-0.12300024057670263,-0.1219002583393672,-0.7312675677396586,-0.010836742245728666,-0.01181503691480934,-0.06334552858057235,0,70,255.0,255.0,255.0
204,10.200000000000001,0.8476941837112285,12.854239075184573,-3.8706032723570982,-0.12357236825160638,-0.12248891772089504,-0.7343988743721968,-0.012048364750421085,-0.01173133834630402,-0.06190673672094743,0,70,255.0,255.0,255.0
205,10.25,0.8415,12.8481,-3.9074,-0.12420507705174472,-0.12307339217399758,-0.7374582414117533,-0.013259987255113348,-0.011647639777797925,-0.0604679448613199,0,70,255.0,255.0,255.0
206,10.3,0.8352736963142611,12.84193202953587,-3.944348863532626,-0.12483656735946431,-0.12364025250534098,-0.7405036305124891,-0.011999625053670363,-0.01102677347593747,-0.06134761916811461,0,70,255.0,255.0,255.0
207,10.350000000000001,0.8290173935658879,12.83573649213805,-3.981451096113172,-0.12540503955711177,-0.12417606952159135,-0.7435930033285649,-0.01073926285222738,-0.010405907174077016,-0.06222729347490932,0,70,255.0,255.0,255.0
208,10.4,0.8227342426603844,12.829514939972297,-4.0187088969274045,-0.12591049364468704,-0.12468084322274868,-0.7467263598599801,-0.00947890065078444,-0.009785040872216584,-0.063106967781704,0,70,255.0,255.0,255.0
209,10.450000000000001,0.8164273945032537,12.82326892520436,-4.056124465161093,-0.12635292962219022,-0.125154573608813,-0.7499037001067352,-0.008218538449341457,-0.00916417457035613,-0.0639866420884987,0,70,255.0,255.0,255.0
210,10.5,0.8101,12.817,-4.0937,-0.1267323474896212,-0.1255972606797843,-0.75312502406883,-0.006958176247898518,-0.008543308268495364,-0.06486631639529339,0,70,255.0,255.0,255.0
211,10.55,0.8037538891442503,12.810709188179102,-4.1314372674717,-0.12712800195954313,-0.12604060518760787,-0.7563643422544055,-0.00886800254897822,-0.009190472044447482,-0.06470641102772756,0,70,255.0,255.0,255.0
212,10.600000000000001,0.797385608282128,12.804395400178093,-4.1693363009709685,-0.12761914774451905,-0.12651630788422907,-0.7595956651716028,-0.010777828850057923,-0.0098376358203996,-0.06454650566016173,0,70,255.0,255.0,255.0
213,10.65,0.7909903828478809,12.798057018087533,-4.207396700734386,-0.12820578484454892,-0.12702436876964784,-0.7628189928204216,-0.012687655151137558,-0.010484799596351695,-0.06438660029259591,0,70,255.0,255.0,255.0
214,10.700000000000001,0.7845634382757555,12.791692423997981,-4.245618066998538,-0.1288879132596328,-0.12756478784386424,-0.7660343252008625,-0.01459748145221726,-0.011131963372303813,-0.06422669492503008,0,70,255.0,255.0,255.0
215,10.75,0.7781,12.7853,-4.284,-0.12966553298977063,-0.12813756510687818,-0.7692416623129247,-0.016507307753296896,-0.011779127148255686,-0.06406678955746425,0,70,255.0,255.0,255.0
216,10.8,0.7715971471087375,12.778878417747721,-4.322542066580578,-0.13042742480236358,-0.12872532674424134,-0.772439000469885,-0.0139683647504207,-0.011731338346269648,-0.06382673672094992,0,70,255.0,255.0,255.0
217,10.850000000000001,0.7650593733055993,12.772427507149578,-4.361243700002959,-0.1310623694648127,-0.12931069894150518,-0.7756243359850198,-0.011429421747544504,-0.01168354954428361,-0.06358668388443557,0,70,255.0,255.0,255.0
218,10.9,0.7584930259480922,12.76594738767757,-4.400104300135049,-0.13157036697711805,-0.1298936816986697,-0.7787976688583286,-0.0088904787446684,-0.011635760742297574,-0.06334663104792124,0,70,255.0,255.0,255.0
219,10.950000000000001,0.7519044523937232,12.75943817880371,-4.439123266844761,-0.13195141733927954,-0.13047427501573491,-0.7819589990898119,-0.006351535741792204,-0.011587971940311536,-0.0631065782114069,0,70,255.0,255.0,255.0
220,11.0,0.7453,12.7529,-4.4783,-0.13220552055129728,-0.1310524788927008,-0.7851083266794693,-0.0038125927389158765,-0.011540183138324833,-0.06286652537489257,0,70,255.0,255.0,255.0
221,11.05,0.7386839224207987,12.746333140830012,-4.51763366620599,-0.13245829883100366,-0.13161808783541856,-0.7882316558660543,-0.006298538449339377,-0.011084174570385612,-0.062066642088503154,0,70,255.0,255.0,255.0
222,11.100000000000001,0.732052098495474,12.739738571223599,-4.557122499017202,-0.13283537439623122,-0.13216089634973938,-0.7913149908883197,-0.008784484159762877,-0.010628166002446392,-0.06126675880211374,0,70,255.0,255.0,255.0
223,11.15,0.7253983133597502,12.733117431202178,-4.596764498725417,-0.13333674724697994,-0.13268090443566322,-0.7943583317462656,-0.01127042987018629,-0.010172157434507187,-0.060466875515724355,0,70,255.0,255.0,255.0
224,11.200000000000001,0.7187163521493508,12.72647086078717,-4.636557665622423,-0.13396241738324985,-0.1331781120931901,-0.797361678439892,-0.013756375580609789,-0.009716148866567966,-0.05966699222933494,0,70,255.0,255.0,255.0
225,11.25,0.712,12.7198,-4.6765,-0.13471238480504089,-0.13365251932231997,-0.800325030969199,-0.016242321291032535,-0.009260140298628095,-0.05886710894294378,0,70,255.0,255.0,255.0
226,11.3,0.7052447632080668,12.71310581893223,-4.716590468595466,-0.13548337987362213,-0.13411432191409337,-0.8033063760658982,-0.014597481452217108,-0.00921196337230805,-0.060386694925021286,0,70,255.0,255.0,255.0
227,11.350000000000001,0.6984530327125033,12.706388607956029,-4.7568319039282425,-0.13617213295026262,-0.13457371565955079,-0.8063637004617012,-0.012952641613401681,-0.009163786445988007,-0.0619062809070988,0,70,255.0,255.0,255.0
228,11.4,0.6916289206129064,12.699648487513713,-4.7972281049632866,-0.1367786440349623,-0.13503070055869218,-0.8094970041566081,-0.011307801774586311,-0.009115609519667967,-0.06342586688917626,0,70,255.0,255.0,255.0
229,11.450000000000001,0.6847765390088728,12.692885578047598,-4.837782870665555,-0.13730291312772125,-0.13548527661151757,-0.8127062871506189,-0.009662961935770886,-0.009067432593347923,-0.06494545287125376,0,70,255.0,255.0,255.0
230,11.5,0.6779,12.6861,-4.8785,-0.1377449402285394,-0.13593744381802697,-0.8159915494437334,-0.008018122096955071,-0.009019255667027437,-0.06646503885333299,0,70,255.0,255.0,255.0
231,11.55,0.6710026247469331,12.679291583441067,-4.919382059412153,-0.13815218167450807,-0.1364046245082097,-0.8192788398703523,-0.00827153574179205,-0.00966797194028147,-0.06502657821142054,0,70,255.0,255.0,255.0
232,11.600000000000001,0.6640845706545115,12.672458996952285,-4.960426685269835,-0.13857209380271862,-0.13690424101205514,-0.8224942072648755,-0.00852494938662903,-0.010316688213535504,-0.06358811756950807,0,70,255.0,255.0,255.0
233,11.65,0.6571452041886239,12.665600618742966,-5.001630281421439,-0.13900467661317098,-0.13743629332956325,-0.8256376516273031,-0.008778363031465999,-0.010965404486789515,-0.06214965692759565,0,70,255.0,255.0,255.0
234,11.700000000000001,0.6501838918151572,12.658714827022434,-5.042989251715364,-0.1394499301058652,-0.13800078146073408,-0.8287091729576351,-0.009031776676302977,-0.011614120760043548,-0.060711196285683194,0,70,255.0,255.0,255.0
235,11.75,0.6432,12.6518,-5.0845,-0.13990785428080127,-0.1385977054055676,-0.8317087712558714,-0.009285190321139059,-0.012262837033297558,-0.05927273564376723,0,70,255.0,255.0,255.0
236,11.8,0.6361927378042003,12.6448550473035,-5.126159693755927,-0.140387893428345,-0.13919518005306497,-0.8346822644526984,-0.009916375580609503,-0.011636148866597286,-0.05966699222931542,0,70,255.0,255.0,255.0
237,11.850000000000001,0.6291606846694492,12.637881004234831,-5.1679685549924255,-0.14089949183886222,-0.13976132029222735,-0.8376754704788031,-0.010547560840079946,-0.011009460699897016,-0.06006124881486362,0,70,255.0,255.0,255.0
238,11.9,0.6221022626325979,12.630879437514414,-5.2099275693509615,-0.14144264951235297,-0.14029612612305467,-0.8406883893341848,-0.011178746099550368,-0.010382772533196766,-0.06045550540041181,0,70,255.0,255.0,255.0
239,11.950000000000001,0.6150158937304976,12.623851913862666,-5.252037722472999,-0.14201736644881727,-0.14079959754554702,-0.8437210210188443,-0.01180993135902081,-0.009756084366496496,-0.06084976198596,0,70,255.0,255.0,255.0
240,12.0,0.6079,12.6168,-5.2943,-0.14262364264825503,-0.1412717345597043,-0.8467733655327808,-0.012441116618490566,-0.00912939619979558,-0.06124401857150463,0,70,255.0,255.0,255.0
241,12.05,0.6007536240362652,12.609725027344933,-5.3367151655641445,-0.1432242446121116,-0.14172665527953202,-0.84983210231885,-0.011582961935772695,-0.009067432593313506,-0.06110545287126268,0,70,255.0,255.0,255.0
242,12.100000000000001,0.5935782906676909,12.602627386108386,-5.37928309476047,-0.1437819388418323,-0.14217847781903564,-0.8528839108199072,-0.010724807253054823,-0.009005468986831432,-0.060966887171020716,0,70,255.0,255.0,255.0
243,12.15,0.5863761452809843,12.59550723119937,-5.422003441174719,-0.1442967253374171,-0.14262720217821517,-0.8559287910359521,-0.00986665257033698,-0.008943505380349359,-0.06082832147077877,0,70,255.0,255.0,255.0
244,12.200000000000001,0.5791493332628516,12.588364717526902,-5.464875858392648,-0.14476860409886602,-0.1430728283570706,-0.858966742966985,-0.00900849788761911,-0.008881541773867284,-0.06068975577053681,0,70,255.0,255.0,255.0
245,12.25,0.5719,12.5812,-5.5079,-0.14519757512617903,-0.14351535635560192,-0.8619977666130058,-0.008150343204901489,-0.008819578167384545,-0.06055119007029308,0,70,255.0,255.0,255.0
246,12.3,0.5646295660507384,12.574012843316764,-5.551075643987495,-0.1456271281232091,-0.14397819882878857,-0.8650293262719052,-0.009031776676300587,-0.00969412076008186,-0.06071119628568181,0,70,255.0,255.0,255.0
247,12.350000000000001,0.557336552659786,12.566801451331628,-5.594403065965706,-0.1461007527938091,-0.14448476843161012,-0.868068886241574,-0.009913210147699683,-0.010568663352779176,-0.060871202501070525,0,70,255.0,255.0,255.0
248,12.4,0.5500187562434647,12.559563637688111,-5.6378826659501655,-0.14661844913797906,-0.1450350651640665,-0.8711164465220123,-0.01079464361909875,-0.011443205945476459,-0.06103120871645924,0,70,255.0,255.0,255.0
249,12.450000000000001,0.5426739732180954,12.552297216029729,-5.6815148439564185,-0.14718021715571897,-0.14562908902615776,-0.8741720071132199,-0.011676077090497845,-0.012317748538173775,-0.06119121493184796,0,70,255.0,255.0,255.0
250,12.5,0.5353,12.545,-5.7253,-0.14778605684702883,-0.14626684001788384,-0.877235568015197,-0.012557510561896468,-0.013192291130871281,-0.06135122114724023,0,70,255.0,255.0,255.0
251,12.55,0.5278953117607806,12.53767079938801,-5.769238258485877,-0.14839524289505177,-0.14688854940531793,-0.880290592593527,-0.011809931359020165,-0.011676084366491968,-0.06084976198596034,0,70,255.0,255.0,255.0
252,12.600000000000001,0.5204610986931636,12.530312408565106,-5.813328641376719,-0.14896704998293087,-0.14743444845453307,-0.8833205442137931,-0.011062352156143863,-0.010159877602112656,-0.060348302824680455,0,70,255.0,255.0,255.0
253,12.65,0.5129992297451567,12.522928618048194,-5.857569895024622,-0.14950147811066614,-0.1479045371655292,-0.886325422875995,-0.010314772953267586,-0.008643670837733397,-0.05984684366340058,0,70,255.0,255.0,255.0
254,12.700000000000001,0.5055115738647662,12.51552321835419,-5.901960765781683,-0.1499985272782576,-0.1482988155383064,-0.8893052285801332,-0.009567193750391285,-0.007127464073354085,-0.05934538450212069,0,70,255.0,255.0,255.0
255,12.75,0.498,12.5081,-5.9465,-0.15045819748570527,-0.14861728357286463,-0.8922599613262071,-0.008819614547514565,-0.005611257308975048,-0.058843925340842596,0,70,255.0,255.0,255.0
256,12.8,0.49046598690613846,12.500661559131194,-5.9911865220689995,-0.15090390029658363,-0.14893160354993495,-0.8952003033539917,-0.009008497887620329,-0.006961541773837451,-0.058769755770540576,0,70,255.0,255.0,255.0
257,12.850000000000001,0.482909452567558,12.493205714407951,-6.036019968527426,-0.1513590472744673,-0.14931343775024838,-0.8981369369032612,-0.009197381227726092,-0.008311826238699853,-0.058695586200238556,0,70,255.0,255.0,255.0
258,12.9,0.47532992477590846,12.485729090119115,-6.08100015395135,-0.15182363841935625,-0.14976278617380492,-0.9010698619740156,-0.00938626456783185,-0.009662110703562208,-0.05862141662993654,0,70,255.0,255.0,255.0
259,12.950000000000001,0.467726931322839,12.47822831055352,-6.126126892916852,-0.1522976737312505,-0.1502796488206046,-0.9039990785662548,-0.009575147907937613,-0.011012395168424612,-0.05854724705963452,0,70,255.0,255.0,255.0
260,13.0,0.4601,12.4707,-6.1714,-0.15278115321015,-0.15086402569064739,-0.9069245866799791,-0.009764031248042926,-0.012362679633286966,-0.05847307748933517,0,70,255.0,255.0,255.0
261,13.05,0.45244874061466467,12.463141364087216,-6.2168196532381295,-0.15326915591861354,-0.15148103639493476,-0.9098681939905084,-0.009756077090497773,-0.012317748538207773,-0.05927121493183699,0,70,255.0,255.0,255.0
262,13.100000000000001,0.4447730910366031,12.455551933803086,-6.262387484513588,-0.1537567609191998,-0.15209580054446817,-0.9128517081731629,-0.009748122932952618,-0.012272817443128579,-0.060069352374338816,0,70,255.0,255.0,255.0
263,13.15,0.43707307115120936,12.447931821475349,-6.30810548916998,-0.15424396821190878,-0.15270831813924762,-0.9158751292279423,-0.009740168775407464,-0.012227886348049388,-0.060867489816840606,0,70,255.0,255.0,255.0
264,13.200000000000001,0.42934870084387683,12.440281139431743,-6.353975662550917,-0.15473077779674055,-0.15331858917927313,-0.9189384571548469,-0.009732214617862311,-0.012182955252970194,-0.06166562725934243,0,70,255.0,255.0,255.0
265,13.25,0.4216,12.4326,-6.4,-0.15521718967369502,-0.15392661366454466,-0.9220416919538765,-0.009724260460316714,-0.01213802415789167,-0.062463764701846,0,70,255.0,255.0,255.0
266,13.3,0.41382705063520214,12.424888984519944,-6.446179664978489,-0.1556994760289627,-0.1545042508703256,-0.9251349206839757,-0.009567193750389967,-0.010967464073345506,-0.0612653845021171,0,70,255.0,255.0,255.0
267,13.350000000000001,0.4060301832860284,12.417150550379704,-6.492512493418233,-0.15617390904873402,-0.15502336007187922,-0.9281682304040884,-0.009410127040463219,-0.009796903988799344,-0.06006700430238819,0,70,255.0,255.0,255.0
268,13.4,0.39820979061925377,12.409387623979494,-6.538995489368731,-0.156640488733009,-0.15548394126920553,-0.9311416211142145,-0.009253060330536477,-0.008626343904253223,-0.058868624102659334,0,70,255.0,255.0,255.0
269,13.450000000000001,0.39036626530165247,12.401603131719522,-6.585625656879487,-0.15709921508178767,-0.15588599446230453,-0.9340550928143542,-0.009095993620609729,-0.00745578381970706,-0.05767024390293043,0,70,255.0,255.0,255.0
270,13.5,0.3825,12.3938,-6.6324,-0.15755008809506998,-0.15622951965117624,-0.9369086455045074,-0.008938926910682987,-0.0062852237351604945,-0.05647186370319712,0,70,255.0,255.0,255.0
271,13.55,0.3746110568445259,12.38598029783301,-6.679316086847919,-0.1580129399655355,-0.15656596012376608,-0.9397361232735787,-0.00957514790793753,-0.007172395168433233,-0.05662724705965605,0,70,255.0,255.0,255.0
272,13.600000000000001,0.3666981758192819,12.378142664678096,-6.7263737418134895,-0.15850760288586377,-0.1569467591680196,-0.9425713702104731,-0.01021136890519207,-0.008059566601705972,-0.05678263041611498,0,70,255.0,255.0,255.0
273,13.65,0.35875976637177515,12.370284882606677,-6.773573353355097,-0.1590340768560547,-0.15737191678393667,-0.9454143863151903,-0.010847589902446591,-0.00894673803497868,-0.0569380137725739,0,70,255.0,255.0,255.0
274,13.700000000000001,0.35079423794951203,12.362404733690175,-6.820915309931138,-0.15959236187610842,-0.15784143297151745,-0.9482651715877304,-0.011483810899701134,-0.009833909468251419,-0.05709339712903283,0,70,255.0,255.0,255.0
275,13.75,0.3428,12.3545,-6.8684,-0.1601824579460248,-0.15835530773076184,-0.9511237260280935,-0.012120031896954986,-0.010721080901524349,-0.057248780485488204,0,70,255.0,255.0,255.0
276,13.8,0.3347759219866937,12.346569024148021,-6.9160279876298345,-0.16077676410889524,-0.15887990863462348,-0.954000586221714,-0.011652214617862849,-0.010262955252941002,-0.057825627259334496,0,70,255.0,255.0,255.0
277,13.850000000000001,0.32672271343684284,12.33861239090791,-6.963800539327818,-0.1613476794078111,-0.15938160325605596,-0.9569062887540271,-0.011184397338770712,-0.009804829604357655,-0.05840247403318079,0,70,255.0,255.0,255.0
278,13.9,0.3186415438936453,12.33063124559379,-7.011719097210882,-0.1618952038427723,-0.15986039159505924,-0.9598408336250321,-0.01071658005967859,-0.009346703955774324,-0.058979320807027065,0,70,255.0,255.0,255.0
279,13.950000000000001,0.3105335829002982,12.322626733519778,-7.059785103395965,-0.16241933741377892,-0.1603162736516334,-0.9628042208347297,-0.010248762780586453,-0.008888578307190977,-0.059556167580873356,0,70,255.0,255.0,255.0
280,14.0,0.3024,12.3146,-7.108,-0.16292008012083092,-0.16074924942577834,-0.9657964503831195,-0.00978094550149411,-0.008430452658607646,-0.060133014354721404,0,70,255.0,255.0,255.0
281,14.05,0.29424205520869856,12.306551605574905,-7.1563647626327445,-0.1633920035988835,-0.1611944053377361,-0.9687895318395606,-0.009095993620608835,-0.009375783819702402,-0.05959024390292508,0,70,255.0,255.0,255.0
282,14.100000000000001,0.2860613704333455,12.29847977169026,-7.204878500875248,-0.16382967948289182,-0.16168682780774857,-0.971755474773412,-0.00841104173972356,-0.010321114980797158,-0.059047473451128756,0,70,255.0,255.0,255.0
283,14.15,0.27785965805364343,12.290382135018163,-7.253539857801376,-0.16423310777285585,-0.1622265168358158,-0.9746942791846736,-0.00772608985883831,-0.01126644614189188,-0.058504702999332456,0,70,255.0,255.0,255.0
284,14.200000000000001,0.269638630449294,12.282256332230709,-7.3023474764850045,-0.16460228846877564,-0.16281347242193778,-0.9776059450733453,-0.007041137977953035,-0.012211777302986636,-0.057961932547536135,0,70,255.0,255.0,255.0
285,14.25,0.2614,12.2741,-7.3513,-0.1649372215706512,-0.16344769456611447,-0.9804904724394271,-0.006356186097067562,-0.013157108464080913,-0.05741916209573805,0,70,255.0,255.0,255.0
286,14.3,0.2531446571785116,12.265911753552363,-7.400396161839189,-0.16528722149557043,-0.16407047001442354,-0.9833532864200468,-0.0076438108997015156,-0.011753909468281056,-0.057093397129047395,0,70,255.0,255.0,255.0
287,14.350000000000001,0.2448702048297739,12.257694122331054,-7.449635057171201,-0.16570160266062134,-0.16462308551294258,-0.9861998121523319,-0.008931435702335469,-0.010350710472481199,-0.05676763216235673,0,70,255.0,255.0,255.0
288,14.4,0.23657342389178063,12.249450614333567,-7.499015871583616,-0.16618036506580394,-0.16510554106167166,-0.9890300496362825,-0.010219060504969377,-0.008947511476681392,-0.05644186719566608,0,70,255.0,255.0,255.0
289,14.450000000000001,0.2282510953025247,12.241184737557385,-7.548537790664022,-0.1667235087111183,-0.1655178366606107,-0.9918439988718984,-0.01150668530760333,-0.007544312480881535,-0.05611610222897542,0,70,255.0,255.0,255.0
290,14.5,0.2199,12.2329,-7.5982,-0.16733103359656426,-0.1658599723097598,-0.9946416598591798,-0.012794310110235685,-0.006141113485081284,-0.05579033726227678,0,70,255.0,255.0,255.0
291,14.55,0.2115177160772546,12.224598980215648,-7.648001790010504,-0.16795511041883482,-0.16618771460456672,-0.997429322480258,-0.01216876278058611,-0.006968578307195384,-0.05571616758084658,0,70,255.0,255.0,255.0
292,14.600000000000001,0.20310501024755767,12.216280538985526,-7.69794287043996,-0.1685479098746229,-0.16655683014047934,-1.0002132766172647,-0.011543215450936532,-0.007796043129309484,-0.055641997899416394,0,70,255.0,255.0,255.0
293,14.65,0.19466344637923372,12.20794260764758,-7.748023055864162,-0.16910943196392847,-0.16696731891749764,-1.0029935222701996,-0.010917668121286979,-0.008623507951423554,-0.055567828217986205,0,70,255.0,255.0,255.0
294,14.700000000000001,0.18619458834060626,12.199583117539756,-7.798242160858911,-0.16963967668675156,-0.1674191809356217,-1.0057700594390633,-0.010292120791637403,-0.009450972773537653,-0.05549365853655601,0,70,255.0,255.0,255.0
295,14.75,0.1777,12.1912,-7.8486,-0.1701386440430922,-0.16791241619485142,-1.008542888123855,-0.009666573461987404,-0.010278437595651724,-0.05541948885512049,0,70,255.0,255.0,255.0
296,14.8,0.16918127851246945,12.182791525585051,-7.899096678118801,-0.1706043368290907,-0.16842667156731747,-1.011329423658921,-0.008961137977952472,-0.010291777302991,-0.0560419325475234,0,70,255.0,255.0,255.0
297,14.850000000000001,0.16064015417999405,12.174357321726845,-7.949733461068971,-0.17103475784088745,-0.16894159392515054,-1.0141470813786073,-0.00825570249391754,-0.010305117010330279,-0.0566643762399263,0,70,255.0,255.0,255.0
298,14.9,0.15207839059128414,12.165897355076114,-8.000511904959739,-0.17142990707848244,-0.16945718326835052,-1.0169958612829137,-0.007550267009882634,-0.010318456717669556,-0.05728681993232918,0,70,255.0,255.0,255.0
299,14.950000000000001,0.14349775133504922,12.157411592283589,-8.051433565900338,-0.1717897845418757,-0.1699734395969175,-1.0198757633718403,-0.006844831525847701,-0.010331796425008833,-0.05790926362473209,0,70,255.0,255.0,255.0
300,15.0,0.1349,12.1489,-8.1025,-0.1721143902310672,-0.17049036291085137,-1.0227867876453867,-0.006139396041813017,-0.010345136132347443,-0.05853170731712609,0,70,255.0,255.0,255.0
301,15.05,0.12628596987286683,12.140362917444147,-8.153712297514296,-0.1724595422648026,-0.17098559912618114,-1.02570098288404,-0.0076666853076025054,-0.009464312480842662,-0.0580361022289999,0,70,255.0,255.0,255.0
302,15.100000000000001,0.11765277303246467,12.13180217410709,-8.205069685284164,-0.17288105876182747,-0.17143679415893565,-1.0285903978682867,-0.009193974573391994,-0.00858348882933788,-0.05754049714087371,0,70,255.0,255.0,255.0
303,15.15,0.10899659125562933,12.123219972047963,-8.256570924296884,-0.1733789397221418,-0.17184394800911493,-1.031455032598127,-0.010721263839181427,-0.0077026651778331285,-0.05704489205274754,0,70,255.0,255.0,255.0
304,15.200000000000001,0.10031360631919571,12.114618513325889,-8.308214775539737,-0.17395318514574562,-0.17220706067671898,-1.0342948870735615,-0.012248553104970916,-0.006821841526328346,-0.056549286964621345,0,70,255.0,255.0,255.0
305,15.25,0.0916,12.106,-8.36,-0.17460379503263887,-0.17252613216174773,-1.0371099612945893,-0.01377584237076035,-0.005941017874822929,-0.05605368187649162,0,70,255.0,255.0,255.0
306,15.3,0.08285324199606245,12.09736560463836,-8.411925331824017,-0.17525349411169883,-0.17286293192795688,-1.0398986448049163,-0.012212120791637493,-0.0075309727735421335,-0.05549365853658727,0,70,255.0,255.0,255.0
307,15.350000000000001,0.0740759536901458,12.088712381844786,-8.463989397794377,-0.17582500711180266,-0.17327922943910196,-1.0426593271482483,-0.010648399212514637,-0.009120927672261338,-0.054933635196682915,0,70,255.0,255.0,255.0
308,15.4,0.06527204438619819,12.080036356732036,-8.516190797852722,-0.17631833403295027,-0.173775024695183,-1.0453920083245847,-0.009084677633391835,-0.010710882570980485,-0.054373611856778574,0,70,255.0,255.0,255.0
309,15.450000000000001,0.05644542338816677,12.071333554412854,-8.568528131940717,-0.17673347487514182,-0.17435031769620002,-1.048096688333926,-0.007520956054268979,-0.012300837469699687,-0.05381358851687422,0,70,255.0,255.0,255.0
310,15.5,0.0476,12.0626,-8.621,-0.1770704296383772,-0.17500510844215295,-1.050773367176272,-0.005957234475147066,-0.013890792368417504,-0.05325356517696633,0,70,255.0,255.0,255.0
311,15.55,0.03873866214288262,12.053833064002408,-8.673605575189638,-0.17739048128840212,-0.17565867316198935,-1.0534564378963134,-0.006844831525848307,-0.012251796425037641,-0.054069263624684546,0,70,255.0,255.0,255.0
312,15.600000000000001,0.029860212206950624,12.045035498513753,-8.726346323538339,-0.17775491279096206,-0.17623028808465674,-1.0561802935387405,-0.007732428576549547,-0.010612800481657778,-0.05488496207240277,0,70,255.0,255.0,255.0
313,15.65,0.020962431199577566,12.036211401023895,-8.77922428429222,-0.17816372414605705,-0.1767199532101551,-1.0589449341035535,-0.008620025627250755,-0.008973804538277973,-0.05570066052012095,0,70,255.0,255.0,255.0
314,15.700000000000001,0.012043100128136065,12.02736486902269,-8.832241496697401,-0.17861691535368712,-0.17712766853848452,-1.0617503595907525,-0.009507622677951995,-0.007334808594898111,-0.05651635896783917,0,70,255.0,255.0,255.0
315,15.75,0.0031,12.0185,-8.8854,-0.17911448641385225,-0.1774534340696449,-1.0645965700003373,-0.010395219728652538,-0.005695812651517196,-0.05733205741555558,0,70,255.0,255.0,255.0
316,15.8,-0.005868690567593688,12.009619739352004,-8.938701167417433,-0.17963258073469282,-0.17776637542409018,-1.067443603609841,-0.01032855310497025,-0.006821841526293831,-0.05654928696458689,0,70,255.0,255.0,255.0
317,15.850000000000001,-0.014863202517949802,12.000722424100195,-8.992143708052277,-0.1801473417243493,-0.17813561822227428,-1.070251498696796,-0.01026188648128796,-0.007947870401070466,-0.05576651651361819,0,70,255.0,255.0,255.0
318,15.9,-0.02388336918450882,11.991805239172383,-9.045725664978404,-0.18065876938282163,-0.1785611624641972,-1.0730202552612027,-0.010195219857605674,-0.00907389927584706,-0.054983746062649524,0,70,255.0,255.0,255.0
319,15.950000000000001,-0.032929023900712166,11.982865369496379,-9.099445081269687,-0.18116686371010984,-0.179043008149859,-1.0757498733030608,-0.010128553233923386,-0.010199928150623695,-0.05420097561168083,0,70,255.0,255.0,255.0
320,16.0,-0.042,11.9739,-9.1533,-0.18167162470621398,-0.17958115527925958,-1.0784403528223707,-0.010061886610241988,-0.01132595702540029,-0.05341820516071216,0,70,255.0,255.0,255.0
321,16.05,-0.05109589987250864,11.96490717858957,-9.207288955140635,-0.18215919577282677,-0.18012382514163805,-1.0811211476643112,-0.009440956054269636,-0.01038083746973791,-0.053813588516907276,0,70,255.0,255.0,255.0
322,16.1,-0.060215402135152966,11.955888405085464,-9.261412444252564,-0.18261572031164097,-0.1806192390262334,-1.0838217116740616,-0.008820025498297284,-0.009435717914075532,-0.0542089718731024,0,70,255.0,255.0,255.0
323,16.150000000000002,-0.06935695446154302,11.946846042286577,-9.315671455794174,-0.18304119832265653,-0.1810673969330456,-1.0865420448516214,-0.008199094942324932,-0.008490598358413152,-0.05460435522929751,0,70,255.0,255.0,255.0
324,16.2,-0.07851900452528825,11.937782452991792,-9.370066978223852,-0.18343562980587344,-0.1814682988620747,-1.0892821471969913,-0.007578164386352624,-0.00754547880275084,-0.054999738585492605,0,70,255.0,255.0,255.0
325,16.25,-0.0877,11.9287,-9.4246,-0.18379901476129176,-0.18182194481332067,-1.092042018710171,-0.00695723383038005,-0.006600359247088461,-0.055395121941689496,0,70,255.0,255.0,255.0
326,16.3,-0.09689890994237252,11.919600346289712,-9.47927101202003,-0.18416263617400006,-0.18217032400937033,-1.0947918057329094,-0.007587622677951398,-0.007334808594897579,-0.054596358967841485,0,70,255.0,255.0,255.0
327,16.35,-0.10611678894143992,11.910482355557939,-9.53407851493748,-0.18455777702908693,-0.18255542567281047,-1.0975016546069551,-0.008218011525522746,-0.008069257942706697,-0.053797595993993474,0,70,255.0,255.0,255.0
328,16.400000000000002,-0.11535521296932111,11.901344191681307,-9.589020511844915,-0.18498443732655234,-0.182977249803641,-1.1001715653323088,-0.008848400373094095,-0.008803707290515814,-0.052998833020145464,0,70,255.0,255.0,255.0
329,16.45,-0.12461575799813439,11.892184018536453,-9.644095005834899,-0.18544261706639628,-0.183435796401862,-1.1028015379089695,-0.009478789220665397,-0.00953815663832488,-0.05220007004629751,0,70,255.0,255.0,255.0
330,16.5,-0.1339,11.883,-9.6993,-0.1859323162486189,-0.18393106546747348,-1.105391572336938,-0.01010917806823608,-0.010272605986134442,-0.051401307072437064,0,70,255.0,255.0,255.0
331,16.55,-0.14320926035800205,11.873790636251574,-9.754634196779246,-0.18643825953117288,-0.18444287882089075,-1.107983629404041,-0.01012855323392392,-0.010199928150555636,-0.05228097561168107,0,70,255.0,255.0,255.0
332,16.6,-0.15254384209908894,11.864555772682772,-9.81009909599752,-0.18694517157201132,-0.18495105828252906,-1.1106196698981063,-0.01014792839961176,-0.01012725031497683,-0.05316064415092508,0,70,255.0,255.0,255.0
333,16.650000000000002,-0.16190379366117486,11.855295590988185,-9.865696896826174,-0.1874530523711341,-0.18545560385238846,-1.1132996938191337,-0.010167303565299601,-0.010054572479398024,-0.05404031269016908,0,70,255.0,255.0,255.0
334,16.7,-0.17128916348217338,11.846010272862397,-9.921429798436547,-0.18796190192854123,-0.18595651553046882,-1.1160237011671232,-0.010186678730987442,-0.009981894643819223,-0.05491998122941303,0,70,255.0,255.0,255.0
335,16.75,-0.1807,11.8367,-9.9773,-0.18847172024423284,-0.18645379331677034,-1.1187916919420746,-0.010206053896675504,-0.00990921680823953,-0.05579964976865526,0,70,255.0,255.0,255.0
336,16.8,-0.19013604862561997,11.827365108703987,-10.03330900086299,-0.18896432570130856,-0.1869381607070467,-1.1215616766509284,-0.009498164386352526,-0.009465478802814113,-0.05499973858549721,0,70,255.0,255.0,255.0
337,16.85,-0.19959584266220584,11.818006553710967,-10.089455501072441,-0.1894215366828681,-0.18740034119705176,-1.1242916658006243,-0.008790274876029548,-0.009021740797388699,-0.054199827402339175,0,70,255.0,255.0,255.0
338,16.900000000000002,-0.2090776123859818,11.808625444365953,-10.145737500850402,-0.18984335318891152,-0.18784033478678558,-1.1269816593911626,-0.00808238536570657,-0.008578002791963283,-0.05339991621918113,0,70,255.0,255.0,255.0
339,16.95,-0.21857958807317135,11.79922289001396,-10.202153000418903,-0.19022977521943873,-0.18825814147624806,-1.1296316574225425,-0.007374495855383644,-0.0081342647865379,-0.05260000503602315,0,70,255.0,255.0,255.0
340,17.0,-0.2281,11.7898,-10.2587,-0.19058080277444986,-0.1886537612654393,-1.1322416598947647,-0.006666606345060666,-0.007690526781111373,-0.05180009385287221,0,70,255.0,255.0,255.0
341,17.05,-0.23763774513951877,11.780357728932476,-10.315376999768802,-0.19093643766359303,-0.18903647835092535,-1.1348416639922438,-0.007558789220665454,-0.0076181566383294085,-0.052200070046294664,0,70,255.0,255.0,255.0
342,17.1,-0.24719438725208925,11.770896412473359,-10.37218449971272,-0.1913366816965164,-0.18941557692927227,-1.1374616668993942,-0.008450972096270241,-0.007545786495547444,-0.05260004623971711,0,70,255.0,255.0,255.0
343,17.150000000000002,-0.25677215679490034,11.761416231548003,-10.429123499772237,-0.19178153487322006,-0.1897910570004801,-1.1401016686162155,-0.009343154971875028,-0.00747341635276548,-0.05300002243313957,0,70,255.0,255.0,255.0
344,17.2,-0.2663732842251405,11.751917367081765,-10.486194999887834,-0.19227099719370389,-0.19016291856454878,-1.142761669142708,-0.010235337847479752,-0.007401046209983521,-0.05339999862656199,0,70,255.0,255.0,255.0
345,17.25,-0.276,11.7424,-10.5434,-0.192805068657968,-0.19053116162147843,-1.145441668478872,-0.011127520723084983,-0.007328676067201556,-0.05379997481998977,0,70,255.0,255.0,255.0
346,17.3,-0.2856537708163057,11.732863975566103,-10.600739000061807,-0.19333792364431981,-0.19091592588925319,-1.1481116673801073,-0.010186678730987296,-0.008061894643789468,-0.05299998122941537,0,70,255.0,255.0,255.0
347,17.35,-0.2953330083294389,11.723307796395595,-10.658210500076686,-0.19382373653106674,-0.1913373510858574,-1.1507416666018135,-0.009245836738889608,-0.00879511322037738,-0.05219998763884097,0,70,255.0,255.0,255.0
348,17.400000000000002,-0.30503536043441926,11.713729629442035,-10.715812500060665,-0.1942625073182088,-0.19179543721129094,-1.1533316661439914,-0.00830499474679192,-0.009528331796965293,-0.051399994048266576,0,70,255.0,255.0,255.0
349,17.45,-0.3147584750262659,11.704127641658985,-10.77354300002976,-0.19465423600574594,-0.19229018426555392,-1.15588166600664,-0.0073641527546943,-0.010261550373553153,-0.05060000045769223,0,70,255.0,255.0,255.0
350,17.5,-0.3245,11.6945,-10.8314,-0.1949989225936782,-0.19282159224864628,-1.1583916661897606,-0.0064233107625970565,-0.010994768950140843,-0.04980000686711605,0,70,255.0,255.0,255.0
351,17.55,-0.33425837159525934,11.684845568803116,-10.889382199983977,-0.1953438677591277,-0.19334781809206314,-1.1609036664873384,-0.0073744958553832035,-0.010054264786532605,-0.050680005035993514,0,70,255.0,255.0,255.0
352,17.6,-0.34403517943015705,11.675166001944262,-10.947491099980542,-0.19573637217921655,-0.19382701872729957,-1.16345966669336,-0.00832568094816935,-0.009113760622924367,-0.051560003204870974,0,70,255.0,255.0,255.0
353,17.650000000000002,-0.3538328014674252,11.665463650683854,-11.005728899985122,-0.19617643585394468,-0.19425919415435558,-1.1660596668078256,-0.009276866040955498,-0.008173256459316129,-0.05244000137374844,0,70,255.0,255.0,255.0
354,17.7,-0.36365361566979504,11.655740866282297,-11.06409779999313,-0.19666405878331206,-0.19464434437323117,-1.1687036668307347,-0.010228051133741575,-0.007232752295707958,-0.05331999954262584,0,70,255.0,255.0,255.0
355,17.75,-0.3735,11.646,-11.1226,-0.19719924096731883,-0.19498246938392633,-1.171391666762088,-0.011179236226528833,-0.006292248132097722,-0.05419999771149975,0,70,255.0,255.0,255.0
356,17.8,-0.38337354280265795,11.63624254922144,-11.181237000002293,-0.1977346053191691,-0.19532480174247918,-1.1740816666705398,-0.010235337847480683,-0.007401046210017019,-0.05339999862656412,0,70,255.0,255.0,255.0
357,17.85,-0.3932726739499347,11.626466595827354,-11.240007500001152,-0.1982227747520669,-0.19572257400492804,-1.1767316666247447,-0.009291439468432534,-0.008509844287936316,-0.05259999954162849,0,70,255.0,255.0,255.0
358,17.900000000000002,-0.40319503369588244,11.61666936782255,-11.298909499998864,-0.19866374926601235,-0.19617578617127285,-1.1793416666247025,-0.008347541089384385,-0.009618642365855615,-0.05180000045669285,0,70,255.0,255.0,255.0
359,17.95,-0.41313826229455297,11.606848093211829,-11.357940999997716,-0.19905752886100533,-0.19668443824151358,-1.1819116666704137,-0.007403642710336302,-0.010727440443774834,-0.051000001371757274,0,70,255.0,255.0,255.0
360,18.0,-0.4231,11.597,-11.4171,-0.19940411353704598,-0.19724853021565028,-1.184441666761878,-0.006459744331288375,-0.011836238521693465,-0.05020000228682342,0,70,255.0,255.0,255.0
361,18.05,-0.43307865719410954,11.587123434311126,-11.476385000006855,-0.19974971096419558,-0.19780097493803145,-1.1869616668304919,-0.0073641527546952764,-0.010261550373553452,-0.05060000045772917,0,70,255.0,255.0,255.0
362,18.1,-0.443075724770106,11.57722121474632,-11.535796500014861,-0.20014052881251554,-0.19827468525300562,-1.189501666807651,-0.008268561178102178,-0.008686862225413438,-0.05099999862863493,0,70,255.0,255.0,255.0
363,18.150000000000002,-0.4530934637490476,11.567297278025949,-11.595335500019432,-0.2005765670820058,-0.1986696611605728,-1.1920616666933554,-0.009172969601509078,-0.007112174077273425,-0.05139999679954067,0,70,255.0,255.0,255.0
364,18.2,-0.4631341351519923,11.557355560870388,-11.655003000016002,-0.2010578257726664,-0.198985902660733,-1.194641666487605,-0.010077378024915915,-0.005537485929133524,-0.0517999949704464,0,70,255.0,255.0,255.0
365,18.25,-0.4732,11.5474,-11.7148,-0.20158430488449738,-0.19922340975348612,-1.1972416661904002,-0.01098178644832326,-0.003962797780992844,-0.05219999314135393,0,70,255.0,255.0,255.0
366,18.3,-0.48329262842090437,11.53743331353405,-11.77472699997028,-0.20211455082404903,-0.19945529850540203,-1.1998316660074997,-0.010228051133742288,-0.005312752295643294,-0.05139999954262818,0,70,255.0,255.0,255.0
367,18.35,-0.49341082696964306,11.527453345187364,-11.83478249993942,-0.20260710999787163,-0.19975468498305046,-1.2023816661446631,-0.009474315819161317,-0.0066627068102937444,-0.05060000594390244,0,70,255.0,255.0,255.0
368,18.400000000000002,-0.5035527113079297,11.517456720073652,-11.894964499923418,-0.20306198240596518,-0.20012156918643143,-1.20489166660189,-0.008720580504580345,-0.008012661324944194,-0.04980001234517669,0,70,255.0,255.0,255.0
369,18.45,-0.513716397097477,11.507440063306625,-11.955270999938273,-0.20347916804832963,-0.20055595111554486,-1.2073616673791807,-0.007966845189999426,-0.009362615839594548,-0.049000018746451005,0,70,255.0,255.0,255.0
370,18.5,-0.5239,11.4974,-12.0157,-0.2038586669249651,-0.20105783077039086,-1.209791668476535,-0.007213109875418011,-0.010712570354245443,-0.04820002514771815,0,70,255.0,255.0,255.0
371,18.55,-0.5341020291222739,11.487333711552669,-12.076250200112023,-0.20422408573960887,-0.20159383104034306,-1.2122236691395203,-0.0074036427103330495,-0.010727440443842972,-0.04908000137168999,0,70,255.0,255.0,255.0
372,18.6,-0.5443225673513236,11.477240604504225,-12.136923100227476,-0.2045990311959984,-0.20213057481477517,-1.2146996686137042,-0.007594175545248089,-0.010742310533440503,-0.04995997759566182,0,70,255.0,255.0,255.0
373,18.650000000000002,-0.5545620910192365,11.467120641679449,-12.197720900286916,-0.2049835032941337,-0.20266806209368715,-1.2172196668990864,-0.007784708380163127,-0.010757180623038032,-0.05083995381963366,0,70,255.0,255.0,255.0
374,18.7,-0.564821076458099,11.456973785903115,-12.2586458002309,-0.20537750203401473,-0.20320629287707895,-1.2197836639956674,-0.007975241215078152,-0.010772050712635562,-0.05171993004360543,0,70,255.0,255.0,255.0
375,18.75,-0.5751,11.4468,-12.3197,-0.2057810274156415,-0.20374526716495067,-1.222391659903447,-0.008165774049992303,-0.010786920802233091,-0.05259990626757727,0,70,255.0,255.0,255.0
376,18.8,-0.5853992550900009,11.43659984025528,-12.380884999581633,-0.2061891062175143,-0.20424937733323462,-1.2250016574343985,-0.008157378024919249,-0.009377485929124043,-0.051799994970483695,0,70,255.0,255.0,255.0
377,18.85,-0.5957189036250641,11.426376236795738,-12.442199499150693,-0.20659676521813344,-0.20468301575786307,-1.2275716594004955,-0.008148981999846193,-0.007968051056014995,-0.05100008367339013,0,70,255.0,255.0,255.0
378,18.900000000000002,-0.606058924615127,11.416132713208553,-12.503641498928936,-0.20700400441749892,-0.2050461824388361,-1.2301016658017376,-0.00814058597477314,-0.006558616182905947,-0.05020017237629656,0,70,255.0,255.0,255.0
379,18.95,-0.616419297070126,11.405872793080913,-12.565208999138118,-0.20741082381561074,-0.20533887737615367,-1.232591676638125,-0.008132189949700086,-0.005149181309797,-0.04940026107920305,0,70,255.0,255.0,255.0
380,19.0,-0.6268,11.3956,-12.6269,-0.2078172234124689,-0.2055611005698158,-1.235041691909658,-0.008123793924627254,-0.003739746436687952,-0.04860034978211836,0,70,255.0,255.0,255.0
381,19.05,-0.6372009505177233,11.38531652742621,-12.688713001561448,-0.2082194893903346,-0.20579265962672225,-1.237481701122874,-0.007966845190000703,-0.005522615839569614,-0.04900001874651885,0,70,255.0,255.0,255.0
382,19.1,-0.6476218181484216,11.375019248312825,-12.75064850316976,-0.20861390793146897,-0.2061133621537728,-1.2399416937843102,-0.00780989645537415,-0.0073054852424512765,-0.04939968771091935,0,70,255.0,255.0,255.0
383,19.150000000000002,-0.6580622105202583,11.364703705486333,-12.81270750399735,-0.20900047903587202,-0.2065232081509674,-1.242421669893966,-0.007652947720747598,-0.00908835464533294,-0.049799356675319845,0,70,255.0,255.0,255.0
384,19.200000000000003,-0.6685217352613969,11.354365441773224,-12.874891003216627,-0.20937920270354374,-0.20702219761830606,-1.244921629451842,-0.007495998986121046,-0.010871224048214601,-0.05019902563972034,0,70,255.0,255.0,255.0
385,19.25,-0.679,11.344,-12.9372,-0.2097500789344841,-0.20761033055578879,-1.247441572457938,-0.007339050251494061,-0.012654093451095916,-0.050598694604117256,0,70,255.0,255.0,255.0
386,19.3,-0.689496942839107,11.33360445003987,-12.999634994172586,-0.2101329362211483,-0.20819598415988208,-1.2499515380741295,-0.007975241215073323,-0.010772050712635579,-0.0497999300435385,0,70,255.0,255.0,255.0
387,19.35,-0.7000138237812515,11.32318196995296,-13.062194488170281,-0.21054760305599146,-0.20868753562705236,-1.2524215654622919,-0.008611432178652585,-0.008890007974175242,-0.04900116548295974,0,70,255.0,255.0,255.0
388,19.400000000000002,-0.7105522333038427,11.312737264846113,-13.124876485081684,-0.21099407943901358,-0.2090849849572996,-1.2548516546224255,-0.009247623142231848,-0.007007965235714906,-0.048202400922380984,0,70,255.0,255.0,255.0
389,19.450000000000003,-0.7211137618842894,11.302275039826178,-13.187678987995392,-0.21147236537021466,-0.20938833215062388,-1.25724180555453,-0.00988381410581111,-0.005125922497254569,-0.047403636361802226,0,70,255.0,255.0,255.0
390,19.5,-0.7317,11.2918,-13.2506,-0.21198246084959463,-0.20959757720702507,-1.2595920182586056,-0.010520005069388771,-0.0032438797587943657,-0.04660487180121997,0,70,255.0,255.0,255.0
391,19.55,-0.7423120781258501,11.281315272414304,-13.313638221748215,-0.2124967657250719,-0.20980740373373985,-1.2619441465806154,-0.010052189949701555,-0.005149181309797051,-0.04748026107917732,0,70,255.0,255.0,255.0
392,19.6,-0.7529492867265745,11.270817671875331,-13.37679514414913,-0.21298767984456482,-0.21011249533800477,-1.2643400443665234,-0.00958437483001434,-0.007054482860799736,-0.048355650357134676,0,70,255.0,255.0,255.0
393,19.650000000000002,-0.7636104562643738,11.260302435129212,-13.440072955675934,-0.21345520320807335,-0.21051285201981984,-1.266779711616329,-0.009116559710327123,-0.008959784411802422,-0.049231039635092025,0,70,255.0,255.0,255.0
394,19.700000000000003,-0.774294417201449,11.24976479892206,-13.503473844801828,-0.21389933581559753,-0.21100847377918505,-1.2692631483300325,-0.008648744590639908,-0.010865085962805106,-0.05010642891304938,0,70,255.0,255.0,255.0
395,19.75,-0.785,11.2392,-13.567,-0.2143200776671373,-0.21159936061610032,-1.271790354507634,-0.008180929470952503,-0.01277038751380899,-0.05098181819100667,0,70,255.0,255.0,255.0
396,19.8,-0.7957259446574937,11.228604860302914,-13.630652918834558,-0.21471200087856415,-0.2121904009051518,-1.274319875603403,-0.007495998986121223,-0.01087122404824889,-0.0501990256397537,0,70,255.0,255.0,255.0
397,19.85,-0.8064706293124527,11.217982542545707,-13.694431335233217,-0.2150696775657494,-0.21268648302092522,-1.2768102570716093,-0.006811068501289944,-0.008972060582688792,-0.04941623308850074,0,70,255.0,255.0,255.0
398,19.900000000000002,-0.817232341638665,11.207337794637041,-13.758333292214596,-0.21539310772869313,-0.21308760696342066,-1.279261498912253,-0.006126138016458664,-0.007072897117128693,-0.048633440537247774,0,70,255.0,255.0,255.0
399,19.950000000000003,-0.8280093693099183,11.196675364485586,-13.822356832797317,-0.21568229136739528,-0.21339377273263813,-1.281673601125334,-0.0054412075316273845,-0.005173733651568594,-0.04785064798599481,0,70,255.0,255.0,255.0
400,20.0,-0.8388,11.186,-13.8865,-0.2159372284818559,-0.2136049803285775,-1.2840465637108525,-0.0047562770467963755,-0.0032745701860092957,-0.04706785543473835,0,70,255.0,255.0,255.0
401,20.05,-0.8496033432441761,11.175314886374041,-13.950761302913557,-0.21620723076067108,-0.21381499264565826,-1.286408351005766,-0.006043814105810759,-0.00512592249722073,-0.04740363636179943,0,70,255.0,255.0,255.0
402,20.1,-0.8604217960236166,11.164616957941842,-14.015141114918016,-0.21654160989243698,-0.21411757257829958,-1.2887869273470325,-0.007331351164825143,-0.006977274808432163,-0.04773941728886052,0,70,255.0,255.0,255.0
403,20.150000000000002,-0.8712585771809692,11.15390158632262,-14.079640275465701,-0.2169403658771536,-0.21451272012650147,-1.2911822927346521,-0.008618888223839527,-0.008828627119643596,-0.0480751982159216,0,70,255.0,255.0,255.0
404,20.200000000000003,-0.8821169055588814,11.143164143135598,-14.144259624008924,-0.21740349871482093,-0.21500043529026394,-1.2935944471686247,-0.00990642528285391,-0.01067997943085503,-0.04841097914298269,0,70,255.0,255.0,255.0
405,20.25,-0.893,11.1324,-14.209,-0.21793100840543897,-0.21558071806958695,-1.2960233906489502,-0.011193962341867758,-0.01253133174206722,-0.04874676007003309,0,70,255.0,255.0,255.0
406,20.3,-0.9039102823658032,11.121605994200918,-14.27386186951122,-0.21847507607875163,-0.21616562851220877,-1.2984467203735273,-0.01056874459063927,-0.010865085962805731,-0.04818642891305024,0,70,255.0,255.0,255.0
407,20.35,-0.9148469865930827,11.110784825686927,-14.338844205094723,-0.21898788286450294,-0.21666722666586755,-1.3008420335402553,-0.009943526839410782,-0.00919884018354424,-0.047626097756067395,0,70,255.0,255.0,255.0
408,20.400000000000002,-0.9258085496374611,11.09994066007248,-14.403945605922615,-0.21946942876269274,-0.2170855125305632,-1.303209330149134,-0.009318309088182293,-0.007532594404282751,-0.04706576659908455,0,70,255.0,255.0,255.0
409,20.450000000000003,-0.9367934084545596,11.089077662972022,-14.469164671167007,-0.21991971377332115,-0.21742048610629583,-1.3055486102001639,-0.008693091336953805,-0.005866348625021261,-0.04650543544210169,0,70,255.0,255.0,255.0
410,20.5,-0.9478,11.0782,-14.5345,-0.2203387378963881,-0.21767214739306537,-1.3078598736933444,-0.008067873585726248,-0.004200102845760556,-0.045945104285120664,0,70,255.0,255.0,255.0
411,20.55,-0.9588267272926124,11.067310736822288,-14.599950419041567,-0.22072446492432202,-0.21790649330549947,-1.3101567675001227,-0.007361207531629999,-0.00517373365160291,-0.04593064798599968,0,70,255.0,255.0,255.0
412,20.6,-0.9698718576040541,11.056408539310446,-14.665515664703097,-0.22107485864955112,-0.21818952075822567,-1.3124529384919446,-0.00665454147753375,-0.006147364457445265,-0.0459161916868787,0,70,255.0,255.0,255.0
413,20.650000000000002,-0.9809336242691895,11.045490973387459,-14.731195700843847,-0.2213899190720754,-0.218521229751244,-1.3147483866688106,-0.005947875423437502,-0.007120995263287619,-0.04590173538775773,0,70,255.0,255.0,255.0
414,20.700000000000003,-0.9920102606228834,11.034555604976315,-14.796990491323065,-0.22166964619189486,-0.21890162028455443,-1.3170431120307202,-0.005241209369341253,-0.008094626069129973,-0.04588727908863675,0,70,255.0,255.0,255.0
415,20.75,-1.0031,11.0236,-14.8629,-0.22191404000900955,-0.21933069235815694,-1.319337114577674,-0.00453454331524572,-0.009068256874971148,-0.045872822789515766,0,70,255.0,255.0,255.0
416,20.8,-1.014202008463748,11.012622258509932,-14.92892445432252,-0.22217906422396194,-0.21977639826580186,-1.3216462096259864,-0.006066425282849796,-0.0087599794308252,-0.04649097914298253,0,70,255.0,255.0,255.0
417,20.85,-1.025319182990703,11.00162261707129,-14.995065136092894,-0.22252068253729454,-0.22020669030123946,-1.3239862124919723,-0.0075983072504538715,-0.008451701986679253,-0.0471091354964493,0,70,255.0,255.0,255.0
418,20.900000000000002,-1.036455353285784,10.990601846377679,-15.061323590702012,-0.22293889494900734,-0.2206215684644698,-1.3263571231756315,-0.009130189218057947,-0.008143424542533305,-0.047727291849916066,0,70,255.0,255.0,255.0
419,20.950000000000003,-1.0476143490539103,10.979560717122713,-15.127701363540753,-0.22343370145910035,-0.2210210327554928,-1.328758941676964,-0.010662071185662023,-0.007835147098387356,-0.04834544820338284,0,70,255.0,255.0,255.0
420,21.0,-1.0588,10.9685,-15.1942,-0.2240051020675735,-0.22140508317430851,-1.3311916679959694,-0.012193953153266435,-0.007526869654240098,-0.04896360455684423,0,70,255.0,255.0,255.0
421,21.05,-1.070014838852397,10.957420229137979,-15.260820563668364,-0.22457527817982903,-0.22178791363128994,-1.333626393995942,-0.010613091336954006,-0.007786348625016973,-0.04842543544206385,0,70,255.0,255.0,255.0
422,21.1,-1.0812562104331362,10.946320992404397,-15.327562190925335,-0.22506641120126894,-0.22218371803681022,-1.3360342115401758,-0.009032229520641576,-0.008045827595793848,-0.04788726632728347,0,70,255.0,255.0,255.0
423,21.150000000000002,-1.0925201625876773,10.935201641101823,-15.394423536348121,-0.22547850113189322,-0.22259249639086934,-1.3384151206286705,-0.0074513677043291475,-0.008305306566570725,-0.04734909721250309,0,70,255.0,255.0,255.0
424,21.200000000000003,-1.1038027431614792,10.924061526532833,-15.46140325451394,-0.22581154797170186,-0.2230142486934673,-1.3407691212614263,-0.005870505888016718,-0.0085647855373476,-0.04681092809772271,0,70,255.0,255.0,255.0
425,21.25,-1.1151,10.9129,-15.5285,-0.2260655517206949,-0.22344897494460408,-1.343096213438443,-0.004289644071704624,-0.008824264508122681,-0.04627275898294414,0,70,255.0,255.0,255.0
426,21.3,-1.1264090361266652,10.901716824938152,-15.59571249100403,-0.22630382305672117,-0.22387194720903622,-1.3454002143902335,-0.005241209369345836,-0.008094626069162992,-0.04588727908867156,0,70,255.0,255.0,255.0
427,21.35,-1.1377311752767536,10.890513413311128,-15.663039700205779,-0.2265896726576295,-0.2242584375515204,-1.3476849413473102,-0.006192774666987049,-0.007364987630203303,-0.04550179919439897,0,70,255.0,255.0,255.0
428,21.400000000000002,-1.1490687963635098,10.87929158921503,-15.730480663905515,-0.22692310052341988,-0.2246084459720566,-1.3499503943096733,-0.007144339964628262,-0.006635349191243613,-0.04511631930012639,0,70,255.0,255.0,255.0
429,21.450000000000003,-1.1604242783001775,10.868053176745955,-15.798034418403503,-0.2273041066540923,-0.22492197247064477,-1.352196573277323,-0.008095905262269474,-0.005905710752283924,-0.0447308394058538,0,70,255.0,255.0,255.0
430,21.5,-1.1718,10.8568,-15.8657,-0.2277326910496468,-0.22519901704728496,-1.3544234782502584,-0.009047470559911508,-0.005176072313322955,-0.04434535951157592,0,70,255.0,255.0,255.0
431,21.55,-1.1831978166409431,10.845533271109415,-15.933476672315525,-0.22817742959328616,-0.22547629753257697,-1.3566447484431325,-0.008742071185662632,-0.005915147098357042,-0.044505448203387137,0,70,255.0,255.0,255.0
432,21.6,-1.1946174884598502,10.834251754351088,-16.00136460825156,-0.22860689816821309,-0.22579053175712066,-1.3588740230705973,-0.008436671811413757,-0.00665422188339113,-0.044665536895198345,0,70,255.0,255.0,255.0
433,21.650000000000002,-1.206058251958286,10.82295360203805,-16.06936420802983,-0.22902109677442753,-0.22614171972091607,-1.3611113021326524,-0.00813127243716488,-0.0073932966684252185,-0.04482562558700956,0,70,255.0,255.0,255.0
434,21.700000000000003,-1.2175193436378149,10.811636966483341,-16.13747587187207,-0.22942002541192957,-0.2265298614239632,-1.3633565856292982,-0.007825873062916005,-0.008132371453459306,-0.044985714278820775,0,70,255.0,255.0,255.0
435,21.75,-1.229,10.8003,-16.2057,-0.22980368408071916,-0.226954956866262,-1.3656098735605344,-0.007520473688666485,-0.008871446238492453,-0.045145802970628424,0,70,255.0,255.0,255.0
436,21.8,-1.2404996973095632,10.788941290624182,-16.27403681973388,-0.23018645857013612,-0.22739086266065797,-1.3678607918372425,-0.007790505888011982,-0.008564785537346782,-0.04489092809769452,0,70,255.0,255.0,255.0
437,21.85,-1.252018870883847,10.777561169284517,-16.342485866788,-0.23058273466952037,-0.22781143541999668,-1.370098966370304,-0.00806053808735748,-0.00825812483620111,-0.04463605322476062,0,70,255.0,255.0,255.0
438,21.900000000000002,-1.2635581958033486,10.766160402632766,-16.411046503975182,-0.2309925123788719,-0.2282166751442781,-1.3723243971597185,-0.008330570286702976,-0.00795146413505544,-0.04438117835182672,0,70,255.0,255.0,255.0
439,21.950000000000003,-1.2751183471485672,10.754739757320674,-16.479718094108247,-0.23141579169819068,-0.22860658183350224,-1.3745370842054867,-0.008600602486048475,-0.007644803433909769,-0.04412630347889282,0,70,255.0,255.0,255.0
440,22.0,-1.2867,10.7433,-16.5485,-0.23185257262747672,-0.22898115548766904,-1.376737027507608,-0.008870634685394396,-0.007338142732762565,-0.04387142860596427,0,70,255.0,255.0,255.0
441,22.05,-1.2983033941208044,10.731841566393859,-16.61739204874897,-0.23227673612616834,-0.22936025182479508,-1.3789520842079044,-0.008095905262270076,-0.007825710752278654,-0.04473083940588653,0,70,255.0,255.0,255.0
442,22.1,-1.3099270280047643,10.720363568510837,-16.68639592459646,-0.23266216315370372,-0.2297637265628969,-1.3812101114481967,-0.0073211758391457556,-0.008313278771794743,-0.045590250205808786,0,70,255.0,255.0,255.0
443,22.150000000000002,-1.3215689648283222,10.708864787430887,-16.755513776069463,-0.23300885371008292,-0.23019157970197457,-1.3835111092284853,-0.006546446416021434,-0.008800846791310834,-0.04644966100573104,0,70,255.0,255.0,255.0
444,22.200000000000003,-1.3332272677679207,10.697344004233956,-16.824747751694975,-0.2333168077953059,-0.23064381124202799,-1.38585507754877,-0.005771716992897114,-0.009288414810826923,-0.047309071805653295,0,70,255.0,255.0,255.0
445,22.25,-1.3449,10.6858,-16.8941,-0.23358602540937262,-0.23112042118305723,-1.3882420164090505,-0.004996987569772404,-0.009775982830341645,-0.04816848260557194,0,70,255.0,255.0,255.0
446,22.3,-1.35658592620722,10.674232443800383,-16.96357178527024,-0.23385859692518995,-0.23156813004015225,-1.3906188713311585,-0.00590587306292011,-0.008132371453458662,-0.046905714278744154,0,70,255.0,255.0,255.0
447,22.35,-1.3682866170970969,10.662644556672133,-17.03316083482618,-0.23417661271566464,-0.2319336583284031,-1.392932587836925,-0.006814758556067816,-0.006488760076575681,-0.04564294595191637,0,70,255.0,255.0,255.0
448,22.400000000000002,-1.3800043448833643,10.65104044764369,-17.102863991746997,-0.23454007278079675,-0.23221700604780982,-1.3951831659263503,-0.007723644049215522,-0.004845148699692699,-0.04438017762508858,0,70,255.0,255.0,255.0
449,22.450000000000003,-1.3917413817797546,10.639424225743497,-17.172678099111877,-0.2349489771205862,-0.23241817319837238,-1.397370605599434,-0.008632529542363227,-0.0032015373228097173,-0.04311740929826079,0,70,255.0,255.0,255.0
450,22.5,-1.4035,10.6278,-17.2426,-0.23540332573503306,-0.2325371597800908,-1.3994949068561764,-0.009541415035511536,-0.0015579259459272965,-0.04185464097143132,0,70,255.0,255.0,255.0
451,22.55,-1.4152817010503171,10.616170258404612,-17.312627210170067,-0.23585687617307197,-0.2326712280145878,-1.4015964304674364,-0.008600602486044582,-0.0038048034339525625,-0.04220630347896766,0,70,255.0,255.0,255.0
452,22.6,-1.4270849036068498,10.604531004800636,-17.382759936098832,-0.23626338598363752,-0.23291764012348604,-1.4037155372040733,-0.007659789936577628,-0.0060516809219778285,-0.042557965986504,0,70,255.0,255.0,255.0
453,22.650000000000002,-1.4389072556382234,10.592876621994355,-17.452999056942566,-0.23662285516672973,-0.23327639610678558,-1.405852227066087,-0.006718977387110674,-0.008298558410003095,-0.042909628494040335,0,70,255.0,255.0,255.0
454,22.700000000000003,-1.450746405113065,10.581201492792049,-17.523345451857534,-0.2369352837223486,-0.23374749596448638,-1.4080065000534772,-0.00577816483764372,-0.01054543589802836,-0.04326129100157667,0,70,255.0,255.0,255.0
455,22.75,-1.4626,10.5695,-17.5938,-0.23720067165049408,-0.23433093969658841,-1.4101783561662444,-0.004837352288176611,-0.012792313386054577,-0.04361295350910943,0,70,255.0,255.0,255.0
456,22.8,-1.474466469591512,10.557768122581178,-17.664363374049493,-0.23746589838252102,-0.23493095790150947,-1.4123554067991138,-0.005771716992901168,-0.01120841481078798,-0.04346907180565971,0,70,255.0,255.0,255.0
457,22.85,-1.4863473684755062,10.546008224125329,-17.735035420778495,-0.23777784334978422,-0.2354517811776672,-1.4145252633468104,-0.0067060816976257254,-0.009624516235521385,-0.04332519010220998,0,70,255.0,255.0,255.0
458,22.900000000000002,-1.4982450325637446,10.53422426437889,-17.805815780482757,-0.2381365065522836,-0.23589340952506163,-1.4166879258093348,-0.007640446402350282,-0.008040617660254788,-0.04318130839876026,0,70,255.0,255.0,255.0
459,22.950000000000003,-1.5101617977679889,10.5224202030883,-17.87670409345801,-0.23854188799001924,-0.23625584294369273,-1.4188433941866865,-0.00857481110707484,-0.006456719084988192,-0.043037426695310535,0,70,255.0,255.0,255.0
460,23.0,-1.5221,10.5106,-17.9477,-0.23899398766299107,-0.23653908143356048,-1.4209916684788655,-0.00950917581179933,-0.004872820509721487,-0.04289354499185194,0,70,255.0,255.0,255.0
461,23.05,-1.5340612205836357,10.498766851270679,-18.018803293631983,-0.23944753029684515,-0.23678894037937365,-1.4231419423361165,-0.008632529542363609,-0.005121537322805073,-0.04311740929819124,0,70,255.0,255.0,255.0
462,23.1,-1.546044022491127,10.486920898698052,-18.090014380787203,-0.23985724061722744,-0.23705123516584098,-1.4253034094086847,-0.007755883272927885,-0.005370254135888659,-0.043341273604530536,0,70,255.0,255.0,255.0
463,23.150000000000002,-1.5580462141068008,10.475061520490083,-18.16133382112644,-0.24022311862413795,-0.2373259657929625,-1.4274760696965698,-0.006879237003492163,-0.0056189709489722454,-0.043565137910869835,0,70,255.0,255.0,255.0
464,23.200000000000003,-1.5700656038149832,10.463188094854743,-18.232762174310448,-0.24054516431757667,-0.23761313226073824,-1.4296599231997715,-0.00600259073405644,-0.0058676877620558315,-0.043789002217209126,0,70,255.0,255.0,255.0
465,23.25,-1.5821,10.4513,-18.3043,-0.24082337769754358,-0.23791273456916806,-1.4318549699182905,-0.0051259444646198915,-0.006116404575137402,-0.044012866523541305,0,70,255.0,255.0,255.0
466,23.3,-1.594147848073947,10.439396472336105,-18.375947451422608,-0.24109598043010005,-0.23823328058099744,-1.4340368238564185,-0.005778164837638942,-0.0067054358980371456,-0.04326129100157415,0,70,255.0,255.0,255.0
467,23.35,-1.606210141559988,10.427476181082465,-18.447703056072708,-0.24140119418130748,-0.2385832781589718,-1.436181099018448,-0.006430385210657992,-0.00729446722093689,-0.042509715479607,0,70,255.0,255.0,255.0
468,23.400000000000002,-1.6182885110090557,10.41553765366077,-18.519564935011513,-0.24173901895116587,-0.23896272730309115,-1.4382877954043793,-0.007082605583677043,-0.007883498543836635,-0.04175813995763985,0,70,255.0,255.0,255.0
469,23.450000000000003,-1.6303845869720823,10.403579417492718,-18.591531209300218,-0.2421094547396752,-0.23937162801335546,-1.440356913014212,-0.007734825956696093,-0.008472529866736378,-0.0410065644356727,0,70,255.0,255.0,255.0
470,23.5,-1.6425,10.3916,-18.6636,-0.24251250154683543,-0.23980998028976475,-1.4423884518479464,-0.00838704632971532,-0.009061561189635192,-0.0402549889136985,0,70,255.0,255.0,255.0
471,23.55,-1.6546361871205784,10.379598459384901,-18.735770100677616,-0.24293654798275519,-0.24024593729663024,-1.4444227622381733,-0.008574811107075189,-0.008376719084983887,-0.041117426695377206,0,70,255.0,255.0,255.0
472,23.6,-1.6667938112689238,10.367575976972091,-18.808042994921973,-0.24336998265754295,-0.24064765219826315,-1.4465001945174842,-0.008762575884435058,-0.007691876980332582,-0.04197986447705591,0,70,255.0,255.0,255.0
473,23.650000000000002,-1.6789733418569806,10.35553426486683,-18.880420838827515,-0.24381280557119872,-0.2410151249946635,-1.448620748685879,-0.008950340661794927,-0.007007034875681276,-0.042842302258734616,0,70,255.0,255.0,255.0
474,23.700000000000003,-1.6911752482966917,10.343475035174377,-18.95290578848871,-0.24426501672372247,-0.2413483556858313,-1.4507844247433577,-0.009138105439154798,-0.0063221927710299716,-0.04370474004041332,0,70,255.0,255.0,255.0
475,23.75,-1.7034,10.3314,-19.0255,-0.2447266161151142,-0.24164734427176646,-1.4529912226899202,-0.009325870216513987,-0.0056373506663789374,-0.04456717782208486,0,70,255.0,255.0,255.0
476,23.8,-1.7156474034437421,10.319310490124288,-19.09820494586694,-0.24515782763887844,-0.24193497023247817,-1.4552001271909025,-0.007922590734055459,-0.005867687762089394,-0.043789002217204845,0,70,255.0,255.0,255.0
477,23.85,-1.7279146133643195,10.307206311029173,-19.171019364239424,-0.24551887518851975,-0.2422341130479754,-1.4573701229116407,-0.006519311251596931,-0.006098024857799851,-0.043010826612324825,0,70,255.0,255.0,255.0
478,23.900000000000002,-1.7401981215630258,10.295086886871912,-19.243941309678437,-0.24580975876403813,-0.24254477271825817,-1.4595012098521352,-0.005116031769138403,-0.006328361953510307,-0.04223265100744481,0,70,255.0,255.0,255.0
479,23.950000000000003,-1.752494419841155,10.282951641809767,-19.31696883674497,-0.24603047836543362,-0.24286694924332644,-1.4615933880123853,-0.003712752286679875,-0.006558699049220764,-0.04145447540256479,0,70,255.0,255.0,255.0
480,24.0,-1.7648,10.2708,-19.3901,-0.2461810339927061,-0.24320064262318025,-1.4636466573923912,-0.002309472804220336,-0.00678903614493187,-0.040676299797679505,0,70,255.0,255.0,255.0
481,24.05,-1.7771125991044543,10.25863158011794,-19.463333315854634,-0.24633614146172914,-0.24353418177347122,-1.4656887289982232,-0.0038948259567005428,-0.006552529866706443,-0.04100656443560205,0,70,255.0,255.0,255.0
482,24.1,-1.7894349352738004,10.246446778911217,-19.536669148120357,-0.24657051658837614,-0.2438558956098509,-1.4677473138359514,-0.0054801791091807495,-0.006316023588481017,-0.041336829073524595,0,70,255.0,255.0,255.0
483,24.150000000000002,-1.8017709718909194,10.234246187645521,-19.610108322458764,-0.2468841593726472,-0.24416578413231935,-1.4698224119055756,-0.007065532261660957,-0.00607951731025559,-0.04166709371144714,0,70,255.0,255.0,255.0
484,24.200000000000003,-1.8141246723386923,10.22203039758655,-19.68365166453145,-0.24727706981454228,-0.24446384734087648,-1.4719140232070964,-0.008650885414141163,-0.005843011032030163,-0.041997358349369684,0,70,255.0,255.0,255.0
485,24.25,-1.8265,10.2098,-19.7573,-0.2477492479140613,-0.24475008523552233,-1.4740221477405127,-0.010236238566622147,-0.005606504753803421,-0.0423276229872922,0,70,255.0,255.0,255.0
486,24.3,-1.8388998001384418,10.19755518940394,-19.831053790714535,-0.24823360651420573,-0.2450483026736423,-1.4761249568162056,-0.009138105439155214,-0.006322192770995204,-0.04178474004041596,0,70,255.0,255.0,255.0
487,24.35,-1.8513224455404813,10.185294573325955,-19.904912043279168,-0.24866305845797684,-0.24538230451262186,-1.4782006217445542,-0.008039972311688284,-0.007037880788186988,-0.04124185709353972,0,70,255.0,255.0,255.0
488,24.400000000000002,-1.8637651908733002,10.173016362545997,-19.97887340048654,-0.2490376037453746,-0.245752090752461,-1.4802491425255595,-0.006941839184221352,-0.007753568805378771,-0.04069897414666348,0,70,255.0,255.0,255.0
489,24.450000000000003,-1.8762252908040797,10.160718767844028,-20.05293650512927,-0.24935724237639897,-0.24615766139315975,-1.4822705191592207,-0.00584370605675442,-0.008469256822570555,-0.04015609119978724,0,70,255.0,255.0,255.0
490,24.5,-1.8887,10.1484,-20.1271,-0.24962197435105002,-0.24659901643471804,-1.484264751645538,-0.004745572929288011,-0.009184944839762288,-0.039613208252907484,0,70,255.0,255.0,255.0
491,24.55,-1.90118740034178,10.136058862266296,-20.20136272128724,-0.24988143248144912,-0.24704060753194423,-1.4862434437369265,-0.005632752286674915,-0.008478699049285145,-0.039534475402632906,0,70,255.0,255.0,255.0
492,24.6,-1.9136888825642764,10.123696527784963,-20.275724278762983,-0.2501852495797175,-0.24744688633964657,-1.4882181991858014,-0.006519931644061819,-0.0077724532588080006,-0.03945574255235833,0,70,255.0,255.0,255.0
493,24.650000000000002,-1.9262066646158833,10.111314762170489,-20.35018447559511,-0.2505334256458553,-0.24781785285782504,-1.4901890179921624,-0.007407111001448723,-0.007066207468330857,-0.03937700970208375,0,70,255.0,255.0,255.0
494,24.700000000000003,-1.9387429644449934,10.09891533103734,-20.424743114951493,-0.25092596067986245,-0.24815350708647965,-1.4921559001560099,-0.008294290358835627,-0.006359961677853713,-0.03929827685180917,0,70,255.0,255.0,255.0
495,24.75,-1.9513,10.0865,-20.4994,-0.2513628546817388,-0.2484538490256104,-1.4941188456773433,-0.009181469716221358,-0.00565371588737662,-0.039219544001527495,0,70,255.0,255.0,255.0
496,24.8,-1.96387939849444,10.074070161530882,-20.574155324136516,-0.251808663559998,-0.2487412671985947,-1.4961012682361141,-0.008650885414145285,-0.00584301103199554,-0.04007735834930381,0,70,255.0,255.0,255.0
497,24.85,-1.976480424202415,10.061625715534186,-20.649010841668904,-0.25222794322315334,-0.24903815012880998,-1.4981265815122737,-0.008120301112069213,-0.00603230617661446,-0.040935172697080115,0,70,255.0,255.0,255.0
498,24.900000000000002,-1.9891017506631705,10.049166188772046,-20.723968697133035,-0.2526206936712049,-0.24934449781625617,-1.5001947855058222,-0.007589716809993141,-0.00622160132123338,-0.04179298704485643,0,70,255.0,255.0,255.0
499,24.950000000000003,-2.0017420514159507,10.036691108006606,-20.799031035064782,-0.25298691490415265,-0.2496603102609333,-1.5023058802167595,-0.007059132507917069,-0.0064108964658523004,-0.042650801392632734,0,70,255.0,255.0,255.0
500,25.0,-2.0144,10.0242,-20.8742,-0.25332660692199666,-0.2499855874628414,-1.5044598656450854,-0.00652854820584059,-0.006600191610471873,-0.04350861574040188,0,70,255.0,255.0,255.0
501,25.05,-2.0270742056804623,10.011692491610173,-20.949476782166705,-0.25363591327856144,-0.2503143236736676,-1.5065994833185898,-0.005843706056750166,-0.0065492568225751216,-0.04207609119977993,0,70,255.0,255.0,255.0
502,25.1,-2.039763020626066,9.999168610078291,-21.024858754561407,-0.25391097752767167,-0.25064051314509894,-1.5086674747650635,-0.005158863907659741,-0.00649832203467837,-0.040643566659157984,0,70,255.0,255.0,255.0
503,25.150000000000002,-2.0524647327314383,9.98662848274132,-21.10034233587276,-0.25415179966932744,-0.25096415587713544,-1.5106638399845058,-0.004474021758569317,-0.00644738724678162,-0.03921104211853604,0,70,255.0,255.0,255.0
504,25.200000000000003,-2.065177629891208,9.974072236936232,-21.175923944789414,-0.25435837970352865,-0.2512852518697771,-1.5125885789769171,-0.0037891796094788933,-0.006396452458884869,-0.03777851757791409,0,70,255.0,255.0,255.0
505,25.25,-2.0779,9.9615,-21.2516,-0.25453071763027524,-0.25160380112302394,-1.5144416917422971,-0.003104337460386297,-0.006345517670988343,-0.036345993037292246,0,70,255.0,255.0,255.0
506,25.3,-2.090630978783714,9.948911872028422,-21.32736794719667,-0.2547196833257558,-0.251921438106745,-1.5162847984895265,-0.0044542903588349085,-0.006359961677853576,-0.03737827685188046,0,70,255.0,255.0,255.0
507,25.35,-2.1033730932933246,9.936307844152651,-21.403229340085467,-0.2549761466661587,-0.2522397972908093,-1.5181795194274852,-0.00580424325728352,-0.006374405684718809,-0.03841056066646867,0,70,255.0,255.0,255.0
508,25.400000000000002,-2.116129718411079,9.92368788026267,-21.47918675937593,-0.25530010765148414,-0.25255887867521687,-1.5201258545561733,-0.007154196155732131,-0.006388849691584043,-0.03944284448105688,0,70,255.0,255.0,255.0
509,25.450000000000003,-2.128904229019222,9.911051944248458,-21.555242785777597,-0.255691566281732,-0.25287868225996774,-1.5221238038755909,-0.008504149054180742,-0.006403293698449276,-0.04047512829564509,0,70,255.0,255.0,255.0
510,25.5,-2.1417,9.8984,-21.6314,-0.2561505225569021,-0.25319920804506174,-1.524173367385738,-0.009854101952627037,-0.006417737705313176,-0.041507412110227904,0,70,255.0,255.0,255.0
511,25.55,-2.154519479184684,9.885732020276132,-21.707660229046624,-0.25662135341841574,-0.25351992389934086,-1.526229322723308,-0.008979132507916786,-0.006410896465852378,-0.040730801392562896,0,70,255.0,255.0,255.0
512,25.6,-2.167361406200638,9.8730480133111,-21.784022285096732,-0.2570484358076938,-0.25384029769164695,-1.5282464475249944,-0.008104163063206535,-0.0064040552263915805,-0.039954190674897895,0,70,255.0,255.0,255.0
513,25.650000000000002,-2.18022359362425,9.860347996208,-21.86048422662353,-0.2574317697247364,-0.25416032942198,-1.5302247417907977,-0.007229193618496284,-0.0063972139869307824,-0.03917757995723289,0,70,255.0,255.0,255.0
514,25.700000000000003,-2.193103854031908,9.847631986069931,-21.93704411210022,-0.25777135516954347,-0.25448001909034007,-1.5321642055207179,-0.006354224173786033,-0.006390372747469985,-0.038400969239567886,0,70,255.0,255.0,255.0
515,25.75,-2.206,9.8349,-22.0137,-0.258067192142115,-0.25479936669672704,-1.5340648387147542,-0.005479254729075844,-0.0063835315080083,-0.037624358521897605,0,70,255.0,255.0,255.0
516,25.8,-2.218910304477551,9.82215204686705,-22.09045033661683,-0.25834690300057894,-0.25511886629589936,-1.5359499106172496,-0.005709179609482276,-0.006396452458885005,-0.03777851757791417,0,70,255.0,255.0,255.0
517,25.85,-2.2318348819041254,9.809388102602952,-22.16729511952761,-0.25863811010306326,-0.25543901194261553,-1.5378426904725455,-0.005939104489888709,-0.00640937340976171,-0.03793267663393075,0,70,255.0,255.0,255.0
518,25.900000000000002,-2.2447743070919244,9.796608134905327,-22.244234734129968,-0.2589408134495678,-0.25575980363687556,-1.5397431782806426,-0.006169029370295141,-0.006422294360638414,-0.038086835689947314,0,70,255.0,255.0,255.0
519,25.950000000000003,-2.2577291548531493,9.783812111471802,-22.321269565821556,-0.25925501304009274,-0.25608124137867944,-1.5416513740415405,-0.006398954250701574,-0.0064352153115151195,-0.03824099474596388,0,70,255.0,255.0,255.0
520,26.0,-2.2707,9.771,-22.3984,-0.25958070887463797,-0.256403325168027,-1.5435672777552387,-0.006628879131107102,-0.006448136262390491,-0.03839515380196801,0,70,255.0,255.0,255.0
521,26.05,-2.283687302905114,9.758171792255672,-22.475626424486055,-0.25991103457927006,-0.25672461091704796,-1.5454910348076791,-0.006584149054175103,-0.006403293698448386,-0.038555128295645606,0,70,255.0,255.0,255.0
522,26.1,-2.2966910661828632,9.745327576277099,-22.552949236792845,-0.2602391237800555,-0.25704365453787187,-1.5474227905848035,-0.006539418977243104,-0.006358451134506281,-0.0387151027893232,0,70,255.0,255.0,255.0
523,26.150000000000002,-2.3097111780080555,9.73246746417069,-22.630368836856615,-0.26056497647699434,-0.2573604560304986,-1.5493625450866115,-0.006494688900311105,-0.006313608570564176,-0.0388750772830008,0,70,255.0,255.0,255.0
524,26.200000000000003,-2.3227475265554993,9.719591568042853,-22.70788562461359,-0.2608885926700866,-0.25767501539492826,-1.5513102983131035,-0.006449958823379107,-0.00626876600662207,-0.039035051776678396,0,70,255.0,255.0,255.0
525,26.25,-2.3358,9.7067,-22.7855,-0.2612099723593322,-0.2579873326311608,-1.5532660502642792,-0.006405228746445779,-0.00622392344267908,-0.03919502627035243,0,70,255.0,255.0,255.0
526,26.3,-2.3488684839019944,9.693792784110261,-22.863211965438957,-0.261528958682338,-0.2583026900359153,-1.555205950152029,-0.006354224173785993,-0.00639037274750365,-0.038400969239634,0,70,255.0,255.0,255.0
527,26.35,-2.361952853364423,9.680869592288653,-22.941019933301014,-0.2618453947767108,-0.2586263699059112,-1.5571061471882428,-0.0063032196011262075,-0.006556822052328219,-0.037606912208915565,0,70,255.0,255.0,255.0
528,26.400000000000002,-2.3750529808758554,9.667930008411917,-23.01892191844359,-0.26215928064245064,-0.2589583722411482,-1.5589666413729206,-0.006252215028466421,-0.006723271357152789,-0.036812855178197136,0,70,255.0,255.0,255.0
529,26.450000000000003,-2.388168738924858,9.654973616356784,-23.096915935724113,-0.2624706162795574,-0.25929869704162645,-1.5607874327060625,-0.006201210455806635,-0.006889720661977359,-0.0360187981474787,0,70,255.0,255.0,255.0
530,26.5,-2.4013,9.642,-23.175,-0.26277940168803127,-0.259647344307346,-1.5625685211876683,-0.006150205883145965,-0.00705616996680325,-0.035224741116756775,0,70,255.0,255.0,255.0
531,26.55,-2.414446761486909,9.62900907130328,-23.253172913758124,-0.2630931306913777,-0.25998462893930224,-1.5643571645842347,-0.006398954250709647,-0.006435215311446542,-0.036320994745893405,0,70,255.0,255.0,255.0
532,26.6,-2.4276095203594443,9.61600205456828,-23.331436630003115,-0.26341929711310225,-0.26029086583849065,-1.5662006206622576,-0.0066477026182733285,-0.005814260656089836,-0.03741724837503003,0,70,255.0,255.0,255.0
533,26.650000000000002,-2.4407888984885258,9.602980502181644,-23.409793889369045,-0.263757900953205,-0.2605660550049112,-1.5680988894217378,-0.00689645098583701,-0.005193306000733129,-0.03851350200416666,0,70,255.0,255.0,255.0
534,26.700000000000003,-2.453985517745072,9.589945966530003,-23.488247432489985,-0.26410894221168596,-0.26081019643856396,-1.5700519708626743,-0.007145199353400692,-0.0045723513453764224,-0.03960975563330329,0,70,255.0,255.0,255.0
535,26.75,-2.4672,9.5769,-23.5668,-0.264472420888545,-0.26102329013944886,-1.572059864985068,-0.0073939477209639115,-0.0039513966900197595,-0.040706009262439835,0,70,255.0,255.0,255.0
536,26.8,-2.4804324701503715,9.563843730676616,-23.64545317952855,-0.2648185185521533,-0.26123079420686585,-1.5740533915110442,-0.006449958823370037,-0.0043487660066600375,-0.03903505177660944,0,70,255.0,255.0,255.0
537,26.85,-2.493681065197801,9.550776589438216,-23.72420394668654,-0.265117416770882,-0.2614581667401149,-1.575963370162729,-0.005505969925776162,-0.004746135323300316,-0.03736409429077905,0,70,255.0,255.0,255.0
538,26.900000000000002,-2.506943425170045,9.537697582861508,-23.803048124080252,-0.26536911554473097,-0.2617054077391959,-1.5777898009401221,-0.004561981028182287,-0.005143504639940594,-0.03569313680494865,0,70,255.0,255.0,255.0
539,26.950000000000003,-2.5202171900948596,9.5246057175232,-23.88198153431598,-0.26557361487370024,-0.2619725172041089,-1.5795326838432238,-0.0036179921305884116,-0.005540873956580872,-0.03402217931911826,0,70,255.0,255.0,255.0
540,27.0,-2.5335,9.5115,-23.961,-0.2657309147577898,-0.26225949513485397,-1.5811920188720339,-0.002674003232994604,-0.005938243273220234,-0.03235122183327732,0,70,255.0,255.0,255.0
541,27.05,-2.5467905579116072,9.498379205990252,-24.04010076812769,-0.2659047951000097,-0.2625801942332339,-1.5828532693715547,-0.004281210455802343,-0.006889720661977808,-0.034098798147545774,0,70,255.0,255.0,255.0
542,27.1,-2.5600918188493536,9.485241187678854,-24.11928678325075,-0.2661590358033701,-0.26294846720105175,-1.5846018986867885,-0.005888417678610081,-0.007841198050735382,-0.035846374461814226,0,70,255.0,255.0,255.0
543,27.150000000000002,-2.5734078008312973,9.472083566372325,-24.19856241430997,-0.26649363686787075,-0.26336431403830746,-1.586437906817736,-0.007495624901417821,-0.008792675439492956,-0.037593950776082685,0,70,255.0,255.0,255.0
544,27.200000000000003,-2.5867425218754936,9.458903963377198,-24.277932030246124,-0.2669085982935119,-0.26382773474500104,-1.5883612937643967,-0.009102832124225559,-0.009744152828250528,-0.03934152709035114,0,70,255.0,255.0,255.0
545,27.25,-2.6001,9.4457,-24.3574,-0.26740392008029323,-0.2643387293211325,-1.5903720595267707,-0.010710039347030964,-0.010695630217006258,-0.041089103404614136,0,70,255.0,255.0,255.0
546,27.3,-2.6134828982032015,9.432470645362368,-24.43696934796069,-0.26789830104780415,-0.26481642886019185,-1.5923895310027205,-0.00906519935340364,-0.008412351345366942,-0.03960975563337248,0,70,255.0,255.0,255.0
547,27.35,-2.626888459404786,9.419220259846375,-24.51663772031046,-0.2683104400156336,-0.2651799644556692,-1.594333035090108,-0.007420359359776316,-0.006129072473727628,-0.03813040786213082,0,70,255.0,255.0,255.0
548,27.400000000000002,-2.6403125715047704,9.405954551649195,-24.596401418679893,-0.26864033698378176,-0.26542933610756464,-1.5962025717889337,-0.005775519366148992,-0.0038457936020883125,-0.03665106009088917,0,70,255.0,255.0,255.0
549,27.450000000000003,-2.65375112240317,9.39267922896801,-24.67625674469955,-0.2688879919522485,-0.265564543815878,-1.597998141099197,-0.004130679372521668,-0.0015625147304489974,-0.03517171231964751,0,70,255.0,255.0,255.0
550,27.5,-2.6672,9.3794,-24.7562,-0.26905340492103386,-0.2655855875806095,-1.599719743020898,-0.0024858393788931288,0.0007207641411901555,-0.033692364548404186,0,70,255.0,255.0,255.0
551,27.55,-2.6806562492755885,9.366120612560273,-24.836228240029552,-0.2692060007087711,-0.26561009032599453,-1.6014126066175842,-0.0036179921305971854,-0.0017008739565898333,-0.0340221793190473,0,70,255.0,255.0,255.0
552,27.6,-2.6941215435315033,9.352836972935654,-24.916341535507403,-0.26941520413409353,-0.2657556749762685,-1.603121960952803,-0.004750144882301242,-0.004122512054369822,-0.03435199408969042,0,70,255.0,255.0,255.0
553,27.650000000000002,-2.7075987131496246,9.339543027030897,-24.99654071097048,-0.2696810151970013,-0.26602234153143145,-1.6048478060265534,-0.0058822976340052995,-0.006544150152149811,-0.034681808860333535,0,70,255.0,255.0,255.0
554,27.700000000000003,-2.7210905885118306,9.32623272075076,-25.076826590955704,-0.27000343389749415,-0.26641008999148347,-1.6065901418388362,-0.007014450385709356,-0.0089657882499298,-0.03501162363097665,0,70,255.0,255.0,255.0
555,27.75,-2.7346,9.3129,-25.1572,-0.2703824602355721,-0.26691892035642445,-1.6083489683896512,-0.008146603137412889,-0.011387426347710505,-0.03534143840162152,0,70,255.0,255.0,255.0
556,27.8,-2.748128904694445,9.299540504396544,-25.237661691921108,-0.270765696117113,-0.2674472098358235,-1.6101200425269506,-0.0071828321242206035,-0.009744152828250096,-0.03550152709035679,0,70,255.0,255.0,255.0
557,27.85,-2.761675766469201,9.286156648411017,-25.318212137659938,-0.2711007434479942,-0.26789333563924944,-1.6118991210986868,-0.006219061111028318,-0.008100879308789687,-0.03566161577909206,0,70,255.0,255.0,255.0
558,27.900000000000002,-2.775238175896734,9.272752540227218,-25.398851737438218,-0.2713876022282158,-0.26825729776670243,-1.6136862041048599,-0.005255290097836033,-0.0064576057893292755,-0.035821704467827335,0,70,255.0,255.0,255.0
