idx,t,px,py,pz,vx,vy,vz,ax,ay,az,yaw,mode,ledr,ledg,ledb
0,0.0,4.5,-13.5,0.0,-0.0002871586022422213,0.0004155782779933564,0.0014558559206274196,0.0034459032269066555,-0.007386939335900473,-0.023070271047529033,0,70,255.0,255.0,255.0
1,0.05,4.499989662290319,-13.499988239181992,4.44108131425871e-05,-0.0001320929570314218,5.916600787774896e-05,0.00032969372348861303,0.0027567225815253245,-0.006869551468723825,-0.021976216838023227,0,70,255.0,255.0,255.0
2,0.1,4.499986216387093,-13.499993652242656,3.388108419011613e-05,-1.1486344089688848e-05,-0.0002713768688790261,-0.0007417657631749032,0.002067541936143993,-0.006352163601547178,-0.020882162628517418,0,70,255.0,255.0,255.0
3,0.15000000000000002,4.4999879393387054,-13.500014945712325,-2.8854051333648397e-05,7.466123658297753e-05,-0.0005760503522769688,-0.0017585225393631292,0.001378361290762662,-0.00583477573437053,-0.019788108419011612,0,70,255.0,255.0,255.0
4,0.2,4.499993108193546,-13.500050826121328,-0.00014105945790494196,0.00012634978498657736,-0.0008548544423160791,-0.0027205766050760645,0.000689180645381331,-0.0053173878671938825,-0.018694054209505803,0,70,255.0,255.0,255.0
5,0.25,4.5,-13.5001,-0.0003,0.00014357930112111065,-0.001107789138996357,-0.0036279279603137096,0.0,-0.004800000000017235,-0.017600000000000015,0,70,255.0,255.0,255.0
6,0.30000000000000004,4.5000068918064535,-13.500161173878672,-0.0005029405420950582,0.00012634978498657733,-0.0013348544423178027,-0.004480576605076066,-0.0006891806453813317,-0.004282612132840587,-0.0165059457904942,0,70,255.0,255.0,255.0
7,0.35000000000000003,4.5000120606612946,-13.500233054287676,-0.0007471459486663518,7.466123658297749e-05,-0.001536050352280416,-0.00527852253936313,-0.0013783612907626627,-0.0037652242656639394,-0.015411891580988383,0,70,255.0,255.0,255.0
8,0.4,4.500013783612908,-13.500314347757344,-0.0010298810841901165,-1.1486344089688903e-05,-0.0017113768688841967,-0.006021765763174904,-0.0020675419361439935,-0.0032478363984872922,-0.014317837371482569,0,70,255.0,255.0,255.0
9,0.45,4.50001033770968,-13.50040376081801,-0.0013484108131425873,-0.00013209295703142183,-0.0018608339921291452,-0.006710306276511386,-0.0027567225815253245,-0.0027304485313106447,-0.013223783161976754,0,70,255.0,255.0,255.0
10,0.5,4.5,-13.5005,-0.0017,-0.0002871586022422213,-0.001984421722015261,-0.007344144079372579,-0.003445903226906655,-0.0022130606641339937,-0.012129728952470935,0,70,255.0,255.0,255.0
11,0.55,4.499981970483865,-13.500602265303321,-0.0020830486447623547,-0.0004213061829147759,-0.0021117482386174484,-0.007991387303184352,-0.0019199999999955238,-0.0028799999999534966,-0.013759999999999994,0,70,255.0,255.0,255.0
12,0.6000000000000001,4.499959140967731,-13.500711730606643,-0.0025004972895247097,-0.00047915860224177385,-0.002272421722010611,-0.008720144079372579,-0.00039409677308439254,-0.0035469393357729995,-0.015390271047529054,0,70,255.0,255.0,255.0
13,0.65,4.499935326209664,-13.500830063258302,-0.002956421611905887,-0.0004607158602232153,-0.002466442172194748,-0.009530414407937258,0.0011318064538267357,-0.004213878671592501,-0.01702054209505811,0,70,255.0,255.0,255.0
14,0.7000000000000001,4.499914340967731,-13.500958930606641,-0.00345489728952471,-0.00036597795685910006,-0.002693809589169861,-0.01042219828887839,0.0026577096807378665,-0.0048808180074120045,-0.01865081314258717,0,70,255.0,255.0,255.0
15,0.75,4.4999,-13.5011,-0.004,-0.0001949448921494288,-0.0029545239729359485,-0.011395495722195973,0.004183612907648996,-0.005547757343231513,-0.02028108419011622,0,70,255.0,255.0,255.0
16,0.8,4.4998948262580845,-13.501254564908042,-0.0045944648788555234,-2.5125053323782395e-05,-0.0032261526031974364,-0.012369874182186526,0.0026091806453768553,-0.0053173878672279915,-0.018694054209505817,0,70,255.0,255.0,255.0
17,0.8500000000000001,4.499896175467783,-13.501422423285756,-0.005235664893234812,6.597317238825692e-05,-0.003486262759658748,-0.013264901143146556,0.0010347483831047149,-0.005087018391224471,-0.01710702422889542,0,70,255.0,255.0,255.0
18,0.9,4.499900111548438,-13.501602999209446,-0.005919632468186337,7.834978498668922e-05,-0.003734854442319883,-0.014080576605076067,-0.000539683879167422,-0.00485664891522095,-0.01551999424828502,0,70,255.0,255.0,255.0
19,0.9500000000000001,4.499902698419397,-13.501795716755423,-0.006642400028758577,1.200478447151447e-05,-0.003971927651180844,-0.014816900567975057,-0.0021141161414395624,-0.0046262794392174286,-0.01393296426767462,0,70,255.0,255.0,255.0
20,1.0,4.4999,-13.502,-0.0074,-0.00013306182915726682,-0.004197482386241626,-0.015473873031843527,-0.0036885484037117,-0.004395909963213915,-0.012345934287064153,0,70,255.0,255.0,255.0
21,1.05,4.499889124483797,-13.502215475064503,-0.008189491839815554,-0.00029419360378861887,-0.0044236413486046285,-0.01611311596806955,-0.002756722581542377,-0.00465044853130617,-0.013223783161976733,0,70,255.0,255.0,255.0
22,1.1,4.4998713571611395,-13.502442576250335,-0.00901204313753605,-0.00040873408731150477,-0.004662527239372244,-0.0167962513480412,-0.0018248967593730537,-0.004904987099398426,-0.014101632036889312,0,70,255.0,255.0,255.0
23,1.1500000000000001,4.499849027596585,-13.502681939903914,-0.00986984851534877,-0.0004766832797259244,-0.004914140058544471,-0.01752327917175848,-0.0008930709372037306,-0.005159525667490681,-0.014979480911801893,0,70,255.0,255.0,255.0
24,1.2000000000000002,4.499824465354687,-13.502934202371662,-0.010765102595440995,-0.0004980411810318779,-0.005178479806121312,-0.018294199439221392,3.875488496559278e-05,-0.0054140642355829365,-0.01585732978671447,0,70,255.0,255.0,255.0
25,1.25,4.4998,-13.5032,-0.0117,-0.0004728077912293653,-0.0054555464821027634,-0.019109012150429924,0.0009705807071349122,-0.005668602803675198,-0.016735178661627076,0,70,255.0,255.0,255.0
26,1.3,4.499777475806728,-13.503479534833943,-0.012676367761882265,-0.00043010053153200764,-0.005719282002379091,-0.019945661945535282,0.0007377096807593928,-0.004880818007377905,-0.016730813142587213,0,70,255.0,255.0,255.0
27,1.35,4.499756795887658,-13.503771271712907,-0.013694562556620996,-0.0003990368231534259,-0.005943628282840555,-0.020782093464688647,0.0005048386543838733,-0.0040930332110806125,-0.01672644762354735,0,70,255.0,255.0,255.0
28,1.4000000000000001,4.499737378065223,-13.504073241174897,-0.014754573470418596,-0.0003796166660936203,-0.006128585323487153,-0.021618306707890018,0.0002719676280083539,-0.0033052484147833203,-0.016722082104507492,0,70,255.0,255.0,255.0
29,1.4500000000000002,4.49971864016186,-13.504383473757926,-0.01585638958947747,-0.0003718400603525905,-0.006274153124318887,-0.022454301675139395,3.9096601632834446e-05,-0.002517463618486028,-0.01671771658546763,0,70,255.0,255.0,255.0
30,1.5,4.4997,-13.5047,-0.017,-0.0003757070059303368,-0.0063803316853357555,-0.023290078366436782,-0.00019377442474268446,-0.0017296788221887668,-0.01671335106642774,0,70,255.0,255.0,255.0
31,1.55,4.4996809722892905,-13.505021585599717,-0.018185037112655393,-0.0003854042700845785,-0.006491230641871876,-0.02410423624978934,-0.00019411614142698236,-0.002706279439256023,-0.01585296426767454,0,70,255.0,255.0,255.0
32,1.6,4.499661459288227,-13.505349936898034,-0.019409706635979972,-0.0003951186200730351,-0.006650959629261358,-0.024875374793204237,-0.00019445785811128026,-0.0036828800563232793,-0.014992577468921341,0,70,255.0,255.0,255.0
33,1.6500000000000001,4.499641460142519,-13.505687495396492,-0.02067185760297686,-0.0004048500558957065,-0.006859518647504203,-0.02560349399668148,-0.00019479957479557816,-0.004659480673390535,-0.01413219067016814,0,70,255.0,255.0,255.0
34,1.7000000000000002,4.4996209739978745,-13.506036702596631,-0.021969339046649168,-0.0004145985775525929,-0.007116907696600412,-0.026288593860221053,-0.00019514129147987606,-0.005636081290457792,-0.013271803871414942,0,70,255.0,255.0,255.0
35,1.75,4.4996,-13.5064,-0.0233,-0.0004243641850436941,-0.007423126776549982,-0.026930674383822968,-0.00019548300816417397,-0.006612681907525043,-0.01241141707266169,0,70,255.0,255.0,255.0
36,1.8,4.49957863503611,-13.506778922767182,-0.024662683787496163,-0.00042828238812408505,-0.007723795430127681,-0.02758939305530737,3.8754884948537086e-05,-0.005414064235582928,-0.013937329786714393,0,70,255.0,255.0,255.0
37,1.85,4.499557366959432,-13.507171380694952,-0.02606021089945912,-0.0004204886965488404,-0.007964533200108275,-0.02832440736249441,0.00027299277806124814,-0.004215446563640811,-0.015463242500767096,0,70,255.0,255.0,255.0
38,1.9000000000000001,4.499536781364699,-13.507574377239132,-0.027496396117673988,-0.00040098311031796016,-0.008145340086491764,-0.02913571730538408,0.0005072306711739592,-0.0030168288916986954,-0.0169891552148198,0,70,255.0,255.0,255.0
39,1.9500000000000002,4.499517463846644,-13.507984915855543,-0.028975054223925906,-0.00036976562943144445,-0.008266216089278145,-0.03002332288397639,0.0007414685642866702,-0.0018182112197565794,-0.018515067928872503,0,70,255.0,255.0,255.0
40,2.0,4.4995,-13.5084,-0.0305,-0.00032683625388929327,-0.00832716120846742,-0.03098722409827133,0.0009757064573993816,-0.0006195935478145176,-0.020040980642925255,0,70,255.0,255.0,255.0
41,2.0500000000000003,4.499484487566272,-13.508817923331556,-0.03207382773735996,-0.00030146617741391414,-0.008405587637624935,-0.031954191528981164,3.909660161577702e-05,-0.002517463618486076,-0.01863771658546775,0,70,255.0,255.0,255.0
42,2.1,4.499469072874045,-13.509242140322154,-0.03369424976618357,-0.0003229265937277152,-0.008578907570316026,-0.0328509957568181,-0.0008975132541678191,-0.004415333689157617,-0.017234452528010254,0,70,255.0,255.0,255.0
43,2.15,4.499451414398686,-13.509677395646978,-0.03535775792632721,-0.0003912175028306958,-0.008847121006540696,-0.03367763678178218,-0.0018341231099514156,-0.006313203759829158,-0.015831188470552763,0,70,255.0,255.0,255.0
44,2.2,4.49942917061555,-13.510128433981203,-0.037060844057647244,-0.0005063389047228572,-0.009210227946298945,-0.03443411460387338,-0.00277073296573502,-0.008211073830500716,-0.014427924413095256,0,70,255.0,255.0,255.0
45,2.25,4.4994,-13.5106,-0.0388,-0.0006682907994041976,-0.009668228389590769,-0.03512042922309171,-0.0037073428215186124,-0.010108943901172243,-0.013024660355637707,0,70,255.0,255.0,255.0
46,2.3000000000000003,4.499362614698806,-13.5110949839066,-0.04057240526306405,-0.0008138529022286221,-0.010109854019380556,-0.03577784082876803,-0.002115141291458339,-0.0075560812904191706,-0.013271803871414857,0,70,255.0,255.0,255.0
47,2.35,4.499319941544385,-13.51160885801643,-0.04237799003580662,-0.0008798049285500323,-0.010423836518632688,-0.036447609610233196,-0.0005229397613980792,-0.00500321867966612,-0.013518947387192004,0,70,255.0,255.0,255.0
48,2.4000000000000004,4.49927596104056,-13.512135240172956,-0.04421737217701719,-0.0008661468783684296,-0.01061017588734717,-0.03712973556748723,0.001069261768662194,-0.002450356068913047,-0.013766090902969154,0,70,255.0,255.0,255.0
49,2.45,4.499234653691156,-13.512667748219654,-0.046091169545485165,-0.0007728787516838133,-0.010668872125523993,-0.03782421870053012,0.002661463298722454,0.00010250654184000389,-0.014013234418746301,0,70,255.0,255.0,255.0
50,2.5,4.4992,-13.5132,-0.048,-0.0006000005484961848,-0.010599925233163167,-0.03853105900936186,0.004253664828782716,0.002655369152593026,-0.01426037793452356,0,70,255.0,255.0,255.0
51,2.5500000000000003,4.499174653638501,-13.51372774104204,-0.0499445512103839,-0.000427122213669135,-0.010530996284843223,-0.03925444515594676,0.00266146856429924,0.00010178878020479249,-0.014675067928872467,0,70,255.0,255.0,255.0
52,2.6,4.499155960948412,-13.514255227612127,-0.05192579009058997,-0.00033385369206625993,-0.010589746355142687,-0.03999856580224911,0.0010692722998157777,-0.0024517915921834187,-0.01508975792322137,0,70,255.0,255.0,255.0
53,2.6500000000000004,4.499139941439074,-13.514788843661197,-0.053944753365604114,-0.00032019498368755783,-0.010776175444061564,-0.0407634209482689,-0.0005229239646676979,-0.005005371964571652,-0.015504447917570278,0,70,255.0,255.0,255.0
54,2.7,4.499122614619823,-13.515334973140178,-0.05600247776041215,-0.0003861460885330291,-0.011090283551599852,-0.04154901059400613,-0.0021151202291511606,-0.0075589523369598635,-0.01591913791191918,0,70,255.0,255.0,255.0
55,2.75,4.4991,-13.5159,-0.0581,-0.0005317070066026731,-0.01153207067775755,-0.04235533473946082,-0.0037073164936346206,-0.010112532709348115,-0.016333827906268028,0,70,255.0,255.0,255.0
56,2.8000000000000003,4.499069170747189,-13.516488451925243,-0.0602381898954004,-0.0006936582430877675,-0.011990160841253773,-0.043172378547444906,-0.002770732965769116,-0.008211073830500704,-0.01634792441309525,0,70,255.0,255.0,255.0
57,2.85,4.499031414661965,-13.517097431535058,-0.06241724960183351,-0.0008087803031795854,-0.012353178060807622,-0.04399012718077035,-0.0018341494379036194,-0.006309614951653311,-0.01636202091992247,0,70,255.0,255.0,255.0
58,2.9000000000000004,4.498989073203145,-13.517722185182256,-0.06463721436056646,-0.0008770731868781291,-0.012621122336419105,-0.04480858063943716,-0.0008975659100381147,-0.0044081560728059,-0.016376117426749694,0,70,255.0,255.0,255.0
59,2.95,4.498944487829551,-13.518357959219637,-0.06689811941286626,-0.0008985368941833974,-0.012793993668088213,-0.045627738923445314,3.9017617827381834e-05,-0.002506697193958506,-0.016390213933576914,0,70,255.0,255.0,255.0
60,3.0,4.4989,-13.519,-0.0692,-0.0008731714250953908,-0.012871792055814953,-0.04644760203279484,0.0009756011456928757,-0.0006052383151111118,-0.016404310440404024,0,70,255.0,255.0,255.0
61,3.0500000000000003,4.498857463372741,-13.519644851256993,-0.07154268920801456,-0.0008302448139844693,-0.012932360350145767,-0.04725604065427361,0.0007414632987439744,-0.001817493458121434,-0.015933234418746365,0,70,255.0,255.0,255.0
62,3.1,4.498816780403729,-13.520294246247635,-0.07392521150207598,-0.0007990250952209932,-0.013053541401627096,-0.048040925474669476,0.000507325451795075,-0.003029748601131745,-0.01546215839708871,0,70,255.0,255.0,255.0
63,3.1500000000000004,4.498777365748346,-13.520951215609776,-0.07634638919213013,-0.0007795122688049619,-0.013235335210258941,-0.04880225649398248,0.0002731876048461736,-0.004242003744142067,-0.01499108237543105,0,70,255.0,255.0,255.0
64,3.2,4.498738634061976,-13.521618789981279,-0.07880504458812286,-0.0007717063347363757,-0.013477741776041304,-0.049540033712212585,3.904975789727433e-05,-0.0054542588871523785,-0.014520006353773394,0,70,255.0,255.0,255.0
65,3.25,4.4987,-13.5223,-0.0813,-0.0007756072930152346,-0.013780761098974179,-0.05025425712935981,-0.0001950880890516241,-0.006666514030162662,-0.014048930332115739,0,70,255.0,255.0,255.0
66,3.3000000000000003,4.498660975761846,-13.52299694304678,-0.0838302532725414,-0.0007853625009704159,-0.014088397758153208,-0.05095545883546068,-0.0001951202291556273,-0.005638952336998443,-0.013999137911919157,0,70,255.0,255.0,255.0
67,3.35,4.49862146372312,-13.523707983474404,-0.08639550438986258,-0.0007951193159307973,-0.014344656332674025,-0.05165417092055173,-0.0001951523692596305,-0.004611390643834232,-0.013949345491722576,0,70,255.0,255.0,255.0
68,3.4000000000000004,4.498581463803469,-13.524430552378638,-0.08899562887091308,-0.0008048777378963789,-0.014549536822536631,-0.052350393384632946,-0.00019518450936363373,-0.003583828950670013,-0.013899553071525994,0,70,255.0,255.0,255.0
69,3.45,4.498540975922547,-13.525162080855248,-0.09163050223464239,-0.0008146377668671607,-0.014703039227741027,-0.05304412622770433,-0.00019521664946763693,-0.0025562672575058032,-0.013849760651329413,0,70,255.0,255.0,255.0
70,3.5,4.4985,-13.5259,-0.0943,-0.0008243994028431427,-0.014805163548287209,-0.053735369449765875,-0.00019524878957164447,-0.001528705564341551,-0.013799968231132442,0,70,255.0,255.0,255.0
71,3.5500000000000003,4.498458633579874,-13.526642576555883,-0.0970042977018199,-0.0008283051821367494,-0.01490604861724471,-0.05444212400388362,3.901761782737788e-05,-0.002506697193958515,-0.014470213933576961,0,70,255.0,255.0,255.0
72,3.6,4.498417364703792,-13.527391419854748,-0.09974477093847373,-0.0008204976410604051,-0.015055833267683059,-0.055182390843123576,0.00027328402522639817,-0.0034846888235754705,-0.015140459636021477,0,70,255.0,255.0,255.0
73,3.6500000000000004,4.498376779037775,-13.528148974875673,-0.10252309532421765,-0.0008009767796141095,-0.015254517499602258,-0.055956169967485765,0.0005075504326254205,-0.004462680453192434,-0.015810705338465996,0,70,255.0,255.0,255.0
74,3.7,4.498337462247838,-13.528917686597735,-0.10534094647330769,-0.000769742597797863,-0.015502101313002304,-0.05676346137697017,0.0007418168400244408,-0.00544067208280939,-0.01648095104091051,0,70,255.0,255.0,255.0
75,3.75,4.4983,-13.5297,-0.1082,-0.0007267950956116657,-0.015798584707883197,-0.0576042650715768,0.0009760832474234619,-0.0064186637124263035,-0.017151196743354524,0,70,255.0,255.0,255.0
76,3.8000000000000003,4.498264489918659,-13.53049755072969,-0.11110135592017907,-0.0007014167704786473,-0.01609540777287181,-0.058444045149004996,3.904975789727173e-05,-0.005454258887118236,-0.01644000635377309,0,70,255.0,255.0,255.0
77,3.85,4.498229077461712,-13.5313087371066,-0.11404381185624253,-0.0007228901198219381,-0.016344010596595022,-0.059248265706954115,-0.00089798373162891,-0.0044898540618101765,-0.015728815964191664,0,70,255.0,255.0,255.0
78,3.9000000000000004,4.498191420045435,-13.532131148118664,-0.11702558983221648,-0.0007912151436415388,-0.01654439317905283,-0.06001692674542416,-0.0018350172211551003,-0.003525449236502108,-0.015017625574610234,0,70,255.0,255.0,255.0
79,3.95,4.498149175086105,-13.532962372753817,-0.12004491187212694,-0.000906391841937448,-0.01669655552024523,-0.06075002826441513,-0.002772050710681282,-0.0025610444111940486,-0.014306435185028808,0,70,255.0,255.0,255.0
80,4.0,4.4981,-13.5338,-0.1231,-0.0010684202147096661,-0.01680049762017223,-0.06144757026392703,-0.0037090842002074614,-0.0015966395858860172,-0.013595244795447436,0,70,255.0,255.0,255.0
81,4.05,4.498042606745494,-13.534642420525355,-0.12618947861746393,-0.0012140277359518577,-0.01690432029125788,-0.062133695400096445,-0.002115216649480222,-0.00255626725753992,-0.013849760651329111,0,70,255.0,255.0,255.0
82,4.1000000000000005,4.497979925449364,-13.535491231718852,-0.12931358163655626,-0.001279941879657688,-0.017056124345926224,-0.06283254632905995,-0.0005213490987529537,-0.0035158949291938402,-0.014104276507210791,0,70,255.0,255.0,255.0
83,4.15,4.497915940780486,-13.536348832649674,-0.13247294534691653,-0.0012661626458271547,-0.017255909784177265,-0.06354412305081752,0.0010725184519742859,-0.004475522600847744,-0.014358792363092466,0,70,255.0,255.0,255.0
84,4.2,4.49785463740774,-13.537217622386995,-0.13566820603818455,-0.0011726900344602598,-0.017503676606010998,-0.06426842556536919,0.0026663860027015254,-0.005435150272501646,-0.014613308218974143,0,70,255.0,255.0,255.0
85,4.25,4.4978,-13.5381,-0.1389,-0.0009995240455570032,-0.017799424811427426,-0.06500545387271493,0.004260253553428765,-0.00639477794415555,-0.014867824074855318,0,70,255.0,255.0,255.0
86,4.3,4.497754683099367,-13.538997567168892,-0.14216872960996516,-0.0008264722857199328,-0.01809531106210155,-0.06574117325060908,0.0026618168400540762,-0.005440672082809376,-0.014560951040910309,0,70,255.0,255.0,255.0
87,4.3500000000000005,4.4977160207408335,-13.539908736017992,-0.14547386159753264,-0.0007333423615515954,-0.018343492019708366,-0.06646154897680596,0.0010633801266793593,-0.0044865662214631855,-0.014254078006965295,0,70,255.0,255.0,255.0
88,4.4,4.497680016832617,-13.540831121282645,-0.14881462878011753,-0.0007201342730519947,-0.018543967684247868,-0.06716658105130562,-0.0005350565866953294,-0.003532460360117011,-0.013947204973020287,0,70,255.0,255.0,255.0
89,4.45,4.4976426752829335,-13.5417623376982,-0.1521902639751349,-0.0007868480202211283,-0.018696738055720065,-0.06785626947410799,-0.0021334933000700185,-0.0025783544987708373,-0.013640331939075278,0,70,255.0,255.0,255.0
90,4.5,4.4976,-13.5427,-0.1556,-0.0009334836030589959,-0.018801803134124953,-0.06853061424521312,-0.0037319300134447102,-0.001624248637424608,-0.013333458905129714,0,70,255.0,255.0,255.0
91,4.55,4.4975490608570405,-13.543642510799074,-0.15904360294267533,-0.0010960831211625714,-0.018906435460339568,-0.06922161159746708,-0.002772050710698336,-0.0025610444111599153,-0.014306435185029005,0,70,255.0,255.0,255.0
92,4.6000000000000005,4.4974911915873035,-13.544591424209178,-0.16252297197331333,-0.00121068867412883,-0.019057907575240948,-0.06996125776371603,-0.0018121714079519448,-0.003497840184895239,-0.015279411464928316,0,70,255.0,255.0,255.0
93,4.65,4.497428791889046,-13.545549082219743,-0.16604053953261358,-0.0012773002619577676,-0.01925621947882909,-0.07074955274395991,-0.0008522921052055705,-0.004434635958630546,-0.01625238774482761,0,70,255.0,255.0,255.0
94,4.7,4.497364261460525,-13.546517826820207,-0.16959873806127584,-0.001295917884649387,-0.019501371171104,-0.07158649653819879,0.0001075871975408033,-0.005371431732365853,-0.0172253640247269,0,70,255.0,255.0,255.0
95,4.75,4.4973,-13.5475,-0.1732,-0.0012665415422036875,-0.019793362652065674,-0.0724720891464326,0.001067466500287174,-0.006308227506101105,-0.018198340304626193,0,70,255.0,255.0,255.0
96,4.800000000000001,4.497237873472475,-13.548497189634805,-0.17684565861933343,-0.0012211952296292841,-0.0200869470965316,-0.07334038035952263,0.000746386002688936,-0.0054351502725357255,-0.01653330821897405,0,70,255.0,255.0,255.0
97,4.8500000000000005,4.497177612909955,-13.549507967145292,-0.18053265050921427,-0.0011919029419347933,-0.020336877679319253,-0.07412541996833001,0.0004253055050907038,-0.0045620730389703615,-0.014868276133321938,0,70,255.0,255.0,255.0
98,4.9,4.4971184156112,-13.550530149838375,-0.18425681308942837,-0.001178664679120214,-0.020543154400428632,-0.07482720797285482,0.00010422500749247149,-0.003688995805404998,-0.013203244047669826,0,70,255.0,255.0,255.0
99,4.95,4.497059478874963,-13.551561555020973,-0.18801398377976167,-0.0011814804411855462,-0.02070577725985975,-0.07544574437309699,-0.00021685549010576084,-0.0028159185718396344,-0.011538211962017713,0,70,255.0,255.0,255.0
100,5.0,4.497,-13.5526,-0.1918,-0.00120035022813079,-0.020824746257612596,-0.0759810291690566,-0.0005379359877039948,-0.0019428413382742704,-0.009873179876365934,0,70,255.0,255.0,255.0
101,5.050000000000001,4.496939445253061,-13.553643930661703,-0.19561216257999114,-0.001219135960324826,-0.020937776153538725,-0.07652086696444262,-0.00021349330005742984,-0.0025783544987708386,-0.011720331939074761,0,70,255.0,255.0,255.0
102,5.1000000000000005,4.496878356772874,-13.554694307209653,-0.19945362598982988,-0.0012216995581365334,-0.02108258170748968,-0.07715306236296407,0.00011094938758912925,-0.0032138676592673955,-0.013567484001783555,0,70,255.0,255.0,255.0
103,5.15,4.496817545666155,-13.555752718426753,-0.2033290081096731,-0.001208041021565913,-0.021259162919465464,-0.07787761536462097,0.0004353920752356885,-0.0038493808197639524,-0.015414636064492351,0,70,255.0,255.0,255.0
104,5.2,4.496757823039624,-13.556820753095902,-0.20724292681967757,-0.0011781603506129646,-0.021467519789466077,-0.0786945259694133,0.0007598347628822476,-0.004484893980260509,-0.017261788127201146,0,70,255.0,255.0,255.0
105,5.25,4.4967,-13.5579,-0.2112,-0.0011320575452776884,-0.021707652317491513,-0.07960379417734108,0.001084277450528805,-0.005120407140757011,-0.019108940189910162,0,70,255.0,255.0,255.0
106,5.300000000000001,4.496644345515278,-13.558991887718381,-0.21520329106070232,-0.001102260929075522,-0.021969948289318735,-0.08051215178270703,0.00010758719755783633,-0.005371431732331703,-0.017225364024726894,0,70,255.0,255.0,255.0
107,5.3500000000000005,4.496588959998548,-13.560097204016092,-0.21924964553146642,-0.0011212988255219038,-0.022244795490724684,-0.08132633057981378,-0.000869103055413115,-0.005622456323906391,-0.015341787859543656,0,70,255.0,255.0,255.0
108,5.4,4.496531401724181,-13.561216576454614,-0.22333435447187935,-0.001189171234616833,-0.02253219392170937,-0.08204633056866137,-0.0018457933083840662,-0.005873480915481079,-0.013458211694360421,0,70,255.0,255.0,255.0
109,5.45,4.496469228966542,-13.562350632595424,-0.22745270894152822,-0.0013058781563603096,-0.02283214358227279,-0.08267215174924981,-0.002822483561355018,-0.006124505507055768,-0.011574635529177184,0,70,255.0,255.0,255.0
110,5.5,4.4964,-13.5635,-0.2316,-0.0014714195907523338,-0.02314464447241495,-0.0832037941215791,-0.0037991738143259724,-0.0063755300986304275,-0.009691059363994503,0,70,255.0,255.0,255.0
111,5.550000000000001,4.496322372685829,-13.564664518464774,-0.23577307317719984,-0.0016198203233634431,-0.023422430689177445,-0.08373452590472943,-0.002136855490118317,-0.004735918571869229,-0.01153821196201859,0,70,255.0,255.0,255.0
112,5.6000000000000005,4.496239403232935,-13.565840876725979,-0.23997499188430468,-0.0016851051397641682,-0.023618236329601878,-0.08435761531778097,-0.00047453716591069114,-0.003096307045108059,-0.013385364560042643,0,70,255.0,255.0,255.0
113,5.65,4.496155247437124,-13.567024975754796,-0.2442103740028096,-0.0016672740399545122,-0.02373206139368825,-0.08507306236073371,0.0011877811582969343,-0.0014566955183468898,-0.015232517158066696,0,70,255.0,255.0,255.0
114,5.7,4.496074061094208,-13.568212716522408,-0.2484838374142097,-0.0015663270239344752,-0.023763905881436564,-0.08588086703358763,0.0028500994825045606,0.00018291600841428054,-0.01707966975609075,0,70,255.0,255.0,255.0
115,5.75,4.496,-13.5694,-0.2528,-0.0013822640917040573,-0.02371376979284682,-0.08678102933634277,0.004512417806712184,0.0018225275351754777,-0.01892682235411436,0,70,255.0,255.0,255.0
116,5.800000000000001,4.4959357637414055,-13.57058443842252,-0.2571620162304986,-0.0012024577774647329,-0.023684328953974168,-0.08768574459837565,0.0026798347628606937,-0.0006448939802694803,-0.017261788127200382,0,70,255.0,255.0,255.0
117,5.8500000000000005,4.495878227069717,-13.571770489079995,-0.2615671869313152,-0.0011142806154179848,-0.023778259190873764,-0.08850720814906282,0.0008472517190092365,-0.003112315495714395,-0.015596753900286435,0,70,255.0,255.0,255.0
118,5.9,4.495822808527327,-13.572964320526205,-0.26601134951688243,-0.0011177326055638094,-0.023995560503545607,-0.08924541998840428,-0.0009853313248422216,-0.005579737011159309,-0.013931719673372488,0,70,255.0,255.0,255.0
119,5.95,4.495764926656625,-13.574172101314943,-0.2704903414016332,-0.0012128137479022068,-0.024336232891989693,-0.08990038011640007,-0.0028179143686936792,-0.008047158526604222,-0.012266685446458541,0,70,255.0,255.0,255.0
120,6.0,4.4957,-13.5754,-0.275,-0.0013995240424331766,-0.02480027635620603,-0.09047208853305012,-0.004650497412545142,-0.010514580042049276,-0.010601651219544261,0,70,255.0,255.0,255.0
121,6.050000000000001,4.495624972348551,-13.57665212784514,-0.279537261900806,-0.0015863485667802562,-0.025264253494932696,-0.09102649570176816,-0.0028224835613379373,-0.0080445055070172,-0.011574635529176449,0,70,255.0,255.0,255.0
122,6.1000000000000005,4.495542888488198,-13.577924366954049,-0.28410346039043494,-0.0016817723985669735,-0.025604726906907755,-0.09162955208596778,-0.000994469710130765,-0.005574430971985169,-0.012547619838808621,0,70,255.0,255.0,255.0
123,6.15,4.49545831845357,-13.579210542140384,-0.2887010279296608,-0.0016857955377933326,-0.025821696592131214,-0.09228125768564902,0.0008335441410764078,-0.003104356436953137,-0.013520604148440791,0,70,255.0,255.0,255.0
124,6.2,4.4953758322792945,-13.580504478217813,-0.2933323969792578,-0.001598417984459333,-0.02591516255060307,-0.09298161250081186,0.00266155799228358,-0.0006342819019211042,-0.014493588458072963,0,70,255.0,255.0,255.0
125,6.25,4.4953,-13.5818,-0.298,-0.0014196397385649756,-0.025885124782323323,-0.09373061653145631,0.004489571843490744,0.0018357926331110386,-0.015466572767705244,0,70,255.0,255.0,255.0
126,6.300000000000001,4.495233946864392,-13.583092650196917,-0.30270573616627766,-0.001236147955415091,-0.02583465706628604,-0.09449627259455128,0.0028500994825045277,0.00018291600838024483,-0.015159669756092415,0,70,255.0,255.0,255.0
127,6.3500000000000005,4.495175018977491,-13.584384843103814,-0.30744937150694546,-0.0011346297903145196,-0.025866833181485298,-0.09524658350706557,0.0012106271215183415,-0.0014699606163505194,-0.014852766744479592,0,70,255.0,255.0,255.0
128,6.4,4.495119117658394,-13.585680710912253,-0.31223013876447453,-0.0011150852432632574,-0.02598165312792109,-0.09598154926899923,-0.0004288452394678455,-0.003122837241081284,-0.014545863732866768,0,70,255.0,255.0,255.0
129,6.45,4.495062144226198,-13.586984385813794,-0.3170472706813357,-0.0011775143142613042,-0.026179116905593425,-0.09670116988035223,-0.002068317600454032,-0.004775713865812048,-0.014238960721253946,0,70,255.0,255.0,255.0
130,6.5,4.495,-13.5883,-0.3219,-0.0013219170033086601,-0.0264592245145023,-0.09740544534112461,-0.0037077899614402204,-0.006428590490542674,-0.013932057709641121,0,70,255.0,255.0,255.0
131,6.550000000000001,4.49492964019388,-13.589630871367188,-0.32678779343408365,-0.0014850596115620095,-0.026773118239931087,-0.0981084139200271,-0.002817914368693661,-0.006127158526608707,-0.014186685446458118,0,70,255.0,255.0,255.0
132,6.6000000000000005,4.494852235601837,-13.590977060630689,-0.33171105358178343,-0.0016037084401780285,-0.02707194036716317,-0.09882411388577043,-0.0019280387759471175,-0.005825726562674746,-0.01444131318327511,0,70,255.0,255.0,255.0
133,6.65,4.494770010912855,-13.5923378142106,-0.3366704170124414,-0.0016778634891567205,-0.02735569089619856,-0.0995525452383546,-0.001038163183200574,-0.005524294598740784,-0.0146959409200921,0,70,255.0,255.0,255.0
134,6.7,4.4946851908159156,-13.593712378527007,-0.34166652029539957,-0.0017075247584980857,-0.02762436982703725,-0.10029370797777963,-0.0001482875904540307,-0.005222862634806823,-0.014950568656909092,0,70,255.0,255.0,255.0
135,6.75,4.4946,-13.5951,-0.3467,-0.0016926922482021235,-0.02787797715967924,-0.10104760210404552,0.000741588002292513,-0.004921430670872973,-0.015205196393726417,0,70,255.0,255.0,255.0
136,6.800000000000001,4.494516292360089,-13.596499864334337,-0.351771090097388,-0.0016556135983376093,-0.02811286997399802,-0.10179007172534049,0.000741557992288044,-0.004474281901878079,-0.014493588458072061,0,70,255.0,255.0,255.0
137,6.8500000000000005,4.494434438615158,-13.597910914373426,-0.3568784141659211,-0.0016185364489733187,-0.028325405349867053,-0.10249696094985274,0.0007415279822835751,-0.004027133132883194,-0.013781980522417718,0,70,255.0,255.0,255.0
138,6.9,4.494354438690182,-13.599332032245348,-0.36202019318576023,-0.0015814608001092519,-0.028515583287286338,-0.10316826977758226,0.0007414979722791062,-0.003579984363888308,-0.013070372586763374,0,70,255.0,255.0,255.0
139,6.95,4.494276292510139,-13.60076210007818,-0.36719464813706626,-0.0015443866517454083,-0.02868340378625588,-0.10380399820852906,0.0007414679622746372,-0.0031328355948934223,-0.01235876465110903,0,70,255.0,255.0,255.0
140,7.0,4.4942,-13.6022,-0.3724,-0.0015073140038817882,-0.02882886684677568,-0.10440414624269316,0.0007414379522701804,-0.002685686825898481,-0.011647156715454021,0,70,255.0,255.0,255.0
141,7.050000000000001,4.494125190365766,-13.60364487129547,-0.3776350461763648,-0.001492485995086496,-0.028967401864069407,-0.10500329917861086,-0.0001483176004585114,-0.0028557138658505425,-0.012318960721253835,0,70,255.0,255.0,255.0
142,7.1000000000000005,4.494050009937531,-13.605096881875607,-0.3829008897545326,-0.0015221457639276387,-0.029114438233360733,-0.10563604231481856,-0.0010380731531871876,-0.0030257409058026003,-0.012990764727053634,0,70,255.0,255.0,255.0
143,7.15,4.493972234326413,-13.606556456808006,-0.3881992102445181,-0.0015962933104052145,-0.029269975954649665,-0.10630237565131623,-0.0019278287059158634,-0.0031957679457546586,-0.013662568732853436,0,70,255.0,255.0,255.0
144,7.2,4.4938896391435295,-13.608024021160272,-0.3935316871563358,-0.0017149286345192244,-0.0294340150279362,-0.10700229918810389,-0.0028175842586445395,-0.003365794985706717,-0.014334372738653237,0,70,255.0,255.0,255.0
145,7.25,4.4938,-13.6095,-0.3989,-0.0018780517362696676,-0.029606555453220336,-0.10773581292518153,-0.0037073398113732156,-0.0035358220256588857,-0.015006176744452704,0,70,255.0,255.0,255.0
146,7.300000000000001,4.493702146176848,-13.61098465048378,-0.4043055251971532,-0.002022442421315665,-0.029777522569732096,-0.10848473156021561,-0.002068287590466591,-0.0033028626348113954,-0.014950568656910423,0,70,255.0,255.0,255.0
147,7.3500000000000005,4.49359912163472,-13.612477558124148,-0.40974842681594864,-0.002084880495316329,-0.029936841716701475,-0.10923086979087257,-0.0004292353695599959,-0.0030699032439639095,-0.014894960569368142,0,70,255.0,255.0,255.0
148,7.4,4.493495024004167,-13.613978140522624,-0.4152285658361675,-0.0020653659582716643,-0.030084512894128487,-0.10997422761715243,0.0012098168513465998,-0.002836943853116423,-0.014839352481825862,0,70,255.0,255.0,255.0
149,7.45,4.493393950915744,-13.615485815280735,-0.42074580323759087,-0.0019638988101816695,-0.03022053610201312,-0.11071480503905516,0.002848869072253195,-0.002603984462268937,-0.014783744394283581,0,70,255.0,255.0,255.0
150,7.5,4.4933,-13.617,-0.4263,-0.0017804790510463457,-0.030344911340355378,-0.11145260205658078,0.004487921293159801,-0.002371025071421451,-0.01472813630674108,0,70,255.0,255.0,255.0
151,7.550000000000001,4.493215824926843,-13.618520526769409,-0.4318908530350227,-0.0016017443196601681,-0.0304825078570124,-0.11217777458052704,0.0026614679622871994,-0.0031328355948592843,-0.014278764651108528,0,70,255.0,255.0,255.0
152,7.6000000000000005,4.49313830352359,-13.620048885627806,-0.4375174029816731,-0.0015143322548176227,-0.03065819489984131,-0.11288047852169164,0.0008350146314146309,-0.0038946461182971038,-0.013829392995475982,0,70,255.0,255.0,255.0
153,7.65,4.493062869656918,-13.621586981101496,-0.4431785264108121,-0.0015182428565187053,-0.03087197246884211,-0.11356071388007463,-0.0009914386994579376,-0.004656456641734924,-0.013380021339843437,0,70,255.0,255.0,255.0
154,7.7,4.492984957193497,-13.623136717716791,-0.4488730998933008,-0.0016134761247634162,-0.0311238405640148,-0.11421848065567597,-0.002817892030330507,-0.005418267165172744,-0.012930649684210892,0,70,255.0,255.0,255.0
155,7.75,4.4929,-13.6247,-0.4546,-0.0018000320595517548,-0.03141379918535938,-0.1148537788484957,-0.00464434536120307,-0.0061800776886105635,-0.01248127802857757,0,70,255.0,255.0,255.0
156,7.800000000000001,4.49280495411578,-13.626278042438587,-0.4603582626627564,-0.0019865803000475206,-0.031700446002217206,-0.11547617011767644,-0.0028175842586274586,-0.005285794985702273,-0.012414372738651978,0,70,255.0,255.0,255.0
157,7.8500000000000005,4.492702864270914,-13.627869299364637,-0.46614756125735946,-0.0020817904854145038,-0.031942378683929615,-0.1160952161223609,-0.000990823156051879,-0.0043915122827939985,-0.01234746744872639,0,70,255.0,255.0,255.0
158,7.9,4.492598297368158,-13.629471535071394,-0.4719677285205842,-0.0020856626156527083,-0.0321395972304966,-0.11671091686254907,0.0008359379465237007,-0.0034972295798857238,-0.0122805621588008,0,70,255.0,255.0,255.0
159,7.95,4.492495820310268,-13.631082513852101,-0.47781859718920605,-0.001998196690762134,-0.03229210164191818,-0.11732327233824098,0.0026626990490992795,-0.002602946876977449,-0.012213656868875211,0,70,255.0,255.0,255.0
160,8.0,4.4924,-13.6327,-0.4837,-0.001819392710742781,-0.032399891918194354,-0.11793228254943658,0.004489460151674871,-0.0017086641740692299,-0.012146751578948622,0,70,255.0,255.0,255.0
161,8.05,4.492313958610036,-13.634322503476248,-0.489612096313952,-0.0016359344801450035,-0.03250770813410366,-0.11855754494876737,0.00284886907223612,-0.0026039844623030454,-0.012863744394282471,0,70,255.0,255.0,255.0
162,8.1,4.492235039392752,-13.63595151691365,-0.4955563519888895,-0.0015345058035191672,-0.03266029036442465,-0.11921865698886483,0.0012082779927974265,-0.0034993047505368297,-0.013580737209616296,0,70,255.0,255.0,255.0
163,8.15,4.492159140870452,-13.63758927861293,-0.5015345595068512,-0.0015151066808652643,-0.03285763860915735,-0.11991561866972898,-0.00043231308664132446,-0.004394625038770646,-0.014297730024950144,0,70,255.0,255.0,255.0
164,8.200000000000001,4.492082161565433,-13.639238026874807,-0.5075485113498753,-0.0015777371121833,-0.033099752868301725,-0.12064842999135986,-0.0020729041660800763,-0.005289945327004461,-0.015014722840283993,0,70,255.0,255.0,255.0
165,8.25,4.492,-13.6409,-0.5136,-0.0017223970974732682,-0.033386633141857795,-0.12141709095375737,-0.0037134952455187727,-0.006185265615238189,-0.015731715655617706,0,70,255.0,255.0,255.0
166,8.3,4.4919096114440755,-13.642576743656424,-0.519690152081436,-0.001885681779369502,-0.03367672146136807,-0.12218165008725315,-0.0028178920303304883,-0.005418267165172664,-0.014850649684212645,0,70,255.0,255.0,255.0
167,8.35,4.491812178158075,-13.644267032980762,-0.5258174307870823,-0.0020041863005063176,-0.03392845985837506,-0.12290215592217862,-0.0019222888151422355,-0.004651268715107165,-0.013969583712807616,0,70,255.0,255.0,255.0
168,8.4,4.491709939150037,-13.645968950476885,-0.531979633452011,-0.0020779106608837233,-0.03414184833287879,-0.1235786084585339,-0.001026685599953951,-0.0038842702650416397,-0.013088517741402555,0,70,255.0,255.0,255.0
169,8.450000000000001,4.491605133428,-13.647680578648675,-0.5381745574112932,-0.002106854860501714,-0.03431688688487923,-0.1242110076963189,-0.00013108238476566662,-0.003117271814976114,-0.012207451769997494,0,70,255.0,255.0,255.0
170,8.5,4.4915,-13.6494,-0.5444,-0.0020910188993602916,-0.034453575514376396,-0.12479935363553364,0.0007645208304225999,-0.0023502733649106156,-0.011326385798592464,0,70,255.0,255.0,255.0
171,8.55,4.491396395613662,-13.651125721898056,-0.5506544953603043,-0.0020533384023725585,-0.03457740602042275,-0.12538785470222033,0.0007426990490867068,-0.0026029468769434164,-0.01221365686887478,0,70,255.0,255.0,255.0
172,8.6,4.491294647974945,-13.652857951163304,-0.5569395248627805,-0.0020167489944516214,-0.034713870202070736,-0.12602071932242112,0.0007208772677508143,-0.002855620388976208,-0.013100927939157063,0,70,255.0,255.0,255.0
173,8.65,4.491194702529398,-13.654597319479523,-0.563257306685105,-0.001981250675597477,-0.03486296805932037,-0.12669794749613603,0.0006990554864149212,-0.003108293901009009,-0.01398819900943938,0,70,255.0,255.0,255.0
174,8.700000000000001,4.4910965047225675,-13.656344458530494,-0.5696100590049529,-0.001946843445810128,-0.035024699592171644,-0.12741953922336507,0.000677233705079028,-0.00336096741304181,-0.014875470079721695,0,70,255.0,255.0,255.0
175,8.75,4.491,-13.6581,-0.576,-0.0019135273050895742,-0.03519906480062455,-0.1281854945041082,0.000655411923743153,-0.0036136409250746016,-0.01576274115000409,0,70,255.0,255.0,255.0
176,8.8,4.4909048061012795,-13.659864368751354,-0.5824286664773473,-0.001900964611147682,-0.03537365445692749,-0.12895493110386544,-0.00015290416606747361,-0.00336994532704303,-0.015014722840283835,0,70,255.0,255.0,255.0
177,8.85,4.490809229942143,-13.661637162366027,-0.588894869761795,-0.00192881772169632,-0.035536059333328845,-0.1296869667881366,-0.0009612202558780714,-0.0031262497290114673,-0.014266704530563607,0,70,255.0,255.0,255.0
178,8.9,4.490711250732368,-13.663417771605022,-0.5953967398075695,-0.00199708663673549,-0.03568627942982864,-0.13038160155692177,-0.001769536345688698,-0.0028825541309798956,-0.01351868622084335,0,70,255.0,255.0,255.0
179,8.950000000000001,4.490608847681729,-13.665205587229345,-0.6019324065688959,-0.0021057713562651925,-0.03582431474642685,-0.13103883541022093,-0.002577852435499325,-0.0026388585329483244,-0.012770667911123097,0,70,255.0,255.0,255.0
180,9.0,4.4905,-13.667,-0.6085,-0.00225487188028542,-0.03595016528312347,-0.13165866834803405,-0.003386168525309912,-0.0023951629349167614,-0.012022649601402202,0,70,255.0,255.0,255.0
181,9.05,4.490383579981221,-13.668800803096524,-0.6150980387303071,-0.0023908031530371996,-0.036087976151870794,-0.13226442088231904,-0.002051082384761188,-0.0031172718149761404,-0.01220745176999736,0,70,255.0,255.0,255.0
182,9.1,4.49026203225648,-13.670609399372585,-0.6217265960900391,-0.0024599801187615406,-0.03626189246462108,-0.1328794135250338,-0.0007159962442125109,-0.0038393806950354943,-0.012392253938592512,0,70,255.0,255.0,255.0
183,9.15,4.490138694541129,-13.672427594100386,-0.6283861340846177,-0.0024624027774584477,-0.03647191422137434,-0.13350364627617828,0.0006190898963362133,-0.004561489575094873,-0.012577056107187668,0,70,255.0,255.0,255.0
184,9.200000000000001,4.490016904550518,-13.674257192552126,-0.6350771147194643,-0.0023980711291279183,-0.03671804142213057,-0.13413711913575257,0.001954176036884937,-0.005283598455154252,-0.012761858275782826,0,70,255.0,255.0,255.0
185,9.25,4.4899,-13.6761,-0.6418,-0.002266985173769957,-0.037000274066889764,-0.13477983210375655,0.003289262177433635,-0.006005707335213717,-0.012946660444376867,0,70,255.0,255.0,255.0
186,9.3,4.489790473973836,-13.677957218862547,-0.6485551786014248,-0.0021198227767072505,-0.03728244093559519,-0.13542738536685894,0.002597233705074559,-0.005280967413003258,-0.012955470079717557,0,70,255.0,255.0,255.0
187,9.35,4.489687441031935,-13.679827640143623,-0.6553427458780487,-0.002007261803262501,-0.03752837080819009,-0.1360753791117283,0.0019052052327155082,-0.004556227490792824,-0.012964279715058247,0,70,255.0,255.0,255.0
188,9.4,4.489589171103116,-13.68170945199343,-0.6621627238539604,-0.0019293022534357012,-0.03773806368467447,-0.13672381333836475,0.0012131767603564326,-0.003831487568582365,-0.012973089350398936,0,70,255.0,255.0,255.0
189,9.450000000000001,4.489493934116198,-13.683600842562155,-0.6690151345532482,-0.001885944127226856,-0.03791151956504833,-0.1373726880467682,0.0005211482879973568,-0.0031067476463719056,-0.012981898985739626,0,70,255.0,255.0,255.0
190,9.5,4.4894,-13.6855,-0.6759,-0.0018771874246359644,-0.03804873844931166,-0.13802200323693872,-0.0001708801843616891,-0.0023820077241615834,-0.012990708621080094,0,70,255.0,255.0,255.0
191,9.55,4.489305724123433,-13.687405521453291,-0.6828172468639943,-0.0018979057401321752,-0.038174260105740265,-0.1386660376502439,-0.0006578524354867328,-0.002638858532982461,-0.012770667911126974,0,70,255.0,255.0,255.0
192,9.600000000000001,4.489209803615778,-13.689317640052915,-0.6897664203977663,-0.0019429726681846388,-0.03831262430260991,-0.13929907002805145,-0.0011448246866117766,-0.0028957093418033393,-0.012550627201173852,0,70,255.0,255.0,255.0
193,9.65,4.489111021046405,-13.691236997925891,-0.6967469704995409,-0.002012388208793352,-0.0384638310399206,-0.1399211003703613,-0.0016317969377368032,-0.003152560150624208,-0.012330586491220739,0,70,255.0,255.0,255.0
194,9.700000000000001,4.489008158984689,-13.693164237199246,-0.703758347067544,-0.0021061523619583192,-0.038627880317672336,-0.14053212867717352,-0.0021187691888618467,-0.0034094109594450858,-0.012110545781267619,0,70,255.0,255.0,255.0
195,9.75,4.4889,-13.6951,-0.7108,-0.0022242651276795345,-0.038804772135865105,-0.14113215494848808,-0.0026057414399868785,-0.003666261768266066,-0.011890505071314728,0,70,255.0,255.0,255.0
196,9.8,4.488785829532431,-13.69704469532429,-0.7178718339425988,-0.002336554262757714,-0.03898051864145073,-0.14174846403216557,-0.0018858239631402334,-0.003363598455158774,-0.01276185827578439,0,70,255.0,255.0,255.0
197,9.850000000000001,4.4886669445049545,-13.698997799644717,-0.7249755725308871,-0.0024128475239935604,-0.039141131981380986,-0.14240834077606654,-0.0011659064862935883,-0.003060935142051482,-0.013633211480254051,0,70,255.0,255.0,255.0
198,9.9,4.488545144711263,-13.700958556302998,-0.7321133941478758,-0.0024531449113870734,-0.039286612155655876,-0.14311178518019096,-0.00044598900944696875,-0.002758271828944201,-0.014504564684723682,0,70,255.0,255.0,255.0
199,9.950000000000001,4.488422229945046,-13.702926208640857,-0.7392874771765766,-0.002457446424938256,-0.0394169591642754,-0.14385879724453887,0.00027392846739967636,-0.0024556085158369094,-0.015375917889193343,0,70,255.0,255.0,255.0
200,10.0,4.4883,-13.7049,-0.7465,-0.0024257520646471077,-0.03953217300723957,-0.14464937696911026,0.0009938459442462785,-0.002152945202729406,-0.016247271093662308,0,70,255.0,255.0,255.0
201,10.05,4.488179757746841,-13.70687969724955,-0.7537522173656112,-0.00238787720884059,-0.03966366532846625,-0.1454281062210952,0.0005211482880144171,-0.003106747646337762,-0.014901898985734999,0,70,255.0,255.0,255.0
202,10.100000000000001,4.488060818364402,-13.708867161368216,-0.7610416894786866,-0.002373637235845665,-0.039842847771873344,-0.14613956686768378,4.8450631782555754e-05,-0.004060550089946118,-0.01355652687780769,0,70,255.0,255.0,255.0
203,10.15,4.487942000108543,-13.710864776862108,-0.7683650529089561,-0.0023830321456623335,-0.040069720337460854,-0.14678375890887596,-0.0004242470244492887,-0.00501435253355444,-0.012211154769880429,0,70,255.0,255.0,255.0
204,10.200000000000001,4.487822121235123,-13.712874928237333,-0.7757189442261507,-0.002416061938290595,-0.040344283025228786,-0.14736068234467184,-0.0008969446806811501,-0.005968154977162797,-0.010865782661953122,0,70,255.0,255.0,255.0
205,10.25,4.4877,-13.7149,-0.7831,-0.0024727266137304477,-0.04066653583517713,-0.14787033717507125,-0.0013696423369129913,-0.006921957420770897,-0.009520410554025638,0,70,255.0,255.0,255.0
206,10.3,4.487575139480205,-13.716941315677511,-0.7905056965949576,-0.0025119369018749304,-0.040972820044682425,-0.14836311108345362,-0.0001987691888662886,-0.005329410959440583,-0.010190545781268243,0,70,255.0,255.0,255.0
207,10.350000000000001,4.4874497820374355,-13.718995954882418,-0.7979368695543683,-0.0024926035326170767,-0.0411994769311212,-0.1488893917531981,0.0009721039591804141,-0.0037368644981102695,-0.01086068100851085,0,70,255.0,255.0,255.0
208,10.4,4.487326854854565,-13.72105993624857,-0.8053951942163,-0.0024147265059568913,-0.04134650649449345,-0.1494491791843047,0.002142977107227075,-0.002144318036780013,-0.011530816235753432,0,70,255.0,255.0,255.0
209,10.450000000000001,4.487209285114464,-13.723129278409816,-0.8128823459188215,-0.002278305821894368,-0.0414139087347992,-0.15004247337677343,0.003313850255273778,-0.0005517715754496996,-0.012200951462996039,0,70,255.0,255.0,255.0
210,10.5,4.4871,-13.7252,-0.8204,-0.002083341480429517,-0.041401683652038425,-0.1506692743306043,0.0044847234033204356,0.0010407748858807797,-0.012871086690239286,0,70,255.0,255.0,255.0
211,10.55,4.487000484332343,-13.727269440040411,-0.8279497962545593,-0.0019163751836616253,-0.04138905449278829,-0.1513274494450902,0.0021939284673951447,-0.0005356085158753855,-0.013455917889195455,0,70,255.0,255.0,255.0
212,10.600000000000001,4.486906453485854,-13.729340219102113,-0.8355332323038417,-0.0018639486336899996,-0.04145524450362596,-0.1520148661195239,-9.686646853014624e-05,-0.0021119919176315507,-0.014040749088151621,0,70,255.0,255.0,255.0
213,10.65,4.486812180473193,-13.731416278143609,-0.8431517702258441,-0.0019260618305146358,-0.04160025368455145,-0.15273152435390536,-0.0023876614044553556,-0.0036883753193876602,-0.014625580287107769,0,70,255.0,255.0,255.0
214,10.700000000000001,4.486711938307023,-13.733501558123402,-0.8508068720985646,-0.002102714774135538,-0.04182408203556474,-0.15347742414823468,-0.0046784563403806465,-0.005264758721143826,-0.015210411486063936,0,70,255.0,255.0,255.0
215,10.75,4.4866,-13.7356,-0.8585,-0.002393907464552695,-0.04212672955666581,-0.15425256550251173,-0.006969251276305852,-0.006841142122899879,-0.01579524268501964,0,70,255.0,255.0,255.0
216,10.8,4.486472523190426,-13.737714524160843,-0.8662319183868057,-0.00268656236347715,-0.042446961984167385,-0.155015091136186,-0.004736944680672156,-0.005968154977162731,-0.014705782661950047,0,70,255.0,255.0,255.0
217,10.850000000000001,4.486333204019148,-13.73984396870913,-0.8740006012302663,-0.0028676019326199175,-0.04272354505438209,-0.15572314376870677,-0.002504638085038459,-0.005095167831425582,-0.013616322638880454,0,70,255.0,255.0,255.0
218,10.9,4.48618762325266,-13.741986151176993,-0.8818033248803239,-0.0029370261719809986,-0.042956478767309944,-0.15637672340007402,-0.0002723314894048411,-0.004222180685688464,-0.0125268626158109,0,70,255.0,255.0,255.0
219,10.950000000000001,4.486041361657447,-13.744138889096572,-0.889637365686921,-0.0028948350815603974,-0.04314576312295094,-0.15697583003028784,0.0019599751062288565,-0.0033491935399513153,-0.011437402592741307,0,70,255.0,255.0,255.0
220,11.0,4.4859,-13.7463,-0.8975,-0.0027410286613581175,-0.04329139812130507,-0.1575204636593482,0.00419228170186248,-0.0024762063942144197,-0.010347942569672863,0,70,255.0,255.0,255.0
221,11.05,4.485767822905957,-13.748467663316218,-0.9053889301982184,-0.002553375362430136,-0.043415097570545715,-0.15803618601016498,0.003313850255256686,-0.0024717715754111634,-0.010280951462999165,0,70,255.0,255.0,255.0
222,11.100000000000001,4.4856439304375515,-13.75064150606137,-0.9133035627750945,-0.002409643635832444,-0.04353857527884619,-0.15854855880564814,0.002435418808650892,-0.0024673367566079075,-0.010213960356325467,0,70,255.0,255.0,255.0
223,11.15,4.485526126516168,-13.75282151714842,-0.921243730252861,-0.0023098334815650455,-0.0436618312462065,-0.15905758204579754,0.0015569873620451284,-0.002462901937804651,-0.010146969249651772,0,70,255.0,255.0,255.0
224,11.200000000000001,4.48541221506319,-13.75500768549031,-0.9292092651537519,-0.0022539448996279333,-0.04378486547262666,-0.15956325573061328,0.0006785559154393341,-0.002458467119001395,-0.010079978142978074,0,70,255.0,255.0,255.0
225,11.25,4.4853,-13.7572,-0.9372,-0.0022419778900211115,-0.04390767795810665,-0.16006557986009537,-0.00019987553116643936,-0.0024540323001980835,-0.010012987036304155,0,70,255.0,255.0,255.0
226,11.3,4.485187385185748,-13.759398822574289,-0.945216360820321,-0.002267936186809159,-0.04405264773364116,-0.16060016482315456,-0.0008384563403554542,-0.00334475872118223,-0.011370411486063745,0,70,255.0,255.0,255.0
227,11.350000000000001,4.4850726742306435,-13.76160600704538,-0.9532611476693572,-0.0023258235240566577,-0.04424215383022488,-0.16120262100870178,-0.001477037149544469,-0.0042354851421663765,-0.012727835935823334,0,70,255.0,255.0,255.0
228,11.4,4.484954270682667,-13.763823780229329,-0.9613377541082326,-0.002415639901763604,-0.04447619624785779,-0.16187294841673688,-0.0021156179587334613,-0.005126211563150491,-0.014085260385582875,0,70,255.0,255.0,255.0
229,11.450000000000001,4.4848305780897935,-13.766054368942184,-0.9694495736980724,-0.0025373853199300044,-0.04475477498653993,-0.16261114704726004,-0.0027541987679224763,-0.006016937984134637,-0.015442684835342464,0,70,255.0,255.0,255.0
230,11.5,4.4847,-13.7683,-0.9776,-0.00269105977855585,-0.04507789004627125,-0.16341721690027114,-0.0033927795771114613,-0.006907664405118641,-0.01680010928510245,0,70,255.0,255.0,255.0
231,11.55,4.484561836351053,-13.770561846386626,-0.9857912265204982,-0.0028228798903281197,-0.045382311494897895,-0.16421915469721715,-0.0018800248937792662,-0.005269193539946891,-0.015277402592737422,0,70,255.0,255.0,255.0
232,11.600000000000001,4.484418972639871,-13.772836865757103,-0.9940206465474783,-0.0028790622679337793,-0.04560480940026595,-0.1649449571595449,-0.00036727021044707106,-0.003630722674775142,-0.013754695900372396,0,70,255.0,255.0,255.0
233,11.65,4.484275190753162,-13.775120961934265,-1.002284453314209,-0.0028596069113728294,-0.04574538376237541,-0.16559462428725438,0.00114548447288507,-0.0019922518096034507,-0.012231989208007422,0,70,255.0,255.0,255.0
234,11.700000000000001,4.484134272577635,-13.777410038740951,-1.0105788400539601,-0.00276451382064527,-0.0458040345812263,-0.16616815608034563,0.0026582391562172654,-0.00035378094443170183,-0.010709282515642394,0,70,255.0,255.0,255.0
235,11.75,4.484,-13.7797,-1.0189,-0.0025937829957511063,-0.045780761856818585,-0.16666555253881862,0.004170993839549431,0.0012846899207401008,-0.00918657582327742,0,70,255.0,255.0,255.0
236,11.8,4.483874869410044,-13.781988191879206,-1.0272451330976866,-0.002424544251876923,-0.04576210628677438,-0.1671472163879751,0.002598555915417803,-0.0005384671189717785,-0.010079978142982306,0,70,255.0,255.0,255.0
237,11.850000000000001,4.483756235209875,-13.784277729926211,-1.0356154661407309,-0.0023339274042093222,-0.04583460856871576,-0.16767355035311687,0.0010261179912861742,-0.002361624158683658,-0.010973380462687192,0,70,255.0,255.0,255.0
238,11.9,4.483640166304686,-13.786573172033611,-1.0440132326349312,-0.0023219324527483033,-0.045998268702642744,-0.16824455443424385,-0.0005463199328453981,-0.004184781198395473,-0.011866782782392045,0,70,255.0,255.0,255.0
239,11.950000000000001,4.483522731599664,-13.788879076094009,-1.052440666086088,-0.002388559397493865,-0.046253086688555316,-0.16886022863135605,-0.0021187578569770264,-0.006007938238107352,-0.012760185102096928,0,70,255.0,255.0,255.0
240,12.0,4.4834,-13.7912,-1.0609,-0.002533808238446002,-0.046599062526453475,-0.16952057294445352,-0.003691195781108568,-0.007831095277819222,-0.013653587421802671,0,70,255.0,255.0,255.0
241,12.05,4.4832690860087725,-13.793538986096546,-1.0693930410887555,-0.002694943102170927,-0.04694526335800318,-0.1701999797508822,-0.0027541987678883348,-0.006016937984168665,-0.013522684835343178,0,70,255.0,255.0,255.0
242,12.100000000000001,4.483131286520628,-13.795893014538054,-1.0779198888895998,-0.002809228115234839,-0.04720075632487035,-0.17087284142798784,-0.0018172017546681015,-0.004202780690518108,-0.013391782248883684,0,70,255.0,255.0,255.0
243,12.15,4.482988944028094,-13.79825754993129,-1.0864802161460654,-0.002876663277637738,-0.04736554142705499,-0.17153915797577055,-0.0008802047414479017,-0.0023886233968676155,-0.013260879662424195,0,70,255.0,255.0,255.0
244,12.200000000000001,4.482844401023707,-13.800628056883017,-1.095073695601688,-0.002897248589379628,-0.04743961866455711,-0.17219892939423026,5.679227177233159e-05,-0.0005744661032170582,-0.013129977075964703,0,70,255.0,255.0,255.0
245,12.25,4.4827,-13.803,-1.1037,-0.002870984050460506,-0.0474229880373767,-0.17285215568336704,0.0009937892849925418,0.001239691190433434,-0.012999074489505436,0,70,255.0,255.0,255.0
246,12.3,4.482557586554863,-13.805370263734606,-1.112358702547291,-0.0028276833394305753,-0.0474008402812258,-0.17349286460849575,0.000738239156204659,-0.0003537809443975974,-0.012629282515641988,0,70,255.0,255.0,255.0
247,12.350000000000001,4.482417018707617,-13.807741411921569,-1.1210489783008715,-0.0027971601348400392,-0.047458366131816455,-0.17411508393493125,0.0004826890274167762,-0.0019472530792286288,-0.01225949054177854,0,70,255.0,255.0,255.0
248,12.4,4.482277657582938,-13.810117428241231,-1.129769902780806,-0.0027794144366888973,-0.04759556558914867,-0.17471881366267358,0.0002271388986289024,-0.003540725214059604,-0.011889698567915104,0,70,255.0,255.0,255.0
249,12.450000000000001,4.482138864305507,-13.81250229637393,-1.1385205515071606,-0.0027744462449771495,-0.047812438653222426,-0.17530405379172276,-2.8411230158980304e-05,-0.005134197348890635,-0.011519906594051658,0,70,255.0,255.0,255.0
250,12.5,4.482,-13.8149,-1.1473,-0.0027822555597047955,-0.04810898532403772,-0.17587080432207872,-0.0002839613589468576,-0.00672766948372161,-0.011150114620187557,0,70,255.0,255.0,255.0
251,12.55,4.481860567771776,-13.817313558965038,-1.15610734872208,-0.00279432354010343,-0.04842737551708345,-0.17642056181513585,-0.00019875785699850648,-0.0060079382381073585,-0.010840185102097295,0,70,255.0,255.0,255.0
252,12.600000000000001,4.481720638648908,-13.819742137775668,-1.1649417979069152,-0.0028021313454046465,-0.048709779147848464,-0.17695482283228847,-0.00011355435505015535,-0.005288206992493107,-0.010530255584007032,0,70,255.0,255.0,255.0
253,12.65,4.4815804256401535,-13.822183937103784,-1.1738025727307104,-0.0028056789756084454,-0.04895619621633276,-0.17747358737353655,-2.8350853101807253e-05,-0.004568475746878881,-0.010220326065916783,0,70,255.0,255.0,255.0
254,12.700000000000001,4.481440141754265,-13.824637157621266,-1.1826888983696704,-0.002804966430714827,-0.04916662672253635,-0.17797685543888012,5.685264884654391e-05,-0.0038487445012646295,-0.00991039654782652,0,70,255.0,255.0,255.0
255,12.75,4.4813,-13.8271,-1.1916,-0.002799993710723791,-0.04934107066645922,-0.1784646270283192,0.0001420561507949128,-0.0031290132556504036,-0.009600467029735826,0,70,255.0,255.0,255.0
256,12.8,4.4811601423580365,-13.829570700405245,-1.2005359025643891,-0.002795022500159184,-0.04948165765043166,-0.17898488813096164,5.6792271789378636e-05,-0.0024944661032467196,-0.011209977075960853,0,70,255.0,255.0,255.0
257,12.850000000000001,4.481020426696753,-13.83204763697575,-1.2094998300714683,-0.0027943144835448535,-0.049590517276783895,-0.1795856247359153,-2.8471607216155523e-05,-0.0018599189508430355,-0.01281948712218588,0,70,255.0,255.0,255.0
258,12.9,4.480880639856449,-13.83452922334363,-1.2184958062963525,-0.002797869660880799,-0.04966764954551596,-0.18026683684318018,-0.00011373548622168667,-0.0012253717984393741,-0.01442899716841085,0,70,255.0,255.0,255.0
259,12.950000000000001,4.480740568677431,-13.837013873141006,-1.227527855014158,-0.002805688032167022,-0.04971305445662783,-0.18102852445275638,-0.0001989993652272208,-0.00059082464603569,-0.01603850721463588,0,70,255.0,255.0,255.0
260,13.0,4.4806,-13.8395,-1.2366,-0.002817769597403521,-0.04972673201011953,-0.18187068756464375,-0.000284263244232745,4.372250636791586e-05,-0.017648017260860183,0,70,255.0,255.0,255.0
261,13.05,4.48045886279608,-13.841986839413979,-1.2457146410203639,-0.002825586459263314,-0.04975799388118282,-0.18269588566101666,-2.841123015897613e-05,-0.0012941973488995585,-0.015359906594055029,0,70,255.0,255.0,255.0
262,13.100000000000001,4.480317654564085,-13.84447691432133,-1.2548676818072129,-0.002820610720419419,-0.04985615174500949,-0.18340667822404927,0.00022744078391479276,-0.002632117204167033,-0.013071795927249875,0,70,255.0,255.0,255.0
263,13.15,4.480177014934051,-13.846973569521692,-1.2640534020838796,-0.002802842380871835,-0.050021205601599526,-0.18400306525374163,0.0004832927979885525,-0.00397003705943446,-0.010783685260444802,0,70,255.0,255.0,255.0
264,13.200000000000001,4.48003758353601,-13.849480149814703,-1.273266081573698,-0.002772281440620563,-0.050253155450952935,-0.18448504675009372,0.0007391448120623214,-0.005307956914701934,-0.00849557459363965,0,70,255.0,255.0,255.0
265,13.25,4.4799,-13.852,-1.2825,-0.002728927899665604,-0.050552001293069714,-0.1848526227131056,0.000994996826136088,-0.006645876769969472,-0.0062074639268332454,0,70,255.0,255.0,255.0
266,13.3,4.479764406457641,-13.854535541938837,-1.291751133354156,-0.0027026316627910382,-0.05086236682485046,-0.18520756922497209,5.6852648846538486e-05,-0.005768744501260191,-0.007990396547826187,0,70,255.0,255.0,255.0
267,13.350000000000001,4.479628955046906,-13.857085505738928,-1.3010222426996816,-0.0027232426347809503,-0.051128875743195745,-0.18565166236788824,-0.0008812915284430111,-0.00489161223255091,-0.00977332916881913,0,70,255.0,255.0,255.0
268,13.4,4.47949130040735,-13.859647698569601,-1.310317785368129,-0.002790760815635337,-0.05135152804810555,-0.186184902141854,-0.0018194357057325274,-0.00401447996384166,-0.011556261789812007,0,70,255.0,255.0,255.0
269,13.450000000000001,4.479349097178528,-13.862219927600183,-1.319642218691051,-0.002905186205354204,-0.0515303237395799,-0.18680728854686943,-0.0027575798830220774,-0.0031373476951323787,-0.013339194410804948,0,70,255.0,255.0,255.0
270,13.5,4.4792,-13.8648,-1.329,-0.0030665188039375423,-0.05166526281761879,-0.18751882158293445,-0.0036957240603115935,-0.002260215426422907,-0.015122127031796717,0,70,255.0,255.0,255.0
271,13.55,4.47904271137335,-13.867386192830672,-1.338394425563013,-0.0032118868895759023,-0.05178453881942929,-0.18824983743909526,-0.0021189993652227204,-0.002510824645997071,-0.014118507214635598,0,70,255.0,255.0,255.0
272,13.600000000000001,4.478880125248288,-13.86997866272296,-1.347824147394062,-0.0032784187404598175,-0.051916345282218494,-0.18893067230439803,-0.0005422746701338474,-0.002761433865571235,-0.013114887397474477,0,70,255.0,255.0,255.0
273,13.65,4.47871618343655,-13.872578036199911,-1.3572866564436048,-0.00326611435658929,-0.05206068220598641,-0.18956132617884272,0.0010344500249549696,-0.00301204308514539,-0.012111267580313393,0,70,255.0,255.0,255.0
274,13.700000000000001,4.478554827749875,-13.875184939784576,-1.3667794436620988,-0.003174973737964318,-0.05221754959073304,-0.19014179906242937,0.0026111747200438422,-0.003262652304719554,-0.011107647763152274,0,70,255.0,255.0,255.0
275,13.75,4.4784,-13.8778,-1.3763,-0.003004996884584909,-0.052386947436458366,-0.19067209095515794,0.004187899415132652,-0.0035132615242935983,-0.010104027945990746,0,70,255.0,255.0,255.0
276,13.8,4.478254348048955,-13.880423686738474,-1.385846364393794,-0.0028338207789051447,-0.052559477897433364,-0.1911850810186486,0.0026591448120578194,-0.003387956914706423,-0.01041557459363474,0,70,255.0,255.0,255.0
277,13.850000000000001,4.4781153439599395,-13.883055843369236,-1.3954187677240715,-0.0027390824033791234,-0.05272574312792901,-0.19171364841452143,0.0011303902089829865,-0.0032626523051192476,-0.010727121241278734,0,70,255.0,255.0,255.0
278,13.9,4.477979165846448,-13.885696156630761,-1.4050179888574523,-0.0027207817580068437,-0.05288574312794529,-0.19225779314277644,-0.0003983643940917922,-0.0031373476955320768,-0.011038667888922717,0,70,255.0,255.0,255.0
279,13.950000000000001,4.47784199182197,-13.888344313261523,-1.4146448066605555,-0.0027789188427883053,-0.05303947789748222,-0.1928175152034137,-0.0019271189971666247,-0.0030120430859449016,-0.011350214536566712,0,70,255.0,255.0,255.0
280,14.0,4.4777,-13.891,-1.4243,-0.0029134936577235033,-0.05318694743653978,-0.19339281459643312,-0.0034558736002414,-0.002886738476357509,-0.011661761184210695,0,70,255.0,255.0,255.0
281,14.05,4.477550296430828,-13.893663060215431,-1.433984116861813,-0.0030688299948050915,-0.053337549590827885,-0.1939698384863086,-0.0027575798830220422,-0.0031373476951663515,-0.011419194410808894,0,70,255.0,255.0,255.0
282,14.100000000000001,4.47739369891195,-13.896333963800098,-1.443696781709653,-0.003189251646025712,-0.05350068220605642,-0.19453473403751403,-0.0020592861658026845,-0.0033879569139751947,-0.011176627637407092,0,70,255.0,255.0,255.0
283,14.15,4.477231953177657,-13.899013337277053,-1.4534373881265865,-0.0032747586113853608,-0.053676345282225396,-0.1950875012500493,-0.001360992448583352,-0.0036385661327840288,-0.0109340608640053,0,70,255.0,255.0,255.0
284,14.200000000000001,4.477066804962243,-13.901701807169335,-1.4632053296956802,-0.003325350890884045,-0.053864538819334826,-0.19562814012391455,-0.0006626987313639943,-0.0038891753515928715,-0.010691494090603498,0,70,255.0,255.0,255.0
285,14.25,4.4769,-13.9044,-1.473,-0.0033410284845217606,-0.054065262817384684,-0.1961566506591097,3.559498585533477e-05,-0.0041397845704015945,-0.010448927317201928,0,70,255.0,255.0,255.0
286,14.3,4.476733266227728,-13.907108072399806,-1.4828211681589547,-0.00332285924187417,-0.05425032373926186,-0.19669556503611854,0.0006911747200482859,-0.003262652304685386,-0.011107647763152083,0,70,255.0,255.0,255.0
287,14.350000000000001,4.476568260392257,-13.909824301430373,-1.492670105437317,-0.003271911012516931,-0.05439152804785323,-0.19726741543542492,0.001346754454241237,-0.002385520038969177,-0.011766368209102237,0,70,255.0,255.0,255.0
288,14.4,4.476406621442923,-13.912546494261038,-1.5025484586362021,-0.0031881837964500477,-0.05448887574315878,-0.19787220185702878,0.0020023341884341647,-0.0015083877732529997,-0.012425088655052367,0,70,255.0,255.0,255.0
289,14.450000000000001,4.476249988329058,-13.915272458061136,-1.5124578745567248,-0.003071677593673514,-0.054542366825178525,-0.19850992430093017,0.002657913922627116,-0.0006312555075367911,-0.013083809101002522,0,70,255.0,255.0,255.0
290,14.5,4.4761,-13.918,-1.5224,-0.0029223924041873383,-0.05455200129391246,-0.19918058276712905,0.0033134936568200643,0.0002458767581796084,-0.013742529546952431,0,70,255.0,255.0,255.0
291,14.55,4.475957438658255,-13.920727850185347,-1.5323760105023692,-0.0027917330376962235,-0.0545731554521067,-0.19985590136921694,0.0019128810028244468,-0.0010920430859492425,-0.013270214536561957,0,70,255.0,255.0,255.0
292,14.600000000000001,4.4758196595190185,-13.923458430478414,-1.54238519654108,-0.002731104303904891,-0.05466120560250738,-0.20050760422078526,0.0005122683488288293,-0.0024299629300780935,-0.012797899526171483,0,70,255.0,255.0,255.0
293,14.65,4.475683161050654,-13.926195085678803,-1.5524263773286056,-0.002740506202813339,-0.05481615174511451,-0.20113569132183406,-0.0008883443051667383,-0.0037678827742068976,-0.012325584515781026,0,70,255.0,255.0,255.0
294,14.700000000000001,4.475544441721526,-13.92894116058613,-1.5624983720774213,-0.002819938734421567,-0.055037993879928075,-0.20174016267236336,-0.0022889569591623563,-0.0051058026183357485,-0.011853269505390552,0,70,255.0,255.0,255.0
295,14.75,4.4754,-13.9317,-1.5726,-0.002969401898729571,-0.05532673200694808,-0.20232101827237314,-0.003689569613157917,-0.006443722462464219,-0.011380954495000317,0,70,255.0,255.0,255.0
296,14.8,4.475247379139247,-13.934474126858795,-1.5827299898315692,-0.003126208607342509,-0.0556330544523011,-0.20287282948701335,-0.0025826987313595194,-0.0058091753516564615,-0.010691494090607979,0,70,255.0,255.0,255.0
297,14.850000000000001,4.475088301531667,-13.937262776655972,-1.5928867083983647,-0.0032276717718655265,-0.05590764954211373,-0.20339016768143398,-0.0014758278495611223,-0.005174628240848704,-0.010002033686215642,0,70,255.0,255.0,255.0
298,14.9,4.474925534354462,-13.940064363023748,-1.6030684320493755,-0.0032737913922986227,-0.056150517276385974,-0.20387303285563493,-0.00036895696776276417,-0.004540081130040969,-0.009312573281823328,0,70,255.0,255.0,255.0
299,14.950000000000001,4.474761844784838,-13.94287729959435,-1.613273437133591,-0.0032645674686418006,-0.05636165765511783,-0.20432142500961628,0.0007379139140356334,-0.003905534019233212,-0.008623112877430991,0,70,255.0,255.0,255.0
300,15.0,4.4746,-13.9457,-1.6235,-0.0032000000008950615,-0.05654107067830928,-0.20473534414337805,0.001844784795833998,-0.0032709869084253107,-0.007933652473038455,0,70,255.0,255.0,255.0
301,15.05,4.474441844784753,-13.948530842379467,-1.6337472301713554,-0.0031354325329334214,-0.056686626738706516,-0.20516478068272906,0.0007379139226315705,-0.0025512555074640574,-0.009243809101002727,0,70,255.0,255.0,255.0
302,15.100000000000001,4.474285534354313,-13.951368062897705,-1.644017569865463,-0.0031262086086319032,-0.05679619622905569,-0.20565972505347835,-0.000368956950570857,-0.0018315241065028037,-0.010553965728967,0,70,255.0,255.0,255.0
303,15.15,4.474128301531494,-13.954209862226206,-1.6543142944738929,-0.003172328227990505,-0.0568697791493568,-0.20622017725562578,-0.0014758278237732452,-0.001111792705541576,-0.011864122356931225,0,70,255.0,255.0,255.0
304,15.200000000000001,4.473967379139118,-13.957054441036473,-1.6646406793882154,-0.003273791391009229,-0.05690737549960985,-0.20684613728917145,-0.002582698696975673,-0.0003920613045803223,-0.0131742789848955,0,70,255.0,255.0,255.0
305,15.25,4.4738,-13.9599,-1.675,-0.00343059809768807,-0.05690898527981483,-0.20753760515411532,-0.0036895695701780577,0.00032767009638112743,-0.014484435612859725,0,70,255.0,255.0,255.0
306,15.3,4.473624441721741,-13.962745703623334,-1.6853946894830107,-0.0035800612609215806,-0.05693243859286392,-0.2082440477820716,-0.0022889569591623016,-0.001265802618344503,-0.013773269505390607,0,70,255.0,255.0,255.0
307,15.350000000000001,4.473443161051083,-13.965594571753217,-1.6958238121397846,-0.003659493793604303,-0.057035565541649284,-0.2089149321046544,-0.0008883443481465451,-0.0028592753330701336,-0.01306210339792149,0,70,255.0,255.0,255.0
308,15.4,4.473259659519556,-13.968450588071427,-1.7062855900550529,-0.003668895695736238,-0.05721836612617093,-0.20955025812186373,0.0005122682628691611,-0.004452748047795707,-0.012350937290452398,0,70,255.0,255.0,255.0
309,15.450000000000001,4.473077438658686,-13.97131773625976,-1.716778245313548,-0.0036082669673173848,-0.057480840346428856,-0.21015002583369963,0.0019128808738849172,-0.0060462207625213375,-0.011639771182983278,0,70,255.0,255.0,255.0
310,15.5,4.4729,-13.9742,-1.7273,-0.0034776076083477495,-0.057822988202423056,-0.21071423524016206,0.0033134934849006134,-0.00763969347724669,-0.010928605075513298,0,70,255.0,255.0,255.0
311,15.55,4.472729988328283,-13.977099943127193,-1.7378492118966034,-0.0033283224233744543,-0.0581596188898358,-0.21125102818898556,0.0026579139140311256,-0.005825534019262687,-0.010543112877426214,0,70,255.0,255.0,255.0
312,15.600000000000001,4.472566621441354,-13.980014450089437,-1.7484247815754006,-0.003211816216944633,-0.05840554160434933,-0.2117685465279047,0.0020023343431616377,-0.004011374561278684,-0.01015762067933913,0,70,255.0,255.0,255.0
313,15.65,4.472408260390281,-13.98293898548808,-1.7590257453058955,-0.0031280889890582895,-0.058560756345963666,-0.21226679025691944,0.0013467547722921728,-0.0021972151032947458,-0.00977212848125206,0,70,255.0,255.0,255.0
314,15.700000000000001,4.472253266226138,-13.985869013924482,-1.769651139357594,-0.0030771407397154177,-0.0586252631146788,-0.2127457593760299,0.000691175201422685,-0.00038305564531074254,-0.009386636283164976,0,70,255.0,255.0,255.0
315,15.75,4.4721,-13.9888,-1.7803,-0.0030589714689160203,-0.05859906191049474,-0.21320545388523598,3.559563055320625e-05,0.0014311038126735287,-0.00900114408507724,0,70,255.0,255.0,255.0
316,15.8,4.471946804965123,-13.991728923867889,-1.7909716629305765,-0.003074649045576694,-0.05857308584779241,-0.21366383946198542,-0.0006626986969801382,-0.00039206130458018613,-0.00933427898489994,0,70,255.0,255.0,255.0
317,15.850000000000001,4.471791953183503,-13.994658827889044,-1.8016666615586152,-0.0031252413386140348,-0.05863826804095276,-0.214138881783726,-0.0013609930245134826,-0.002215226421833901,-0.00966741388472264,0,70,255.0,255.0,255.0
318,15.9,4.471633698919322,-13.99759426997625,-1.8123858287213654,-0.0032107483480280402,-0.058794608489975794,-0.2146305808504577,-0.0020592873520468022,-0.004038391539087551,-0.01000054878454533,0,70,255.0,255.0,255.0
319,15.950000000000001,4.4714702964367605,-14.000539808042305,-1.8231299972560775,-0.0033311700738187155,-0.05904210719486152,-0.21513893666218054,-0.0027575816795801468,-0.005861556656341266,-0.010333683684368029,0,70,255.0,255.0,255.0
320,16.0,4.4713,-14.0035,-1.8339,-0.003486506515986053,-0.05938076415560991,-0.2156639492188945,-0.00345587600711348,-0.007684721773595082,-0.010666818584191384,0,70,255.0,255.0,255.0
321,16.05,4.471121991811225,-14.006477961401243,-1.8446969363810914,-0.003621081394316972,-0.059724037719011976,-0.21622161396307388,-0.0019271191261232034,-0.006046220762487252,-0.011639771182983219,0,70,255.0,255.0,255.0
322,16.1,4.470939165824637,-14.009471038354393,-1.8555229721901403,-0.0036792184285983757,-0.059985386231858645,-0.21682792633719283,-0.00039836224513292674,-0.004407719751379421,-0.012612723781775054,0,70,255.0,255.0,255.0
323,16.150000000000002,4.470755343932433,-14.01247513460692,-1.866380539808643,-0.0036609176188302653,-0.06016480969414992,-0.2174828863412514,0.0011303946358573501,-0.002769218740271592,-0.013585676380566888,0,70,255.0,255.0,255.0
324,16.2,4.470574348026821,-14.015486153906297,-1.877272071618097,-0.0035661789650126485,-0.0602623081058858,-0.21818649397524953,0.002659151516847518,-0.0011307177291638784,-0.014558628979358654,0,70,255.0,255.0,255.0
325,16.25,4.4704,-14.0185,-1.8882,-0.0033950024671455135,-0.0602778814670663,-0.21893874923918727,0.004187908397837788,0.0005077832819439521,-0.015531581578150266,0,70,255.0,255.0,255.0
326,16.3,4.470234827789975,-14.021513630527137,-1.8991653915450595,-0.003225025377163685,-0.06027476327615047,-0.21965770468572002,0.002611175201435249,-0.0003830556453106275,-0.013226636283159777,0,70,255.0,255.0,255.0
327,16.35,4.470076183517953,-14.024528218693387,-1.9101638496808266,-0.003133884947001985,-0.060316187031597364,-0.22026141286750325,0.0010344420050327108,-0.001273894572565207,-0.010921690988169287,0,70,255.0,255.0,255.0
328,16.400000000000002,4.469920125350945,-14.02754599159607,-1.9211896120440641,-0.003121581176660413,-0.060402152733406995,-0.22074987378453698,-0.0005422911913698274,-0.0021647334998197865,-0.008616745693178798,0,70,255.0,255.0,255.0
329,16.45,4.469762711455957,-14.0305691763325,-1.9322369162715343,-0.0031881140661389608,-0.06053266038157933,-0.22112308743682113,-0.002119024387772254,-0.003055572427074303,-0.006311800398188471,0,70,255.0,255.0,255.0
330,16.5,4.4696,-14.0336,-1.9433,-0.0033334836154376396,-0.06070770997611441,-0.2213810538243558,-0.0036957575841747893,-0.003946411354328827,-0.004006855103198426,0,70,255.0,255.0,255.0
331,16.55,4.469429097028875,-14.036640316490207,-1.9543750974386724,-0.003494817097031088,-0.06090490917638213,-0.221643567294045,-0.002757581679563066,-0.003941556656379852,-0.006493683684369102,0,70,255.0,255.0,255.0
332,16.6,4.469251300103551,-14.039690486872058,-1.9654664290865558,-0.00360924178339395,-0.0611018656417524,-0.22203042219279273,-0.0018194057749513427,-0.003936701958430877,-0.008980512265539779,0,70,255.0,255.0,255.0
333,16.650000000000002,4.46906895466379,-14.0427504990088,-1.976580212015103,-0.003676757674526225,-0.06129857937222522,-0.22254161852059898,-0.0008812298703396193,-0.003931847260481902,-0.011467340846710455,0,70,255.0,255.0,255.0
334,16.7,4.468884406149351,-14.045820340763697,-1.9877226632957663,-0.003697364770427913,-0.061495050367800584,-0.22317715627746373,5.6946034272037024e-05,-0.003926992562532927,-0.013954169427880955,0,70,255.0,255.0,255.0
335,16.75,4.4687,-14.0489,-1.9989,-0.003671063071099018,-0.0616912786284785,-0.22393703546338706,0.0009951219388837744,-0.003922137864583564,-0.016440998009051633,0,70,255.0,255.0,255.0
336,16.8,4.468517584094527,-14.05198910351203,-2.0101166187002515,-0.0036277062347060494,-0.06186560001832122,-0.22471202613809743,0.0007391515168349598,-0.0030507177291251505,-0.01455862897936286,0,70,255.0,255.0,255.0
337,16.85,4.468337016067845,-14.055085833818385,-2.021369633972952,-0.0035971479194155213,-0.061996350401391016,-0.22539289836132337,0.00048318109478614514,-0.0021792975936667375,-0.012676259949674086,0,70,255.0,255.0,255.0
338,16.900000000000002,4.4681576559939,-14.058188012368724,-2.0326543398955264,-0.003579388125227434,-0.0620835297776879,-0.22597965213306487,0.0002272106727373305,-0.0013078774582083248,-0.010793890919985314,0,70,255.0,255.0,255.0
339,16.95,4.4679788639466365,-14.06129346061271,-2.0439660305454,-0.0035744268521417876,-0.06212713814721185,-0.22647228745332187,-2.8759749311465903e-05,-0.0004364573227499738,-0.008911521890296675,0,70,255.0,255.0,255.0
340,17.0,4.4678,-14.0644,-2.0553,-0.0035822641001585814,-0.062127175509962884,-0.22687080432209447,-0.00028473017136028747,0.00043496281270827275,-0.007029152860607235,0,70,255.0,255.0,255.0
341,17.05,4.467620566593021,-14.067506469461666,-2.066652827760321,-0.003594357964137434,-0.062144690750323,-0.2272523281535644,-0.00019902438779380944,-0.001135572427113041,-0.008231800398188289,0,70,255.0,255.0,255.0
342,17.1,4.467440635625073,-14.070615777854398,-2.0780262350216376,-0.003602166538937963,-0.06224073275267419,-0.22769398436191332,-0.00011331860422733145,-0.0027061076669343547,-0.009434447935769343,0,70,255.0,255.0,255.0
343,17.150000000000002,4.467260421360614,-14.0737318515163,-2.089423228402794,-0.0036056898245601676,-0.06241530151701644,-0.22819577294714133,-2.7612820660853448e-05,-0.004276642906755668,-0.010637095473350396,0,70,255.0,255.0,255.0
344,17.2,4.467080138064103,-14.076858616785465,-2.100846814522633,-0.0036049278210040486,-0.06266839704334974,-0.2287576939092483,5.809296290561845e-05,-0.00584717814657687,-0.011839743010931363,0,70,255.0,255.0,255.0
345,17.25,4.4669,-14.08,-2.1123,-0.0035998805282696053,-0.06300001933167412,-0.2293797472482344,0.00014379874647209648,-0.007417713386398184,-0.01304239054851175,0,70,255.0,255.0,255.0
346,17.3,4.46672014953339,-14.083158618641306,-2.123784870258464,-0.003594861908750575,-0.06333163698039729,-0.23000666124764424,5.694603428910929e-05,-0.0058469925625282086,-0.012034169427881188,0,70,255.0,255.0,255.0
347,17.35,4.466540441431865,-14.08633185476402,-2.1352998259404976,-0.0035941859248406942,-0.06358471858792696,-0.23058316419102254,-2.9906677893877894e-05,-0.0042762717386582326,-0.011025948307250627,0,70,255.0,255.0,255.0
348,17.400000000000002,4.466360658563645,-14.089515781566078,-2.1468423464932993,-0.003597852576539963,-0.06375926415426313,-0.23110925607836932,-0.0001167593900768651,-0.0027055509147882566,-0.010017727186620064,0,70,255.0,255.0,255.0
349,17.45,4.46618058379695,-14.092706472245426,-2.1584099113640667,-0.00360586186384838,-0.06385527367940577,-0.2315849369096845,-0.00020361210225984614,-0.0011348300909183933,-0.009009506065989572,0,70,255.0,255.0,255.0
350,17.5,4.466,-14.0959,-2.17,-0.003618213786765947,-0.06387274716335495,-0.23201020668496825,-0.0002904648144428021,0.0004358907329518047,-0.008001284945358567,0,70,255.0,255.0,255.0
351,17.55,4.465818835273422,-14.099093455973108,-2.1816108912058243,-0.003626194400859804,-0.06387276132809905,-0.23243302685585962,-2.8759749311458205e-05,-0.0004364573227158121,-0.008911521890296216,0,70,255.0,255.0,255.0
352,17.6,4.465637598647468,-14.102288003089523,-2.1932440612163733,-0.003621089761697093,-0.06391639289562652,-0.23290135887399788,0.00023294531581988568,-0.0013088053783834289,-0.009821758835233866,0,70,255.0,255.0,255.0
353,17.650000000000002,4.465456944384806,-14.105485822219384,-2.2049017856240116,-0.0036028998692778148,-0.0640036418659374,-0.23341520273938302,0.0004946503809512296,-0.002181153434051046,-0.010731995780171515,0,70,255.0,255.0,255.0
354,17.7,4.465277526748095,-14.10868909423283,-2.2165863400210988,-0.003571624723601972,-0.06413450823903163,-0.233974558452015,0.0007563554460825548,-0.0030535014897186004,-0.0116422327251091,0,70,255.0,255.0,255.0
355,17.75,4.4651,-14.1119,-2.2283,-0.0035272643246695595,-0.06430899201490924,-0.23457942601189394,0.001018060511213937,-0.0039258495453863285,-0.012552469670046529,0,70,255.0,255.0,255.0
356,17.8,4.464924509372926,-14.11512035746626,-2.2400443649182407,-0.0035003604878165707,-0.06450531770720844,-0.2351892313289184,5.809296290561303e-05,-0.003927178146581523,-0.011839743010930838,0,70,255.0,255.0,255.0
357,17.85,4.4647491639782615,-14.11835053287789,-2.2518183291940095,-0.003521455028378998,-0.0647017098295674,-0.23576340031298704,-0.0009018745854027109,-0.003928506747776716,-0.011127016351815146,0,70,255.0,255.0,255.0
358,17.900000000000002,4.464571563897132,-14.121590529556387,-2.263620111010657,-0.003590547946356843,-0.0648981683819861,-0.2363019329640999,-0.0018618421337110351,-0.003929835348971911,-0.010414289692699455,0,70,255.0,255.0,255.0
359,17.95,4.464389309210668,-14.124840350823254,-2.2754479285515368,-0.003707639241750094,-0.06509469336446458,-0.23680482928225696,-0.0028218096820192906,-0.003931163950167104,-0.009701563033583814,0,70,255.0,255.0,255.0
360,18.0,4.4642,-14.1281,-2.2873,-0.0038727289145587688,-0.06529128477700283,-0.23727208926745824,-0.0037817772303275973,-0.00393249255136241,-0.008988836374466569,0,70,255.0,255.0,255.0
361,18.05,4.464002327234871,-14.131369114161847,-2.2991748491212127,-0.004020363647873343,-0.0654659678430606,-0.23772204782846965,-0.0021236121022553374,-0.003054830090947856,-0.009009506065988937,0,70,255.0,255.0,255.0
362,18.1,4.463799345439486,-14.134645865398921,-2.3110722220075903,-0.004085090124784306,-0.06559676778609762,-0.23817303987405714,-0.0004654469741830771,-0.0021771676305333025,-0.009030175757511305,0,70,255.0,255.0,255.0
363,18.150000000000002,4.463595200026666,-14.137928059555072,-2.322992170333362,-0.004066908345291653,-0.06568368460611393,-0.23862506540422077,0.0011927181538891832,-0.0012995051701187492,-0.009050845449033675,0,70,255.0,255.0,255.0
364,18.2,4.4633940364092295,-14.141213502474148,-2.3349347457727547,-0.003965818309395396,-0.06572671830310949,-0.2390781244189605,0.002850883281961325,-0.000421842709704258,-0.009071515140556041,0,70,255.0,255.0,255.0
365,18.25,4.4632,-14.1445,-2.3469,-0.00378182001709552,-0.06572586887708434,-0.23953221691827636,0.004509048410033582,0.00045581975071073977,-0.009092184832077077,0,70,255.0,255.0,255.0
366,18.3,4.463015781687589,-14.147786385886352,-2.35888823859691,-0.003602184920692726,-0.0657428109205588,-0.2400025773572057,0.002676355446078068,-0.0011335014896887822,-0.009722232725096367,0,70,255.0,255.0,255.0
367,18.35,4.462838254263794,-14.151075605526424,-2.370900782775632,-0.0035141844724877096,-0.06583921902605323,-0.240504440190786,0.0008436624821225548,-0.0027228227300883042,-0.010352280618115658,0,70,255.0,255.0,255.0
368,18.400000000000002,4.462662835996203,-14.154371632223322,-2.3829392076558995,-0.003517818672480469,-0.06601509319356762,-0.2410378054190173,-0.0009890304818329582,-0.0043121439704878264,-0.010982328511134946,0,70,255.0,255.0,255.0
369,18.45,4.462484945152409,-14.157678439280147,-2.395005088357444,-0.0036130875206709964,-0.06627043342310199,-0.24160267304189947,-0.002821723445788342,-0.0059014652108872355,-0.011612376404154192,0,70,255.0,255.0,255.0
370,18.5,4.4623,-14.161,-2.4071,-0.0037999910170593044,-0.06660523971465633,-0.24219904305943266,-0.0046544164097438445,-0.007490786451286424,-0.012242424297172372,0,70,255.0,255.0,255.0
371,18.55,4.4621049460147715,-14.164338942292755,-2.41922499649115,-0.0039868966693533845,-0.06693878847469256,-0.24279564274270185,-0.002821809682019262,-0.00585116395016274,-0.011621563033595574,0,70,255.0,255.0,255.0
372,18.6,4.461902837505337,-14.167692512495384,-2.4313790468898837,-0.0040821719852612345,-0.06719035610967262,-0.2433611993627922,-0.00098920295429468,-0.004211541449039055,-0.011000701770018778,0,70,255.0,255.0,255.0
373,18.650000000000002,4.4616982559885185,-14.171056611551636,-2.4435605990430433,-0.004085816964782854,-0.06735994261959648,-0.24389571291970374,0.0008434037734299021,-0.0025719189479153715,-0.01037984050644198,0,70,255.0,255.0,255.0
374,18.7,4.461495782981133,-14.17442714040526,-2.4557681007974677,-0.003997831607918253,-0.06744754800446415,-0.24439918341343642,0.0026760105011543536,-0.0009322964467918041,-0.009758979242865227,0,70,255.0,255.0,255.0
375,18.75,4.4613,-14.1778,-2.468,-0.003818215914667418,-0.06745317226427566,-0.24487161084399026,0.00450861722887895,0.0007073260543317694,-0.009138117979287985,0,70,255.0,255.0,255.0
376,18.8,4.461114034253324,-14.18117224494263,-2.4802549754384913,-0.0036342284018964083,-0.06744603518066083,-0.24532685167198656,0.0028508832819613295,-0.0004218427097382343,-0.009071515140564078,0,70,255.0,255.0,255.0
377,18.85,4.460935195714854,-14.184545544492034,-2.4925326296648334,-0.003533127586471281,-0.06749535653524949,-0.2457787623580467,0.0011931493350437086,-0.001551011473808238,-0.009004912301840171,0,70,255.0,255.0,255.0
378,18.900000000000002,4.460759340049721,-14.187922721570125,-2.5048327961719306,-0.003514913468392036,-0.06760113632804166,-0.24622734290217058,-0.0004645846118739123,-0.0026801802378782417,-0.008938309463116264,0,70,255.0,255.0,255.0
379,18.95,4.4605823229230595,-14.19130659909881,-2.517155308452684,-0.0035795860476586653,-0.06776337455903729,-0.24667259330435828,-0.0021223185587914157,-0.003809349001948165,-0.008871706624392363,0,70,255.0,255.0,255.0
380,19.0,4.4604,-14.1947,-2.5295,-0.003727145324271179,-0.06798207122823645,-0.2471145135646098,-0.003780052505709019,-0.004938517766017836,-0.008805103785668456,0,70,255.0,255.0,255.0
381,19.05,4.4602093169719295,-14.198104877936721,-2.541867101754887,-0.003892189723058616,-0.06820507080265918,-0.24757695056935505,-0.0028217234457883454,-0.00398146521089143,-0.009692376404141147,0,70,255.0,255.0,255.0
382,19.1,4.4600115796352435,-14.20151970953647,-2.5542584344507846,-0.004009317668850018,-0.0683802177493256,-0.24808375120502393,-0.0018633943858676724,-0.0030244126557650245,-0.010579649022613838,0,70,255.0,255.0,255.0
383,19.150000000000002,4.459809183812594,-14.204942102167857,-2.566676216269239,-0.0040785291616453855,-0.06850751206823569,-0.24863491547161645,-0.0009050653259469995,-0.0020673601006386193,-0.011466921641086529,0,70,255.0,255.0,255.0
384,19.200000000000003,4.459604525326629,-14.208369663199496,-2.5791226653917954,-0.00409982420144472,-0.06858695375938947,-0.2492304433691326,5.326373397367395e-05,-0.0011103075455122136,-0.01235419425955922,0,70,255.0,255.0,255.0
385,19.25,4.4594,-14.2118,-2.5916,-0.004073202788248021,-0.06861854282278691,-0.24987033489757238,0.0010115927938942962,-0.00015325499038565393,-0.013241466878032071,0,70,255.0,255.0,255.0
386,19.3,4.459197497858958,-14.215231443310483,-2.604109417541962,-0.004029012705871691,-0.0686456816087155,-0.2504933460505947,0.000756010501158858,-0.0009322964467577743,-0.011678979242860498,0,70,255.0,255.0,255.0
387,19.35,4.458996885744169,-14.218665217362085,-2.6166480325320305,-0.003997601738132134,-0.0687117724674627,-0.25103823282185844,0.0005004282084234198,-0.0017113379031298947,-0.010116491607688927,0,70,255.0,255.0,255.0
388,19.400000000000002,4.458797524699901,-14.222103269758444,-2.629211938751119,-0.003978969885029349,-0.06881681539902848,-0.2515049952113636,0.00024484591568798165,-0.002490379359502015,-0.008554003972517354,0,70,255.0,255.0,255.0
389,19.450000000000003,4.4585987757704215,-14.2255475481032,-2.6417972299801376,-0.003973117146563336,-0.0689608104034129,-0.2518936332191102,-1.073637704745653e-05,-0.0032694208158741355,-0.006991516337345782,0,70,255.0,255.0,255.0
390,19.5,4.4584,-14.229,-2.6544,-0.003980043522734093,-0.06914375748061588,-0.2522041468450982,-0.0002663186697828557,-0.004048462272245867,-0.005429028702174321,0,70,255.0,255.0,255.0
391,19.55,4.458200691592239,-14.23246214882134,-2.6670176280772666,-0.003991759453448562,-0.06934020276247073,-0.25251366522826246,-0.0002023185587959072,-0.0038093490019479558,-0.006951706624396813,0,70,255.0,255.0,255.0
392,19.6,4.4580008773880815,-14.235933821015188,-2.679652635421095,-0.004000275378613684,-0.06952469238081067,-0.2528993175075379,-0.0001383184478089587,-0.003570235731650044,-0.008474384546619305,0,70,255.0,255.0,255.0
393,19.650000000000002,4.457800717387804,-14.239414418798363,-2.69230882872629,-0.004005591298229458,-0.06969722633563574,-0.2533611036829244,-7.431833682201023e-05,-0.0033311224613521324,-0.009997062468841798,0,70,255.0,255.0,255.0
394,19.700000000000003,4.457600371591684,-14.242903344387694,-2.704990014687656,-0.004007707212295885,-0.06985780462694591,-0.2538990237544221,-1.0318225835061743e-05,-0.0030920091910542212,-0.011519740391064289,0,70,255.0,255.0,255.0
395,19.75,4.4574,-14.2464,-2.7177,-0.004006623120812965,-0.07000642725474115,-0.25451307772203074,5.368188515189609e-05,-0.0028528959207561044,-0.013042418313285342,0,70,255.0,255.0,255.0
396,19.8,4.457199735772086,-14.249903961404147,-2.730441670148971,-0.004003949480334826,-0.0701535073413986,-0.2551479930363521,5.3263733973629705e-05,-0.003030307545541791,-0.012354194259567642,0,70,255.0,255.0,255.0
397,19.85,4.4569996047035065,-14.25341549857716,-2.7432142257835905,-0.004001296747415601,-0.07030945800929535,-0.25574849714798753,5.284558279536332e-05,-0.0032077191703274773,-0.011665970205849942,0,70,255.0,255.0,255.0
398,19.900000000000002,4.456799605748885,-14.256935055048096,-2.756015946343725,-0.00399866492205529,-0.07047427925843136,-0.25631459005693713,5.242743161709693e-05,-0.0033851307951131638,-0.010977746152132244,0,70,255.0,255.0,255.0
399,19.950000000000003,4.456599737862843,-14.260463074346024,-2.76884511126924,-0.003996054004253892,-0.07064797108880666,-0.25684627176320074,5.200928043883055e-05,-0.0035625424198988498,-0.010289522098414544,0,70,255.0,255.0,255.0
400,20.0,4.4564,-14.264,-2.7817,-0.003993463994011407,-0.07083053350042122,-0.2573435422667785,5.1591129260564195e-05,-0.0037399540446841906,-0.009601298044696005,0,70,255.0,255.0,255.0
401,20.05,4.456200365319417,-14.267546005562064,-2.79457889132685,-0.0039924426252060784,-0.07100576787193517,-0.25780636262632944,-1.0736377047433125e-05,-0.0032694208158738623,-0.008911516337341299,0,70,255.0,255.0,255.0
402,20.1,4.456000703797891,-14.271100184676168,-2.8074800614445437,-0.00399453763171615,-0.0711574755820086,-0.2582346939005127,-7.306388335543044e-05,-0.0027988875870635344,-0.00822173462998659,0,70,255.0,255.0,255.0
403,20.150000000000002,4.455800859616657,-14.274661361009242,-2.820401785898812,-0.003999749013541621,-0.07128565663064154,-0.2586285360893281,-0.00013539138966342778,-0.002328354358253206,-0.007531952922631884,0,70,255.0,255.0,255.0
404,20.200000000000003,4.455600676956949,-14.27822835822821,-2.8333423402353874,-0.004008076770682494,-0.07139031101783394,-0.2589878891927758,-0.00019771889597142508,-0.001857821129442878,-0.006842171215277176,0,70,255.0,255.0,255.0
405,20.25,4.4554,-14.2818,-2.8463,-0.004019520903138765,-0.07147143874358583,-0.2593127532108559,-0.0002600464022794388,-0.0013872879006326944,-0.00615238950792385,0,70,255.0,255.0,255.0
406,20.3,4.455198802950247,-14.285375216347594,-2.8592739645436294,-0.004026280018842054,-0.07153542117087726,-0.25965855645833064,-1.0318225852113479e-05,-0.0011720091910245559,-0.007679740391064293,0,70,255.0,255.0,255.0
407,20.35,4.454997580104929,-14.288953362718164,-2.8722671284382355,-0.004020552725723976,-0.07158863966268829,-0.26008072724996234,0.00023940995057521186,-0.0009567304814164174,-0.009207091274204736,0,70,255.0,255.0,255.0
408,20.400000000000002,4.454796955784489,-14.292533900914936,-2.885283310061028,-0.004002339023784532,-0.0716310942190189,-0.2605792655857511,0.0004891381270025372,-0.0007414517718082788,-0.010734442157345179,0,70,255.0,255.0,255.0
409,20.450000000000003,4.454597554309365,-14.296116292741141,-2.8983263277892135,-0.003971638913023721,-0.07166278483986911,-0.2611541714656969,0.0007388663034298625,-0.0005261730622001403,-0.012261793040485622,0,70,255.0,255.0,255.0
410,20.5,4.4544,-14.2997,-2.9114,-0.003928452393441547,-0.07168371152523893,-0.2618054448897996,0.000988594479857191,-0.00031089435259212816,-0.013789143923626845,0,70,255.0,255.0,255.0
411,20.55,4.454204422879594,-14.303285129047564,-2.9245068504986342,-0.003902437299433294,-0.0717325474445513,-0.26245541154035057,5.200928047293166e-05,-0.0016425424199030892,-0.012209522098409819,0,70,255.0,255.0,255.0
412,20.6,4.454008975782391,-14.306874364451179,-2.9376442248025145,-0.003923251465394254,-0.07184796576722925,-0.2630263970996406,-0.0008845759189113277,-0.00297419048721405,-0.010629900273192792,0,70,255.0,255.0,255.0
413,20.650000000000002,4.453811317245389,-14.310471035331009,-2.9508081738570775,-0.0039908948913244275,-0.07202996649327272,-0.26351840156766987,-0.0018211611182955873,-0.004305838554525011,-0.009050278447975768,0,70,255.0,255.0,255.0
414,20.700000000000003,4.453609105805592,-14.314078470807226,-2.963994748607761,-0.004105367577223815,-0.07227854962268175,-0.2639314249444382,-0.0027577463176798466,-0.005637486621835972,-0.007470656622758741,0,70,255.0,255.0,255.0
415,20.75,4.4534,-14.3177,-2.9772,-0.0042666695230924034,-0.0725937151554563,-0.26426546722994576,-0.0036943315170640256,-0.006969134689146839,-0.0058910347975413835,0,70,255.0,255.0,255.0
416,20.8,4.453182705531375,-14.321337867462152,-2.9904210334618346,-0.004411970783418606,-0.07291038905092169,-0.2645837973802662,-0.0021177188959839886,-0.005697821129468132,-0.006842171215277406,0,70,255.0,255.0,255.0
417,20.85,4.452960116765508,-14.324989979477126,-3.0036591723517088,-0.004478441412690805,-0.07316349726840313,-0.26494968435147354,-0.0005411062749039516,-0.004426507569789425,-0.007793307633013429,0,70,255.0,255.0,255.0
418,20.900000000000002,4.452736175233956,-14.328653157761025,-3.0169167945106645,-0.0044660814109090015,-0.07335303980790063,-0.2653631281435676,0.0010355063461760855,-0.003155194010110719,-0.008744444050749452,0,70,255.0,255.0,255.0
419,20.950000000000003,4.452514822468269,-14.33232422402995,-3.030196277779747,-0.004374890778073195,-0.0734790166694142,-0.26582412875654843,0.0026121189672561225,-0.001883880450432013,-0.009695580468485475,0,70,255.0,255.0,255.0
420,21.0,4.4523,-14.336,-3.0435,-0.004204869514183401,-0.07354142785294382,-0.26633268619041606,0.004188731588336075,-0.0006125668907528414,-0.010646716886220098,0,70,255.0,255.0,255.0
421,21.05,4.452094354994908,-14.339677801103832,-3.056829815654026,-0.004033679566889789,-0.07356989635176679,-0.2668573989385838,0.0026588663034083195,-0.0005261730621660009,-0.010341793040490184,0,70,255.0,255.0,255.0
422,21.1,4.451895357155574,-14.34335691764032,-3.070185485790654,-0.003938982883842565,-0.07359404515916042,-0.2673668654944651,0.001129001018480564,-0.00043977923357916036,-0.010036869194760269,0,70,255.0,255.0,255.0
423,21.150000000000002,4.451699181818785,-14.347037133624891,-3.083566248100268,-0.00392077946504173,-0.07361387427512471,-0.26786108585805984,-0.0004008642664471915,-0.00035338540499231985,-0.009731945349030355,0,70,255.0,255.0,255.0
424,21.200000000000003,4.451502004321332,-14.350718233072975,-3.0969713402732557,-0.003979069310487284,-0.07362938369965966,-0.26834006002936817,-0.0019307295513749474,-0.0002669915764054793,-0.009427021503300442,0,70,255.0,255.0,255.0
425,21.25,4.4513,-14.3544,-3.1104,-0.004113852420179215,-0.07364057343276527,-0.2688037880083899,-0.003460594836302587,-0.00018059774781897797,-0.009122097657569661,0,70,255.0,255.0,255.0
426,21.3,4.451090274488995,-14.35808292812252,-3.12385170392206,-0.00426931094902835,-0.07369002554200686,-0.2692666068653982,-0.0027577463176627318,-0.0017974866218450466,-0.009390656622762887,0,70,255.0,255.0,255.0
427,21.35,4.450873654612196,-14.361770349961596,-3.137326884485678,-0.004389627051945491,-0.07382032209494976,-0.26974285367066614,-0.0020548977990228765,-0.0034143754958711153,-0.009659215587956113,0,70,255.0,255.0,255.0
428,21.400000000000002,4.450651897490899,-14.36546630773941,-3.150826213088265,-0.00447480072893064,-0.07403146309159399,-0.2702325284241938,-0.0013520492803830212,-0.005031264369897184,-0.009927774553149337,0,70,255.0,255.0,255.0
429,21.450000000000003,4.450426760246402,-14.36917484367815,-3.1643503611272354,-0.0045248319799837955,-0.0743234485319395,-0.27073563112598115,-0.0006492007617431659,-0.006648153243923253,-0.010196333518342563,0,70,255.0,255.0,255.0
430,21.5,4.4502,-14.3729,-3.1779,-0.004539720805104958,-0.07469627841598628,-0.27125216177602807,5.364775689663953e-05,-0.008265042117949095,-0.010464892483536659,0,70,255.0,255.0,255.0
431,21.55,4.449973347049112,-14.376644086406085,-3.1914753686577333,-0.004521076637001029,-0.07504600148019643,-0.2717561735998284,0.0006921189672605265,-0.005723880450456872,-0.009695580468476617,0,70,255.0,255.0,255.0
432,21.6,4.449748424395641,-14.380402482513297,-3.2050749762666375,-0.004470508908378904,-0.07526866646103197,-0.27222171982287574,0.0013305901776244134,-0.00318271878296465,-0.008926268453416574,0,70,255.0,255.0,255.0
433,21.650000000000002,4.449526828217616,-14.384168835417466,-3.218696899546675,-0.004388017619238585,-0.0753642733584929,-0.2726488004451701,0.0019690613879883006,-0.0006415571154724268,-0.008156956438356533,0,70,255.0,255.0,255.0
434,21.700000000000003,4.44931015469306,-14.387936792214422,-3.232339215217809,-0.004273602769580072,-0.07533282217257922,-0.2730374154667114,0.0026075325983521873,0.0018996045520197954,-0.007387644423296492,0,70,255.0,255.0,255.0
435,21.75,4.4491,-14.3917,-3.246,-0.004127264359403374,-0.07517431290329094,-0.2733875648874997,0.0032460038087160498,0.004440766219512282,-0.006618332408238281,0,70,255.0,255.0,255.0
436,21.8,4.448897137314557,-14.395454326253137,-3.2596780214470082,-0.00399838250296964,-0.07502196853721338,-0.27374069873528806,0.0019092704486332356,0.001653008423589957,-0.007507021503296597,0,70,255.0,255.0,255.0
437,21.85,4.448699047805236,-14.399204519985219,-3.273374810447775,-0.0039363373145400475,-0.07500901206093194,-0.2741382670378294,0.0005725370885504215,-0.001134749372332368,-0.008395710598354913,0,70,255.0,255.0,255.0
438,21.900000000000002,4.448502389638636,-14.402957550590727,-3.287092588725038,-0.0039411287941145965,-0.07513544347444662,-0.2745802697951236,-0.0007641962715323929,-0.003922507168254694,-0.00928439969341323,0,70,255.0,255.0,255.0
439,21.950000000000003,4.448303820981359,-14.406720387464159,-3.300833578001534,-0.004012756941693288,-0.07540126277775741,-0.27506670700717073,-0.002100929631615207,-0.006710264964177018,-0.010173088788471547,0,70,255.0,255.0,255.0
440,22.0,4.4481,-14.4105,-3.3146,-0.004151221757276108,-0.07580646997086428,-0.2755975786739707,-0.0034376629916979262,-0.009498022760098812,-0.011061777883528912,0,70,255.0,255.0,255.0
441,22.05,4.447888503692659,-14.414301008581363,-3.3283933455542343,-0.004301393351112453,-0.07621012437096397,-0.2761290314590177,-0.002569200761755776,-0.006648153243888925,-0.010196333518350708,0,70,255.0,255.0,255.0
442,22.1,4.447670584383413,-14.418118637545833,-3.3422121819422643,-0.004408141833451689,-0.07647128529525318,-0.2766172120258058,-0.0017007385318136257,-0.003798283727679038,-0.009330889153172503,0,70,255.0,255.0,255.0
443,22.150000000000002,4.447448413227839,-14.421945762219625,-3.3560543455531775,-0.004471467204293818,-0.07658995274373188,-0.277062120374335,-0.0008322763018714751,-0.0009484142114691511,-0.008465444787994299,0,70,255.0,255.0,255.0
444,22.200000000000003,4.447224161381509,-14.425775257928944,-3.3699176727760607,-0.0044913694636388385,-0.0765661267164001,-0.27746375650460525,3.6185928070674774e-05,0.001901455304740736,-0.0076000004228160955,0,70,255.0,255.0,255.0
445,22.25,4.447,-14.4296,-3.3838,-0.0044678486114867536,-0.07639980721325784,-0.2778221204166165,0.0009046481580127358,0.004751324820950531,-0.00673455605763662,0,70,255.0,255.0,255.0
446,22.3,4.446777647914806,-14.433415239421416,-3.397699796336055,-0.004428044092577945,-0.0762335339789336,-0.2781751754286399,0.0006875325983395711,0.001899604552019833,-0.007387644423297167,0,70,255.0,255.0,255.0
447,22.35,4.446557014661109,-14.437225729831452,-3.411618061783169,-0.004399095351652796,-0.07620984675805585,-0.27856088485894626,0.00047041703866640633,-0.0009521157169108648,-0.008040732788957713,0,70,255.0,255.0,255.0
448,22.400000000000002,4.446337557450008,-14.441038600530778,-3.425556429062255,-0.004381002388711304,-0.07632874555062467,-0.27897924870753565,0.0002533014789932416,-0.003803835985841563,-0.008693821154618258,0,70,255.0,255.0,255.0
449,22.450000000000003,4.446118733492606,-14.44486098082007,-3.4395165308942275,-0.0043737652037534715,-0.07659023035664002,-0.2794302669744081,3.618591932007687e-05,-0.0066555562547722606,-0.009346909520278805,0,70,255.0,255.0,255.0
450,22.5,4.4459,-14.4487,-3.4535,-0.004377383796779296,-0.07699430117610187,-0.27991393965956346,-0.00018092964035307246,-0.009507276523702313,-0.009999997885940637,0,70,255.0,255.0,255.0
451,22.55,4.445680904648114,-14.452560433732977,-3.4675082691015455,-0.004386430278578186,-0.07739973971329885,-0.2804182668264238,-0.00018092963160254715,-0.006710264964176465,-0.01017308878847221,0,70,255.0,255.0,255.0
452,22.6,4.4454613569721495,-14.456437643128364,-3.4815419709250617,-0.00439547675993955,-0.07766532767251952,-0.28093124853841067,-0.00018092962285202186,-0.003913253404650617,-0.01034617969100378,0,70,255.0,255.0,255.0
453,22.650000000000002,4.445241356972128,-14.460324635657264,-3.4956015381978056,-0.004404523240863389,-0.07779106505376392,-0.28145288479552416,-0.00018092961410149654,-0.0011162418451247692,-0.010519270593535354,0,70,255.0,255.0,255.0
454,22.700000000000003,4.445020904648071,-14.464214418790776,-3.509687403647033,-0.0044135697213497005,-0.07777695185703201,-0.28198317559776426,-0.00018092960535097126,0.0016807697144010786,-0.010692361496066925,0,70,255.0,255.0,255.0
455,22.75,4.4448,-14.4681,-3.5238,-0.0044226162013984854,-0.07762298808232382,-0.2825221209451309,-0.00018092959660043206,0.004477781273926507,-0.010865452398599817,0,70,255.0,255.0,255.0
456,22.8,4.444578733492736,-14.471976625646677,-3.537939127257765,-0.00442623479311173,-0.07746350716785799,-0.28303175726566615,3.618592807062314e-05,0.001901455304706231,-0.009520000422810851,0,70,255.0,255.0,255.0
457,22.85,4.444357557450292,-14.475848497655093,-3.5521020545165873,-0.004418997608591423,-0.07743284255185319,-0.28347412098741204,0.00025330145274167834,-0.0006748706645140446,-0.008174548447021885,0,70,255.0,255.0,255.0
458,22.900000000000002,4.4441370146614805,-14.47972205684017,-3.5662854181465264,-0.004400904647837562,-0.07753099423430941,-0.2838492121103684,0.0004704169774127335,-0.00325119663373432,-0.006829096471232919,0,70,255.0,255.0,255.0
459,22.950000000000003,4.443917647915113,-14.483603744016833,-3.5804858545176446,-0.004371955910850149,-0.07775796221522663,-0.2841570306345353,0.0006875325020837887,-0.005827522602954596,-0.0054836444954439525,0,70,255.0,255.0,255.0
460,23.0,4.4437,-14.4875,-3.5947,-0.004332151397629187,-0.07811374649460483,-0.28439757655991277,0.0009046480267548354,-0.008403848572174577,-0.00413819251965597,0,70,255.0,255.0,255.0
461,23.05,4.44348416138094,-14.491415463680314,-3.608925621867396,-0.004308630548977313,-0.07849023161527764,-0.28463870411091113,3.618591932008099e-05,-0.006655556254737768,-0.005506909520279565,0,70,255.0,255.0,255.0
462,23.1,4.443268413226678,-14.495347566251263,-3.6231650110085925,-0.004328532805697179,-0.07877930212007861,-0.28494826751194074,-0.0008322761881146734,-0.004907263937300959,-0.006875626520903161,0,70,255.0,255.0,255.0
463,23.150000000000002,4.443050584381948,-14.499291936982056,-3.637421589216091,-0.004391858167788782,-0.07898095800900774,-0.2853262667630015,-0.0017007382955494276,-0.0031589716198641513,-0.008244343521526757,0,70,255.0,255.0,255.0
464,23.200000000000003,4.442828503691477,-14.5032442051419,-3.651698778282393,-0.004498606635252124,-0.07909519928206503,-0.2857727018640934,-0.0025692004029841823,-0.0014106793024273425,-0.009613060522150352,0,70,255.0,255.0,255.0
465,23.25,4.4426,-14.5072,-3.666,-0.004648778208087191,-0.07912202593925048,-0.2862875728152165,-0.00343766251041884,0.00033761301500911944,-0.010981777522772962,0,70,255.0,255.0,255.0
466,23.3,4.442363820983501,-14.511155919632069,-3.6803279852726534,-0.004787243010981325,-0.07911956637101512,-0.2868294262906875,-0.0021009296053464636,-0.000239230285594813,-0.010692361496067178,0,70,255.0,255.0,255.0
467,23.35,4.442122389642989,-14.515112437339852,-3.694682701449047,-0.00485887116862184,-0.07914594896780996,-0.28735680896482324,-0.000764196700274087,-0.0008160735861987454,-0.010402945469361394,0,70,255.0,255.0,255.0
468,23.400000000000002,4.441879047810726,-14.5190709952316,-3.7090634249891137,-0.004863662681008735,-0.079201173729635,-0.28786972083762363,0.0005725362047982897,-0.0013929168868026776,-0.01011352944265561,0,70,255.0,255.0,255.0
469,23.450000000000003,4.441637137318976,-14.523033035415565,-3.723469432352787,-0.00480161754814201,-0.07928524065649023,-0.28836816190908876,0.0019092691098706663,-0.0019697601874066103,-0.009824113415949826,0,70,255.0,255.0,255.0
470,23.5,4.4414,-14.527,-3.7379,-0.0046727357700216765,-0.07939814974837565,-0.2888521321792186,0.003246002014942996,-0.0025466034880100574,-0.00953469738924495,0,70,255.0,255.0,255.0
471,23.55,4.441170154685055,-14.53097285779141,-3.752354437041992,-0.004526397407096118,-0.07951150290065169,-0.28932359072633607,0.0026075325020792997,-0.0019875226030312697,-0.009323644495453018,0,70,255.0,255.0,255.0
472,23.6,4.440946828201362,-14.534950684389328,-3.766832183195222,-0.0044119825198137425,-0.07959690200867878,-0.28978449662876393,0.0019690629892156033,-0.001428441718052482,-0.009112591601661085,0,70,255.0,255.0,255.0
473,23.650000000000002,4.440728424375145,-14.53893208209154,-3.781332710827457,-0.004329491108174554,-0.07965434707245693,-0.2902348498865022,0.0013305934763519064,-0.000869360833073694,-0.008901538707869153,0,70,255.0,255.0,255.0
474,23.700000000000003,4.440513347032618,-14.542915653195834,-3.7958554923064614,-0.0042789231721785505,-0.07968383809198616,-0.2906746504995509,0.00069212396348821,-0.0003102799480949065,-0.00869048581407722,0,70,255.0,255.0,255.0
475,23.75,4.4403,-14.5469,-3.8104,-0.004260278711825731,-0.07968537506726642,-0.2911038984679099,5.365445062456564e-05,0.00024880093688439686,-0.008479432920284413,0,70,255.0,255.0,255.0
476,23.8,4.440086760276283,-14.550884649202292,-3.82496546655938,-0.004275167360634833,-0.07971442202640329,-0.29150821080397066,-0.0006492004029886106,-0.0014106793023592758,-0.007693060522145323,0,70,255.0,255.0,255.0
477,23.85,4.4398718975515585,-14.55487282510284,-3.8395501657700657,-0.004325198752124593,-0.07982644299750236,-0.2918732045201245,-0.001352055256601787,-0.0030701595416029485,-0.006906688124006233,0,70,255.0,255.0,255.0
478,23.900000000000002,4.439653654688692,-14.558868676402243,-3.854152131701061,-0.004410372886295013,-0.08002143798056359,-0.2921988796163713,-0.002054910110214963,-0.004729639780846622,-0.006120315725867142,0,70,255.0,255.0,255.0
479,23.950000000000003,4.43943027455055,-14.562876351801096,-3.868769398421372,-0.004530689763146092,-0.08029940697558702,-0.29248523609271115,-0.0027577649638281395,-0.006389120020090294,-0.005333943327728052,0,70,255.0,255.0,255.0
480,24.0,4.4392,-14.5669,-3.8834,-0.00468614938267782,-0.08066034998257259,-0.29273227394914414,-0.0034606198174412586,-0.008048600259333516,-0.004547570929589462,0,70,255.0,255.0,255.0
481,24.05,4.438962004209814,-14.570942145399423,-3.8980428967204888,-0.004820933150366863,-0.08100680899374,-0.29299556605778243,-0.0019307308901204097,-0.005809760187363356,-0.0059841134159422035,0,70,255.0,255.0,255.0
482,24.1,4.438719181592402,-14.574998815199315,-3.912700753724517,-0.004879222471689864,-0.08124132600130893,-0.29333068529073836,-0.00040084196279956087,-0.0035709201153931976,-0.0074206559022949444,0,70,255.0,255.0,255.0
483,24.150000000000002,4.438475356870084,-14.579064412299493,-3.927377162368302,-0.00486101734664682,-0.08136390100527933,-0.2937376316480119,0.0011290469645212882,-0.0013320800434230388,-0.008857198388647687,0,70,255.0,255.0,255.0
484,24.200000000000003,4.438234354765177,-14.583133339599781,-3.942075714008057,-0.004766317775237733,-0.08137453400565124,-0.2942164051296031,0.002658935891842137,0.0009067600285471208,-0.010293740875000427,0,70,255.0,255.0,255.0
485,24.25,4.438,-14.5872,-3.9568,-0.004595123757462617,-0.08127322500242462,-0.2947670057355119,0.004188824819162905,0.003145600100517454,-0.011730283361349958,0,70,255.0,255.0,255.0
486,24.3,4.43777482288446,-14.591260369200015,-3.971552546558666,-0.0044251000378964485,-0.08115434199861586,-0.29532552496489783,0.002612123963483766,0.001609720051832642,-0.010610485814088372,0,70,255.0,255.0,255.0
487,24.35,4.43755617607883,-14.595316714099903,-3.9863316193318674,-0.004333911361114237,-0.08111225299724134,-0.2958280543169208,0.0010354231078046265,7.384000314783002e-05,-0.009490688266826787,0,70,255.0,255.0,255.0
488,24.400000000000002,4.43734011783097,-14.59937287439978,-4.001134418825736,-0.004321557727115984,-0.08114695799830109,-0.29627459379158055,-0.0005412777478745129,-0.0014620400455369817,-0.008370890719565201,0,70,255.0,255.0,255.0
489,24.450000000000003,4.437122706388739,-14.603432689799773,-4.015958145546404,-0.004388039135901689,-0.08125845700179506,-0.2966651433888773,-0.002117978603553652,-0.002997920094221794,-0.007251093172303616,0,70,255.0,255.0,255.0
490,24.5,4.4369,-14.6075,-4.0308,-0.004533355587471339,-0.08144675000772325,-0.29699970310881085,-0.003694679459232665,-0.004533800142906053,-0.00613129562503989,0,70,255.0,255.0,255.0
491,24.55,4.436669104252341,-14.611577977800513,-4.045658117044848,-0.00469466669804786,-0.08167182301179826,-0.29733433408262977,-0.0027577649638280874,-0.004469120020094363,-0.007253943327715556,0,70,255.0,255.0,255.0
492,24.6,4.436431314092274,-14.615667128401078,-4.060534368948016,-0.004809132083854152,-0.08189366200973269,-0.2977250974415824,-0.0018208504684235098,-0.004404439897282673,-0.008376591030391222,0,70,255.0,255.0,255.0
493,24.650000000000002,4.436188971806036,-14.619767290101386,-4.075431562328759,-0.004876751744890213,-0.08211226700152653,-0.2981719931856689,-0.0008839359730189321,-0.004339759774470983,-0.009499238733066887,0,70,255.0,255.0,255.0
494,24.700000000000003,4.435944419679865,-14.623878301201128,-4.090352503806335,-0.004897525681156046,-0.0823276379871798,-0.29867502131488916,5.297852238564556e-05,-0.004275079651659294,-0.010621886435742554,0,70,255.0,255.0,255.0
495,24.75,4.4357,-14.628,-4.1053,-0.004871453892651653,-0.08253977496669246,-0.29923418182924316,0.0009898930177901569,-0.004210399528847386,-0.011744534138418583,0,70,255.0,255.0,255.0
496,24.8,4.435457560106171,-14.632131719597929,-4.120275785261942,-0.004828233169910735,-0.08271836595419889,-0.2997851387045786,0.0007389358918465294,-0.002933239971409733,-0.01029374087499917,0,70,255.0,255.0,255.0
497,24.85,4.435216967552071,-14.63627077229579,-4.135277304876072,-0.004797560303466998,-0.08283309896383344,-0.3002635559167431,0.000487978765902902,-0.00165608041397208,-0.008842947611579758,0,70,255.0,255.0,255.0
498,24.900000000000002,4.434977594944885,-14.640413965194684,-4.150300931859231,-0.004779435293320445,-0.0828839739955961,-0.3006694334657366,0.0002370216399592746,-0.0003789208565344272,-0.007392154348160345,0,70,255.0,255.0,255.0
499,24.950000000000003,4.4347388148918,-14.644558105395717,-4.16534303922826,-0.004773858139471071,-0.08287099104948688,-0.3010027713515591,-1.393548598435288e-05,0.0008982387009032261,-0.005941361084740932,0,70,255.0,255.0,255.0
500,25.0,4.4345,-14.6487,-4.1804,-0.004780828841918879,-0.08279415012550577,-0.3012635695742107,-0.0002648926119279693,0.0021753982583411213,-0.004490567821322511,0,70,255.0,255.0,255.0
501,25.05,4.434260655322976,-14.652837543807767,-4.195469141907384,-0.004792400622306029,-0.082718713171403,-0.30150911109905165,-0.00019797860355802904,0.0008420799057695248,-0.005331093172315805,0,70,255.0,255.0,255.0
502,25.1,4.434020815699443,-14.656972982415768,-4.2105516115476975,-0.0048006267022746825,-0.08270994213492881,-0.3017966788914423,-0.00013106459518808875,-0.0004912384468020716,-0.0061716185233090986,0,70,255.0,255.0,255.0
503,25.150000000000002,4.433780648414422,-14.661109649119886,-4.225649510234321,-0.004805507081824838,-0.08276783701608321,-0.30212627295138256,-6.415058681814848e-05,-0.0018245567993736677,-0.007012143874302393,0,70,255.0,255.0,255.0
504,25.200000000000003,4.433540320752934,-14.665250877216003,-4.240764939280629,-0.004807041760956497,-0.0828923978148662,-0.3024978932788725,2.7634215517918195e-06,-0.0031578751519452646,-0.007852669225295686,0,70,255.0,255.0,255.0
505,25.25,4.4333,-14.6694,-4.2559,-0.00480523073966966,-0.08308362453127772,-0.3029115398739121,6.967742992173426e-05,-0.004491193504516544,-0.008693194576287144,0,70,255.0,255.0,255.0
506,25.3,4.433059818601926,-14.673559705171007,-4.271056447108524,-0.004802164340861977,-0.08330278136018297,-0.30334641689921293,5.297852238560056e-05,-0.004275079651693289,-0.00870188643574652,0,70,255.0,255.0,255.0
507,25.35,4.432819769650157,-14.677730098041142,-4.286234648933138,-0.0047999328874311,-0.08351113249644707,-0.3037817285174868,3.627961484946687e-05,-0.004058965798870034,-0.008710578295205896,0,70,255.0,255.0,255.0
508,25.400000000000002,4.432579811397426,-14.681910638325773,-4.30143462720349,-0.00479853637937703,-0.08370867794006998,-0.30421747472873356,1.958070731333318e-05,-0.0038428519460467787,-0.008719270154665271,0,70,255.0,255.0,255.0
509,25.450000000000003,4.432339902096464,-14.686100785740269,-4.316656403649228,-0.004797974816699767,-0.08389541769105174,-0.3046536555329533,2.8817997771994792e-06,-0.0036267380932235235,-0.008727962014124646,0,70,255.0,255.0,255.0
510,25.5,4.4321,-14.6903,-4.3319,-0.004798248199399309,-0.08407135174939234,-0.305090270930146,-1.3817107758898328e-05,-0.003410624240400395,-0.008736653873583133,0,70,255.0,255.0,255.0
511,25.55,4.431860070269321,-14.694507635508211,-4.34716506965852,-0.00479894201424289,-0.0842301613878787,-0.305505221304104,-1.3935485984337138e-05,-0.0029417612990536067,-0.007861361084736883,0,70,255.0,255.0,255.0
512,25.6,4.431620105699928,-14.69872262541967,-4.362449792719754,-0.004799641747997743,-0.0843655278792977,-0.30587640703861974,-1.4053864209775949e-05,-0.0024728983577068184,-0.006986068295890632,0,70,255.0,255.0,255.0
513,25.650000000000002,4.431380105995872,-14.702943797577023,-4.377751980951726,-0.004800347400663868,-0.08447745122364939,-0.3062038281336931,-1.417224243521476e-05,-0.00200403541636003,-0.006110775507044382,0,70,255.0,255.0,255.0
514,25.700000000000003,4.431140070861212,-14.707169979822918,-4.393069446122466,-0.0048010589722412645,-0.08456593142093372,-0.3064874845893242,-1.429062066065357e-05,-0.0015351724750132423,-0.005235482718198131,0,70,255.0,255.0,255.0
515,25.75,4.4309,-14.7114,-4.4084,-0.004801776462729932,-0.08463096847115072,-0.3067273764055129,-1.4408998886057678e-05,-0.0010663095336668205,-0.004360189929351055,0,70,255.0,255.0,255.0
516,25.8,4.430659900320791,-14.715632952796149,-4.423742474257395,-0.004802067602163289,-0.08468857308829113,-0.3069846978843783,2.763421551789624e-06,-0.0012378751519496213,-0.005932669225265141,0,70,255.0,255.0,255.0
517,25.85,4.430419807550134,-14.719869000280179,-4.439099780187851,-0.0048015001205747535,-0.08475475598634569,-0.30732064332803943,1.9935841989636926e-05,-0.0014094407702324222,-0.007505148521179228,0,70,255.0,255.0,255.0
518,25.900000000000002,4.4301797646190835,-14.72410857136613,-4.454475848989612,-0.004800074017964325,-0.08482951716531438,-0.30773521273649623,3.710826242748423e-05,-0.0015810063885152233,-0.009077627817093314,0,70,255.0,255.0,255.0
519,25.950000000000003,4.429939814458689,-14.728352094968058,-4.469874611860915,-0.004797789294332004,-0.0849128566251972,-0.3082284061097488,5.428068286533153e-05,-0.0017525720067980242,-0.010650107113007401,0,70,255.0,255.0,255.0
520,26.0,4.4297,-14.7326,-4.4853,-0.004794645949677792,-0.08500477436599418,-0.30880022344779695,7.145310330317761e-05,-0.001924137625080924,-0.012222586408922265,0,70,255.0,255.0,255.0
521,26.05,4.42946032844752,-14.736852553307193,-4.500754633311903,-0.0047927875771012094,-0.08509554625895276,-0.30937198715837383,2.8817997601575287e-06,-0.0017067380932621358,-0.010647962014154433,0,70,255.0,255.0,255.0
522,26.1,4.429220664099537,-14.741109373459619,-4.5162358865288414,-0.004794357769701776,-0.08517544817532041,-0.3098650196492124,-6.568950378286255e-05,-0.001489338561443348,-0.009073337619386602,0,70,255.0,255.0,255.0
523,26.150000000000002,4.4289808355277955,-14.745369916958447,-4.531739823089829,-0.004799356527479495,-0.0852444801150971,-0.3102793209203125,-0.0001342608073258826,-0.00127193902962456,-0.007498713224618769,0,70,255.0,255.0,255.0
524,26.200000000000003,4.428740671304037,-14.74963364030485,-4.547262506433878,-0.004807783850434365,-0.08530264207828285,-0.3106148909716743,-0.00020283211086890272,-0.001054539497805772,-0.005924088829850937,0,70,255.0,255.0,255.0
525,26.25,4.4285,-14.7539,-4.5628,-0.004819639738566386,-0.08534993406487766,-0.3108717298032977,-0.00027140341441191096,-0.0008371399659866663,-0.004349464435083661,0,70,255.0,255.0,255.0
526,26.3,4.428258785889134,-14.75816883397508,-4.578349392494994,-0.004826782089442773,-0.08540924187590182,-0.31111135348212976,-1.4290620643571882e-05,-0.0015351724749792838,-0.005235482718197572,0,70,255.0,255.0,255.0
527,26.35,4.428017536051716,-14.762441505881348,-4.593911873696782,-0.004821068800630743,-0.08550345131237559,-0.31139527807511747,0.0002428221731247672,-0.0022332049839719013,-0.006121501001311484,0,70,255.0,255.0,255.0
528,26.400000000000002,4.427776893269733,-14.766719760800076,-4.609489658651075,-0.004802499872130296,-0.085632562374299,-0.3117235035822609,0.0004999349668931062,-0.0029312374929645188,-0.007007519284425394,0,70,255.0,255.0,255.0
529,26.450000000000003,4.427537500325165,-14.771005343812535,-4.625084962403579,-0.0047710753039414315,-0.08579657506167206,-0.31209603000356,0.0007570477606614453,-0.0036292700019571363,-0.007893537567539306,0,70,255.0,255.0,255.0
530,26.5,4.4273,-14.7753,-4.6407,-0.004726795096064154,-0.08599548937449471,-0.31251285733901474,0.0010141605544297522,-0.004327302510949482,-0.008779555850651821,0,70,255.0,255.0,255.0
531,26.55,4.4270645279959435,-14.779604910792488,-4.656336596708123,-0.00470008406513135,-0.08619548623743914,-0.3129505989131059,5.4280682882363045e-05,-0.0036725720068277253,-0.008730107112994732,0,70,255.0,255.0,255.0
532,26.6,4.426829191693594,-14.783919003014992,-4.671995018684029,-0.004721367027775918,-0.0863627465751775,-0.3133858680503142,-0.0009055991886650261,-0.0030178415027059683,-0.008680658375337645,0,70,255.0,255.0,255.0
533,26.650000000000002,4.426591591393273,-14.788240639841252,-4.687675142305874,-0.004790643983997854,-0.08649727038770974,-0.3138186647506397,-0.0018654790602124155,-0.0023631109985842113,-0.008631209637680557,0,70,255.0,255.0,255.0
534,26.700000000000003,4.4263493273953,-14.792568184445008,-4.703376843951812,-0.004907914933797162,-0.08659905767503591,-0.3142489890140823,-0.0028253589317598043,-0.0017083804944624543,-0.00858176090002347,0,70,255.0,255.0,255.0
535,26.75,4.4261,-14.7969,-4.7191,-0.0050731798771738255,-0.086668108437156,-0.314676840840642,-0.0037852388033071255,-0.0010536499903408547,-0.008532312162365496,0,70,255.0,255.0,255.0
536,26.8,4.4258423021270925,-14.801234722854975,-4.734844220672514,-0.005220881650028542,-0.0867208131743588,-0.3150862508654478,-0.0021228321108814523,-0.0010545394977715006,-0.007844088829863951,0,70,255.0,255.0,255.0
537,26.85,4.425579297173907,-14.805572082058694,-4.750608051567102,-0.005285463088261973,-0.08677356238693315,-0.3154612497236284,-0.0004604254184557787,-0.0010554290052021465,-0.007155865497362404,0,70,255.0,255.0,255.0
538,26.900000000000002,4.425315141157177,-14.809912079834925,-4.766389772125433,-0.00526692419187412,-0.08682635607487903,-0.315801837415184,0.001201981273969895,-0.0010563185126327924,-0.0064676421648608585,0,70,255.0,255.0,255.0
539,26.950000000000003,4.425053990093631,-14.814254718407437,-4.782187661789177,-0.005165264960864982,-0.08687919423819643,-0.3161080139401145,0.002864387966395568,-0.0010572080200634381,-0.005779418832359311,0,70,255.0,255.0,255.0
540,27.0,4.4248,-14.8186,-4.798,-0.004980485395234576,-0.08693207687688538,-0.3163797792984199,0.004526794658821151,-0.001058097527494195,-0.005091195499856926,0,70,255.0,255.0,255.0
541,27.05,4.424555863495688,-14.822948197787618,-4.813825720601824,-0.004800389334747621,-0.08700126106512178,-0.3166563976251045,0.002677047760656935,-0.0017092700019614474,-0.005973537567525712,0,70,255.0,255.0,255.0
542,27.1,4.424318419610777,-14.82730066875024,-4.829666375047568,-0.004712780619168879,-0.08710300387708152,-0.31697713305517256,0.0008273008624927192,-0.0023604424764287,-0.006855879635194498,0,70,255.0,255.0,255.0
543,27.150000000000002,4.424083043978022,-14.831659040819053,-4.845524169192399,-0.004717659248498348,-0.08723730531276465,-0.317341985588624,-0.0010224460356714968,-0.0030116149508959524,-0.007738221702863283,0,70,255.0,255.0,255.0
544,27.200000000000003,4.423845112230179,-14.836024941925245,-4.8614013088914865,-0.00481502522273603,-0.08740416537217113,-0.3177509552254588,-0.0028721929338357127,-0.0036627874253632045,-0.00862056377053207,0,70,255.0,255.0,255.0
545,27.25,4.4236,-14.8404,-4.8773,-0.005004878541881906,-0.08760358405530096,-0.3182040419656771,-0.004721939831999804,-0.004313959899830189,-0.009502905838200348,0,70,255.0,255.0,255.0
546,27.3,4.423344643890158,-14.844785285994556,-4.8932216969201905,-0.005193561010976323,-0.08780214256515816,-0.31865615863413266,-0.0028253589317767886,-0.003628380494458007,-0.008581760900023369,0,70,255.0,255.0,255.0
547,27.35,4.423082224382987,-14.849179642940344,-4.909164848242632,-0.005287414435059588,-0.08796642210474677,-0.31906221805567947,-0.0009287780315537734,-0.002942801089085825,-0.0076606159618463916,0,70,255.0,255.0,255.0
