idx,t,px,py,pz,vx,vy,vz,ax,ay,az,yaw,mode,ledr,ledg,ledb
0,0.0,-1.5000000000000013,-2.3634030242358555e-200,4.1843104616990316e-18,0.0,-1.5785905422917628e-184,0.002996822226478341,4.440892098500626e-14,1.0523936948611744e-183,-0.11117881484318907,0.0,70.0,255.0,1.0,2.0
1,0.05,-1.5000000000000013,-7.892952711458838e-186,0.00014984111132392122,2.220446049250313e-15,-1.0523936948611756e-184,-0.0025621185156811128,2.220446049250313e-14,1.4470413304341153e-183,-0.1666708704093849,0.0,70.0,255.0,1.0,2.0
2,0.1,-1.500000000000001,-1.0523936948611779e-185,-0.0002562118515681071,2.220446049250313e-15,-1.3154921185764744e-185,-0.013670264814460154,-2.220446049250313e-14,1.578590542291762e-183,-0.22196822226478355,0.0,70.0,255.0,1.0,2.0
3,0.15000000000000002,-1.500000000000001,-9.208444830035312e-186,-0.0012171853701220942,0.0,5.2619684743058635e-185,-0.02475894074215947,-2.886579864025407e-13,1.0523936948611828e-183,-0.22157881484320066,0.0,70.0,255.0,1.0,2.0
4,0.2,-1.500000000000001,-5.2619684743059146e-186,-0.002732105925784054,-2.6645352591003757e-14,9.208444830035355e-185,-0.03582814629878022,-2.6645352591003757e-13,5.151577527292542e-184,-0.2211879513218554,0.0,70.0,255.0,1.0,2.0
5,0.25,-1.5000000000000038,4.1999367397136886e-200,-0.004800000000000117,-2.6645352591003757e-14,1.0413546001598406e-184,-0.04687773587434501,2.6645352591003757e-13,-8.555298393540701e-185,-0.22078871522690321,0.0,70.0,255.0,1.0,2.0
6,0.30000000000000004,-1.5000000000000038,5.151577527292492e-186,-0.007419879513218555,0.0,8.352914990681285e-185,-0.05790701782147054,2.6645352591003757e-13,-7.666037987042542e-184,-0.22037888196153826,0.0,70.0,255.0,1.0,2.0
7,0.35000000000000003,-1.5000000000000038,8.352914990681328e-186,-0.010590701782147171,0.0,2.747508014555863e-185,-0.06891562407049884,0.0,-1.3841798189403718e-183,-0.21997742126976866,0.0,70.0,255.0,1.0,2.0
8,0.4,-1.5000000000000038,7.899085541848355e-186,-0.014311441920268439,0.0,-5.488883198722435e-185,-0.07990475994844741,0.0,-1.7086065465519895e-183,-0.21961462811589533,0.0,70.0,255.0,1.0,2.0
9,0.45,-1.5000000000000038,2.8640317919588924e-186,-0.018581177776991913,0.0,-1.4338557450964032e-184,-0.09087708688208837,0.0,-1.511742691044726e-183,-0.21932059522817016,0.0,70.0,255.0,1.0,2.0
10,0.5,-1.5000000000000038,-6.439471909115679e-186,-0.023399150608477276,0.0,-2.0606310109169695e-184,-0.10183681947126443,0.0,-4.734545060797029e-184,-0.2191375494994513,0.0,70.0,255.0,1.0,2.0
11,0.55,-1.5000000000000038,-1.7742278317210804e-185,-0.028764859724118356,0.0,-1.9073102511761062e-184,-0.1127908418320335,0.0,1.51051612496685e-183,-0.21907924298296966,0.0,70.0,255.0,1.0,2.0
12,0.6000000000000001,-1.5000000000000038,-2.5512574420876744e-185,-0.034678234791680626,0.0,-5.5011488595011955e-185,-0.12374474376956139,0.0,3.828112729209469e-183,-0.219064943036823,0.0,70.0,255.0,1.0,2.0
13,0.65,-1.5000000000000038,-2.3243427176712e-185,-0.041139334101074496,0.0,1.9208024780333626e-184,-0.1346973361357158,0.0,5.4502463672675876e-183,-0.2189589088061901,0.0,70.0,255.0,1.0,2.0
14,0.7000000000000001,-1.5000000000000038,-6.304549640543117e-186,-0.048147968405252206,0.0,4.900131481317468e-184,-0.1456406346501804,0.0,5.291406060176022e-183,-0.21863138372204827,0.0,70.0,255.0,1.0,2.0
15,0.75,-1.5000000000000038,2.5757887636462678e-185,-0.055703397566092536,0.0,7.212208538209385e-184,-0.15656047450792063,0.0,1.8938180243188284e-183,-0.21795385794625144,0.0,70.0,255.0,1.0,2.0
16,0.8,-1.5000000000000038,6.581753574155075e-185,-0.06380401585604427,0.0,6.793949505636297e-184,-0.16743602044480554,0.0,-5.286499795864492e-183,-0.2168750909392267,0.0,70.0,255.0,1.0,2.0
17,0.8500000000000001,-1.5000000000000038,9.369738269282565e-185,-0.07244699961057309,0.0,1.9257087423448935e-184,-0.1782479836018433,0.0,-1.3928271097897507e-182,-0.21552634970648799,0.0,70.0,255.0,1.0,2.0
18,0.9,-1.5000000000000038,8.507462316499968e-185,-0.0816288142162286,0.0,-7.134321592261211e-184,-0.18898865541545434,0.0,-2.0092378922518364e-182,-0.2141478718574799,0.0,70.0,255.0,1.0,2.0
19,0.9500000000000001,-1.5000000000000038,2.2354166770213538e-185,-0.09134586515211852,0.0,-1.816667018017347e-183,-0.1996627707875913,0.0,-1.9653881549659347e-182,-0.21298613095589725,0.0,70.0,255.0,1.0,2.0
20,1.0,-1.5000000000000038,-9.659207863673502e-185,-0.10159509129498773,0.0,-2.678820314192056e-183,-0.21028726851104407,0.0,-7.1018175911956045e-183,-0.21228300939153538,0.0,70.0,255.0,1.0,2.0
21,1.05,-1.5000000000000038,-2.455278646489921e-184,-0.11237459200322293,0.0,-2.5268487771369076e-183,-0.22089107172674483,0.0,1.96354830584911e-182,-0.21215419279393272,0.0,70.0,255.0,1.0,2.0
22,1.1,-1.5000000000000038,-3.492769563504258e-184,-0.12368419846766221,0.0,-7.152720083429454e-184,-0.23150268779043734,0.0,5.188497166238055e-182,-0.21246247865004952,0.0,70.0,255.0,1.0,2.0
23,1.1500000000000001,-1.5000000000000038,-3.1705506548328663e-184,-0.13552486078226667,0.0,2.6616483891011478e-183,-0.24213731959174978,0.0,7.491926932280588e-182,-0.21293594409022704,0.0,70.0,255.0,1.0,2.0
24,1.2000000000000002,-1.5000000000000038,-8.311211744031098e-185,-0.1478979304268372,0.0,6.776654923937643e-183,-0.25279628219946004,0.0,7.332412013846142e-182,-0.21329803184831353,0.0,70.0,255.0,1.0,2.0
25,1.25,-1.5000000000000038,3.606104269104777e-184,-0.16080448900221267,0.0,9.994060402947291e-183,-0.26346712277658113,0.0,2.65134523404636e-182,-0.21328613245964745,0.0,70.0,255.0,1.0,2.0
26,1.3,-1.5000000000000038,9.162939228544181e-184,-0.1742446427044953,0.0,9.428000157984003e-183,-0.2741248954454248,0.0,-7.32554324381e-182,-0.21276156445846628,0.0,70.0,255.0,1.0,2.0
27,1.35,-1.5000000000000038,1.303410442708878e-183,-0.18821697854675515,0.0,2.6685171591372905e-183,-0.28474327922242776,0.0,-1.936116155516248e-181,-0.211791847581419,0.0,70.0,255.0,1.0,2.0
28,1.4000000000000001,-1.5000000000000038,1.1831456387681472e-183,-0.20271897062673808,0.0,-9.933161397178477e-183,-0.2953040802035667,0.0,-2.7958469836870515e-181,-0.2105402398935058,0.0,70.0,255.0,1.0,2.0
29,1.4500000000000002,-1.5000000000000038,3.100943029910302e-184,-0.21774738656711182,0.0,-2.5289952677733223e-182,-0.30579730321177834,0.0,-2.736425990041862e-181,-0.20917502836416413,0.0,70.0,255.0,1.0,2.0
30,1.5,-1.5000000000000038,-1.3458496290051753e-183,-0.2332987009479159,0.0,-3.72974212975971e-182,-0.3162215830399831,0.0,-9.895199177065872e-182,-0.20785246076987784,0.0,70.0,255.0,1.0,2.0
31,1.55,-1.5000000000000038,-3.4196478267686798e-183,-0.24936954487111013,0.0,-3.5185151854799096e-182,-0.3265825492887661,0.0,2.7338624669390884e-181,-0.20667181044442817,0.0,70.0,255.0,1.0,2.0
32,1.6,-1.5000000000000038,-4.864364814485085e-183,-0.2659569558767925,0.0,-9.958796628206212e-183,-0.3368887640844259,0.0,7.225614905441183e-181,-0.20568556225970258,0.0,70.0,255.0,1.0,2.0
33,1.6500000000000001,-1.5000000000000038,-4.415527489589301e-183,-0.2830584212795527,0.0,3.707099719961275e-182,-0.3471511055147364,0.0,1.0434195241520144e-180,-0.20494934342202842,0.0,70.0,255.0,1.0,2.0
34,1.7000000000000002,-1.5000000000000038,-1.1572650945238103e-183,-0.30067206642826616,0.0,9.438315578699523e-182,-0.35738369842662876,0.0,1.0212462758782848e-180,-0.2045208290540168,0.0,70.0,255.0,1.0,2.0
35,1.75,-1.5000000000000038,5.022788089110223e-183,-0.3187967911222156,0.0,1.3919562478744124e-181,-0.36760318842013806,0.0,3.692945147421711e-181,-0.20446001513681478,0.0,70.0,255.0,1.0,2.0
36,1.8,-1.5000000000000038,1.2762297384220314e-182,-0.33743238527027997,0.0,1.3131260726121234e-181,-0.37782969994031024,0.0,-1.0202895543375398e-180,-0.20477273222534453,0.0,70.0,255.0,1.0,2.0
37,1.85,-1.5000000000000038,1.815404881523146e-182,-0.3565797611162466,0.0,3.716666935368725e-182,-0.3880804616426725,0.0,-2.6966343466248507e-180,-0.2053032926571663,0.0,70.0,255.0,1.0,2.0
38,1.9000000000000001,-1.5000000000000038,1.647896431958904e-182,-0.3762404314345472,0.0,-1.3835082740127275e-181,-0.39836002920602687,0.0,-3.8940933982393516e-180,-0.20578247965850616,0.0,70.0,255.0,1.0,2.0
39,1.9500000000000002,-1.5000000000000038,4.318966075104183e-183,-0.3964157640368493,0.0,-3.5224267047024795e-181,-0.40865870960852313,0.0,-3.811342504508951e-180,-0.20592990716802317,0.0,70.0,255.0,1.0,2.0
40,2.0,-1.5000000000000038,-1.8745302727435755e-182,-0.41710630239539953,0.0,-5.194850778521679e-181,-0.4189530199228292,0.0,-1.3782260671980249e-180,-0.20547148800685866,0.0,70.0,255.0,1.0,2.0
41,2.0500000000000003,-1.5000000000000038,-4.7629541710112614e-182,-0.4383110660291322,0.0,-4.900652771900504e-181,-0.429205858409209,0.0,3.8077719706562496e-180,-0.20428294829989424,0.0,70.0,255.0,1.0,2.0
42,2.1,-1.5000000000000038,-6.77518304464408e-182,-0.46002688823632043,0.0,-1.387078807865429e-181,-0.4393813147528186,0.0,1.0063975895955287e-179,-0.2025502181606076,0.0,70.0,255.0,1.0,2.0
43,2.15,-1.5000000000000038,-6.15003297887669e-182,-0.4822491975044141,0.0,5.163323124054785e-181,-0.44946088022526975,0.0,1.4532954068805397e-179,-0.20063346521669856,0.0,70.0,255.0,1.0,2.0
44,2.2,-1.5000000000000038,-1.611859920589295e-182,-0.5049729762588474,0.0,1.314587526093997e-180,-0.45944466127448846,0.0,1.4224123742157525e-179,-0.19890509005939805,0.0,70.0,255.0,1.0,2.0
45,2.25,-1.5000000000000038,6.99584228206328e-182,-0.5281936636318629,0.0,1.938744686621231e-180,-0.46935138923120956,0.0,5.143609754049923e-180,-0.19772601418772684,0.0,70.0,255.0,1.0,2.0
46,2.3000000000000003,-1.5000000000000038,1.7775586945623016e-181,-0.5519081151819684,0.0,1.8289485014989893e-180,-0.47921726269326115,0.0,-1.421079832828747e-179,-0.19728204800169014,0.0,70.0,255.0,1.0,2.0
47,2.35,-1.5000000000000038,2.5285327297053173e-181,-0.576115389901189,0.0,5.176648537924839e-181,-0.4890795940313786,0.0,-3.75592692371963e-179,-0.19744501884956245,0.0,70.0,255.0,1.0,2.0
48,2.4000000000000004,-1.5000000000000038,2.2952235483547855e-181,-0.6008160745851062,0.0,-1.926978422220641e-180,-0.4989617645782174,0.0,-5.423772287698222e-179,-0.197934475325523,0.0,70.0,255.0,1.0,2.0
49,2.45,-1.5000000000000038,6.015543074846761e-182,-0.6260115663590108,0.0,-4.906107433905738e-180,-0.5088730415639309,0.0,-5.308515246412113e-179,-0.19846315916777213,0.0,70.0,255.0,1.0,2.0
50,2.5,-1.5000000000000038,-2.610883885550953e-181,-0.6517033787414993,0.0,-7.235493668632755e-180,-0.5188080804949946,0.0,-1.9196212949001694e-179,-0.1987524738902402,0.0,70.0,255.0,1.0,2.0
51,2.5500000000000003,-1.5000000000000038,-6.633939361148079e-181,-0.6778923744085102,0.0,-6.825728728805907e-180,-0.5287482889529549,0.0,5.30354213424936e-179,-0.19864331190787565,0.0,70.0,255.0,1.0,2.0
52,2.6,-1.5000000000000038,-9.436612614356861e-181,-0.7045782076367948,0.0,-1.931951534383395e-180,-0.5386724116857822,0.0,1.4017310105282993e-178,-0.1981569791683957,0.0,70.0,255.0,1.0,2.0
53,2.6500000000000004,-1.5000000000000038,-8.565890895531474e-181,-0.7317596155770885,0.0,7.191581376477086e-180,-0.5485639868697945,0.0,2.0241793743912356e-178,-0.1973796824322971,0.0,70.0,255.0,1.0,2.0
54,2.7,-1.5000000000000038,-2.245031237879775e-181,-0.7594346063237742,0.0,1.830984220952896e-179,-0.5584103799290119,0.0,1.9811648611432705e-178,-0.1963965856238037,0.0,70.0,255.0,1.0,2.0
55,2.75,-1.5000000000000038,9.743951313997487e-181,-0.7876006535699897,0.0,2.700322998790979e-179,-0.5682036454321748,0.0,7.16412420419568e-179,-0.19530008092719653,0.0,70.0,255.0,1.0,2.0
56,2.8000000000000003,-1.5000000000000038,2.475819875003002e-180,-0.8162549708669917,0.0,2.547396641372464e-179,-0.5779403880217315,0.0,-1.97930887041687e-178,-0.19415645261862124,0.0,70.0,255.0,1.0,2.0
57,2.85,-1.5000000000000038,3.521791772772213e-180,-0.8453946923721628,0.0,7.210141283741089e-180,-0.587619290694037,0.0,-5.231331349741234e-178,-0.19300697123686428,0.0,70.0,255.0,1.0,2.0
58,2.9000000000000004,-1.5000000000000038,3.1968340033771107e-180,-0.8750168999363954,0.0,-2.6839347083687704e-179,-0.597241085145418,0.0,-7.554340268795117e-178,-0.1919094056679449,0.0,70.0,255.0,1.0,2.0
59,2.95,-1.5000000000000038,8.378570644034421e-181,-0.9051188008867046,0.0,-6.833326140421009e-179,-0.6068102312608314,0.0,-7.393807919931867e-178,-0.19093567316209592,0.0,70.0,255.0,1.0,2.0
60,3.0,-1.5000000000000038,-3.6364921370438984e-180,-0.9356979230624786,0.0,-1.0077742628300638e-178,-0.6163346524616276,0.0,-2.6736875521882545e-178,-0.19014323969692715,0.0,70.0,255.0,1.0,2.0
61,3.0500000000000003,-1.5000000000000038,-9.239885563897197e-180,-0.9667522661328674,0.0,-9.507013692609264e-179,-0.6258245552305242,0.0,7.386881268242538e-178,-0.18955810372491833,0.0,70.0,255.0,1.0,2.0
62,3.1,-1.5000000000000038,-1.3143505829653162e-179,-0.998280378585531,0.0,-2.6908613600580987e-179,-0.6352904628341194,0.0,1.9523594388436634e-177,-0.18917066035971652,0.0,70.0,255.0,1.0,2.0
63,3.1500000000000004,-1.5000000000000038,-1.1930746923955295e-179,-1.0302813124162793,0.0,1.0016580695827371e-178,-0.6447416212664958,0.0,2.8193181700789246e-177,-0.18894633125960958,0.0,70.0,255.0,1.0,2.0
64,3.2,-1.5000000000000038,-3.126925133825792e-180,-1.0627545407121806,0.0,2.550232034073115e-178,-0.6541850959600803,0.0,2.7594066818584217e-177,-0.18883452126157163,0.0,70.0,255.0,1.0,2.0
65,3.25,-1.5000000000000038,1.3571573416775853e-179,-1.0956998220122873,0.0,3.7610647514411585e-178,-0.663625073392653,0.0,9.978337788333442e-178,-0.18878691366499556,0.0,70.0,255.0,1.0,2.0
66,3.3000000000000003,-1.5000000000000038,3.44837223805858e-179,-1.1291170480514459,0.0,3.5480658129064593e-178,-0.6730637873265799,0.0,-2.7568216202553303e-177,-0.1887654448359921,0.0,70.0,255.0,1.0,2.0
67,3.35,-1.5000000000000038,4.905223154584045e-179,-1.1630062007449453,0.0,1.0042431311858285e-178,-0.6825016178762522,0.0,-7.28630462040053e-177,-0.18871225212608866,0.0,70.0,255.0,1.0,2.0
68,3.4000000000000004,-1.5000000000000038,4.4526153692444084e-179,-1.197367209839071,0.0,-3.7382388074940704e-178,-0.6919350125391888,0.0,-1.0521838653436183e-176,-0.18854172617019938,0.0,70.0,255.0,1.0,2.0
69,3.45,-1.5000000000000038,1.1669843470899744e-179,-1.2321997019988642,0.0,-9.517595522250356e-178,-0.7013557904932721,0.0,-1.0298245935440496e-176,-0.18816726743280388,0.0,70.0,255.0,1.0,2.0
70,3.5,-1.5000000000000038,-5.064980153005948e-179,-1.2675027888883983,0.0,-1.4036484742934568e-177,-0.7107517392824692,0.0,-3.723966360114552e-177,-0.1875091056430911,0.0,70.0,255.0,1.0,2.0
71,3.5500000000000003,-1.5000000000000038,-1.2869500395844595e-178,-1.303274875927111,0.0,-1.3241561882364908e-177,-0.7201067010575812,0.0,1.0288598354197065e-176,-0.18653909128987234,0.0,70.0,255.0,1.0,2.0
72,3.6,-1.5000000000000038,-1.830654203537086e-178,-1.3395134589941564,0.0,-3.7478863887375026e-178,-0.7294056484114564,0.0,2.719285904275845e-176,-0.18534387425930277,0.0,70.0,255.0,1.0,2.0
73,3.6500000000000004,-1.5000000000000038,-1.6617386784582098e-178,-1.3762154407682567,0.0,1.3951297160393544e-177,-0.7386410884835115,0.0,3.92680364436658e-176,-0.18408489925789695,0.0,70.0,255.0,1.0,2.0
74,3.7,-1.5000000000000038,-4.355244874977313e-179,-1.4133775678425076,0.0,3.5520150054928303e-177,-0.7478141383372461,0.0,3.843357705990346e-176,-0.1829353833665781,0.0,70.0,255.0,1.0,2.0
75,3.75,-1.5000000000000038,1.8902763270346208e-178,-1.4509968546019814,0.0,5.2384874220297005e-177,-0.7569346268201693,0.0,1.3898031661624988e-176,-0.1820646824106653,0.0,70.0,255.0,1.0,2.0
76,3.8000000000000003,-1.5000000000000038,4.8029629345319695e-178,-1.4890710305245245,0.0,4.941818171655329e-177,-0.7660206065783126,0.0,-3.839757179653261e-176,-0.18155819000409412,0.0,70.0,255.0,1.0,2.0
77,3.85,-1.5000000000000038,6.83209449868995e-178,-1.5275989152598126,0.0,1.3987302423764394e-177,-0.7750904458205787,0.0,-1.0148513155063344e-175,-0.18134684291128966,0.0,70.0,255.0,1.0,2.0
78,3.9000000000000004,-1.5000000000000038,6.201693176908409e-178,-1.5665800751065824,0.0,-5.206694983408014e-177,-0.7841552908694416,0.0,-1.4655030712122728e-175,-0.18128408472386504,0.0,70.0,255.0,1.0,2.0
79,3.95,-1.5000000000000038,1.6253995152819365e-178,-1.6060144443467568,0.0,-1.325630046974629e-176,-0.7932188542929652,0.0,-1.4343606230417337e-175,-0.18121791238756568,0.0,70.0,255.0,1.0,2.0
80,4.0,-1.5000000000000038,-7.054607292837882e-178,-1.645901960535879,0.0,-1.9550301213825353e-176,-0.8022770821081981,0.0,-5.186816028638536e-176,-0.18099617403801727,0.0,70.0,255.0,1.0,2.0
81,4.05,-1.5000000000000038,-1.7924901698543416e-177,-1.6862421525575766,0.0,-1.8443116498384825e-176,-0.811318471696767,0.0,1.4330168883193345e-175,-0.1805353748007832,0.0,70.0,255.0,1.0,2.0
82,4.1000000000000005,-1.5000000000000038,-2.549772379122271e-177,-1.7270338077055556,0.0,-5.220132330632006e-177,-0.8203306195882765,0.0,3.787476671597751e-175,-0.1798723904594235,0.0,70.0,255.0,1.0,2.0
83,4.15,-1.5000000000000038,-2.3145034029175422e-177,-1.7682752145164042,0.0,1.9431650217592688e-176,-0.8293057107427093,0.0,5.469331920412432e-175,-0.17909428632256752,0.0,70.0,255.0,1.0,2.0
84,4.2,-1.5000000000000038,-6.066073573630021e-178,-1.8099643787798265,0.0,4.9473186873492315e-176,-0.8382400482205332,0.0,5.3531067215679e-175,-0.17828676661666432,0.0,70.0,255.0,1.0,2.0
85,4.25,-1.5000000000000038,2.6328152844316897e-177,-1.8520992193384576,0.0,7.296271743327169e-176,-0.8471343874043757,0.0,1.935746094839168e-175,-0.17754260278886047,0.0,70.0,255.0,1.0,2.0
86,4.3,-1.5000000000000038,6.689664385964168e-177,-1.894677817520264,0.0,6.8830647821884e-176,-0.8559943084994193,0.0,-5.348091835312008e-175,-0.17691308468583689,0.0,70.0,255.0,1.0,2.0
87,4.3500000000000005,-1.5000000000000038,9.51588006662009e-177,-1.9376986501883995,0.0,1.9481799080151604e-176,-0.8648256958729594,0.0,-1.4135055370884674e-174,-0.17636266285037117,0.0,70.0,255.0,1.0,2.0
88,4.4,-1.5000000000000038,8.637844293979328e-177,-1.98116038710756,0.0,-7.251990588696273e-176,-0.8736305747844564,0.0,-2.0411824610437456e-174,-0.1758205415477665,0.0,70.0,255.0,1.0,2.0
89,4.45,-1.5000000000000038,2.263889477923815e-177,-2.025061707666845,0.0,-1.8463644702422296e-175,-0.8824077500277361,0.0,-1.997806626322998e-174,-0.17522122161179876,0.0,70.0,255.0,1.0,2.0
90,4.5,-1.5000000000000038,-9.825800408442968e-177,-2.0694011621103336,0.0,-2.723005685192625e-175,-0.8911526969456363,0.0,-7.224302776492783e-175,-0.17448544277811617,0.0,70.0,255.0,1.0,2.0
91,4.55,-1.5000000000000038,-2.4966167374002438e-176,-2.1141769773614087,0.0,-2.568794747891508e-175,-0.8998562943055477,0.0,1.9959350452929064e-174,-0.17357899974252966,0.0,70.0,255.0,1.0,2.0
92,4.6000000000000005,-1.5000000000000038,-3.551374788735805e-176,-2.1593867915408884,0.0,-7.270706398997186e-176,-0.9085105969198892,0.0,5.275274481194109e-174,-0.1725969581394704,0.0,70.0,255.0,1.0,2.0
93,4.65,-1.5000000000000038,-3.2236873772999624e-176,-2.2050280370533977,0.0,2.706479733302601e-175,-0.9171159901194947,0.0,7.617796652133726e-174,-0.17170354748685668,0.0,70.0,255.0,1.0,2.0
94,4.7,-1.5000000000000038,-8.448950554332035e-177,-2.251098390552838,0.0,6.890726012234008e-175,-0.9256809516685749,0.0,7.455915833135183e-174,-0.17105492036257886,0.0,70.0,255.0,1.0,2.0
95,4.75,-1.5000000000000038,3.667038634934045e-176,-2.297596132220255,0.0,1.0162395566437785e-174,-0.9342214821557526,0.0,2.6961465011131865e-174,-0.1708115701538837,0.0,70.0,255.0,1.0,2.0
96,4.800000000000001,-1.5000000000000038,9.317500511004583e-176,-2.344520538768413,0.0,9.586872513347194e-175,-0.9427621086839633,0.0,-7.448930997640419e-174,-0.17103851541162562,0.0,70.0,255.0,1.0,2.0
97,4.8500000000000005,-1.5000000000000038,1.325391114828124e-175,-2.3918723430886515,0.0,2.7134645687973654e-175,-0.9513253336969152,0.0,-1.968759238768798e-173,-0.17156596146876701,0.0,70.0,255.0,1.0,2.0
98,4.9,-1.5000000000000038,1.2030965079801948e-175,-2.4396530721381047,0.0,-1.0100719874340789e-174,-0.95991870483084,0.0,-2.8430004147491192e-173,-0.17208713330703063,0.0,70.0,255.0,1.0,2.0
99,4.95,-1.5000000000000038,3.1531912739404498e-176,-2.4878642135717355,0.0,-2.5716539578693826e-174,-0.9685340470276183,0.0,-2.7825856706217745e-173,-0.17229354915220263,0.0,70.0,255.0,1.0,2.0
100,5.0,-1.5000000000000038,-1.3685574498891877e-175,-2.5365064768408665,0.0,-3.792657658055854e-174,-0.9771480597460602,0.0,-1.006215572680346e-173,-0.17188431390158243,0.0,70.0,255.0,1.0,2.0
101,5.050000000000001,-1.5000000000000038,-3.4773385306618093e-175,-2.5855790195463415,0.0,-3.5778695305497286e-174,-0.9857224784177765,0.0,2.779978894526881e-173,-0.17071933954335705,0.0,70.0,255.0,1.0,2.0
102,5.1000000000000005,-1.5000000000000038,-4.946426980438916e-175,-2.635078724682644,0.0,-1.0126787635289727e-174,-0.9942199937003959,0.0,7.347509506955781e-173,-0.16898814703507625,0.0,70.0,255.0,1.0,2.0
103,5.15,-1.5000000000000038,-4.490017294190782e-175,-2.685001018916381,0.0,3.769639976406053e-174,-1.0026212931212841,0.0,1.0610221993783097e-172,-0.16706064655775954,0.0,70.0,255.0,1.0,2.0
104,5.2,-1.5000000000000038,-1.1767870040328633e-175,-2.7353408539947726,0.0,9.597543230254124e-174,-1.0109260583561719,0.0,1.0384751099173588e-172,-0.1653164308139221,0.0,70.0,255.0,1.0,2.0
105,5.25,-1.5000000000000038,5.107525936063344e-175,-2.7860936247519983,0.0,1.4154391075579642e-173,-1.0191529362026763,0.0,3.7552476406100665e-173,-0.16412315559146684,0.0,70.0,255.0,1.0,2.0
106,5.300000000000001,-1.5000000000000038,1.297760407154678e-174,-2.83725614761504,0.0,1.335279087086419e-173,-1.0273383739153186,0.0,-1.0375022478343493e-172,-0.1636706998414006,0.0,70.0,255.0,1.0,2.0
107,5.3500000000000005,-1.5000000000000038,1.8460316806927535e-174,-2.88882746214353,0.0,3.779368597236149e-174,-1.0355200061868164,0.0,-2.7421278789054326e-172,-0.16383063454048497,0.0,70.0,255.0,1.0,2.0
108,5.4,-1.5000000000000038,1.6756972668782928e-174,-2.940808148233722,0.0,-1.4068487918190136e-173,-1.043721437369367,0.0,-3.959788756038325e-172,-0.1643210963129249,0.0,70.0,255.0,1.0,2.0
109,5.45,-1.5000000000000038,4.391828888737401e-175,-2.993199605880467,0.0,-3.581851896314711e-173,-1.0519521158181089,0.0,-3.875641872607256e-172,-0.16485415416540583,0.0,70.0,255.0,1.0,2.0
110,5.5,-1.5000000000000038,-1.9061546294364183e-174,-3.0460033598155327,0.0,-5.2824906644262696e-173,-1.0602068527859076,0.0,-1.4014774989759925e-172,-0.16515108238062126,0.0,70.0,255.0,1.0,2.0
111,5.550000000000001,-1.5000000000000038,-4.843307775552529e-174,-3.0992202911590576,0.0,-4.983329395290703e-173,-1.068467224056171,0.0,3.872011101884705e-172,-0.1650523133053916,0.0,70.0,255.0,1.0,2.0
112,5.6000000000000005,-1.5000000000000038,-6.889484024727122e-174,-3.15285008222115,0.0,-1.4104795625415642e-173,-1.0767120841164468,0.0,1.0233760564926152e-171,-0.1645765875300409,0.0,70.0,255.0,1.0,2.0
113,5.65,-1.5000000000000038,-6.253787338094094e-174,-3.2068914995707023,0.0,5.25043116963545e-173,-1.084924882809175,0.0,1.4778132824774993e-171,-0.16380601714165444,0.0,70.0,255.0,1.0,2.0
114,5.7,-1.5000000000000038,-1.6390528550916714e-174,-3.2613425705020673,0.0,1.336765326223343e-172,-1.0930926858306123,0.0,1.4464092380511661e-171,-0.16282126487929816,0.0,70.0,255.0,1.0,2.0
115,5.75,-1.5000000000000038,7.113865924139341e-174,-3.3162007681537635,0.0,1.9714523550147112e-172,-1.101207009297105,0.0,5.230385231842959e-172,-0.16170850556229688,0.0,70.0,255.0,1.0,2.0
116,5.800000000000001,-1.5000000000000038,1.807547069505544e-173,-3.371463271431778,0.0,1.859803849407639e-172,-1.109263536386842,0.0,-1.445054215970447e-171,-0.16053179518857874,0.0,70.0,255.0,1.0,2.0
117,5.8500000000000005,-1.5000000000000038,2.5711904418215732e-173,-3.4271271217924477,0.0,5.263981390442641e-173,-1.1172601888159628,0.0,-3.8192914380799165e-171,-0.15934292209922596,0.0,70.0,255.0,1.0,2.0
118,5.9,-1.5000000000000038,2.333945208549808e-173,-3.483189290313374,0.0,-1.9594875886722772e-172,-1.1251978285967645,0.0,-5.515274254306165e-171,-0.15821744584259,0.0,70.0,255.0,1.0,2.0
119,5.95,-1.5000000000000038,6.117028531492957e-174,-3.539646904652124,0.0,-4.988876115261902e-172,-1.1330819334002218,0.0,-5.39807276494394e-171,-0.15724596114226053,0.0,70.0,255.0,1.0,2.0
120,6.0,-1.5000000000000038,-2.6549309067120943e-173,-3.5964974836533963,0.0,-7.357560353616218e-172,-1.1409224247109906,0.0,-1.9520063428395829e-171,-0.15651093266666471,0.0,70.0,255.0,1.0,2.0
121,6.050000000000001,-1.5000000000000038,-6.745857500466924e-173,-3.6537391471232232,0.0,-6.940882458101485e-172,-1.1487330266668883,0.0,5.393015753693319e-171,-0.15604773204782596,0.0,70.0,255.0,1.0,2.0
122,6.1000000000000005,-1.5000000000000038,-9.59581336481358e-173,-3.711370786320085,0.0,-1.9645445999228995e-172,-1.1565271979157732,0.0,1.4253789695827046e-170,-0.15580724854857841,0.0,70.0,255.0,1.0,2.0
123,6.15,-1.5000000000000038,-8.710402100389823e-173,-3.7693918669148005,0.0,7.312907237725563e-172,-1.164313751521746,0.0,2.0583283734747162e-170,-0.15568783585138135,0.0,70.0,255.0,1.0,2.0
124,6.2,-1.5000000000000038,-2.2829061270880152e-173,-3.8278021614722597,0.0,1.8618739134824265e-171,-1.1720959815009113,0.0,2.01458818217246e-170,-0.15557540337183262,0.0,70.0,255.0,1.0,2.0
125,6.25,-1.5000000000000038,9.908337034434443e-173,-3.8866014650648917,0.0,2.7458789059450163e-171,-1.1798712918589294,0.0,7.284986848174039e-171,-0.1553597451230626,0.0,70.0,255.0,1.0,2.0
126,6.300000000000001,-1.5000000000000038,2.5175882932362152e-172,-3.9457892906581526,0.0,2.5903725982998304e-171,-1.1876319560132176,0.0,-2.0127008798802832e-170,-0.15497778944100205,0.0,70.0,255.0,1.0,2.0
127,6.3500000000000005,-1.5000000000000038,3.581206301743275e-172,-4.005364660666213,0.0,7.331780260647328e-172,-1.1953690708030296,0.0,-5.31958673452283e-170,-0.15443172007043593,0.0,70.0,255.0,1.0,2.0
128,6.4,-1.5000000000000038,3.250766319300948e-172,-4.065326197738456,0.0,-2.729214136222999e-171,-1.2030751280202612,0.0,-7.681786068468246e-170,-0.15374673522736693,0.0,70.0,255.0,1.0,2.0
129,6.45,-1.5000000000000038,8.51992165520276e-173,-4.12567217346824,0.0,-6.9486080424035135e-171,-1.2107437443257663,0.0,-7.51854545219544e-170,-0.1529462249036051,0.0,70.0,255.0,1.0,2.0
130,6.5,-1.5000000000000038,-3.697841723102566e-172,-4.186400572171032,0.0,-1.024775958841844e-170,-1.2183697505106217,0.0,-2.718794104985659e-170,-0.15204206819285915,0.0,70.0,255.0,1.0,2.0
131,6.550000000000001,-1.5000000000000038,-9.395767422898164e-172,-4.247509148519302,0.0,-9.667402147389172e-171,-1.2259479511450522,0.0,7.511501944151796e-170,-0.15105388408134246,0.0,70.0,255.0,1.0,2.0
132,6.6000000000000005,-1.5000000000000038,-1.3365243870491738e-171,-4.3089953672855374,0.0,-2.736257644266643e-171,-1.233475138918756,0.0,1.9852967968508606e-169,-0.1500649387691233,0.0,70.0,255.0,1.0,2.0
133,6.65,-1.5000000000000038,-1.2132025067164807e-171,-4.370856662411177,0.0,1.0185565821119436e-170,-1.2409544450219645,0.0,2.866881590039828e-169,-0.1492069948011654,0.0,70.0,255.0,1.0,2.0
134,6.7,-1.5000000000000038,-3.1796780493723014e-172,-4.433090811787734,0.0,2.5932558256131635e-170,-1.2483958383988725,0.0,2.8059593626609314e-169,-0.14861247090571794,0.0,70.0,255.0,1.0,2.0
135,6.75,-1.5000000000000038,1.3800533188966827e-171,-4.495696246251065,0.0,3.8245159447728754e-170,-1.2558156921125363,0.0,1.0146677735125228e-169,-0.14841995413306108,0.0,70.0,255.0,1.0,2.0
136,6.800000000000001,-1.5000000000000038,3.5065481398356455e-171,-4.5586723809989875,0.0,3.607923599125686e-170,-1.2632378338121786,0.0,-2.8033306896726917e-169,-0.14868098658862294,0.0,70.0,255.0,1.0,2.0
137,6.8500000000000005,-1.5000000000000038,4.987976918022369e-171,-4.622020029632282,0.0,1.0211852551001839e-170,-1.2706837907713986,0.0,-7.409228513951162e-169,-0.14922498172982301,0.0,70.0,255.0,1.0,2.0
138,6.9,-1.5000000000000038,4.527733394935829e-171,-4.685740760076127,0.0,-3.801304914825475e-170,-1.2781603319851609,0.0,-1.0699347753312483e-168,-0.1497471503699721,0.0,70.0,255.0,1.0,2.0
139,6.95,-1.5000000000000038,1.1866720031968941e-171,-4.7498360628307985,0.0,-9.678162498212301e-170,-1.2856585058083958,0.0,-1.0471982905424182e-168,-0.1499383436875057,0.0,70.0,255.0,1.0,2.0
140,7.0,-1.5000000000000038,-5.150429103276473e-171,-4.814306610656967,0.0,-1.4273287820249656e-169,-1.2931541663539114,0.0,-3.7867916835515194e-169,-0.14949415257055065,0.0,70.0,255.0,1.0,2.0
141,7.050000000000001,-1.5000000000000038,-1.3086615817052762e-170,-4.87915147946619,0.0,-1.346495418176382e-169,-1.3006079210654509,0.0,1.0462172564275581e-168,-0.14827457049682025,0.0,70.0,255.0,1.0,2.0
142,7.1000000000000005,-1.5000000000000038,-1.8615383285040297e-170,-4.944367402763512,0.0,-3.811115255974075e-170,-1.3079816234035935,0.0,2.765161725895377e-168,-0.14648408536075408,0.0,70.0,255.0,1.0,2.0
143,7.15,-1.5000000000000038,-1.6897731073026837e-170,-5.009949641806549,0.0,1.418666307718995e-169,-1.3152563296015263,0.0,3.9930509423210115e-168,-0.14451713099195018,0.0,70.0,255.0,1.0,2.0
144,7.2,-1.5000000000000038,-4.428720207850346e-171,-5.075893035723665,0.0,3.6119394167236043e-169,-1.3224333365027885,0.0,3.9081972259035804e-168,-0.14277970212948077,0.0,70.0,255.0,1.0,2.0
145,7.25,-1.5000000000000038,1.922166309420921e-170,-5.142192975456828,0.0,5.326863533622576e-169,-1.3295342998144744,0.0,1.4132498960693584e-168,-0.14167541693614893,0.0,70.0,255.0,1.0,2.0
146,7.300000000000001,-1.5000000000000038,4.883991512837541e-170,-5.208846465705112,0.0,5.025189312792963e-169,-1.3366008781964034,0.0,-3.904535956742966e-168,-0.14140730485063813,0.0,70.0,255.0,1.0,2.0
147,7.3500000000000005,-1.5000000000000038,6.947355622213883e-170,-5.275853063276468,0.0,1.4223275768796097e-169,-1.3436750302995382,0.0,-1.0319724052186397e-167,-0.1417878609768941,0.0,70.0,255.0,1.0,2.0
148,7.4,-1.5000000000000038,6.306319089717151e-170,-5.343213968735066,0.0,-5.294534739393435e-169,-1.3507796642940928,0.0,-1.4902268993952794e-167,-0.14243514151406345,0.0,70.0,255.0,1.0,2.0
149,7.45,-1.5000000000000038,1.6528208828204485e-170,-5.4109310297058775,0.0,-1.3479941417073185e-168,-1.3579185444509445,0.0,-1.4585590613071895e-167,-0.14296298765446025,0.0,70.0,255.0,1.0,2.0
150,7.5,-1.5000000000000038,-7.173622327356035e-170,-5.47900582318016,0.0,-1.988012535246533e-168,-1.3650759630595388,0.0,-5.274320415922278e-168,-0.14298422630369956,0.0,70.0,255.0,1.0,2.0
151,7.550000000000001,-1.5000000000000038,-1.8227304469644882e-169,-5.547438626011831,0.0,-1.8754261832995463e-168,-1.3722169670813145,0.0,1.4571926570544292e-167,-0.14229686278133258,0.0,70.0,255.0,1.0,2.0
152,7.6000000000000005,-1.5000000000000038,-2.59278841603515e-169,-5.616227519888292,0.0,-5.308198781921038e-169,-1.379305649337672,0.0,3.8513734482850206e-167,-0.1410535150213832,0.0,70.0,255.0,1.0,2.0
153,7.65,-1.5000000000000038,-2.353550325156592e-169,-5.685369190945599,0.0,1.9759472649854749e-168,-1.3863223185834528,0.0,5.561602503349018e-167,-0.13957241950208754,0.0,70.0,255.0,1.0,2.0
154,7.7,-1.5000000000000038,-6.16841151049675e-170,-5.754859751746637,0.0,5.030782625156915e-168,-1.3932628912878808,0.0,5.443416522638402e-167,-0.13816872021266136,0.0,70.0,255.0,1.0,2.0
155,7.75,-1.5000000000000038,2.6772323000003225e-169,-5.824695480074387,0.0,7.419363787623877e-168,-1.400139190604719,0.0,1.9684031767619516e-167,-0.1371636219046124,0.0,70.0,255.0,1.0,2.0
156,7.800000000000001,-1.5000000000000038,6.802522636574201e-169,-5.894873670807109,0.0,6.999185801918866e-168,-1.406979253478342,0.0,-5.4383170325434216e-167,-0.13672459134355108,0.0,70.0,255.0,1.0,2.0
157,7.8500000000000005,-1.5000000000000038,9.676418101919189e-169,-5.965393405422221,0.0,1.981046755080455e-168,-1.413811649739074,0.0,-1.43735213879214e-166,-0.13671173861107278,0.0,70.0,255.0,1.0,2.0
158,7.9,-1.5000000000000038,8.783569391654656e-169,-6.036254835781016,0.0,-7.374335586002534e-168,-1.4206504273394494,0.0,-2.075618311400074e-166,-0.13684235996498373,0.0,70.0,255.0,1.0,2.0
159,7.95,-1.5000000000000038,2.3020825159166545e-169,-6.107458448156166,0.0,-1.8775136358920287e-167,-1.4274958857355724,0.0,-2.0315107029246337e-166,-0.13684175853505565,0.0,70.0,255.0,1.0,2.0
160,8.0,-1.5000000000000038,-9.991566967265634e-169,-6.179004424354574,0.0,-2.768944261524887e-167,-1.434334603192955,0.0,-7.34618066545557e-167,-0.13642935134550171,0.0,70.0,255.0,1.0,2.0
161,8.05,-1.5000000000000038,-2.5387360099332218e-168,-6.250891908475461,0.0,-2.6121317024375857e-167,-1.4411388208701226,0.0,2.029607547311918e-166,-0.13546491170499664,0.0,70.0,255.0,1.0,2.0
162,8.1,-1.5000000000000038,-3.611288399164149e-168,-6.323118306441586,0.0,-7.3933671421296925e-168,-1.4478810943634546,0.0,5.3642712103400536e-166,-0.13410493845960048,0.0,70.0,255.0,1.0,2.0
163,8.15,-1.5000000000000038,-3.278072724146191e-168,-6.395680017911807,0.0,2.752139507902468e-167,-1.4545493147160826,0.0,7.746312995265392e-166,-0.13265273271185762,0.0,70.0,255.0,1.0,2.0
164,8.200000000000001,-1.5000000000000038,-8.591488912616813e-169,-6.468573237913194,0.0,7.006976281052423e-167,-1.4611463676346403,0.0,7.581701159434691e-166,-0.13140410578786899,0.0,70.0,255.0,1.0,2.0
165,8.25,-1.5000000000000038,3.7289035569062324e-168,-6.541794654675271,0.0,1.033384066733716e-166,-1.4676897252948695,0.0,2.741631948506027e-166,-0.13065090744524,0.0,70.0,255.0,1.0,2.0
166,8.3,-1.5000000000000038,9.474691776075479e-168,-6.615342210442681,0.0,9.74860822955845e-167,-1.4742114583791643,0.0,-7.574598485993337e-166,-0.13053613479634407,0.0,70.0,255.0,1.0,2.0
167,8.35,-1.5000000000000038,1.3477511786464684e-167,-6.689215800513187,0.0,2.7592421813438225e-167,-1.480743338774504,0.0,-2.001973270256807e-165,-0.13090132806325983,0.0,70.0,255.0,1.0,2.0
168,8.4,-1.5000000000000038,1.2233933957419301e-167,-6.7634165443201315,0.0,-1.027112447300962e-166,-1.4873015911854903,0.0,-2.890963366966149e-165,-0.13143304951368506,0.0,70.0,255.0,1.0,2.0
169,8.450000000000001,-1.5000000000000038,3.206387313455064e-168,-6.837945959631736,0.0,-2.6150391488317665e-166,-1.4938866437258724,0.0,-2.8295293934814124e-165,-0.13181575770815357,0.0,70.0,255.0,1.0,2.0
170,8.5,-1.5000000000000038,-1.3916457530898367e-167,-6.912805208692719,0.0,-3.8566418407823746e-166,-1.5004831669563057,0.0,-1.0231909727478551e-165,-0.13173904684569138,0.0,70.0,255.0,1.0,2.0
171,8.55,-1.5000000000000038,-3.5360031094368685e-167,-6.987994276327367,0.0,-3.6382301215796216e-166,-1.5070605484104416,0.0,2.826878639666141e-165,-0.1310439756824877,0.0,70.0,255.0,1.0,2.0
172,8.6,-1.5000000000000038,-5.029875874669458e-167,-7.063511263533763,0.0,-1.0297632011162336e-166,-1.5135875645245545,0.0,7.471465959993221e-165,-0.12985786117551967,0.0,70.0,255.0,1.0,2.0
173,8.65,-1.5000000000000038,-4.565766310553102e-167,-7.139353032779822,0.0,3.8332358384135995e-166,-1.5200463345279935,0.0,1.0789222168338057e-164,-0.12844695734557376,0.0,70.0,255.0,1.0,2.0
174,8.700000000000001,-1.5000000000000038,-1.196640036255858e-167,-7.215515896986562,0.0,9.759458967221824e-166,-1.5264322602591118,0.0,1.0559947457982176e-164,-0.1270794368060102,0.0,70.0,255.0,1.0,2.0
175,8.75,-1.5000000000000038,5.193692656668721e-167,-7.291996258805733,0.0,1.4393183296395777e-165,-1.5327542782085946,0.0,3.818600696140811e-165,-0.12602087719990607,0.0,70.0,255.0,1.0,2.0
176,8.8,-1.5000000000000038,1.3196543260139921e-166,-7.368791324807422,0.0,1.3578059663362635e-165,-1.5390343479791024,0.0,-1.0550054710065226e-164,-0.1254140230797951,0.0,70.0,255.0,1.0,2.0
177,8.85,-1.5000000000000038,1.8771752320031356e-166,-7.445899693603644,0.0,3.8431285863305516e-166,-1.545295680516574,0.0,-2.788389056971607e-164,-0.12518088690773865,0.0,70.0,255.0,1.0,2.0
178,8.9,-1.5000000000000038,1.7039671846470473e-166,-7.523320892859079,0.0,-1.4305830906353436e-165,-1.5515524366698763,0.0,-4.026592530638607e-164,-0.12514630059108356,0.0,70.0,255.0,1.0,2.0
179,8.950000000000001,-1.5000000000000038,4.46592141367792e-167,-7.601054937270631,0.0,-3.642279672005552e-165,-1.5578103105756824,0.0,-3.941026043844731e-164,-0.12513940882152852,0.0,70.0,255.0,1.0,2.0
180,9.0,-1.5000000000000038,-1.9383124873585052e-166,-7.679101923916647,0.0,-5.371609134480075e-165,-1.5640663775520292,0.0,-1.4251211811815407e-164,-0.1249934816513587,0.0,70.0,255.0,1.0,2.0
181,9.05,-1.5000000000000038,-4.925016993112283e-166,-7.757461575025834,0.0,-5.067400853187093e-165,-1.5703096587408183,0.0,3.93733402005948e-164,-0.12461387139168778,0.0,70.0,255.0,1.0,2.0
182,9.1,-1.5000000000000038,-7.005713340545598e-166,-7.836132889790729,0.0,-1.434275114420595e-165,-1.576527764691198,0.0,1.0406409631887108e-163,-0.12402222755634185,0.0,70.0,255.0,1.0,2.0
183,9.15,-1.5000000000000038,-6.359292107532878e-166,-7.915114351494954,0.0,5.339008778700016e-165,-1.5827118814964525,0.0,1.502744790572062e-163,-0.12328336476610247,0.0,70.0,255.0,1.0,2.0
184,9.200000000000001,-1.5000000000000038,-1.6667045618455823e-166,-7.994404077940374,0.0,1.3593172791300025e-164,-1.5888561011678082,0.0,1.47081094295807e-163,-0.12245672744253255,0.0,70.0,255.0,1.0,2.0
185,9.25,-1.5000000000000038,7.233880683767146e-166,-8.073999961611735,0.0,2.004711820828072e-164,-1.5949575542407057,0.0,5.318624655112206e-164,-0.12159717754665067,0.0,70.0,255.0,1.0,2.0
186,9.3,-1.5000000000000038,1.8380413646435136e-165,-8.153899833364445,0.0,1.891179744641223e-164,-1.6010158189224732,0.0,-1.469433060923142e-163,-0.12074326524542656,0.0,70.0,255.0,1.0,2.0
187,9.35,-1.5000000000000038,2.614567813017938e-165,-8.234101543503982,0.0,5.3527875990493e-165,-1.6070318807652484,0.0,-3.883724947057723e-163,-0.11992927046549084,0.0,70.0,255.0,1.0,2.0
188,9.4,-1.5000000000000038,2.3733201245484436e-165,-8.31460302144097,0.0,-1.9925452024165e-164,-1.6130087459690223,0.0,-5.608319909224407e-163,-0.11920201190704915,0.0,70.0,255.0,1.0,2.0
189,9.450000000000001,-1.5000000000000038,6.220226106014373e-166,-8.395402418100884,0.0,-5.073041149319477e-164,-1.6189520819559533,0.0,-5.489141167447794e-163,-0.11861316858858828,0.0,70.0,255.0,1.0,2.0
190,9.5,-1.5000000000000038,-2.699721024771034e-165,-8.476498229636565,0.0,-7.481686369864294e-164,-1.6248700628278812,0.0,-1.9849377439267126e-163,-0.11821780816152483,0.0,70.0,255.0,1.0,2.0
191,9.55,-1.5000000000000038,-6.859663759262857e-165,-8.557889424383673,0.0,-7.05797889324619e-164,-1.6307738627721058,0.0,5.4839988416866305e-163,-0.1180335804463084,0.0,70.0,255.0,1.0,2.0
192,9.600000000000001,-1.5000000000000038,-9.757699918017223e-165,-8.639575615913776,0.0,-1.997687528177663e-164,-1.636673420872512,0.0,1.4494258825042186e-162,-0.1179789190199898,0.0,70.0,255.0,1.0,2.0
193,9.65,-1.5000000000000038,-8.85735128744052e-165,-8.721556766470924,0.0,7.436279931795998e-164,-1.6425717546741048,0.0,2.0930534846325576e-162,-0.11790952000794164,0.0,70.0,255.0,1.0,2.0
194,9.700000000000001,-1.5000000000000038,-2.3214199862212257e-165,-8.803832791381186,0.0,1.8932847318147916e-163,-1.6484643728733062,0.0,2.0485753726833124e-162,-0.11767782431064688,0.0,70.0,255.0,1.0,2.0
195,9.75,-1.5000000000000038,1.0075496030707395e-164,-8.886403203758254,0.0,2.7922033658629123e-163,-1.6543395371051695,0.0,7.407888510195647e-163,-0.11713960845369797,0.0,70.0,255.0,1.0,2.0
196,9.8,-1.5000000000000038,2.56006136724079e-164,-8.969266745091703,0.0,2.6340735828343563e-163,-1.660178333718676,0.0,-2.0466562305823395e-162,-0.11622861343489888,0.0,70.0,255.0,1.0,2.0
197,9.850000000000001,-1.5000000000000038,3.6416231859050956e-164,-9.052421037130122,0.0,7.45547135280573e-164,-1.6659623984486593,0.0,-5.409331035311106e-162,-0.11503952897911063,0.0,70.0,255.0,1.0,2.0
198,9.9,-1.5000000000000038,3.305608502521363e-164,-9.13586298493657,0.0,-2.77525745247675e-163,-1.671682286616587,0.0,-7.811381947607789e-162,-0.11375627169858404,0.0,70.0,255.0,1.0,2.0
199,9.950000000000001,-1.5000000000000038,8.663657334283454e-165,-9.21958926579178,0.0,-7.065834812327216e-163,-1.6773380256185177,0.0,-7.645387373988468e-162,-0.11256830806214424,0.0,70.0,255.0,1.0,2.0
200,10.0,-1.5000000000000038,-3.760226309805854e-164,-9.303596787498421,0.0,-1.0420644826465218e-162,-1.6829391174228014,0.0,-2.7646616296855856e-162,-0.11165974869946638,0.0,70.0,255.0,1.0,2.0
201,10.05,-1.5000000000000038,-9.554279093036872e-164,-9.38788317753406,0.0,-9.830496442012802e-163,-1.6885040004884644,0.0,7.638225038160695e-162,-0.11112525252752192,0.0,70.0,255.0,1.0,2.0
202,10.100000000000001,-1.5000000000000038,-1.3590722751818656e-163,-9.472447187547267,0.0,-2.782419788304524e-163,-1.6940516426755536,0.0,2.0187898258740203e-161,-0.11089755713591387,0.0,70.0,255.0,1.0,2.0
203,10.15,-1.5000000000000038,-1.2336698881341397e-163,-9.557288341801616,0.0,1.0357401816727402e-162,-1.6995937562020558,0.0,2.91524743057986e-161,-0.11083080112346266,0.0,70.0,255.0,1.0,2.0
204,10.200000000000001,-1.5000000000000038,-3.2333209350912534e-164,-9.642406563167473,0.0,2.637005451749408e-162,-1.7051347227879,0.0,2.8532974123270558e-161,-0.1107756567289897,0.0,70.0,255.0,1.0,2.0
205,10.25,-1.5000000000000038,1.4033355636152684e-163,-9.727801814080406,0.0,3.889037593999796e-162,-1.7106713218749547,0.0,1.0317857667722772e-161,-0.11058540607198353,0.0,70.0,255.0,1.0,2.0
206,10.3,-1.5000000000000038,3.565705500490671e-163,-9.813473695354968,0.0,3.668791218521685e-162,-1.7161932633950983,0.0,-2.850624392206044e-161,-0.11017760256315512,0.0,70.0,255.0,1.0,2.0
207,10.350000000000001,-1.5000000000000038,5.072126782136954e-163,-9.899421140419916,0.0,1.0384132017937517e-162,-1.7216890821312703,0.0,-7.53422619996497e-161,-0.10957387884023007,0.0,70.0,255.0,1.0,2.0
208,10.4,-1.5000000000000038,4.6041187022844225e-163,-9.985642603568095,0.0,-3.8654349814432865e-162,-1.7271506512791213,0.0,-1.0879851527558664e-160,-0.10883604828304527,0.0,70.0,255.0,1.0,2.0
209,10.450000000000001,-1.5000000000000038,1.2066918006936673e-163,-10.072136205547828,0.0,-9.841438325764912e-162,-1.7325726869595748,0.0,-1.0648650911909378e-160,-0.1080228645561121,0.0,70.0,255.0,1.0,2.0
210,10.5,-1.5000000000000038,-5.237319623480489e-163,-10.158899872264053,0.0,-1.4514085893352665e-161,-1.7379529377347325,0.0,-3.850676904120551e-161,-0.10719060836450467,0.0,70.0,255.0,1.0,2.0
211,10.55,-1.5000000000000038,-1.3307394092658998e-162,-10.245931499321301,0.0,-1.3692115229885463e-161,-1.7432917477960252,0.0,1.0638675065008108e-160,-0.10637711111307624,0.0,70.0,255.0,1.0,2.0
212,10.600000000000001,-1.5000000000000038,-1.8929434853365953e-162,-10.333229047043655,0.0,-3.8754108283445566e-162,-1.74859064884604,0.0,2.8118114973985864e-160,-0.10560599510114344,0.0,70.0,255.0,1.0,2.0
213,10.65,-1.5000000000000038,-1.7182804921003554e-162,-10.420790564205905,0.0,1.4425999744100403e-161,-1.7538523473061396,0.0,4.060415867965478e-160,-0.10490677730583542,0.0,70.0,255.0,1.0,2.0
214,10.700000000000001,-1.5000000000000038,-4.5034351092655496e-163,-10.50861428177427,0.0,3.672874785131023e-161,-1.7590813265766236,0.0,3.9741306235310445e-160,-0.10431237222672252,0.0,70.0,255.0,1.0,2.0
215,10.75,-1.5000000000000038,1.9545942930306677e-162,-10.596698696863568,0.0,5.416730597941085e-161,-1.7642835845288118,0.0,1.437092184970992e-160,-0.10385216047055223,0.0,70.0,255.0,1.0,2.0
216,10.8,-1.5000000000000038,4.966387087014531e-162,-10.68504264022715,0.0,5.109966970102015e-161,-1.7694665426236789,0.0,-3.9704075867826387e-160,-0.10353446580442238,0.0,70.0,255.0,1.0,2.0
217,10.850000000000001,-1.5000000000000038,7.064561263132683e-162,-10.773645351125936,0.0,1.446323011158446e-161,-1.774637031109254,0.0,-1.0493823369597846e-159,-0.10332036919216137,0.0,70.0,255.0,1.0,2.0
218,10.9,-1.5000000000000038,6.412710098172977e-162,-10.862506343338076,0.0,-5.3838563994958315e-161,-1.779798579542895,0.0,-1.5153678319106048e-159,-0.10313777489532328,0.0,70.0,255.0,1.0,2.0
219,10.950000000000001,-1.5000000000000038,1.6807048636368517e-162,-10.951625209080225,0.0,-1.3707355307947601e-160,-1.7849508085987864,0.0,-1.4831657402933245e-159,-0.10290815935807274,0.0,70.0,255.0,1.0,2.0
220,11.0,-1.5000000000000038,-7.294645209774625e-162,-11.041001424197955,0.0,-2.0215513802429077e-160,-1.7900893954787023,0.0,-5.36330104947192e-160,-0.102556740428561,0.0,70.0,255.0,1.0,2.0
221,11.05,-1.5000000000000038,-1.853480893879223e-161,-11.130634148628095,0.0,-1.9070656357419522e-160,-1.7952064826416425,0.0,1.4817762840629746e-159,-0.10204502567052742,0.0,70.0,255.0,1.0,2.0
222,11.100000000000001,-1.5000000000000038,-2.6365301567194147e-161,-11.220522072462119,0.0,-5.3977509617993285e-161,-1.800293898045755,0.0,3.916348198099281e-159,-0.1013952320935374,0.0,70.0,255.0,1.0,2.0
223,11.15,-1.5000000000000038,-2.3932559900591557e-161,-11.31066353843267,0.0,2.0092825623573294e-160,-1.8053460058509962,0.0,5.65542974084587e-159,-0.10065941914891852,0.0,70.0,255.0,1.0,2.0
224,11.200000000000001,-1.5000000000000038,-6.272475943620855e-162,-11.401056673047218,0.0,5.1156546446659377e-160,-1.8103598399606469,0.0,5.535249898820191e-159,-0.09989499034137594,0.0,70.0,255.0,1.0,2.0
225,11.25,-1.5000000000000038,2.722398654606782e-161,-11.491699522428735,0.0,7.544532461177521e-160,-1.8153355048851338,0.0,2.001611201291667e-159,-0.09916488713859195,0.0,70.0,255.0,1.0,2.0
226,11.3,-1.5000000000000038,6.917284866815437e-161,-11.582590223535732,0.0,7.117265845957605e-160,-1.820276328674506,0.0,-5.530064377573634e-159,-0.09850491869265454,0.0,70.0,255.0,1.0,2.0
227,11.350000000000001,-1.5000000000000038,9.839664500564387e-161,-11.673727155296186,0.0,2.014468083603887e-160,-1.8251859967543993,0.0,-1.4616010455437337e-158,-0.09789777003348377,0.0,70.0,255.0,1.0,2.0
228,11.4,-1.5000000000000038,8.931752950419324e-161,-11.765108823211172,0.0,-7.498744609479731e-160,-1.8300661056778544,0.0,-2.1106351131472874e-158,-0.09730632007070028,0.0,70.0,255.0,1.0,2.0
229,11.450000000000001,-1.5000000000000038,2.3409198910846557e-161,-11.856733765863972,0.0,-1.909188304786899e-159,-1.8349166287614693,0.0,-2.0657833854987447e-158,-0.09669807974361788,0.0,70.0,255.0,1.0,2.0
230,11.5,-1.5000000000000038,-1.0160130097449667e-160,-11.948600486087319,0.0,-2.815657846446718e-159,-1.8397359136522162,0.0,-7.470114700219486e-159,-0.09603573898857576,0.0,70.0,255.0,1.0,2.0
231,11.55,-1.5000000000000038,-2.5815658573382525e-160,-12.040707357229193,0.0,-2.6561997748088476e-159,-1.844520202660327,0.0,2.0638481226231562e-158,-0.09530201284402295,0.0,70.0,255.0,1.0,2.0
232,11.600000000000001,-1.5000000000000038,-3.6722127845538144e-160,-12.133052506353351,0.0,-7.518097238235611e-160,-1.8492661149366185,0.0,5.4547693623650086e-158,-0.09453368777290194,0.0,70.0,255.0,1.0,2.0
233,11.65,-1.5000000000000038,-3.333375581161814e-160,-12.225633968722855,0.0,2.798569587556161e-159,-1.853973571437617,0.0,7.876997478504563e-158,-0.0937953005697878,0.0,70.0,255.0,1.0,2.0
234,11.700000000000001,-1.5000000000000038,-8.736431969976533e-161,-12.318449863497113,0.0,7.125187754681002e-159,-1.8586456449935973,0.0,7.709608552112958e-158,-0.09314597739802366,0.0,70.0,255.0,1.0,2.0
235,11.75,-1.5000000000000038,3.791812173519189e-160,-12.411498533222215,0.0,1.050817813966912e-158,-1.8632881691774195,0.0,2.7878847599586194e-158,-0.09264012893392959,0.0,70.0,255.0,1.0,2.0
236,11.8,-1.5000000000000038,9.634534942671466e-160,-12.504778680414855,0.0,9.913072514639621e-159,-1.8679096578869903,0.0,-7.702386052735263e-158,-0.09230082946292129,0.0,70.0,255.0,1.0,2.0
237,11.850000000000001,-1.5000000000000038,1.3704884688158811e-159,-12.598289499010914,0.0,2.8057920869338553e-159,-1.8725182521237116,0.0,-2.035747640391628e-157,-0.0920857073136716,0.0,70.0,255.0,1.0,2.0
238,11.9,-1.5000000000000038,1.2440327029605321e-159,-12.692030505627226,0.0,-1.0444403889276659e-158,-1.8771182286183574,0.0,-2.939735480087095e-157,-0.09191341005436726,0.0,70.0,255.0,1.0,2.0
239,11.950000000000001,-1.5000000000000038,3.260480798882152e-160,-12.78600132187275,0.0,-2.65915627139371e-158,-1.8817095931291483,0.0,-2.8772650822953093e-157,-0.09169852348360763,0.0,70.0,255.0,1.0,2.0
240,12.0,-1.5000000000000038,-1.415123568433178e-159,-12.880201464940141,0.0,-3.921705471222975e-158,-1.8862880809667182,0.0,-1.0404527569812555e-157,-0.09135973594887048,0.0,70.0,255.0,1.0,2.0
241,12.05,-1.5000000000000038,-3.5956573913347603e-159,-12.974630129969421,0.0,-3.6996090283749655e-158,-1.8908455667240354,0.0,2.874569608831787e-157,-0.09085466930542907,0.0,70.0,255.0,1.0,2.0
242,12.100000000000001,-1.5000000000000038,-5.114732596808144e-159,-13.069286021612545,0.0,-1.0471358623911877e-158,-1.895373547897261,0.0,7.597513625330015e-157,-0.090206186937003,0.0,70.0,255.0,1.0,2.0
243,12.15,-1.5000000000000038,-4.642793253725948e-159,-13.164167484759147,0.0,3.897904596955049e-158,-1.8998661854177357,0.0,1.0971242172497929e-156,-0.08946835525041053,0.0,70.0,255.0,1.0,2.0
244,12.200000000000001,-1.5000000000000038,-1.2168279998530947e-159,-13.259272640154318,0.0,9.924106310106741e-158,-1.9043203834223021,0.0,1.0738099473969938e-156,-0.08869992866635812,0.0,70.0,255.0,1.0,2.0
245,12.25,-1.5000000000000038,5.281313056380794e-159,-13.354599523101378,0.0,1.4636004070924988e-157,-1.9087361782843715,0.0,3.883022551929163e-157,-0.08796493659346538,0.0,70.0,255.0,1.0,2.0
246,12.3,-1.5000000000000038,1.3419176071071896e-158,-13.450146257982755,0.0,1.3807128862035904e-157,-1.9131168770816487,0.0,-1.0728039830053625e-156,-0.08729998049581411,0.0,70.0,255.0,1.0,2.0
247,12.350000000000001,-1.5000000000000038,1.90884419184167e-158,-13.545911210809543,0.0,3.907964240871363e-158,-1.9174661763339529,0.0,-2.835430686092844e-156,-0.08668861253813276,0.0,70.0,255.0,1.0,2.0
248,12.4,-1.5000000000000038,1.732714031194326e-158,-13.64189287561615,0.0,-1.4547177998892535e-157,-1.921785738335462,0.0,-4.0945233209904624e-156,-0.08609494050517696,0.0,70.0,255.0,1.0,2.0
249,12.450000000000001,-1.5000000000000038,4.5412639195241655e-159,-13.738089784643089,0.0,-3.703726896903326e-157,-1.9260756703844706,0.0,-4.007513281358445e-156,-0.08548796231639955,0.0,70.0,255.0,1.0,2.0
250,12.5,-1.5000000000000038,-1.9710128657090002e-158,-13.834500442654598,0.0,-5.462231081247699e-157,-1.930334534567102,0.0,-1.4491637450735382e-156,-0.08483254564879417,0.0,70.0,255.0,1.0,2.0
251,12.55,-1.5000000000000038,-5.008104689295282e-158,-13.931123238099799,0.0,-5.152890641976864e-157,-1.93455892494935,0.0,4.0037589711382734e-156,-0.08411212199916918,0.0,70.0,255.0,1.0,2.0
252,12.600000000000001,-1.5000000000000038,-7.123903507685864e-158,-14.027956335149533,0.0,-1.4584721101094256e-157,-1.9387457467670188,0.0,1.0581971381838372e-155,-0.08335936291050672,0.0,70.0,255.0,1.0,2.0
253,12.65,-1.5000000000000038,-6.466576799404708e-158,-14.1249978127765,0.0,5.4290807398615096e-157,-1.9428948612404007,0.0,1.5280969066712051e-155,-0.08263188272881195,0.0,70.0,255.0,1.0,2.0
254,12.700000000000001,-1.5000000000000038,-1.6948227678243544e-158,-14.222245821273573,0.0,1.3822496956602628e-156,-1.9470089350399,0.0,1.495624317803678e-155,-0.0819815087812259,0.0,70.0,255.0,1.0,2.0
255,12.75,-1.5000000000000038,7.355920157197921e-158,-14.31969870628049,0.0,2.038532391789829e-156,-1.9510930121185233,0.0,5.40835272510123e-156,-0.08145285283838177,0.0,70.0,255.0,1.0,2.0
256,12.8,-1.5000000000000038,1.8690501150073937e-157,-14.417355122485425,0.0,1.9230849681703858e-156,-1.9551542203237382,0.0,-1.4942231901547721e-155,-0.08106533104292879,0.0,70.0,255.0,1.0,2.0
257,12.850000000000001,-1.5000000000000038,2.658676983890178e-157,-14.515214128312865,0.0,5.443092016350568e-157,-1.9591995452228161,0.0,-3.949245484126062e-155,-0.08079216425844749,0.0,70.0,255.0,1.0,2.0
258,12.9,-1.5000000000000038,2.4133593166424505e-157,-14.613275077007707,0.0,-2.0261605159556772e-156,-1.963233436749583,0.0,-5.7029352945857755e-155,-0.08057846097919708,0.0,70.0,255.0,1.0,2.0
259,12.950000000000001,-1.5000000000000038,6.325164679345006e-158,-14.711537471987823,0.0,-5.158626092950719e-156,-1.9672573913207358,0.0,-5.58174594307887e-155,-0.08036651537821626,0.0,70.0,255.0,1.0,2.0
260,13.0,-1.5000000000000038,-2.745266776308269e-157,-14.81000081613978,0.0,-7.607906459034548e-156,-1.9712700882874046,0.0,-2.0184247155331402e-155,-0.08011203367441766,0.0,70.0,255.0,1.0,2.0
261,13.05,-1.5000000000000038,-6.975389991100048e-157,-14.908664480816563,0.0,-7.177050808483859e-156,-1.9752685946881776,0.0,5.576516863505265e-155,-0.07978655382974154,0.0,70.0,255.0,1.0,2.0
262,13.100000000000001,-1.5000000000000038,-9.922317584792128e-157,-15.007527675608598,0.0,-2.0313895955292828e-156,-1.9792487436703787,0.0,1.4738784798320419e-154,-0.07935468401818468,0.0,70.0,255.0,1.0,2.0
263,13.15,-1.5000000000000038,-9.006779586629331e-157,-15.106589355183601,0.0,7.561733989836561e-156,-1.983204063089996,0.0,2.1283644271671892e-154,-0.07877156939333219,0.0,70.0,255.0,1.0,2.0
264,13.200000000000001,-1.5000000000000038,-2.3605835949555665e-157,-15.205848081917598,0.0,1.9252254676142612e-155,-1.987125900609712,0.0,2.0831359454511802e-154,-0.07799914299209121,0.0,70.0,255.0,1.0,2.0
265,13.25,-1.5000000000000038,1.0245475089513283e-156,-15.305301945244572,0.0,2.839309344434836e-155,-1.9910039773892052,0.0,7.53286358962244e-155,-0.07699504975935412,0.0,70.0,255.0,1.0,2.0
266,13.3,-1.5000000000000038,2.6032509849392797e-156,-15.404948479656518,0.0,2.6785118265765053e-155,-1.9948254055856474,0.0,-2.0811844263866277e-154,-0.07575414128382363,0.0,70.0,255.0,1.0,2.0
267,13.350000000000001,-1.5000000000000038,3.7030593355278334e-156,-15.504784485803137,0.0,7.581249180482081e-156,-1.9985793915175876,0.0,-5.500589370915561e-154,-0.07438993882846745,0.0,70.0,255.0,1.0,2.0
268,13.4,-1.5000000000000038,3.361375902987488e-156,-15.604806418808277,0.0,-2.8220775443390553e-155,-2.002264399468494,0.0,-7.94316417921018e-154,-0.07309610061003724,0.0,70.0,255.0,1.0,2.0
269,13.450000000000001,-1.5000000000000038,8.809817911887778e-157,-15.705010925749987,0.0,-7.185039261161973e-155,-2.0058890015785913,0.0,-7.774369187496835e-154,-0.0720691737265966,0.0,70.0,255.0,1.0,2.0
270,13.5,-1.5000000000000038,-3.8236633581744855e-156,-15.805395318966136,0.0,-1.059644673183589e-154,-2.0094713168411538,0.0,-2.8113029642956594e-154,-0.07149974863800423,0.0,70.0,255.0,1.0,2.0
271,13.55,-1.5000000000000038,-9.715464940647115e-156,-15.905958057434102,0.0,-9.996342225457633e-155,-2.0130389764423917,0.0,7.767086019195986e-154,-0.07147119338934971,0.0,70.0,255.0,1.0,2.0
272,13.600000000000001,-1.5000000000000038,-1.382000558363212e-155,-16.006699216610375,0.0,-2.829360712639904e-155,-2.0166184361800887,0.0,2.05284790038302e-153,-0.0718393135811013,0.0,70.0,255.0,1.0,2.0
273,13.65,-1.5000000000000038,-1.2544825653287019e-155,-16.10761990105211,0.0,1.0532136778372568e-154,-2.020222907800502,0.0,2.9644292289673536e-153,-0.07232859693075966,0.0,70.0,255.0,1.0,2.0
274,13.700000000000001,-1.5000000000000038,-3.2878688052595505e-156,-16.208721507390425,0.0,2.6814931577033632e-154,-2.0238512958731647,0.0,2.901434080453615e-153,-0.07265190103034058,0.0,70.0,255.0,0.9999999999999999,2.0
275,13.75,-1.5000000000000038,1.4270105923746613e-155,-16.310005030639427,0.0,3.954647758290872e-154,-2.027488097903536,0.0,1.0491925498220384e-153,-0.07252595568694176,0.0,70.0,255.0,1.0,2.0
276,13.8,-1.5000000000000038,3.625860877764917e-155,-16.41147031718078,0.0,3.7306857075254017e-154,-2.031103891441859,0.0,-2.8987159650397317e-153,-0.07180779844517815,0.0,70.0,255.0,1.0,2.0
277,13.850000000000001,-1.5000000000000038,5.157696299900063e-155,-16.513115419783613,0.0,1.0559317932511405e-154,-2.0346688777480537,0.0,-7.661332664440521e-153,-0.07062091873706322,0.0,70.0,255.0,0.9999999999999998,2.0
278,13.9,-1.5000000000000038,4.6817926710160575e-155,-16.614937204955584,0.0,-3.93064695691512e-154,-2.038165983315565,0.0,-1.1063400497948394e-152,-0.06922139978051689,0.0,70.0,255.0,0.9999999999999999,2.0
279,13.950000000000001,-1.5000000000000038,1.227049342984943e-155,-16.71693201811517,0.0,-1.0007468704697253e-153,-2.0415910177261054,0.0,-1.0828299403064778e-152,-0.0678697955777352,0.0,70.0,255.0,0.9999999999999999,2.0
280,14.0,-1.5000000000000038,-5.325676033681196e-155,-16.819096306728195,0.0,-1.47589463599799e-153,-2.0449529628733387,0.0,-3.915639902858594e-153,-0.06682440063876527,0.0,70.0,255.0,1.0,2.0
281,14.05,-1.5000000000000038,-1.3531897016994955e-154,-16.921427314402504,0.0,-1.3923108607555847e-153,-2.048273457789982,0.0,1.0818155258239323e-152,-0.06622367343602775,0.0,70.0,255.0,1.0000000000000002,2.0
282,14.100000000000001,-1.5000000000000038,-1.9248784641237045e-154,-17.023923652507193,0.0,-3.9407911017405746e-154,-2.0515753302169415,0.0,2.859248275737907e-152,-0.06599067114727575,0.0,70.0,255.0,1.0000000000000004,2.0
283,14.15,-1.5000000000000038,-1.747268811873553e-154,-17.126584847424198,0.0,1.4669374149823226e-153,-2.0548725249047095,0.0,4.1289172762826225e-152,-0.06595298343690104,0.0,70.0,255.0,1.0000000000000004,2.0
284,14.200000000000001,-1.5000000000000038,-4.579410491413817e-155,-17.229410904997664,0.0,3.7348381661085654e-153,-2.0581706285606316,0.0,4.041176353180548e-152,-0.06594183041030988,0.0,70.0,255.0,1.0000000000000002,2.0
285,14.25,-1.5000000000000038,1.9875693542350127e-154,-17.33240191028026,0.0,5.508113768162872e-153,-2.0614667079457405,0.0,1.4613367061612322e-152,-0.0657924790498754,0.0,70.0,255.0,1.0,2.0
286,14.3,-1.5000000000000038,5.05017271902149e-154,-17.435557575792238,0.0,5.196174872269798e-153,-2.064749876465619,0.0,-4.037390506791755e-152,-0.06541144720593195,0.0,70.0,255.0,0.9999999999999992,2.0
287,14.350000000000001,-1.5000000000000038,7.183744226504811e-154,-17.538876897926823,0.0,1.4707232613711167e-153,-2.0680078526663337,0.0,-1.0670859836507576e-151,-0.0648200330388704,0.0,70.0,255.0,0.9999999999999983,2.0
288,14.4,-1.5000000000000038,6.520895980392607e-154,-17.64235836105887,0.0,-5.474684964237779e-153,-2.071231879769506,0.0,-1.540932905533565e-151,-0.06408219094780065,0.0,70.0,255.0,0.9999999999999979,2.0
289,14.450000000000001,-1.5000000000000038,1.7090592622670326e-154,-17.746000085903773,0.0,-1.3938605793964533e-152,-2.0744160717611138,0.0,-1.5081875472415717e-151,-0.06325668231674797,0.0,70.0,255.0,0.9999999999999982,2.0
290,14.5,-1.5000000000000038,-7.417709813571929e-154,-17.849799968234983,0.0,-2.0556560436653496e-152,-2.077557548001181,0.0,-5.453782834359076e-152,-0.06239766451088258,0.0,70.0,255.0,1.0,2.0
291,14.55,-1.5000000000000038,-1.8847501174386467e-153,-17.95375584070389,0.0,-1.939238862832361e-152,-2.080655838212202,0.0,1.5067746501343091e-151,-0.06154331163266136,0.0,70.0,255.0,1.000000000000003,2.0
292,14.600000000000001,-1.5000000000000038,-2.681009844189554e-153,-18.057865552056203,0.0,-5.488813935310404e-153,-2.083711879164447,0.0,3.98241910702924e-151,-0.060728264297793544,0.0,70.0,255.0,1.000000000000006,2.0
293,14.65,-1.5000000000000038,-2.433631510969687e-153,-18.162127028620336,0.0,2.043180244196879e-152,-2.0867286646419814,0.0,5.7508398945059986e-151,-0.060000024333461965,0.0,70.0,255.0,1.0000000000000075,2.0
294,14.700000000000001,-1.5000000000000038,-6.378295999926749e-154,-18.2665384185204,0.0,5.201958500974958e-152,-2.0897118815977933,0.0,5.6286325536482345e-151,-0.05941092750383348,0.0,70.0,255.00000000000003,1.0000000000000062,2.0
295,14.75,-1.5000000000000038,2.768326990005271e-153,-18.371098216780116,0.0,7.671812797845114e-152,-2.0926697573923647,0.0,2.0353794631275075e-151,-0.05901686290599173,0.0,70.0,255.0,1.0,2.0
296,14.8,-1.5000000000000038,7.033983197852439e-153,-18.475805394259638,0.0,7.237337964102466e-152,-2.0956135678883925,0.0,-5.623359549858065e-151,-0.05883581908250335,0.0,70.0,255.0,0.9999999999999888,2.0
297,14.850000000000001,-1.5000000000000038,1.0005664954107737e-152,-18.580659573568955,0.0,2.0484532479870484e-152,-2.098553339300615,0.0,-1.4862590444466208e-150,-0.058785138207895216,0.0,70.0,255.00000000000003,0.9999999999999771,2.0
298,14.9,-1.5000000000000038,9.082436445839488e-153,-18.6856607281897,0.0,-7.6252524803637425e-152,-2.101492081709182,0.0,-2.146242667249043e-150,-0.05871864411801653,0.0,70.0,255.00000000000003,0.9999999999999711,1.9999999999999998
299,14.950000000000001,-1.5000000000000038,2.3804124737439947e-153,-18.790808781739873,0.0,-1.941397342450338e-151,-2.1044252037124167,0.0,-2.1006342667351356e-150,-0.05848683377571717,0.0,70.0,255.00000000000003,0.9999999999999767,1.9999999999999998
300,15.0,-1.5000000000000038,-1.0331536978663891e-152,-18.89610324856094,0.0,-2.8631595147715097e-151,-2.1073407650867537,0.0,-7.596139569074111e-151,-0.05794290251586176,0.0,70.0,255.0,1.0,2.0
301,15.05,-1.5000000000000038,-2.6251182673971103e-152,-19.00154285824855,0.0,-2.7010112993577493e-151,-2.110219493964003,0.0,2.098666354929794e-150,-0.05701961250395016,0.0,70.0,254.99999999999997,1.000000000000042,2.0
302,15.100000000000001,-1.5000000000000038,-3.7341649972241386e-152,-19.10712519795734,0.0,-7.644931598417155e-152,-2.1130427263371487,0.0,5.546794267083558e-150,-0.05581565839385405,0.0,70.0,254.99999999999991,1.0000000000000857,2.000000000000001
303,15.15,-1.5000000000000038,-3.389611427238826e-152,-19.212847130882263,0.0,2.845782967725809e-151,-2.1158010598033883,0.0,8.00988667954557e-150,-0.05452176283000654,0.0,70.0,254.9999999999999,1.0000000000001077,2.0000000000000004
304,15.200000000000001,-1.5000000000000038,-8.883820294983296e-153,-19.31870530393768,0.0,7.245393519703855e-151,-2.1184949026201494,0.0,7.839673811575717e-150,-0.05333451128564093,0.0,70.0,254.99999999999991,1.0000000000000868,2.0000000000000004
305,15.25,-1.5000000000000038,3.85578209246503e-152,-19.424696621144278,0.0,1.0685456779301526e-150,-2.1211345109319524,0.0,2.834917881316894e-150,-0.05244751770732137,0.0,70.0,255.0,1.0,2.0
306,15.3,-1.5000000000000038,9.797074749803198e-152,-19.530818755030875,0.0,1.008031140102075e-150,-2.1237396543908815,0.0,-7.832329464733364e-150,-0.05195901761645416,0.0,70.0,255.00000000000017,0.9999999999998427,1.9999999999999991
307,15.350000000000001,-1.5000000000000038,1.3936093493485779e-151,-19.637070586583366,0.0,2.8531273145681612e-151,-2.126330412693598,0.0,-2.0700918023887603e-149,-0.05178682029089998,0.0,70.0,255.0000000000003,0.9999999999996807,1.9999999999999984
308,15.4,-1.5000000000000038,1.2650202064371359e-151,-19.743451796300235,0.0,-1.0620606622866857e-150,-2.1289183364199715,0.0,-2.9893304050933243e-149,-0.051759712486187937,0.0,70.0,255.0000000000004,0.9999999999995972,1.9999999999999978
309,15.450000000000001,-1.5000000000000038,3.3154868706189225e-152,-19.849962420225364,0.0,-2.704017673636508e-150,-2.1315063839422166,0.0,-2.9258060979567738e-149,-0.05170183436931097,0.0,70.0,255.0000000000003,0.9999999999996759,1.9999999999999984
310,15.5,-1.5000000000000038,-1.4389974671993727e-151,-19.956602434694457,0.0,-3.98786676024346e-150,-2.1340885198569026,0.0,-1.0580057568360168e-149,-0.051431035979376816,0.0,70.0,255.0,1.0,2.0
311,15.55,-1.5000000000000038,-3.656318073181568e-151,-20.063371272211054,0.0,-3.762023430472525e-150,-2.1366494875401543,0.0,2.923065150400368e-149,-0.0508515431352663,0.0,70.0,254.99999999999943,1.0000000000005869,2.0000000000000027
312,15.600000000000001,-1.5000000000000038,-5.201020897671898e-151,-20.170267383448472,0.0,-1.0648016098430915e-150,-2.1391736741704293,0.0,7.725687782846685e-149,-0.05004069680509815,0.0,70.0,254.99999999999883,1.0000000000011917,2.0000000000000058
313,15.65,-1.5000000000000038,-4.72111968302466e-151,-20.277288639628097,0.0,3.96366435237416e-150,-2.141653557220664,0.0,1.1156332952418736e-148,-0.0491549117025869,0.0,70.0,254.99999999999852,1.0000000000015028,2.0000000000000075
314,15.700000000000001,-1.5000000000000038,-1.2373565452977373e-151,-20.38443273917054,0.0,1.0091531342575645e-149,-2.144089165340688,0.0,1.0919257010669527e-148,-0.048345237484070935,0.0,70.0,254.99999999999883,1.0000000000012093,2.000000000000006
315,15.75,-1.5000000000000038,5.370411659550987e-151,-20.491697556162165,0.0,1.4882921363043688e-149,-2.146488080969071,0.0,3.948531239212379e-149,-0.047768291756256076,0.0,70.0,255.0,1.0,2.0
316,15.8,-1.5000000000000038,1.364556481774595e-150,-20.599081547267446,0.0,1.4040062581788025e-149,-2.1488659945163135,0.0,-1.0909027655128128e-148,-0.047501383270898145,0.0,70.0,255.00000000000213,0.9999999999978091,1.999999999999989
317,15.850000000000001,-1.5000000000000038,1.941047424133901e-150,-20.706584155613797,0.0,3.9738937079155594e-150,-2.151238219296161,0.0,-2.883265932899786e-148,-0.04744768852198433,0.0,70.0,255.00000000000432,0.9999999999955524,1.9999999999999778
318,15.9,-1.5000000000000038,1.761945852566151e-150,-20.81420536919706,0.0,-1.4792596747209834e-149,-2.153610763368512,0.0,-4.1636001404581684e-148,-0.04742334466527609,0.0,70.0,255.00000000000546,0.9999999999943913,1.9999999999999718
319,15.950000000000001,-1.5000000000000038,4.617877494129176e-151,-20.921945231950648,0.0,-3.7662107696666133e-149,-2.1559805537626886,0.0,-4.075122194472176e-148,-0.04725064226995812,0.0,70.0,255.00000000000438,0.9999999999954867,1.9999999999999774
320,16.0,-1.5000000000000038,-2.0042649171004624e-150,-21.02980342457333,0.0,-5.55438186919316e-149,-2.158335827595508,0.0,-1.4736119200013679e-148,-0.046755843615642334,0.0,70.0,255.0,1.0,2.0
321,16.05,-1.5000000000000038,-5.092594119780242e-150,-21.1377788147102,0.0,-5.239822689667981e-149,-2.160656138124253,0.0,4.071304547011229e-148,-0.0458558375356688,0.0,70.0,254.99999999999207,1.0000000000081763,2.0000000000000413
322,16.1,-1.5000000000000038,-7.244087606768444e-150,-21.245869038385756,0.0,-1.4830773221819305e-149,-2.1629214113490747,0.0,1.0760494953314498e-147,-0.04465302463003695,0.0,70.0,254.99999999998388,1.0000000000165983,2.000000000000083
323,16.150000000000002,-1.5000000000000038,-6.575671441962172e-150,-21.354070955845106,0.0,5.520672263646517e-149,-2.1651214405872565,0.0,1.553876726659082e-147,-0.043348073271332055,0.0,70.0,254.99999999997962,1.000000000020932,2.0000000000001052
324,16.2,-1.5000000000000038,-1.7234153431219266e-150,-21.46238118244448,0.0,1.4055689944408889e-148,-2.167256218676208,0.0,1.520856307682175e-147,-0.04214496732970474,0.0,70.0,254.9999999999836,1.0000000000168436,2.0000000000000844
325,16.25,-1.5000000000000038,7.480018502446717e-150,-21.570796577712727,0.0,2.0729235340468266e-148,-2.169335937320227,0.0,5.499594556084233e-148,-0.04124432445422599,0.0,70.0,255.0,1.0,2.0
326,16.3,-1.5000000000000038,1.9005819997346343e-149,-21.679314776176504,0.0,1.9555284500493122e-148,-2.1713806511216305,0.0,-1.5194315422532086e-147,-0.040748553300318235,0.0,70.0,255.00000000002967,0.999999999969485,1.999999999999847
327,16.35,-1.5000000000000038,2.703530300293984e-149,-21.78793464282489,0.0,5.534919917936178e-149,-2.173410792650259,0.0,-4.0158713880358163e-147,-0.04057480503547595,0.0,70.0,255.00000000006025,0.9999999999380542,1.9999999999996894
328,16.400000000000002,-1.5000000000000038,2.454073991528252e-149,-21.89665585544153,0.0,-2.060342937986504e-148,-2.175438131625178,0.0,-5.799146892590511e-147,-0.04054977017418082,0.0,70.0,255.00000000007597,0.9999999999218809,1.9999999999996083
329,16.45,-1.5000000000000038,6.431873623074802e-150,-22.005478455987408,0.0,-5.245654900796893e-148,-2.177465769667677,0.0,-5.675913011281488e-147,-0.04049620169652712,0.0,70.0,255.0000000000611,0.9999999999371384,1.9999999999996847
330,16.5,-1.5000000000000038,-2.791580909268641e-149,-22.114402432408298,0.0,-7.736255949267993e-148,-2.179487751794831,0.0,-2.0524766304335592e-147,-0.04023086789075592,0.0,70.0,255.0,1.0,2.0
331,16.55,-1.5000000000000038,-7.093068586960513e-149,-22.22342723116689,0.0,-7.298131531230453e-148,-2.1814888564567525,0.0,5.670595714311714e-147,-0.03965717537184332,0.0,70.0,254.99999999988924,1.0000000001138836,2.0000000000005707
332,16.6,-1.5000000000000038,-1.0089712440499095e-148,-22.332551318053973,0.0,-2.065660234956279e-148,-2.183453469332015,0.0,1.4987436056811823e-146,-0.038851391593297535,0.0,70.0,254.99999999977516,1.000000000231185,2.000000000001159
333,16.650000000000002,-1.5000000000000038,-9.158728821916792e-149,-22.441772578100093,0.0,7.68930452558137e-148,-2.1853739956160823,0.0,2.1642710843702967e-146,-0.03796837050877855,0.0,70.0,254.99999999971644,1.0000000002915446,2.0000000000014615
334,16.7,-1.5000000000000038,-2.400407914917724e-149,-22.55108871761558,0.0,1.9577050608746687e-147,-2.187250306382893,0.0,2.118279573744377e-146,-0.03715731213134177,0.0,70.0,254.9999999997718,1.0000000002346028,2.0000000000011764
335,16.75,-1.5000000000000038,1.0418321786829893e-148,-22.660497608738382,0.0,2.887210026302514e-147,-2.1890897268292164,0.0,7.659947066125806e-147,-0.03657215735977104,0.0,70.0,255.0,1.0,2.0
336,16.8,-1.5000000000000038,2.647169234810742e-148,-22.769997690298503,0.0,2.7236997674872493e-147,-2.19090752211887,0.0,-2.116295131499365e-146,-0.03628931863666196,0.0,70.0,255.0000000004134,0.9999999995749809,1.9999999999978695
337,16.85,-1.5000000000000038,3.765531946170239e-148,-22.87958836095027,0.0,7.70914894803149e-148,-2.1927186586928826,0.0,-5.5933872839211465e-146,-0.03621692463120496,0.0,70.0,255.00000000083915,0.9999999991372062,1.9999999999956746
338,16.900000000000002,-1.5000000000000038,3.418084129613891e-148,-22.98926955616779,0.0,-2.869687516433897e-147,-2.1945292145819906,0.0,-8.077169648222132e-146,-0.03617945175626858,0.0,70.0,255.00000000105825,0.999999998911941,1.9999999999945455
339,16.95,-1.5000000000000038,8.958444297363422e-149,-23.099041282408468,0.0,-7.306254753418984e-147,-2.1963366038685095,0.0,-7.905526993849358e-146,-0.03600797635030517,0.0,70.0,255.00000000085157,0.9999999991244507,1.9999999999956108
340,17.0,-1.5000000000000038,-3.888170623805093e-148,-23.208903216554642,0.0,-1.0775214510283255e-146,-2.198130012217021,0.0,-2.8587311634069647e-146,-0.035540549290757895,0.0,70.0,255.0,1.0,2.0
341,17.05,-1.5000000000000038,-9.879370080546915e-148,-23.31885428363017,0.0,-1.0164985916825949e-146,-2.1998906587975853,0.0,7.898120954566283e-146,-0.034698463832683046,0.0,70.0,254.99999999845727,1.0000000015861932,2.000000000007952
342,17.1,-1.5000000000000038,-1.4053156540631044e-147,-23.4288922824344,0.0,-2.8770935557169715e-147,-2.2015998586002894,0.0,2.0874805530003396e-145,-0.033565385403022674,0.0,70.0,254.9999999968682,1.0000000032199907,2.0000000000161418
343,17.150000000000002,-1.5000000000000038,-1.2756463636263886e-147,-23.5390142694902,0.0,1.0709819613177448e-146,-2.2032471973378875,0.0,3.014440750851824e-145,-0.03231018610421188,0.0,70.0,254.99999999605055,1.0000000040606913,2.0000000000203566
344,17.2,-1.5000000000000038,-3.343336927453596e-148,-23.64921700216819,0.0,2.726731395280127e-146,-2.2048308772107106,0.0,2.9503828401653058e-145,-0.031103556364442397,0.0,70.0,254.99999999682188,1.0000000032675946,2.0000000000163807
345,17.25,-1.5000000000000038,1.4510850316537385e-147,-23.75949735721127,0.0,4.021364801483051e-146,-2.206357552974332,0.0,1.0668929947015289e-145,-0.03010163615542183,0.0,70.0,255.0,1.0,2.0
346,17.3,-1.5000000000000038,3.687031108737691e-147,-23.869852757465623,0.0,3.793624389981656e-146,-2.2078410408262528,0.0,-2.947618868676578e-145,-0.02939011274065706,0.0,70.0,255.00000000575758,0.9999999940802463,1.999999999970324
347,17.35,-1.5000000000000038,5.244709421635394e-147,-23.980281461293895,0.0,1.0737459328064727e-146,-2.2092965642483975,0.0,-7.790583483609245e-145,-0.02895612582918261,0.0,70.0,255.00000001168797,0.9999999879828319,1.999999999939757
348,17.400000000000002,-1.5000000000000038,4.760777041544164e-147,-24.090782413890462,0.0,-3.9969590936275896e-146,-2.210736653409171,0.0,-1.1250046038585081e-144,-0.028745211755776268,0.0,70.0,255.00000001473958,0.999999984845294,1.999999999924028
349,17.45,-1.5000000000000038,1.2477503280078043e-147,-24.201355126634812,0.0,-1.0176300105778608e-145,-2.212171085423975,0.0,-1.1010978661276289e-144,-0.028697798192567348,0.0,70.0,255.0000000118608,0.9999999878051709,1.9999999999388665
350,17.5,-1.5000000000000038,-5.415523064234444e-147,-24.31199952243286,0.0,-1.5007937754903878e-145,-2.2136064332284278,0.0,-3.981698862465422e-145,-0.028764887438015307,0.0,70.0,255.0,1.0,2.0
351,17.55,-1.5000000000000038,-1.3760187426896074e-146,-24.422715769957655,0.0,-1.415799896824403e-145,-2.2150475741677766,0.0,1.1000663379249677e-144,-0.028902110841855233,0.0,70.0,254.99999997851234,1.0000000220928214,2.000000000110753
352,17.6,-1.5000000000000038,-1.9573522032478474e-146,-24.533504279849637,0.0,-4.007274375654201e-146,-2.2164966443126133,0.0,2.9074853381436646e-144,-0.029011976083026525,0.0,70.0,254.99999995637984,1.0000000448486823,2.0000000002248304
353,17.650000000000002,-1.5000000000000038,-1.7767461802550276e-146,-24.644365434388916,0.0,1.4916854413192616e-145,-2.2179487717760793,0.0,4.198574340348851e-144,-0.028945423754223043,0.0,70.0,254.99999994499112,1.0000000565581328,2.0000000002835305
354,17.7,-1.5000000000000038,-4.656667619285858e-147,-24.755299157027245,0.0,3.7978469027834306e-145,-2.2193911866880356,0.0,4.109353180493984e-144,-0.02855298979405063,0.0,70.0,254.99999995573492,1.0000000455117222,2.0000000002281535
355,17.75,-1.5000000000000038,2.0211007225284036e-146,-24.86630455305772,0.0,5.601038621813245e-145,-2.2208040707554844,0.0,1.485990245516016e-144,-0.027690842060223986,0.0,70.0,255.0,1.0,2.0
356,17.8,-1.5000000000000038,5.13537185988466e-146,-24.977379564102794,0.0,5.283837148299447e-145,-2.222160270894058,0.0,-4.105503464832212e-144,-0.026306618714144747,0.0,70.0,255.00000008019302,0.9999999175484684,1.9999999995866637
357,17.85,-1.5000000000000038,7.304937870827851e-146,-25.088520580147126,0.0,1.4955351569810334e-145,-2.223434732626899,0.0,-1.0850883004213736e-143,-0.024561284526214422,0.0,70.0,255.00000016279276,0.9999998326224386,1.999999999160923
358,17.900000000000002,-1.5000000000000038,6.6309070168656935e-146,-25.199723037365484,0.0,-5.5670458559142885e-145,-2.2246163993466794,0.0,-1.5669292757536897e-143,-0.02275029602536449,0.0,70.0,255.000000205296,0.9999997889221748,1.9999999989418502
359,17.95,-1.5000000000000038,1.737892014913562e-146,-25.310982220081794,0.0,-1.4173757600555863e-144,-2.2257097622294353,0.0,-1.5336314855848305e-143,-0.021181990884144852,0.0,70.0,255.00000016519945,0.9999998301479406,1.9999999991485182
360,18.0,-1.5000000000000038,-7.54285058369017e-146,-25.422294013588427,0.0,-2.0903360711762593e-144,-2.226734598435094,0.0,-5.545791095817512e-144,-0.020151744322305376,0.0,70.0,255.0,1.0,2.0
361,18.05,-1.5000000000000038,-1.9165468696849034e-145,-25.533655679925303,0.0,-1.9719548696373376e-144,-2.227724936661666,0.0,1.5321947521403886e-143,-0.019805213835510926,0.0,70.0,254.99999970071556,1.0000003077133053,2.0000000015425914
362,18.1,-1.5000000000000038,-2.7262399280063548e-145,-25.645066507254594,0.0,-5.581413190358705e-145,-2.228715119818645,0.0,4.0496046678711254e-143,-0.02001300236109671,0.0,70.0,254.99999939244915,1.0000006246615627,2.0000000031314777
363,18.150000000000002,-1.5000000000000038,-2.474688188720774e-145,-25.756527191907168,0.0,2.0776497982337882e-144,-2.2297262368977755,0.0,5.847859668979872e-143,-0.02050243643161309,0.0,70.0,254.99999923382495,1.0000007877531678,2.000000003949069
364,18.2,-1.5000000000000038,-6.485901297725666e-146,-25.86803913094437,0.0,5.289718349944002e-144,-2.2307653634618063,0.0,5.723590624289926e-143,-0.020986272778245052,0.0,70.0,254.99999938346718,1.0000006338965153,2.0000000031777736
365,18.25,-1.5000000000000038,2.8150301612232278e-145,-25.97960372825335,0.0,7.801240422523715e-144,-2.2318248641756,0.0,2.0697174137754047e-143,-0.021178171326141637,0.0,70.0,255.0,1.0,2.0
366,18.3,-1.5000000000000038,7.152650292751149e-145,-26.09122161736193,0.0,7.359435763719406e-144,-2.2328831805944205,0.0,-5.718228662078334e-143,-0.02092026487012788,0.0,70.0,255.0000011169447,0.9999988515983106,1.999999994242971
367,18.35,-1.5000000000000038,1.0174465924942634e-144,-26.20289204631279,0.0,2.0830117604453805e-144,-2.233916890662613,0.0,-1.5113330371063128e-142,-0.020273978760343425,0.0,70.0,255.00000226741065,0.9999976687313097,1.9999999883131647
368,18.400000000000002,-1.5000000000000038,9.235662053196529e-145,-26.314613306428193,0.0,-7.753894607343723e-144,-2.234910578470455,0.0,-2.1824509400165803e-142,-0.019391007202429478,0.0,70.0,255.00000285940422,0.9999970600651534,1.9999999852618728
369,18.45,-1.5000000000000038,2.420571317598912e-145,-26.426383104159836,0.0,-1.9741497639720424e-143,-2.2358559913828557,0.0,-2.1360731011574874e-142,-0.018420517066175535,0.0,70.0,255.00000230093187,0.9999976342659982,1.9999999881403874
370,18.5,-1.5000000000000038,-1.0505835586523893e-144,-26.538198905566478,0.0,-2.9114625618918598e-143,-2.2367526301770724,0.0,-7.724290545519873e-143,-0.017519533071563842,0.0,70.0,255.0,1.0,2.0
371,18.55,-1.5000000000000038,-2.669405430131969e-144,-26.650058367177543,0.0,-2.7465788185240296e-143,-2.237607944690012,0.0,2.1340719896172948e-142,-0.016779274469769234,0.0,70.0,254.99999583150563,1.0000042858934521,2.000000021485525
372,18.6,-1.5000000000000038,-3.797162377176419e-144,-26.76195970003548,0.0,-7.773905722745647e-144,-2.2384305576240493,0.0,5.6403716816381406e-142,-0.016169217801476066,0.0,70.0,254.9999915379083,1.0000087004131981,2.000000043615863
373,18.650000000000002,-1.5000000000000038,-3.4467960024065334e-144,-26.873901422939948,0.0,2.893792863114111e-143,-2.2392248664701597,0.0,8.14501779316833e-142,-0.015617077885465847,0.0,70.0,254.99998932855814,1.0000109719862178,2.0000000550034396
374,18.7,-1.5000000000000038,-9.033695140623077e-145,-26.985882186682495,0.0,7.367627220893766e-143,-2.239992265412596,0.0,7.971933342200953e-142,-0.015064059882874403,0.0,70.0,254.99999141280534,1.0000088290394917,2.0000000442606765
375,18.75,-1.5000000000000038,3.9208312184872334e-144,-27.097900649481208,0.0,1.0865726205315064e-142,-2.240731272458447,0.0,2.8827444768304082e-142,-0.01444775232535278,0.0,70.0,255.0,1.0,2.0
376,18.8,-1.5000000000000038,9.962356691252758e-144,-27.20995531392834,0.0,1.0250371697724174e-142,-2.241437040645131,0.0,-7.964465092261342e-142,-0.01373606382699677,0.0,70.0,255.00001555703275,0.99998400482788,1.9999999198149303
377,18.85,-1.5000000000000038,1.4171202916211407e-143,-27.32204435354572,0.0,2.9012611130537206e-143,-2.242104878841147,0.0,-2.1050153689446437e-141,-0.012969150042252409,0.0,70.0,255.00003158095612,0.9999675296158974,1.999999837223383
378,18.900000000000002,-1.5000000000000038,1.2863617804306478e-143,-27.434165801812455,0.0,-1.0799781991722263e-142,-2.2427339556493564,0.0,-3.039762023265669e-141,-0.012220681260544097,0.0,70.0,255.00003982636315,0.9999590519899747,1.9999997947243702
379,18.95,-1.5000000000000038,3.3714209244891446e-144,-27.546317749110656,0.0,-2.7496359119602974e-142,-2.2433269469672013,0.0,-2.975166026764571e-141,-0.011556530110112817,0.0,70.0,255.00003204784676,0.9999670495760347,1.999999834816905
380,19.0,-1.5000000000000038,-1.46327413152965e-143,-27.658498496509175,0.0,-4.0551442259367975e-142,-2.2438896086603677,0.0,-1.0758548852769366e-141,-0.011037429648297348,0.0,70.0,255.0,1.0,2.0
381,19.05,-1.5000000000000038,-3.718002133487883e-143,-27.770706709976693,0.0,-3.825490797237234e-142,-2.244430689932031,0.0,2.9723788379427874e-141,-0.010690269757773763,0.0,70.0,254.99994194036336,1.0000596947950275,2.0000002992547534
382,19.1,-1.5000000000000038,-5.288764928766884e-143,-27.882941565502378,0.0,-1.0827653879940098e-142,-2.244958635636145,0.0,7.856024307614731e-141,-0.010472410471251692,0.0,70.0,254.9998821382672,1.0001211811232125,2.0000006074906054
383,19.150000000000002,-1.5000000000000038,-4.800767521481893e-143,-27.995202573540308,0.0,4.030533510377498e-142,-2.245477930979156,0.0,1.1344546313745821e-140,-0.010301129474399318,0.0,70.0,254.99985136598934,1.0001528200538832,2.00000076609908
384,19.200000000000003,-1.5000000000000038,-1.258231418389386e-143,-28.107489358600294,0.0,1.0261780925751812e-141,-2.245988748583585,0.0,1.1103470772838184e-140,-0.010090332497014742,0.0,70.0,254.99988039580765,1.0001229726563692,2.0000006164717035
385,19.25,-1.5000000000000038,5.461013404269919e-143,-28.219801448398666,0.0,1.5134004283215682e-141,-2.2464869642288576,0.0,4.0151450934247e-141,-0.00975851975404396,0.0,70.0,255.0,1.0,2.0
386,19.3,-1.5000000000000038,1.3875772864826298e-142,-28.33213805502318,0.0,1.4276926019176512e-141,-2.2469646005589894,0.0,-1.109306884254504e-140,-0.009262857141578706,0.0,70.0,255.0002166815138,0.9997772159920095,1.9999988831660551
387,19.35,-1.5000000000000038,1.973793942344643e-142,-28.444497908454565,0.0,4.040935440670642e-142,-2.2474132499430155,0.0,-2.9319081861514316e-140,-0.00862391203853008,0.0,70.0,255.00043986597515,0.9995477458912533,1.9999977328141954
388,19.400000000000002,-1.5000000000000038,1.791670830549694e-142,-28.55687938001748,0.0,-1.5042155842337804e-141,-2.2478269917628424,0.0,-4.233842323171759e-140,-0.00789209687859227,0.0,70.0,255.0005547096795,0.9994296677944925,1.9999971408793082
389,19.450000000000003,-1.5000000000000038,4.695783581108624e-143,-28.66928060763085,0.0,-3.8297487791046954e-141,-2.2482024596308747,0.0,-4.1438717064588104e-140,-0.0071221398993515095,0.0,70.0,255.0004463689226,0.9995410597984877,1.9999976992962805
390,19.5,-1.5000000000000038,-2.038077948555002e-142,-28.78169962598057,0.0,-5.648087290692591e-141,-2.2485392057527775,0.0,-1.4984725488421834e-140,-0.006372500659779234,0.0,70.0,255.0,1.0,2.0
391,19.55,-1.5000000000000038,-5.17850893258173e-142,-28.894134528206127,0.0,-5.328221327946879e-141,-2.2488397096968527,0.0,4.1399896532237357e-140,-0.005677788859159705,0.0,70.0,254.99919133358134,1.0008314412369346,2.0000041680810265
392,19.6,-1.5000000000000038,-7.366299276501882e-142,-29.006583596950254,0.0,-1.5080976374688555e-141,-2.2491069846386935,0.0,1.0942030313844247e-139,-0.005031008974043516,0.0,70.0,254.99835839783228,1.0016878353117742,2.0000084612526137
393,19.650000000000002,-1.5000000000000038,-6.686606570050585e-142,-29.119045226669996,0.0,5.61380898589737e-141,-2.249342810594257,0.0,1.5800914661312456e-139,-0.004412254570951291,0.0,70.0,254.99792979529258,1.0021285087681466,2.0000106703836864
394,19.700000000000003,-1.5000000000000038,-1.7524902906045107e-142,-29.23151787800968,0.0,1.42928170238436e-140,-2.2495482100957886,0.0,1.5465139748551428e-139,-0.00380730837044041,0.0,70.0,254.9983341285019,1.0017127881496795,2.000008586343174
395,19.75,-1.5000000000000038,7.606210453793016e-142,-29.344000047679575,0.0,2.10789487344488e-140,-2.249723541431301,0.0,5.592375686026265e-140,-0.0032035055763657283,0.0,70.0,255.0,1.0,2.0
396,19.8,-1.5000000000000038,1.932645844384429e-141,-29.45649023215281,0.0,1.9885192709869866e-140,-2.249868560653425,0.0,-1.5450651728640435e-139,-0.002592700711190332,0.0,70.0,255.0030179841608,0.9968970190602527,1.9999844445098394
397,19.85,-1.5000000000000038,2.7491403163662883e-141,-29.568986903744918,0.0,5.628297005808362e-141,-2.24998281150242,0.0,-4.083621306922556e-139,-0.001972052067600316,0.0,70.0,255.00612654269568,0.99370091286165,1.999968422175352
398,19.900000000000002,-1.5000000000000038,2.495475544965265e-141,-29.68148851330305,0.0,-2.09510203593557e-140,-2.2500657658601853,0.0,-5.896981632207806e-139,-0.0013388848369544348,0.0,70.0,255.00772610915013,0.9920562971329209,1.999960177585945
399,19.950000000000003,-1.5000000000000038,6.540382804307182e-142,-29.793993480330936,0.0,-5.33415193162697e-140,-2.2501166999861155,0.0,-5.77166872877469e-139,-0.0006886266199046531,0.0,70.0,255.0062171170697,0.9936077876027947,1.9999679553310254
400,20.0,-1.5000000000000038,-2.838676386661706e-141,-29.906500183301663,0.0,-7.86677076471026e-140,-2.2501346285221757,0.0,-2.0871030195262915e-139,-1.3477029270347884e-05,0.0,70.0,255.0,1.0,2.0
401,20.05,-1.5000000000000038,-7.212732484279542e-141,-30.019006943183154,0.0,-7.421254951153262e-140,-2.2501180476890426,0.0,5.7662617261338e-139,0.0006885917056109747,0.0,70.0,254.98873672977533,1.0115804825220545,2.0000580538796155
402,20.1,-1.5000000000000038,-1.0259931337814967e-140,-30.131511988070567,0.0,-2.10050903857646e-140,-2.2500657693516146,0.0,1.524028219630581e-138,0.001399217239850259,0.0,70.0,254.97713543138494,1.0235085132416262,2.000117850045979
403,20.150000000000002,-1.5000000000000038,-9.313241522856002e-141,-30.244013520118315,0.0,7.819027245152546e-140,-2.2499781259650575,0.0,2.200783506269998e-138,0.0020877939167718296,0.0,70.0,254.97116576810694,1.0296463027001699,2.0001486192725335
404,20.200000000000003,-1.5000000000000038,-2.4409040926624203e-141,-30.356509800667073,0.0,1.9907326024123523e-139,-2.2498569899599374,0.0,2.154016094024361e-138,0.002728528134809949,0.0,70.0,254.97679740321925,1.0238560614391419,2.0001195923327257
405,20.25,-1.5000000000000038,1.0594084501267523e-140,-30.46899921911431,0.0,2.9359188185396157e-139,-2.2497052731515765,0.0,7.789174509502528e-139,0.003309441670040769,0.0,70.0,255.0,1.0,2.0
406,20.3,-1.5000000000000038,2.6918284092733737e-140,-30.58148032798223,0.0,2.769650053362605e-139,-2.2495260457929334,0.0,-2.151998173167115e-138,0.003824534358187748,0.0,70.0,255.04203509673786,0.956781050851529,1.9997833399716969
407,20.35,-1.5000000000000038,3.829058503489357e-140,-30.693951823693602,0.0,7.839206453725005e-140,-2.2493228197157578,0.0,-5.687750747830065e-138,0.0042569546668147495,0.0,70.0,255.0853317317645,0.9122650341718459,1.9995601776407335
408,20.400000000000002,-1.5000000000000038,3.475749054645874e-140,-30.806412609953806,0.0,-2.9181006944674604e-139,-2.249100350326252,0.0,-8.213435861859214e-138,0.004586776765691525,0.0,70.0,255.10761081842222,0.8893584920663993,1.9994453453239216
409,20.450000000000003,-1.5000000000000038,9.109578090218965e-141,-30.918861858726228,0.0,-7.429515216486713e-139,-2.2488641420391886,0.0,-8.038897503219975e-138,0.0048007145455386535,0.0,70.0,255.08659327005327,0.9109679666406376,1.9995536753380732
410,20.5,-1.5000000000000038,-3.953766161840839e-140,-31.031299024157725,0.0,-1.0956998197687437e-138,-2.248620278871698,0.0,-2.9069595018483804e-138,0.0048717476484938516,0.0,70.0,255.0,1.0,2.0
411,20.55,-1.5000000000000038,-1.0046040388665541e-139,-31.143723886613397,0.0,-1.0336474718335094e-138,-2.2483769672743392,0.0,8.031366520055085e-138,0.004799471329164362,0.0,70.0,254.84312288327314,1.1612953140718298,2.0008085862335965
412,20.6,-1.5000000000000038,-1.4290240880175933e-139,-31.25613672088516,0.0,-2.925631677632351e-139,-2.2481403317387816,0.0,2.1226974771689683e-137,0.0046920316901122305,0.0,70.0,254.68153764155701,1.3274313500709904,2.0016414393910873
413,20.650000000000002,-1.5000000000000038,-1.2971672066297892e-139,-31.368537919787276,0.0,1.089050005335459e-138,-2.247907764105328,0.0,3.065295994116684e-137,0.004726870581706066,0.0,70.0,254.59839095820428,1.4129197290342326,2.00206999943178
414,20.700000000000003,-1.5000000000000038,-3.399740826821342e-140,-31.480927497295692,0.0,2.772732826353449e-138,-2.247667644680611,0.0,3.0001573918855533e-137,0.005074674291094539,0.0,70.0,254.67682951656775,1.3322720719983074,2.001665706314982
415,20.75,-1.5000000000000038,1.47556561972366e-139,-31.593304684255337,0.0,4.089207397221012e-138,-2.2474002966762185,0.0,1.084892055644327e-137,0.005899511792151202,0.0,70.0,255.0,1.0,2.0
416,20.8,-1.5000000000000038,3.749233314538878e-139,-31.705667526963314,0.0,3.857624881997776e-138,-2.247077693501396,0.0,-2.997346790705321e-137,0.007265692210012276,0.0,70.0,255.58547337016955,0.3980376928611521,1.996982315093917
417,20.85,-1.5000000000000038,5.333190501721436e-139,-31.818012453605476,0.0,1.0918606065156913e-138,-2.2466737274552173,0.0,-7.922014833892863e-137,0.009009603891030338,0.0,70.0,256.18851770200746,-0.2219904344558074,1.9938740647949167
418,20.900000000000002,-1.5000000000000038,4.84109392105457e-139,-31.930334899708836,0.0,-4.064389951895088e-138,-2.246176733112293,0.0,-1.1439840390280818e-136,0.010828538115603692,0.0,70.0,256.49882534876065,-0.54103740820333,1.9922746569489578
419,20.950000000000003,-1.5000000000000038,1.2688005498263483e-139,-32.042630126916706,0.0,-1.0347979783765128e-137,-2.245590873643657,0.0,-1.1196739817220222e-136,0.012408840034794366,0.0,70.0,256.2060886636758,-0.24005625463386737,1.9937834994019998
420,21.0,-1.5000000000000038,-5.506885862710557e-139,-32.1548939870732,0.0,-1.5261129769115308e-137,-2.2449358491088134,0.0,-4.0488722723924675e-137,0.013450205180376429,0.0,70.0,255.0,1.0,2.0
421,21.05,-1.5000000000000038,-1.399232921928896e-138,-32.26712371182759,0.0,-1.4396852056157595e-137,-2.2442458531256193,0.0,1.118625051081577e-136,0.013803960296598916,0.0,70.0,252.81498363604868,3.246553914483562,2.011262153390735
422,21.1,-1.5000000000000038,-1.9903737918868154e-138,-32.37931857238576,0.0,-4.0748792582995355e-138,-2.2435554530791535,0.0,2.9565361858402487e-136,0.013599436193345582,0.0,70.0,250.5643915504131,5.560530387752239,2.0228623014292455
423,21.150000000000002,-1.5000000000000038,-1.8067208477588496e-138,-32.4914792571355,0.0,1.5168509802244894e-137,-2.2428859095062847,0.0,4.269406556700659e-136,0.013109932667987323,0.0,70.0,249.40630764675316,6.751229903779088,2.0288313727723883
424,21.200000000000003,-1.5000000000000038,-4.7352281166232604e-139,-32.60360716333639,0.0,3.861918630870706e-137,-2.2422444598123548,0.0,4.1786801876995334e-136,0.01262273946522896,0.0,70.0,250.49881582872894,5.627952946537162,2.0232002960770195
425,21.25,-1.5000000000000038,2.0551977831118568e-138,-32.71570370311674,0.0,5.695531167924023e-137,-2.241623635559762,0.0,1.5110597033925548e-136,0.012423676813710927,0.0,70.0,255.0,1.0,2.0
426,21.3,-1.5000000000000038,5.222008356261697e-138,-32.82776952689237,0.0,5.372978334263261e-137,-2.2410020921309837,0.0,-4.1747655252557804e-136,0.012670727674901627,0.0,70.0,263.15459208563567,-7.384253350795401,1.9579690713431421
427,21.35,-1.5000000000000038,7.428176117375118e-138,-32.939803912329836,0.0,1.5207656426682424e-137,-2.2403565627922717,0.0,-1.103394325997171e-135,0.013305378600136919,0.0,70.0,271.5539160963403,-16.02013111655315,1.9146767294881009
428,21.400000000000002,-1.5000000000000038,6.74277399892994e-138,-33.051805183171595,0.0,-5.66096492570845e-137,-2.23967155427097,0.0,-1.593364218777455e-135,0.014180682258313482,0.0,70.0,275.87594406422676,-20.463882206913016,1.8923998519614897
429,21.450000000000003,-1.5000000000000038,1.7672111916666678e-138,-33.16377106775693,0.0,-1.4412876545106311e-136,-2.2389384945664403,0.0,-1.5595046769076107e-135,0.015152603040746726,0.0,70.0,271.7986480214083,-16.271755531514778,1.9134153162899212
430,21.5,-1.5000000000000038,-7.670102546176371e-138,-33.27569903262824,0.0,-2.1256011694784558e-136,-2.2381562939668953,0.0,-5.639351586330977e-136,0.01607112486468054,0.0,70.0,255.0,1.0,2.0
431,21.55,-1.5000000000000038,-1.9488800503117892e-137,-33.38758669715362,0.0,-2.005222813143729e-136,-2.2373313820799723,0.0,1.558043704994154e-135,0.016847581221668406,0.0,70.0,222.92664802140834,33.978459488698114,2.164861561236697
432,21.6,-1.5000000000000038,-2.772233067761366e-137,-33.499432170836236,0.0,-5.675574644843018e-137,-2.2364715358447285,0.0,4.11792368540466e-135,0.017500914204049423,0.0,70.0,180.09994406422538,78.02399407846093,2.382430780618354
433,21.650000000000002,-1.5000000000000038,-2.516437514796091e-137,-33.611233850738095,0.0,2.1127008722609312e-136,-2.2355812906595673,0.0,5.946516219439755e-135,0.01808379516887726,0.0,70.0,132.80991609633804,126.68029892387494,2.6175692193816626
434,21.700000000000003,-1.5000000000000038,-6.595321955004345e-138,-33.72299029990219,0.0,5.378958754955453e-136,-2.2346631563278407,0.0,5.820150688860487e-135,0.018634447442167357,0.0,70.0,87.34659208563318,173.49106917952656,2.8351384387633174
435,21.75,-1.5000000000000038,2.862521240159362e-137,-33.83470016637088,0.0,7.932851561121419e-136,-2.2337178459153506,0.0,2.104634664193134e-135,0.019187767785666665,0.0,70.0,50.0,212.0,3.0
436,21.8,-1.5000000000000038,7.273319365620985e-137,-33.94636208449373,0.0,7.483593419148587e-136,-2.232744379549274,0.0,-5.814698267451033e-135,0.019765520866599218,0.0,70.0,25.49081582872855,237.35841539600534,3.086584683710082
437,21.85,-1.5000000000000038,1.0346114659307949e-136,-34.05797460432581,0.0,2.1181532936703856e-136,-2.2317412938286907,0.0,-1.5368300415621466e-134,0.020370964586646778,0.0,70.0,12.262307646752923,251.14815480271483,3.1076001480385105
438,21.900000000000002,-1.5000000000000038,9.39147265929137e-137,-34.1695362138766,0.0,-7.884706996472877e-136,-2.2307072830906094,0.0,-2.219270065898157e-134,0.021004137065006034,0.0,70.0,7.188391550413035,256.5586865114216,3.0853232705118967
439,21.950000000000003,-1.5000000000000038,2.461407662835071e-137,-34.28104533263487,0.0,-2.0074547365311184e-135,-2.22964088012219,0.0,-2.1721098078534344e-134,0.021669607190943907,0.0,70.0,7.142983636048804,256.7794788134189,3.042030928656855
440,22.0,-1.5000000000000038,-1.0683074706019813e-136,-34.392500301888816,0.0,-2.9605805075007224e-135,-2.228540322371515,0.0,-7.854603498139429e-135,0.022377803992412737,0.0,70.0,9.0,255.0,3.0
441,22.05,-1.5000000000000038,-2.7144397412172156e-136,-34.50389936487202,0.0,-2.7929150863450614e-135,-2.227403099722949,0.0,2.1700749364809994e-134,0.023130335306831284,0.0,70.0,10.206088663675876,253.82787892728217,2.976799703922979
442,22.1,-1.5000000000000038,-3.861222556947043e-136,-34.61524061186111,0.0,-7.905055710197229e-136,-2.226227288840832,0.0,5.735527797708119e-134,0.023895227449344247,0.0,70.0,10.498825348760633,253.54338671068203,2.971168627227612
443,22.150000000000002,-1.5000000000000038,-3.5049453122369385e-136,-34.7265220937561,0.0,2.9426127113630584e-135,-2.2250135769780144,0.0,8.282428641648649e-134,0.02461965657474252,0.0,70.0,10.188517702007445,253.84495503044087,2.9771376985707554
444,22.200000000000003,-1.5000000000000038,-9.186098455839847e-137,-34.83774196955891,0.0,7.491923070628927e-135,-2.2237653231833576,0.0,8.106424162527689e-134,0.02525383708160689,0.0,70.0,9.585473370169497,254.43101556679983,2.988737846609266
445,22.25,-1.5000000000000038,3.986977758391989e-136,-34.94889862607444,0.0,1.1049036873890747e-134,-2.2224881932698537,0.0,2.93137793283646e-134,0.025753044219811727,0.0,70.0,9.0,255.0,3.0
446,22.3,-1.5000000000000038,1.0130427028306763e-135,-35.0599907888859,0.0,1.0423301003465387e-134,-2.2211900187613765,0.0,-8.09882991917889e-134,0.02609933837192102,0.0,70.0,8.676829516567716,255.31406889486627,3.0062165005980006
447,22.35,-1.5000000000000038,1.4410278761857376e-135,-35.171017627950576,0.0,2.9502069547118567e-135,-2.2198782594326616,0.0,-2.1405281149270328e-133,0.026329897170995764,0.0,70.0,8.598390958204293,255.3902983545572,3.0077253430510424
448,22.400000000000002,-1.5000000000000038,1.308063398301862e-135,-35.281978614829164,0.0,-1.0981980145804942e-134,-2.218557029044277,0.0,-3.0910444500696448e-133,0.026516304234291965,0.0,70.0,8.68153764155701,255.309493366815,3.006125935205083
449,22.450000000000003,-1.5000000000000038,3.428298616052435e-136,-35.392873330855004,0.0,-2.7960237545984594e-134,-2.2172266290092324,0.0,-3.0253586842257325e-133,0.026734531663663574,0.0,70.0,8.843122883273155,255.15245891938184,3.003017684906083
450,22.5,-1.5000000000000038,-1.4879603562965975e-135,-35.50370127773009,0.0,-4.1235566988062265e-134,-2.2158835758779105,0.0,-1.0940051381531894e-133,0.02705402845037952,0.0,70.0,9.0,255.0,3.0
451,22.55,-1.5000000000000038,-3.780726837200983e-135,-35.614461688442795,0.0,-3.890028892751649e-134,-2.2145212261641944,0.0,3.0225244740234567e-133,0.02751231120612374,0.0,70.0,9.086593270053255,254.91584549325285,2.998334293685018
452,22.6,-1.5000000000000038,-5.377989249048246e-135,-35.72515340034651,0.0,-1.1010322247827697e-134,-2.213132344757298,0.0,7.98855967993732e-133,0.028102479905101063,0.0,70.0,9.107610818422197,254.8954198710892,2.99793000056822
453,22.650000000000002,-1.5000000000000038,-4.881759061983753e-135,-35.835774922918525,0.0,4.098530787185671e-134,-2.2117109781736843,0.0,1.1535934936113712e-132,0.02879783045486306,0.0,70.0,9.085331731764512,254.91707150229914,2.998358560608913
454,22.700000000000003,-1.5000000000000038,-1.2794584618625747e-135,-35.946324498163875,0.0,1.0434902711330942e-133,-2.210252561711812,0.0,1.129079232065016e-132,0.029568036264748798,0.0,70.0,9.042035096737882,254.95914875567274,2.9991914137664035
455,22.75,-1.5000000000000038,5.55314364934719e-135,-36.056800179089706,0.0,1.5389323107835832e-133,-2.2087541745472095,0.0,4.082882759329117e-133,0.030386832649753615,0.0,70.0,9.0,255.0,3.0
456,22.8,-1.5000000000000038,1.4109864645973257e-134,-36.167199915618596,0.0,1.451778547066006e-133,-2.2072138784468365,0.0,-1.1280214904175936e-132,0.031231929624198074,0.0,70.0,8.97679740321926,255.02254913212235,3.0004463246619273
457,22.85,-1.5000000000000038,2.007092912000725e-134,-36.27752156693439,0.0,4.109108203659895e-134,-2.2056309815847897,0.0,-2.9813710604822254e-132,0.03206111561055991,0.0,70.0,8.97116576810692,255.028022161086,3.000554654676078
458,22.900000000000002,-1.5000000000000038,1.8218972849633152e-134,-36.387763013777075,0.0,-1.5295925134162197e-133,-2.2040077668857805,0.0,-4.305269529438521e-132,0.03281060238649047,0.0,70.0,8.97713543138495,255.02222062398846,3.0004398223592665
459,22.950000000000003,-1.5000000000000038,4.7750039858450504e-135,-36.49792234362297,0.0,-3.8943587090725315e-133,-2.2023499213461406,0.0,-4.213781059837489e-132,0.033413836096940486,0.0,70.0,8.988736729775322,255.0109460579273,3.000216660028303
460,23.0,-1.5000000000000038,-2.0724614241092167e-134,-36.60799800591169,0.0,-5.743373573253709e-133,-2.2006663832760864,0.0,-1.5237525899163263e-132,0.03379864094839036,0.0,70.0,9.0,255.0,3.0
461,23.05,-1.5000000000000038,-5.265873174669204e-134,-36.717988981950576,0.0,-5.418111298988858e-133,-2.1989700572513016,0.0,4.209833514268028e-132,0.03393945748157989,0.0,70.0,9.006217117069705,254.9939579782578,2.9998804076672743
462,23.1,-1.5000000000000038,-7.490572723098075e-134,-36.82789501163682,0.0,-1.5335400589856811e-133,-2.1972724375279284,0.0,1.1126628273935166e-131,0.03393482921794089,0.0,70.0,9.007726109150124,254.99249148456684,2.999851380727467
463,23.150000000000002,-1.5000000000000038,-6.799413233654885e-134,-36.93771622570337,0.0,5.708516974946308e-133,-2.1955765743295075,0.0,1.6067484624142712e-131,0.03395882759491542,0.0,70.0,9.006126542695688,254.994046001747,2.9998821499540216
464,23.200000000000003,-1.5000000000000038,-1.782055748151766e-134,-37.04745266906977,0.0,1.4533944565157033e-132,-2.193876554768437,0.0,1.5726045007284946e-131,0.03418939323225345,0.0,70.0,9.003017984160836,254.9970670126181,2.999941946120384
465,23.25,-1.5000000000000038,7.734531331502148e-134,-37.15710388118021,0.0,2.1434561982231255e-132,-2.192157635006282,0.0,5.686722083732389e-132,0.034810584909195086,0.0,70.0,9.0,255.0,3.0
466,23.3,-1.5000000000000038,1.965250623407949e-133,-37.2666684325704,0.0,2.0220666648889422e-132,-2.1903954962775174,0.0,-1.5711312566654518e-131,0.03590403998927627,0.0,70.0,8.998334128501924,255.0016189548465,3.0000320446689748
467,23.35,-1.5000000000000038,2.7955197980391573e-133,-37.376143430807964,0.0,5.723249415576735e-133,-2.1885672310073545,0.0,-4.1525142035258434e-131,0.037315091991274585,0.0,70.0,8.997929795292588,255.0020119006467,3.000039822414055
468,23.400000000000002,-1.5000000000000038,2.5375755649656225e-133,-37.485525155671134,0.0,-2.1304475386369013e-132,-2.18666398707839,0.0,-5.996466896713231e-131,0.038757723594784466,0.0,70.0,8.998358397832295,255.00159536902365,3.000031577824648
469,23.450000000000003,-1.5000000000000038,6.650722594022559e-134,-37.5948098295158,0.0,-5.424141955155558e-132,-2.184691458647876,0.0,-5.86903989693023e-131,0.03994253036836426,0.0,70.0,8.999191333581335,255.00078589160037,3.0000155554901604
470,23.5,-1.5000000000000038,-2.886566390189936e-133,-37.70399430153592,0.0,-7.999487435567132e-132,-2.1826697340415535,0.0,-2.1223135745013281e-131,0.04057505671326567,0.0,70.0,9.0,255.0,3.0
471,23.55,-1.5000000000000038,-7.334415176164876e-133,-37.81307680291996,0.0,-7.546455529656886e-132,-2.1806339529765495,0.0,5.863541675235008e-131,0.040517296311293194,0.0,70.0,9.000446368922605,254.9995662023563,2.9999914136568266
472,23.6,-1.5000000000000038,-1.0433021919846822e-132,-37.922057696833576,0.0,-2.1359457603321232e-132,-2.178618004410424,0.0,1.5497393986709864e-130,0.03997198230436538,0.0,70.0,9.000554709679518,254.99946091284647,2.9999893296163136
473,23.650000000000002,-1.5000000000000038,-9.470360936497e-133,-38.030938603361,0.0,7.950938457052978e-132,-2.176636754746113,0.0,2.2379119124438657e-130,0.039323937703272804,0.0,70.0,9.00043986597513,254.9995725221585,2.999991538747387
474,23.700000000000003,-1.5000000000000038,-2.4820834627938448e-133,-38.13972137230819,0.0,2.0243173364106535e-131,-2.174685610640097,0.0,2.1903555086992427e-130,0.03895983261301694,0.0,70.0,9.000216681513828,254.9997894209803,2.999995831918974
475,23.75,-1.5000000000000038,1.0772812427609534e-132,-38.24840716442501,0.0,2.9854493544045404e-131,-2.1727407714848113,0.0,7.920582089632064e-131,0.03926513229899342,0.0,70.0,9.0,255.0,3.0
476,23.8,-1.5000000000000038,2.737241008125156e-132,-38.35699544945667,0.0,2.81637554537386e-131,-2.1707590974101976,0.0,-2.1883035444274578e-130,0.04042714772296563,0.0,70.0,8.999880395807663,255.0001162357283,3.0000023007037195
477,23.85,-1.5000000000000038,3.8936567881348136e-132,-38.46548307416603,0.0,7.971458099770825e-132,-2.1686980567125147,0.0,-5.783706174331361e-130,0.04222709533507896,0.0,70.0,8.999851365989338,255.00014444796744,3.0000028591206918
478,23.900000000000002,-1.5000000000000038,3.5343868181022384e-132,-38.57386525512792,0.0,-2.967330628957501e-131,-2.1665363878766897,0.0,-8.35200096010414e-130,0.044235569885131554,0.0,70.0,8.999882138267186,255.0001145423424,3.000002267185805
479,23.950000000000003,-1.5000000000000038,9.263261591773129e-133,-38.6821367129537,0.0,-7.554855150127059e-131,-2.1642744997240015,0.0,-8.174518045103947e-130,0.04601879186125757,0.0,70.0,8.999941940363355,255.00005642447826,3.000001116833945
480,24.0,-1.5000000000000038,-4.02046833202482e-132,-38.79029270510032,0.0,-1.1141848674061449e-130,-2.161934508690564,0.0,-2.95600147840269e-130,0.04714446071147904,0.0,70.0,9.0,255.0,3.0
481,24.05,-1.5000000000000038,-1.0215522514884136e-131,-38.898330163822756,0.0,-1.0510856628529749e-130,-2.1595600536528536,0.0,8.16686001018633e-130,0.047394252654697766,0.0,70.0,9.00003204784675,254.99996885473047,2.999999383528296
482,24.1,-1.5000000000000038,-1.453132496055457e-131,-39.006248710465606,0.0,-2.974988663875119e-131,-2.157195083425094,0.0,2.158508529865445e-129,0.046970452201122725,0.0,70.0,9.000039826363125,254.99996129528378,2.9999992339009194
483,24.150000000000002,-1.5000000000000038,-1.3190511178759255e-131,-39.114049672165265,0.0,1.1074228670124704e-130,-2.1548630084327414,0.0,3.117009192797269e-129,0.04628296690682987,0.0,70.0,9.000031580956126,254.99996930847183,2.9999993925093946
484,24.200000000000003,-1.5000000000000038,-3.457096290429865e-132,-39.22173501130888,0.0,2.8195103264097577e-130,-2.152566786734411,0.0,3.0507716671716535e-129,0.045744860083374306,0.0,70.0,9.00001555703275,254.99998488110663,2.9999997007452466
485,24.25,-1.5000000000000038,1.500459208533832e-131,-39.329306350838706,0.0,4.158194534184124e-130,-2.150288522424404,0.0,1.1031947704647552e-129,0.045776978236489185,0.0,70.0,9.0,255.0,3.0
486,24.3,-1.5000000000000038,3.8124849051411383e-131,-39.43676386355132,0.0,3.922705096874513e-130,-2.1479890889107622,0.0,-3.047913649631786e-129,0.04659518897440762,0.0,70.0,8.999991412805345,255.0000083453498,3.0000001651830948
487,24.35,-1.5000000000000038,5.423164305408345e-131,-39.54410525972978,0.0,1.1102808845523374e-130,-2.145629003526963,0.0,-8.055663502028644e-129,0.04800205156882953,0.0,70.0,8.999989328558161,255.00001037089746,3.00000020527563
488,24.400000000000002,-1.5000000000000038,4.922765789693476e-131,-39.65132676390402,0.0,-4.1329584051541314e-130,-2.1431888837538793,0.0,-1.163283667517866e-128,0.049602445945140516,0.0,70.0,8.999991537908311,255.00000822377018,3.000000162776617
489,24.450000000000003,-1.5000000000000038,1.2902059002542137e-131,-39.75842414810517,0.0,-1.0522555790626324e-129,-2.140668758932449,0.0,-1.1385634864176217e-128,0.051008108133743235,0.0,70.0,8.999995831505638,255.0000040510953,3.0000000801850697
490,24.5,-1.5000000000000038,-5.599790000932847e-131,-39.86539363979726,0.0,-1.551859326933035e-129,-2.138088072940505,0.0,-4.117178934018756e-129,0.051823710256115874,0.0,70.0,9.0,255.0,3.0
491,24.55,-1.5000000000000038,-1.4228387369076137e-130,-39.97223295539922,0.0,-1.463973472464508e-129,-2.1354863879068375,0.0,1.1374968597508504e-128,0.051851844592931684,0.0,70.0,9.000002300931873,254.99999776387025,2.999999955739323
492,24.6,-1.5000000000000038,-2.0239524725577927e-130,-40.078942278587945,0.0,-4.143624671821843e-130,-2.132902888481212,0.0,3.0064145478249134e-128,0.05130945340781068,0.0,70.0,9.000002859404223,254.9999972211264,2.999999944996561
493,24.650000000000002,-1.5000000000000038,-1.837201204089798e-130,-40.18552324424734,0.0,1.5424410753604058e-129,-2.1303554425660565,0.0,4.341433750791737e-128,0.05061913743276136,0.0,70.0,9.000002267410634,254.9999977964474,2.999999956384137
494,24.700000000000003,-1.5000000000000038,-4.815113971973869e-131,-40.29197782284455,0.0,3.927071283609553e-129,-2.1278409747379357,0.0,4.2491767789533225e-128,0.05019585423937656,0.0,70.0,9.000001116944697,254.99999891451228,2.999999978514475
495,24.75,-1.5000000000000038,2.0898700795197554e-130,-40.398307341721136,0.0,5.791617854313729e-129,-2.125335857142119,0.0,1.5365520965610286e-128,0.05045209681284746,0.0,70.0,9.0,255.0,3.0
496,24.8,-1.5000000000000038,5.310106457116342e-130,-40.50451140855876,0.0,5.4636233801705815e-129,-2.122795765056651,0.0,-4.2451960740402236e-128,0.05159109232479864,0.0,70.0,8.999999383467163,255.00000059916917,3.000000011859613
497,24.85,-1.5000000000000038,7.553493459690338e-130,-40.6105869182268,0.0,1.546421780273505e-129,-2.120176747909639,0.0,-1.1220091841096793e-127,0.05339025135597808,0.0,70.0,8.999999233824948,255.00000074459692,3.000000014738127
498,24.900000000000002,-1.5000000000000038,6.856528237389847e-130,-40.71652908334973,0.0,-5.756468460926211e-129,-2.117456739921053,0.0,-1.6202451335649087e-127,0.055410048617687835,0.0,70.0,8.999999392449153,255.00000059044012,3.0000000116868355
499,24.950000000000003,-1.5000000000000038,1.7970249987641266e-130,-40.822332592218906,0.0,-1.4656029555375584e-128,-2.11463574304787,0.0,-1.5858143629395669e-127,0.057209127585622355,0.0,70.0,8.999999700715568,255.00000029085555,3.000000005757029
500,25.0,-1.5000000000000038,-7.799501317985739e-130,-40.927992657654514,0.0,-2.161461209032188e-128,-2.111735827162491,0.0,-5.73449049284223e-128,0.05834794910768437,0.0,70.0,9.0,255.0,3.0
501,25.05,-1.5000000000000038,-1.9817587091557754e-129,-41.033506174935155,0.0,-2.0390520048217814e-128,-2.1088009481371017,0.0,1.584328743641006e-127,0.05860392596801489,0.0,70.0,9.000000165199475,254.99999983945312,2.9999999968222264
502,25.1,-1.5000000000000038,-2.8190021366203554e-129,-41.138872752468224,0.0,-5.77132465391182e-129,-2.1058754345656894,0.0,4.187395281656224e-127,0.058180357020631845,0.0,70.0,9.000000205295986,254.99999980048582,2.9999999960509305
503,25.150000000000002,-1.5000000000000038,-2.5588911745469574e-129,-41.244093718391724,0.0,2.1483432768344434e-128,-2.1029829124350385,0.0,6.046837159180459e-127,0.05748985224656167,0.0,70.0,9.000000162792759,254.99999984179203,2.999999996868522
504,25.200000000000003,-1.5000000000000038,-6.70658859785912e-130,-41.34917104371173,0.0,5.469704693789277e-128,-2.100126449341033,0.0,5.918339773862936e-127,0.05694749555757994,0.0,70.0,9.000000080193022,254.9999999220655,2.9999999984574086
505,25.25,-1.5000000000000038,2.91081351924232e-129,-41.45410636332583,0.0,8.066683050697379e-128,-2.0972881628792805,0.0,2.1401409874807912e-127,0.05697606013512768,0.0,70.0,9.0,255.0,3.0
506,25.3,-1.5000000000000038,7.396024190911468e-129,-41.558899859999656,0.0,7.609845681270069e-128,-2.0944288433275204,0.0,-5.912795367159999e-127,0.05779255112088322,0.0,70.0,8.999999955734934,255.00000004301842,3.000000000851482
507,25.35,-1.5000000000000038,1.0520659200512389e-128,-41.66354924765858,0.0,2.1538876835373804e-128,-2.0915089077671922,0.0,-1.562757194251522e-126,0.059199276276444834,0.0,70.0,8.999999944991107,255.00000005345964,3.0000000010581496
508,25.400000000000002,-1.5000000000000038,9.549911874448848e-129,-41.768050750776375,0.0,-8.017726261245152e-128,-2.088508915699876,0.0,-2.256710350315693e-126,0.06080042584883927,0.0,70.0,8.999999956379813,255.0000000423917,3.000000000839077
509,25.450000000000003,-1.5000000000000038,2.5029329392672362e-129,-41.87240013922857,0.0,-2.041321581961955e-127,-2.0854288651823083,0.0,-2.2087544732512174e-126,0.06220723050773813,0.0,70.0,8.999999978512344,255.00000002088248,3.000000000413336
510,25.5,-1.5000000000000038,-1.0863303945170705e-128,-41.976593637294606,0.0,-3.0105270993757327e-127,-2.082288192649102,0.0,-7.987114900638933e-127,0.0630238942640915,0.0,70.0,9.0,255.0,3.0
511,25.55,-1.5000000000000038,-2.760233805449009e-128,-42.08062895849348,0.0,-2.8400330720258483e-127,-2.079126475755899,0.0,2.2066852724998984e-126,0.06305272269457873,0.0,70.0,9.000000011860788,254.99999998847323,2.9999999997718465
512,25.6,-1.5000000000000038,-3.926363466542919e-128,-42.184506284870196,0.0,-8.038418268758345e-128,-2.0759829203796443,0.0,5.832289248840463e-126,0.06251064976652287,0.0,70.0,9.000000014739589,254.99999998567554,2.9999999997164695
513,25.650000000000002,-1.5000000000000038,-3.5640756323248435e-128,-42.28822725053144,0.0,2.9922561768146148e-127,-2.072875410779247,0.0,8.422157685344728e-126,0.0618203324719957,0.0,70.0,9.000000011687995,254.99999998864115,2.99999999977517
514,25.700000000000003,-1.5000000000000038,-9.34107289728304e-129,-42.39179382594812,0.0,7.618315858468893e-127,-2.0698008871324447,0.0,8.243183915618578e-126,0.061396729262241934,0.0,70.0,9.0000000057576,254.99999999440456,2.9999999998892464
515,25.75,-1.5000000000000038,4.05424022614405e-128,-42.495207339244686,0.0,1.1235440092433193e-126,-2.0667357378530227,0.0,2.9808318615074965e-126,0.061652278889567924,0.0,70.0,9.0,255.0,3.0
516,25.8,-1.5000000000000038,1.030133280270489e-127,-42.59846739973342,0.0,1.059914771997639e-126,-2.063635659243488,0.0,-8.235461553283595e-126,0.0627902177740225,0.0,70.0,8.999999996821911,255.0000000030886,3.0000000000611338
517,25.85,-1.5000000000000038,1.4653387946120439e-127,-42.701570905169035,0.0,2.9999785391495975e-127,-2.0604567160756204,0.0,-2.176639980111034e-125,0.06458824121295947,0.0,70.0,8.999999996050539,255.00000000383824,3.0000000000759717
518,25.900000000000002,-1.5000000000000038,1.3301311341854487e-127,-42.804513071340985,0.0,-1.1167252081133951e-126,-2.057176835122192,0.0,-3.1431920391063206e-125,0.06660728855507614,0.0,70.0,8.99999999686821,255.0000000030436,3.0000000000602434
519,25.950000000000003,-1.5000000000000038,3.486135864986489e-128,-42.907288588681254,0.0,-2.843194185191361e-126,-2.053795987220113,0.0,-3.076398118922308e-125,0.06840650511605872,0.0,70.0,8.999999998457257,255.0000000014993,3.000000000029676
520,26.0,-1.5000000000000038,-1.5130630510059124e-127,-43.009892670062996,0.0,-4.1931233270357034e-126,-2.050336184610586,0.0,-1.1124615955966094e-125,0.06954703678871965,0.0,70.0,9.0,255.0,3.0
521,26.05,-1.5000000000000038,-3.844509740537054e-127,-43.11232220714231,0.0,-3.95565578078797e-126,-2.046841283541241,0.0,3.0735160940634476e-125,0.06980654607247061,0.0,70.0,9.000000000851566,254.9999999991724,2.9999999999836193
522,26.1,-1.5000000000000038,-5.468718831793883e-127,-43.21457679841712,0.0,-1.1196072329722556e-126,-2.043355530003339,0.0,8.123330995560088e-125,0.06938720124480824,0.0,70.0,9.000000001058256,254.99999999897153,2.9999999999796434
523,26.150000000000002,-1.5000000000000038,-4.96411697350931e-127,-43.31665776014265,0.0,4.167675214772118e-126,-2.03990256341676,0.0,1.173055238789081e-124,0.06869969746077231,0.0,70.0,9.00000000083916,254.99999999918447,2.9999999999838582
524,26.200000000000003,-1.5000000000000038,-1.301043617021765e-127,-43.418567054758796,0.0,1.0610945154918556e-125,-2.036485560257262,0.0,1.148127408412738e-124,0.06815711040601968,0.0,70.0,9.000000000413376,254.9999999995983,2.9999999999920486
525,26.25,-1.5000000000000038,5.646828181409246e-127,-43.52030631616837,0.0,1.5648949298899497e-125,-2.033086852376158,0.0,4.1517631962356883e-125,0.06817952733157995,0.0,70.0,9.0,255.0,3.0
526,26.3,-1.5000000000000038,1.4347905681877732e-126,-43.62187573999641,0.0,1.4762708351154244e-125,-2.029667607524104,0.0,-1.1470518220925434e-124,0.06898294525612414,0.0,70.0,8.999999999771825,255.00000000022175,3.0000000000043894
527,26.35,-1.5000000000000038,2.040953653256349e-126,-43.72327307692078,0.0,4.178431077974064e-126,-2.0261885578505456,0.0,-3.0316684002129325e-124,0.07037390952078226,0.0,70.0,8.999999999716442,255.00000000027555,3.0000000000054547
528,26.400000000000002,-1.5000000000000038,1.8526336759851796e-126,-43.824494595781466,0.0,-1.5553975650975078e-125,-2.0226302165720256,0.0,-4.377901751245692e-124,0.07196380505405386,0.0,70.0,8.999999999775149,255.0000000002185,3.0000000000043254
529,26.450000000000003,-1.5000000000000038,4.8555608815884125e-127,-43.925536098577986,0.0,-3.9600586434482855e-125,-2.0189921773451402,0.0,-4.284869821758719e-124,0.07337139358654099,0.0,70.0,8.999999999889237,255.00000000010766,3.0000000000021303
530,26.5,-1.5000000000000038,-2.107424967463106e-126,-44.02639381351598,0.0,-5.840267386856227e-125,-2.0152930772133715,0.0,-1.549459118934614e-124,0.0742109377995348,0.0,70.0,9.0,255.0,3.0
531,26.55,-1.5000000000000038,-5.3547112986973856e-126,-44.12706540629932,0.0,-5.5095177623829e-125,-2.0115710835651868,0.0,4.280855678963829e-124,0.07428852604931535,0.0,70.0,9.00000000006114,254.9999999999406,2.9999999999988236
532,26.6,-1.5000000000000038,-7.616942729846006e-126,-44.2275509218725,0.0,-1.5594117078923975e-125,-2.00786422460844,0.0,1.131434050129572e-123,0.07380527256160008,0.0,70.0,9.000000000075978,254.99999999992616,2.999999999998539
533,26.650000000000002,-1.5000000000000038,-6.914123006589783e-126,-44.32785182876017,0.0,5.804822738912819e-125,-2.0041905563090268,0.0,1.633855176619368e-123,0.0731569704306878,0.0,70.0,9.000000000060249,254.99999999994148,2.999999999998841
534,26.700000000000003,-1.5000000000000038,-1.812119990933186e-126,-44.4279699775034,0.0,1.4779140058301285e-124,-2.000548527565371,0.0,1.5991351878622137e-123,0.07273046210087841,0.0,70.0,9.00000000002968,254.99999999997115,2.999999999999429
535,26.75,-1.5000000000000038,7.865017051711504e-126,-44.527906681516704,0.0,2.1796174617534957e-124,-1.996917510098939,0.0,5.782660156114886e-124,0.07290063756002496,0.0,70.0,9.0,255.0,3.0
536,26.8,-1.5000000000000038,1.998405462660177e-125,-44.627661728513296,0.0,2.056180021441617e-124,-1.9932584638093687,0.0,-1.5976370893762763e-123,0.07385661021857004,0.0,70.0,8.999999999983618,255.00000000001592,3.000000000000315
537,26.85,-1.5000000000000038,2.8426817266127675e-125,-44.72723252789764,0.0,5.819803723772194e-125,-1.989531849077082,0.0,-4.222569360496993e-123,0.07543511677994275,0.0,70.0,8.999999999979641,255.00000000001978,3.0000000000003912
538,26.900000000000002,-1.5000000000000038,2.5803858350373965e-125,-44.826614913421004,0.0,-2.1663893390553765e-124,-1.9857149521313744,0.0,-6.097630531352908e-123,0.07729735751027533,0.0,70.0,8.999999999983856,255.00000000001572,3.0000000000003104
539,26.950000000000003,-1.5000000000000038,6.762923875573908e-126,-44.92580402311078,0.0,-5.515650158975689e-124,-1.9818021133260544,0.0,-5.9680537692729846e-123,0.07910069740617587,0.0,70.0,8.999999999992047,255.0000000000077,3.0000000000001528
540,27.0,-1.5000000000000038,-2.9352643239382923e-125,-45.02479512475361,0.0,-8.13444310832836e-124,-1.9778048823907568,0.0,-2.1581181505524907e-123,0.08051453061383995,0.0,70.0,9.0,255.0,3.0
541,27.05,-1.5000000000000038,-7.458150720770972e-125,-45.123584511349854,0.0,-7.67376830952818e-124,-1.9737506602646704,0.0,5.962462789608722e-123,0.08135897247001367,0.0,70.0,9.00000000000439,254.99999999999574,2.9999999999999156
542,27.1,-1.5000000000000038,-1.0609032633466472e-124,-45.222170190780076,0.0,-2.1719803187196386e-124,-1.9696689851437554,0.0,1.5758843391858404e-122,0.08170330460472996,0.0,70.0,9.000000000005457,254.9999999999947,2.999999999999895
543,27.150000000000002,-1.5000000000000038,-9.63013103949061e-125,-45.32055140986423,0.0,8.085075082330222e-124,-1.9655803298041974,0.0,2.2756666948792258e-122,0.08172371607457762,0.0,70.0,9.000000000004325,254.9999999999958,2.999999999999917
544,27.200000000000003,-1.5000000000000038,-2.5239575511362496e-125,-45.418728223760496,0.0,2.058468663007262e-123,-1.9614966135362977,0.0,2.227307988922973e-122,0.08160054780788073,0.0,70.0,9.000000000002132,254.99999999999793,2.9999999999999587
545,27.25,-1.5000000000000038,1.0954555590582013e-124,-45.51670107121786,0.0,3.0358154971559953e-123,-1.9574202750234093,0.0,8.054206586598487e-123,0.08152123998925731,0.0,70.0,9.0,255.0,3.0
546,27.3,-1.5000000000000038,2.7834197420423705e-124,-45.61447025126284,0.0,2.8638893216671107e-123,-1.953344489537372,0.0,-2.2252214069058627e-122,0.08159924815061004,0.0,70.0,8.999999999998824,255.00000000000117,3.0000000000000226
547,27.35,-1.5000000000000038,3.959344880725312e-124,-45.7120355201716,0.0,8.105940902501327e-124,-1.9492603502083483,0.0,-5.881280420693662e-122,0.08182886759442454,0.0,70.0,8.99999999999854,255.00000000000142,3.000000000000028
548,27.400000000000002,-1.5000000000000038,3.5940138322925033e-124,-45.80939628628367,0.0,-3.017391099026552e-123,-1.9451616027779295,0.0,-8.49290372638161e-122,0.08217309288198749,0.0,70.0,8.99999999999884,255.00000000000114,3.000000000000022
549,27.450000000000003,-1.5000000000000038,9.419537816987596e-125,-45.90655168044939,0.0,-7.682309636131478e-123,-1.9410430409201496,0.0,-8.312426578764592e-122,0.08260899947671874,0.0,70.0,8.999999999999428,255.00000000000057,3.0000000000000107
550,27.5,-1.5000000000000038,-4.088295803838976e-124,-46.00350059037569,0.0,-1.1329817677791145e-122,-1.9369007028302576,0.0,-3.005870819584145e-122,0.08310456536690936,0.0,70.0,9.0,255.0,3.0
551,27.55,-1.5000000000000038,-1.0387863896092386e-123,-46.100241750732415,0.0,-1.0688180455715623e-122,-1.9327325843834586,0.0,8.304639348662579e-122,0.0836379743184068,0.0,70.0,9.000000000000316,254.9999999999997,2.999999999999994
552,27.6,-1.5000000000000038,-1.47764762595546e-123,-46.19677384881403,0.0,-3.025178329128566e-123,-1.928536905398417,0.0,2.1949237343588808e-121,0.08421945345702397,0.0,70.0,9.000000000000393,254.9999999999996,2.9999999999999925
553,27.650000000000002,-1.5000000000000038,-1.3413042225220952e-123,-46.29309544127226,0.0,1.1261056887873185e-122,-1.9243106390377562,0.0,3.1695948210647217e-121,0.08486484480272338,0.0,70.0,9.000000000000309,254.99999999999972,2.999999999999994
554,27.700000000000003,-1.5000000000000038,-3.515419371681415e-124,-46.38920491271781,0.0,2.867076988151865e-122,-1.9200504209181446,0.0,3.1022398326135388e-121,0.08557725382658532,0.0,70.0,9.000000000000153,254.99999999999983,2.9999999999999973
555,27.75,-1.5000000000000038,1.5257727656297703e-123,-46.48510048336407,0.0,4.2283455214008577e-122,-1.9157529136550977,0.0,1.1218062619676726e-121,0.0863644612415726,0.0,70.0,9.0,255.0,3.0
556,27.8,-1.5000000000000038,3.876803584232717e-123,-46.58078020408332,0.0,3.988883250119538e-122,-1.9114139747939873,0.0,-3.0993335987744425e-121,0.0872226541019927,0.0,70.0,8.999999999999915,255.00000000000009,3.0000000000000013
557,27.85,-1.5000000000000038,5.514656015749309e-123,-46.67624188084347,0.0,1.1290119226264151e-122,-1.9070306482448984,0.0,-8.191566895366158e-121,0.0880942509866145,0.0,70.0,8.999999999999895,255.00000000000009,3.000000000000002
558,27.900000000000002,-1.5000000000000038,5.005815506859132e-123,-46.77148326890781,0.0,-4.2026836452466204e-122,-1.9026045496953259,0.0,-1.182908891162073e-120,0.08888575634955487,0.0,70.0,8.999999999999917,255.00000000000009,3.0000000000000013
559,27.950000000000003,-1.5000000000000038,1.3119723705026887e-123,-46.866502335813,0.0,-1.0700076988994315e-121,-1.898142072609943,0.0,-1.1577716672577696e-120,0.08950249803518773,0.0,70.0,8.999999999999961,255.00000000000006,3.0000000000000004
560,28.0,-1.5000000000000038,-5.6942614821351835e-123,-46.9612974761688,0.0,-1.5780400317824316e-121,-1.8936542998918071,0.0,-4.186637965912279e-121,0.08983758966678579,0.0,70.0,9.0,255.0,3.0
561,28.05,-1.5000000000000038,-1.4468427947321628e-122,-47.055867765802184,0.0,-1.4886714954906594e-121,-1.8891583136432644,0.0,1.1566870460231515e-120,0.0898508964468192,0.0,70.0,9.000000000000025,254.99999999999997,2.9999999999999996
