idx,t,px,py,pz,vx,vy,vz,ax,ay,az,yaw,mode,ledr,ledg,ledb
0,0.0,-10.5,4.5,0.0,0.0017638900400933077,0.0010407560731899414,0.002747832302674256,-0.037166680481125036,-0.0164890728783055,-0.06417398763209108,0,70,255.0,255.0,255.0
1,0.05,-10.499958099958556,4.5000318672186355,5.732196289627319e-05,-8.461058155733512e-05,0.00024274779366625327,-0.0004519971407698428,-0.03677334438490067,-0.015431258302642022,-0.06381919010567286,0,70,255.0,255.0,255.0
2,0.1,-10.500008133278076,4.500025156291513,-4.490404947163581e-05,-0.0019134443983967598,-0.0005023697570742609,-0.0036340867078930306,-0.03638000828867631,-0.014373443726978545,-0.06346439257925464,0,70,255.0,255.0,255.0
3,0.15000000000000002,-10.500149116618315,4.499982511755074,-0.00030579104328768146,-0.003722611410424967,-0.0011945965790316013,-0.006798436398695307,-0.035986672192451954,-0.013315629151315065,-0.06310959505283642,0,70,255.0,255.0,255.0
4,0.2,-10.500380066639037,4.499906578145756,-0.0007244520247358182,-0.005512111617641955,-0.0018339326722057675,-0.009945046213176673,-0.03559333609622759,-0.012257814575651588,-0.0627547975264182,0,70,255.0,255.0,255.0
5,0.25,-10.5007,4.4998,-0.0013,-0.007281945020047725,-0.00242037803659676,-0.013073916151337127,-0.03520000000000323,-0.011199999999988105,-0.06239999999999997,0,70,255.0,255.0,255.0
6,0.30000000000000004,-10.501107933360965,4.499665421854243,-0.0020315479752641826,-0.009032111617642278,-0.0029539326722045783,-0.016185046213176672,-0.034806663903778866,-0.010142185424324627,-0.06204520247358178,0,70,255.0,255.0,255.0
7,0.35000000000000003,-10.501602883381684,4.4995054882449255,-0.002918208956712319,-0.010762611410425614,-0.003434596579029223,-0.019278436398695305,-0.0344133278075545,-0.009084370848661151,-0.06169040494716358,0,70,255.0,255.0,255.0
8,0.4,-10.502183866721925,4.4993228437084865,-0.003959095950528364,-0.01247344439839773,-0.003862369757070693,-0.022354086707893028,-0.03401999171133015,-0.008026556272997674,-0.06133560742074539,0,70,255.0,255.0,255.0
9,0.45,-10.502849900041443,4.499120132781365,-0.005153321962896274,-0.014164610581558627,-0.00423725220632899,-0.025411997140769842,-0.033626655615105784,-0.006968741697334199,-0.06098080989432719,0,70,255.0,255.0,255.0
10,0.5,-10.5036,4.4989,-0.0065,-0.015836109959908307,-0.004559243926804113,-0.02845216769732575,-0.03323331951888142,-0.0059109271216707185,-0.060626012367909016,0,70,255.0,255.0,255.0
11,0.55,-10.504433366597594,4.498664045364391,-0.007998330061839547,-0.017498942947879684,-0.004891017104846233,-0.031479818006523476,-0.033279999999973595,-0.007360000000014114,-0.06048000000000003,0,70,255.0,255.0,255.0
12,0.6000000000000001,-10.505349933195191,4.498409690728784,-0.009647860123679092,-0.019164109959905667,-0.0052952439268055245,-0.034500167697325765,-0.033326680481065775,-0.00880907287835751,-0.06033398763209104,0,70,255.0,255.0,255.0
13,0.65,-10.506349816493987,4.498133313410979,-0.011448225154598864,-0.02083161099598626,-0.0057719243926819845,-0.037513216769732585,-0.03337336096215795,-0.0102581457567009,-0.060187975264182056,0,70,255.0,255.0,255.0
14,0.7000000000000001,-10.507433133195189,4.497831290728783,-0.013399060123679092,-0.022501446056121463,-0.006321058502475614,-0.04051896522374396,-0.03342004144325013,-0.011707218635044295,-0.06004196289627307,0,70,255.0,255.0,255.0
15,0.75,-10.5086,4.4975,-0.0155,-0.02417361514031127,-0.006942646256186413,-0.04351741305935988,-0.03346672192434222,-0.01315629151338768,-0.05989595052836416,0,70,255.0,255.0,255.0
16,0.8,-10.50985060024866,4.497136796688189,-0.017751131777377638,-0.02585211659082648,-0.0075779989084123955,-0.04653568176072944,-0.03367333609626615,-0.012257814575651588,-0.060834797526418204,0,70,255.0,255.0,255.0
17,0.8500000000000001,-10.511185383837558,4.496742948839939,-0.020154350548571325,-0.02754094874993789,-0.008168427713751574,-0.04960089281200171,-0.03387995026819009,-0.011359337637915494,-0.06177364452447225,0,70,255.0,255.0,255.0
18,0.9,-10.512604867302128,4.496320702647596,-0.02271200343107619,-0.02924011161764549,-0.008713932672203944,-0.05271304621317667,-0.03408656444011403,-0.010460860700179403,-0.0627124915225263,0,70,255.0,255.0,255.0
19,0.9500000000000001,-10.5141095671778,4.495872304303502,-0.02542643754238737,-0.03094960519394929,-0.009214513783769512,-0.055872141964254336,-0.03429317861203796,-0.009562383762443309,-0.06365133852058033,0,70,255.0,255.0,255.0
20,1.0,-10.5157,4.4954,-0.0283,-0.03266942947884928,-0.009670171048448277,-0.0590781800652347,-0.03449979278396176,-0.00866390682470726,-0.06459018551863427,0,70,255.0,255.0,255.0
21,1.05,-10.51737623240777,4.494905567882849,-0.0313339428286499,-0.03437259068882596,-0.010108987261499202,-0.062265454950558734,-0.033626655615105756,-0.00888874169732973,-0.06290080989432713,0,70,255.0,255.0,255.0
22,1.1,-10.519136531454576,4.494388913911457,-0.03452513768203563,-0.03603209504035986,-0.01055904521818125,-0.06536826105466742,-0.03275351844624976,-0.0091135765699522,-0.06121143427002,0,70,255.0,255.0,255.0
23,1.1500000000000001,-10.520978714297499,4.493849475998638,-0.037869361121096394,-0.03764794253345095,-0.011020344918494423,-0.06838659837756075,-0.03188038127739376,-0.009338411442574671,-0.05952205864571287,0,70,255.0,255.0,255.0
24,1.2000000000000002,-10.522900598093615,4.493286692057213,-0.041362389706771446,-0.03922013316809924,-0.011492886362438719,-0.07132046691923871,-0.031007244108537765,-0.009563246315197142,-0.057832683021405734,0,70,255.0,255.0,255.0
25,1.25,-10.5249,4.4927,-0.045,-0.040748666944304714,-0.011976669550014134,-0.0741698666797013,-0.030134106939681493,-0.009788081187819625,-0.05614330739709783,0,70,255.0,255.0,255.0
26,1.3,-10.526975670120267,4.492088931780412,-0.04877949690802277,-0.04228952065387641,-0.012466052045586271,-0.07702649843703557,-0.03150004144318629,-0.00978721863506582,-0.05812196289627294,0,70,255.0,255.0,255.0
27,1.35,-10.529130090344141,4.491453395514235,-0.05270429872328621,-0.043898671088623345,-0.012955391413520716,-0.0799820629693286,-0.032865975946691085,-0.009786356082312014,-0.06010061839544805,0,70,255.0,255.0,255.0
28,1.4000000000000001,-10.531366675507883,4.490793393357854,-0.05677935208453828,-0.045576118248545516,-0.013444687653817473,-0.08303656027658038,-0.034231910450195885,-0.009785493529558209,-0.06207927389462316,0,70,255.0,255.0,255.0
29,1.4500000000000002,-10.533688840447748,4.490108927467648,-0.061009603630526904,-0.047321862133642936,-0.013933940766476537,-0.08618999035879092,-0.03559784495370068,-0.009784630976804404,-0.06405792939379827,0,70,255.0,255.0,255.0
30,1.5,-10.5361,4.4894,-0.0654,-0.049135902743915584,-0.014423150751497912,-0.08944235321596018,-0.03696377945720547,-0.009783768424050626,-0.06603658489297393,0,70,255.0,255.0,255.0
31,1.55,-10.538602687111165,4.488666704995504,-0.06995366953925906,-0.05096532669564826,-0.014906804556159834,-0.09268455130129905,-0.03621317861210168,-0.009562383762426291,-0.06365133852058073,0,70,255.0,255.0,255.0
32,1.6,-10.541195907168861,4.4879095040316015,-0.07466646742481958,-0.052757220605125756,-0.015379389127740542,-0.09580748706801825,-0.03546257776699789,-0.009340999100801954,-0.06126609214818754,0,70,255.0,255.0,255.0
33,1.6500000000000001,-10.543877783670974,4.487128950569947,-0.07953243054075057,-0.05451158447234805,-0.015840904466240032,-0.09881116051611781,-0.0347119769218941,-0.00911961443917762,-0.058880845775794347,0,70,255.0,255.0,255.0
34,1.7000000000000002,-10.54664644011539,4.486325598072196,-0.08454559577112106,-0.05622841829731517,-0.016291350571658304,-0.1016955716455977,-0.03396137607679031,-0.008898229777553284,-0.05649559940340115,0,70,255.0,255.0,255.0
35,1.75,-10.5495,4.4855,-0.0897,-0.05790772208002709,-0.01673072744399536,-0.10446072045645792,-0.03321077523168681,-0.008676845115929005,-0.054110353031007974,0,70,255.0,255.0,255.0
36,1.8,-10.552436781435071,4.484652248237572,-0.09499142493494099,-0.05956117256353259,-0.017186729729773514,-0.10721129635776824,-0.032927244108533225,-0.009563246315197156,-0.05591268302140506,0,70,255.0,255.0,255.0
37,1.85,-10.555455880980418,4.483780588359356,-0.10042263157743551,-0.06120044649088041,-0.017687052075515075,-0.11005198875859844,-0.032643712985379644,-0.010449647514465307,-0.05771501301180215,0,70,255.0,255.0,255.0
38,1.9000000000000001,-10.558556589808227,4.4828828043623545,-0.10599812575245951,-0.06282554386207055,-0.018231694481220043,-0.11298279765894848,-0.03236018186222606,-0.011336048713733456,-0.05951734300219925,0,70,255.0,255.0,255.0
39,1.9500000000000002,-10.561738199090687,4.481956680243568,-0.11172241328498903,-0.06443646467710303,-0.01882065694688842,-0.11600372305881836,-0.03207665073907249,-0.012222449913001608,-0.06131967299259634,0,70,255.0,255.0,255.0
40,2.0,-10.565,4.481,-0.1176,-0.0660332089359778,-0.019453939472520203,-0.1191147649582081,-0.03179311961591891,-0.01310885111226981,-0.06312200298299342,0,70,255.0,255.0,255.0
41,2.0500000000000003,-10.568341387148543,4.480011502054206,-0.12363423072097701,-0.06762198305021767,-0.02007427652474738,-0.1222462632676279,-0.031757844953675465,-0.011704630976816996,-0.062137929393798357,0,70,255.0,255.0,255.0
42,2.1,-10.57176216890947,4.478993742530971,-0.1298238062654385,-0.06920899343134536,-0.020624402570201907,-0.12532855789758793,-0.031722570291432016,-0.010300410841364196,-0.06115385580460331,0,70,255.0,255.0,255.0
43,2.15,-10.575262257096124,4.477950231980633,-0.13616626644941143,-0.07079424007936086,-0.021104317608883795,-0.12836164884808823,-0.031687295629188574,-0.008896190705911397,-0.06016978221540825,0,70,255.0,255.0,255.0
44,2.2,-10.578841563521854,4.476884480953529,-0.14265915108892296,-0.07237772299426422,-0.021514021640793045,-0.13134553611912878,-0.031652020966945124,-0.007491970570458585,-0.059185708626213196,0,70,255.0,255.0,255.0
45,2.25,-10.5825,4.4758,-0.1493,-0.07395944217605538,-0.021853514665929653,-0.13428021971070953,-0.03161674630470168,-0.00608775043500584,-0.05820163503701847,0,70,255.0,255.0,255.0
46,2.3000000000000003,-10.586237669970755,4.474699343545599,-0.1560868521811511,-0.07555089523559365,-0.02218016417124289,-0.13719565057172006,-0.032041376076829046,-0.006978229777523692,-0.058415599403401956,0,70,255.0,255.0,255.0
47,2.35,-10.590055443381702,4.473581241516757,-0.16301974336081065,-0.07716357978373828,-0.022551337643682022,-0.14012177965104972,-0.032466005848956404,-0.007868709120041536,-0.05862956376978543,0,70,255.0,255.0,255.0
48,2.4000000000000004,-10.593954381807272,4.472443467715113,-0.1700992084498947,-0.07879749582048931,-0.02296703508324705,-0.1430586069486986,-0.03289063562108377,-0.008759188462559388,-0.05884352813616891,0,70,255.0,255.0,255.0
49,2.45,-10.597935546821894,4.471283795942313,-0.17732578235931917,-0.08045264334584667,-0.02342725648993796,-0.14600613246466662,-0.03331526539321113,-0.009649667805077231,-0.05905749250255239,0,70,255.0,255.0,255.0
50,2.5,-10.602,4.4701,-0.1847,-0.08212902235981039,-0.023932001863754767,-0.14896435619895385,-0.03373989516533815,-0.010540147147595186,-0.059271456868935646,0,70,255.0,255.0,255.0
51,2.5500000000000003,-10.606148732968437,4.468890323763393,-0.19222236055441874,-0.08382243600741969,-0.024453066790270227,-0.15193113444549217,-0.033996650739033844,-0.010302449913023187,-0.05939967299259572,0,70,255.0,255.0,255.0
52,2.6,-10.61038245756372,4.4676548914020024,-0.19989322029131895,-0.08552868743371378,-0.024962246855057085,-0.15490432349821343,-0.03425340631272953,-0.010064752678451189,-0.0595278891162558,0,70,255.0,255.0,255.0
53,2.6500000000000004,-10.614701815674785,4.4663942971589154,-0.20771289975100982,-0.08724777663869264,-0.025459542058115348,-0.15788392335711773,-0.034510161886425215,-0.009827055443879188,-0.05965610523991587,0,70,255.0,255.0,255.0
54,2.7,-10.619107449190567,4.465109135277219,-0.21568171947380044,-0.0889797036223563,-0.025944952399445005,-0.160869934022205,-0.03476691746012091,-0.00958935820930719,-0.05978432136357594,0,70,255.0,255.0,255.0
55,2.75,-10.6236,4.4638,-0.2238,-0.09072446838470473,-0.026418477879046064,-0.1638623554934753,-0.03502367303381637,-0.009351660974735304,-0.05991253748723602,0,70,255.0,255.0,255.0
56,2.8000000000000003,-10.628179398155499,4.462467361400831,-0.23206770560117407,-0.09243936073472367,-0.02688756866767623,-0.16683981164631154,-0.03357202096694062,-0.009411970570471212,-0.059185708626213036,0,70,255.0,255.0,255.0
57,2.85,-10.632842726363416,4.4611111928752365,-0.24048337547391363,-0.0940816704813988,-0.027359674936093186,-0.16978092635609662,-0.03212036890006489,-0.00947228016620712,-0.05845887976519006,0,70,255.0,255.0,255.0
58,2.9000000000000004,-10.637586355493582,4.459731343649226,-0.24904519254606625,-0.09565139762473016,-0.027834796684296944,-0.17268569962283056,-0.030668716833189138,-0.009532589761943029,-0.05773205090416708,0,70,255.0,255.0,255.0
59,2.95,-10.642406656415835,4.458327662948809,-0.2577513397454792,-0.0971485421647177,-0.02831293391228749,-0.17555413144651333,-0.0292170647663134,-0.009592899357678935,-0.05700522204314411,0,70,255.0,255.0,255.0
60,3.0,-10.6473,4.4569,-0.2666,-0.09857310410136147,-0.028794086620064836,-0.17838622182714495,-0.02776541269943711,-0.009653208953415093,-0.05627839318212069,0,70,255.0,255.0,255.0
61,3.0500000000000003,-10.652264074409564,4.455448230633284,-0.27559001704088515,-0.10000412105367876,-0.029276658539026723,-0.18122161896926178,-0.029475265393253878,-0.00964966780506028,-0.05713749250255247,0,70,255.0,255.0,255.0
62,3.1,-10.657301836982612,4.4539723370970545,-0.2847228778130266,-0.10152063064068687,-0.029759053400570865,-0.1840999710774002,-0.031185118087070633,-0.009646126656705467,-0.05799659182298424,0,70,255.0,255.0,255.0
63,3.1500000000000004,-10.662417562350877,4.452472328244183,-0.2940007300647255,-0.10312263286238582,-0.030241271204697273,-0.1870212781515602,-0.0328949707808874,-0.009642585508350654,-0.05885569114341603,0,70,255.0,255.0,255.0
64,3.2,-10.667615525146095,4.450948212927541,-0.303425721544283,-0.1048101277187756,-0.03072331195140593,-0.18998554019174183,-0.03460482347470416,-0.009639044359995842,-0.059714790463847804,0,70,255.0,255.0,255.0
65,3.25,-10.6729,4.4494,-0.313,-0.10658311520985621,-0.031205175640696855,-0.19299275719794498,-0.03631467616852058,-0.009635503211641222,-0.060573889784279134,0,70,255.0,255.0,255.0
66,3.3000000000000003,-10.678273904206241,4.447827716066035,-0.3227250262352857,-0.1083601550505714,-0.03168579717622057,-0.19600171247664136,-0.03476691746008675,-0.009589358209307246,-0.05978432136357532,0,70,255.0,255.0,255.0
67,3.35,-10.683734725706135,4.446231458736546,-0.3325995132739802,-0.11005980695586488,-0.03216411146162758,-0.19897118933430252,-0.03321915875165293,-0.009543213206973272,-0.05899475294287151,0,70,255.0,255.0,255.0
68,3.4000000000000004,-10.689278595102905,4.444611343374041,-0.34262148719503205,-0.1116820709257367,-0.0326401184969179,-0.20190118777092853,-0.0316714000432191,-0.009497068204639298,-0.05820518452216769,0,70,255.0,255.0,255.0
69,3.45,-10.694901642999783,4.442967485341023,-0.3527889740773892,-0.1132269469601868,-0.033113818282091506,-0.20479170778651928,-0.030123641334785282,-0.009450923202305322,-0.05741561610146388,0,70,255.0,255.0,255.0
70,3.5,-10.7006,4.4413,-0.3631,-0.11469443505921523,-0.03358521081714843,-0.20764274938107488,-0.028575882626352023,-0.009404778199971375,-0.05662604768076096,0,70,255.0,255.0,255.0
71,3.5500000000000003,-10.706370708765467,4.439608905102577,-0.37355307801797244,-0.11613925874403187,-0.034060152756089694,-0.21048353112417256,-0.029217064766313344,-0.009592899357679008,-0.05700522204314545,0,70,255.0,255.0,255.0
72,3.6,-10.712214460192852,4.43789382795676,-0.3841486690910526,-0.11761614153584656,-0.03454450075291633,-0.21334327158538943,-0.029858246906274657,-0.009781020515386641,-0.057384396405529926,0,70,255.0,255.0,255.0
73,3.6500000000000004,-10.718132857237503,4.436154298259654,-0.39488772115514664,-0.11912508343465934,-0.03503825480762836,-0.21622197076472555,-0.030499429046235975,-0.009969141673094274,-0.05776357076791441,0,70,255.0,255.0,255.0
74,3.7,-10.72412750285477,4.434389845708366,-0.4057711821461605,-0.12066608444047017,-0.03554141492022576,-0.21911962866218088,-0.03114061118619729,-0.010157262830801907,-0.05814274513029889,0,70,255.0,255.0,255.0
75,3.75,-10.7302,4.4326,-0.4168,-0.12223914455327906,-0.03605398109070854,-0.22203624527775542,-0.03178179332615816,-0.01034538398850926,-0.058521919492683816,0,70,255.0,255.0,255.0
76,3.8000000000000003,-10.736352060731884,4.430784663523657,-0.427974661692825,-0.12385080997330072,-0.036553591799421165,-0.22494416302666873,-0.03268482347470814,-0.009639044359995848,-0.05779479046384783,0,70,255.0,255.0,255.0
77,3.85,-10.742585833522455,4.428945229436414,-0.43929381036180953,-0.12550762690074987,-0.03701788552670812,-0.2278157243241402,-0.03358785362325811,-0.008932704731482442,-0.05706766143501185,0,70,255.0,255.0,255.0
78,3.9000000000000004,-10.748903575947082,4.427083463587344,-0.4507556281843817,-0.12720959533562654,-0.037446862272569416,-0.2306509291701699,-0.0344908837718081,-0.00822636510296903,-0.05634053240617586,0,70,255.0,255.0,255.0
79,3.95,-10.75530754558114,4.425201131825515,-0.4623582973379692,-0.12895671527793068,-0.037840522037005025,-0.23344977756475782,-0.03539391392035807,-0.007520025474455625,-0.05561340337733989,0,70,255.0,255.0,255.0
80,4.0,-10.7618,4.4233,-0.4741,-0.13074898672766233,-0.03819886482001497,-0.23621226950790392,-0.0362969440689076,-0.00681368584594233,-0.054886274348505903,0,70,255.0,255.0,255.0
81,4.05,-10.768381848306996,4.421381240802794,-0.4859794752107278,-0.1325055013627553,-0.03855748004622128,-0.23897181676915316,-0.033963641334810654,-0.007530923202309922,-0.05549561610146396,0,70,255.0,255.0,255.0
82,4.1000000000000005,-10.77504860571733,4.419443654297581,-0.4979976894617096,-0.13414535086114343,-0.03895195714024597,-0.24176183111805036,-0.03163033860071367,-0.008248160558677527,-0.05610495785442203,0,70,255.0,255.0,255.0
83,4.15,-10.781794438974163,4.417485447390972,-0.5101561661073272,-0.13566853522282665,-0.039382296102089036,-0.2445823125545954,-0.029297035866616722,-0.00896539791504512,-0.056714299607380086,0,70,255.0,255.0,255.0
84,4.2,-10.788613514820668,4.415504826989575,-0.5224564285019632,-0.13707505444780507,-0.03984849693175047,-0.24743326107878832,-0.026963733132519777,-0.009682635271412712,-0.05732364136033814,0,70,255.0,255.0,255.0
85,4.25,-10.7955,4.4135,-0.5349,-0.13836490853607866,-0.0403505596292303,-0.2503146766906292,-0.024630430398423497,-0.010399872627780193,-0.05793298311329531,0,70,255.0,255.0,255.0
86,4.3,-10.80245014604013,4.41146957326517,-0.5474882374642636,-0.13966318457569354,-0.040864488015694846,-0.253216569896719,-0.027300611186172163,-0.010157262830801695,-0.05814274513029831,0,70,255.0,255.0,255.0
87,4.3500000000000005,-10.809468543608228,4.409413753373261,-0.5602218317913529,-0.1410949696546959,-0.04136628591231048,-0.256128951203659,-0.029970791973920878,-0.009914653033823193,-0.058352507147301315,0,70,255.0,255.0,255.0
88,4.4,-10.816561868156256,4.407333146848769,-0.5731013073863104,-0.14266026377308563,-0.041855953319077176,-0.25905182061144916,-0.03264097276166955,-0.009672043236844695,-0.05856226916430431,0,70,255.0,255.0,255.0
89,4.45,-10.823736795136192,4.405228360216184,-0.5861271886541786,-0.14435906693086284,-0.04233349023599494,-0.2619851781200895,-0.03531115354941822,-0.009429433439866197,-0.05877203118130732,0,70,255.0,255.0,255.0
90,4.5,-10.831,4.4031,-0.5993,-0.14619137912802746,-0.04279889666306378,-0.26492902372957994,-0.03798133433716733,-0.009186823642887532,-0.05898179319831254,0,70,255.0,255.0,255.0
91,4.55,-10.838355967532483,4.40094846613653,-0.6126195749322182,-0.14802576033446557,-0.04326456789099725,-0.26784190364397126,-0.03539391392035794,-0.009440025474451184,-0.05753340337734035,0,70,255.0,255.0,255.0
92,4.6000000000000005,-10.845800419849766,4.398773332209374,-0.6260829833728798,-0.14973077052006328,-0.043742899210508904,-0.270682364067314,-0.032806493503548514,-0.009693227306014842,-0.05608501355636813,0,70,255.0,255.0,255.0
93,4.65,-10.853326888400808,4.396573965213952,-0.6396866043474323,-0.15130640968482045,-0.044233890621598736,-0.2734504049996081,-0.03021907308673913,-0.009946429137578495,-0.05463662373539594,0,70,255.0,255.0,255.0
94,4.7,-10.860928904634568,4.394349732145688,-0.6534268168813232,-0.15275267782873717,-0.04473754212426675,-0.27614602644085356,-0.027631652669929743,-0.01019963096914215,-0.053188233914423746,0,70,255.0,255.0,255.0
95,4.75,-10.8686,4.3921,-0.6673,-0.1540695749518134,-0.04525385371851295,-0.2787692283910505,-0.025044232253119247,-0.010452832800705691,-0.05173984409345467,0,70,255.0,255.0,255.0
96,4.800000000000001,-10.87633558382994,4.389824562188711,-0.6813038628068641,-0.1553697740864544,-0.04575724042031634,-0.2813998155273954,-0.02696373313251981,-0.009682635271429697,-0.05348364136033983,0,70,255.0,255.0,255.0
97,4.8500000000000005,-10.884138576992713,4.387524917789243,-0.6954414347171287,-0.1567659482650654,-0.04622211724565592,-0.2841175925270845,-0.028883234011920344,-0.008912437742153714,-0.05522743862722496,0,70,255.0,255.0,255.0
98,4.9,-10.892013778240514,4.38520299229542,-0.7097170752239615,-0.1582580974876464,-0.04664848419453171,-0.28692255939011785,-0.030802734891320873,-0.008142240212877733,-0.056971235894110094,0,70,255.0,255.0,255.0
99,4.95,-10.899965986325542,4.382860711201064,-0.7241351438205296,-0.15984622175419747,-0.04703634126694369,-0.2898147161164955,-0.032722235770721406,-0.007372042683601751,-0.05871503316099523,0,70,255.0,255.0,255.0
100,5.0,-10.908,4.3805,-0.7387,-0.16153032106471854,-0.04738568846289188,-0.29279406270621744,-0.034641736650121935,-0.0066018451543258805,-0.06045883042788258,0,70,255.0,255.0,255.0
101,5.050000000000001,-10.916119297147757,4.378122085108627,-0.7534145738403265,-0.16323114331970717,-0.04773847042774594,-0.29577483424644724,-0.03339115354942306,-0.007509433439836545,-0.05877203118130845,0,70,255.0,255.0,255.0
102,5.1000000000000005,-10.924322072179386,4.375725396633654,-0.7682760777586061,-0.16486943641966084,-0.04813663180687554,-0.29867126582434833,-0.03214057044872421,-0.008417021725347194,-0.05708523193473434,0,70,255.0,255.0,255.0
103,5.15,-10.932605198637138,4.373307665604367,-0.7832802947567225,-0.1664452003645796,-0.04858017260028066,-0.30148335743992066,-0.030889987348025363,-0.009324610010857843,-0.055398432688160235,0,70,255.0,255.0,255.0
104,5.2,-10.940965550063261,4.370866623050054,-0.7984230078365593,-0.1679584351544634,-0.049069092807961324,-0.30421110909316434,-0.029639404247326515,-0.010232198296368492,-0.05371163344158613,0,70,255.0,255.0,255.0
105,5.25,-10.9494,4.3684,-0.8137,-0.16940914078931227,-0.049603392429917514,-0.3068545207840793,-0.02838882114662833,-0.011139786581879196,-0.05202483419501158,0,70,255.0,255.0,255.0
106,5.300000000000001,-10.957906427579035,4.365906297376783,-0.8291082418318311,-0.17085765263472613,-0.05013687786869348,-0.30948484748681526,-0.02955165266992485,-0.01019963096915911,-0.05318823391442439,0,70,255.0,255.0,255.0
107,5.3500000000000005,-10.966486734289743,4.363387095676142,-0.844649454248448,-0.17236430605630476,-0.050623355526833426,-0.3121733441755218,-0.03071448419322135,-0.009259475356439041,-0.05435163363383718,0,70,255.0,255.0,255.0
108,5.4,-10.975143827210935,4.36084474528711,-0.8603265457491494,-0.17392910105404824,-0.05106282540433738,-0.31492001085019894,-0.03187731571651785,-0.00831931974371897,-0.055515033353249976,0,70,255.0,255.0,255.0
109,5.45,-10.983880613421418,4.358281596598719,-0.8761424248332338,-0.17555203762795654,-0.05145528750120533,-0.3177248475108468,-0.03304014723981435,-0.0073791641309989015,-0.056678433072662765,0,70,255.0,255.0,255.0
110,5.5,-10.9927,4.3557,-0.8921,-0.17723311577802967,-0.05180074181743726,-0.32058785415746527,-0.0342029787631104,-0.006439008518278777,-0.05784183279207422,0,70,255.0,255.0,255.0
111,5.550000000000001,-11.001603792536109,4.353101525384243,-0.9082012588323507,-0.17890624614137549,-0.05214601809748428,-0.32345377580629203,-0.032722235770721066,-0.007372042683601811,-0.056795033160995864,0,70,255.0,255.0,255.0
112,5.6000000000000005,-11.010589390661645,4.35048462066178,-0.9244445052476035,-0.1805053393551018,-0.05253794608579745,-0.3262673574735649,-0.031241492778331756,-0.00830507684892483,-0.05574823352991752,0,70,255.0,255.0,255.0
113,5.65,-11.019653092519125,4.347846953247193,-0.9408271222466811,-0.18203039541920862,-0.052976525782376764,-0.32902859915928384,-0.029760749785942443,-0.009238111014247846,-0.054701433898839184,0,70,255.0,255.0,255.0
114,5.7,-11.028791196251069,4.345186190555071,-0.9573464928305058,-0.18348141433369602,-0.05346175718722223,-0.3317375008634488,-0.02828000679355313,-0.010171145179570865,-0.05365463426776085,0,70,255.0,255.0,255.0
115,5.75,-11.038,4.3425,-0.974,-0.18485839609856394,-0.053993640300333844,-0.3343940625860598,-0.026799263801163375,-0.011104179344894216,-0.052607834636680284,0,70,255.0,255.0,255.0
116,5.800000000000001,-11.047276802276533,4.33978680108624,-0.9907859228387678,-0.1862213627997772,-0.054527049741365,-0.33705204928801646,-0.027719404247365423,-0.010232198296351623,-0.05371163344158376,0,70,255.0,255.0,255.0
117,5.8500000000000005,-11.056622903063683,4.337048021676737,-1.0077061247611392,-0.1876303365233005,-0.05501686012996901,-0.3397652259302182,-0.028639544693567453,-0.009360217247809046,-0.0548154322464872,0,70,255.0,255.0,255.0
118,5.9,-11.066040602712569,4.334285841724117,-1.0247633652641268,-0.1890853172691339,-0.055463071466145895,-0.3425335925126652,-0.029559685139769483,-0.008488236199266468,-0.055919231051390655,0,70,255.0,255.0,255.0
119,5.95,-11.075532201574301,4.331502441180996,-1.0419604038447428,-0.19058630503727744,-0.05586568374989566,-0.34535714903535725,-0.030479825585971513,-0.0076162551507238906,-0.05702302985629411,0,70,255.0,255.0,255.0
120,6.0,-11.0851,4.3287,-1.0593,-0.19213329982773106,-0.056224696981218285,-0.34823589549829453,-0.03139996603217354,-0.0067442741021814245,-0.05812682866119756,0,70,255.0,255.0,255.0
121,6.050000000000001,-11.094745798357764,4.3258800702708005,-1.0767838498125797,-0.19369630265952917,-0.056577782937048654,-0.3511060270416411,-0.031120147239750512,-0.007379164131032943,-0.05667843307266505,0,70,255.0,255.0,255.0
122,6.1000000000000005,-11.104469397083625,4.323041692631271,-1.0944093957078405,-0.19524531455170613,-0.056962613394321585,-0.3539037388055611,-0.030840328447327488,-0.008014054159884449,-0.05523003748413256,0,70,255.0,255.0,255.0
123,6.15,-11.114270096630607,4.3201832798563435,-1.1121730166968116,-0.1967803355042619,-0.05737918835303709,-0.35662903079005437,-0.030560509654904464,-0.008648944188735956,-0.05378164189560007,0,70,255.0,255.0,255.0
124,6.2,-11.124147197451727,4.317303244720944,-1.130071091790522,-0.19830136551719657,-0.05782750781319517,-0.3592819029951211,-0.03028069086248144,-0.009283834217587463,-0.05233324630706759,0,70,255.0,255.0,255.0
125,6.25,-11.1341,4.3144,-1.1481,-0.19980840459051005,-0.058307571774795834,-0.36186235542076106,-0.03000087207005886,-0.009918724246438748,-0.05088485071853377,0,70,255.0,255.0,255.0
126,6.300000000000001,-11.144128004292416,4.311472117830564,-1.1662570779109152,-0.20131342656210113,-0.05880981851044566,-0.3644278425454185,-0.03020000679358277,-0.010171145179553835,-0.05173463426776178,0,70,255.0,255.0,255.0
127,6.3500000000000005,-11.154231508601812,4.308518807798178,-1.1845434924074996,-0.20282840526986834,-0.05932468629275122,-0.3670358188475373,-0.030399141517106678,-0.010423566112668916,-0.052584417816989776,0,70,255.0,255.0,255.0
128,6.4,-11.164411010765003,4.305539438850511,-1.2029613679486264,-0.20435334071381178,-0.05985217512171254,-0.3696862843271175,-0.030598276240630586,-0.010675987045783998,-0.05343420136621778,0,70,255.0,255.0,255.0
129,6.45,-11.174667008618798,4.302533379935229,-1.221512828993169,-0.20588823289393138,-0.06039228499732962,-0.37237923898415903,-0.030797410964154493,-0.010928407978899081,-0.054283984915445775,0,70,255.0,255.0,255.0
130,6.5,-11.185,4.2995,-1.2402,-0.2074330818102272,-0.06094501591960244,-0.375114682818662,-0.030996545687677513,-0.011180828912013996,-0.05513376846467288,0,70,255.0,255.0,255.0
131,6.550000000000001,-11.195410184472578,4.296439458406947,-1.2590246385437607,-0.20896999109206846,-0.06146294302117078,-0.3778706027766862,-0.03047982558597106,-0.009536255150719451,-0.05510302985629423,0,70,255.0,255.0,255.0
132,6.6000000000000005,-11.205896568509122,4.2933550761760175,-1.2779870346621618,-0.21048106436882433,-0.06189864143467439,-0.38062498580429144,-0.02996310548426461,-0.007891681389424936,-0.05507229124791557,0,70,255.0,255.0,255.0
133,6.65,-11.216457860309378,4.290250964741614,-1.2970871115086828,-0.2119663016404949,-0.062252111160113276,-0.3833778319014778,-0.029446385382558168,-0.006247107628130421,-0.05504155263953692,0,70,255.0,255.0,255.0
134,6.7,-11.227092768073087,4.287131235538141,-1.3163247922368027,-0.21342570290708013,-0.06252335219748743,-0.38612914106824514,-0.028929665280851724,-0.004602533866835906,-0.05501081403115826,0,70,255.0,255.0,255.0
135,6.75,-11.2378,4.284,-1.3357,-0.21485926816858003,-0.06271236454679686,-0.38887891330459357,-0.028412945179144167,-0.0029579601055415017,-0.054980075422779606,0,70,255.0,255.0,255.0
136,6.800000000000001,-11.24857845781727,4.280859648541648,-1.3552123679140438,-0.21627860906962082,-0.06292240940487531,-0.3916097463478396,-0.02836069086248596,-0.005443834217596435,-0.054253246307062485,0,70,255.0,255.0,255.0
137,6.8500000000000005,-11.259427817361699,4.277705687497752,-1.3748603689438545,-0.21769533725482865,-0.06325674796855651,-0.39430423793529984,-0.028308436545827754,-0.007929708329651324,-0.05352641719134538,0,70,255.0,255.0,255.0
138,6.9,-11.27034794799749,4.274531902183032,-1.3946421860166438,-0.21910945272420357,-0.06371538023784044,-0.3969623880669742,-0.028256182229169546,-0.010415582441706213,-0.052799588075628276,0,70,255.0,255.0,255.0
139,6.95,-11.281338719088854,4.271332077912208,-1.414556002059622,-0.22052095547774558,-0.06429830621272713,-0.39958419674286266,-0.02820392791251134,-0.012901456553761102,-0.05207275895991117,0,70,255.0,255.0,255.0
140,7.0,-11.2924,4.2681,-1.4346,-0.2219298455154547,-0.06500552589321656,-0.4021696639629653,-0.028151673595853133,-0.015387330665816101,-0.05134592984419406,0,70,255.0,255.0,255.0
141,7.050000000000001,-11.303531984258337,4.26483154742646,-1.454773089800067,-0.22335557262945502,-0.06571141935933392,-0.40476241183195616,-0.028877410964158846,-0.01284840797887737,-0.05236398491544138,0,70,255.0,255.0,255.0
142,7.1000000000000005,-11.314736162044086,4.261530973832972,-1.4750770895624221,-0.2248175866118706,-0.0662903666911043,-0.40740606245450944,-0.02960314833246454,-0.010309485291938687,-0.05338203998668868,0,70,255.0,255.0,255.0
143,7.15,-11.326014347700667,4.258204626526255,-1.495514544424744,-0.22631588746270145,-0.06674236788852778,-0.41010061583062507,-0.03032888570077024,-0.0077705626050000014,-0.05440009505793598,0,70,255.0,255.0,255.0
144,7.2,-11.337368355571497,4.254858852813024,-1.5160879995247103,-0.2278504751819476,-0.0670674229516043,-0.412846071960303,-0.03105462306907594,-0.005231639918061318,-0.055418150129183275,0,70,255.0,255.0,255.0
145,7.25,-11.3488,4.2515,-1.5368,-0.22942134976960907,-0.06726553188033389,-0.4156424308435433,-0.031780360437382305,-0.002692717231122299,-0.056436205200429246,0,70,255.0,255.0,255.0
146,7.300000000000001,-11.360310405149379,4.248132561752513,-1.5576520728856909,-0.23098710041256396,-0.06744791315778327,-0.4184286063243332,-0.030849665280812687,-0.004602533866852948,-0.0550108140311665,0,70,255.0,255.0,255.0
147,7.3500000000000005,-11.37189793446196,4.244753617170359,-1.5786416728064592,-0.23250631629769036,-0.0677257852670192,-0.42114351224665997,-0.029918970124243084,-0.006512350502583562,-0.053585422861903785,0,70,255.0,255.0,255.0
148,7.4,-11.38356026119985,4.241358391711948,-1.5997652362843822,-0.23397899742498826,-0.06809914820804164,-0.4237871486105236,-0.02898827496767348,-0.008422167138314177,-0.052160031692641065,0,70,255.0,255.0,255.0
149,7.45,-11.395295058625162,4.237942110835691,-1.6210191998415369,-0.23540514379445768,-0.0685680019808506,-0.4263595154159241,-0.02805757981110388,-0.01033198377404479,-0.050734640523378345,0,70,255.0,255.0,255.0
150,7.5,-11.4071,4.2345,-1.6424,-0.2367847554060986,-0.06913234658544609,-0.42886061266286146,-0.027126884654534056,-0.01224180040977485,-0.04930924935411607,0,70,255.0,255.0,255.0
151,7.550000000000001,-11.418973595144147,4.231028605563489,-1.6639050186571718,-0.2381680257202756,-0.0697129280095346,-0.4313471628707122,-0.028203927912545373,-0.010981456553765572,-0.05015275895991157,0,70,255.0,255.0,255.0
152,7.6000000000000005,-11.430917700108076,4.227529757485592,-1.685535419211743,-0.23960514819735315,-0.07023049224082266,-0.4338758885588527,-0.02928097117055667,-0.009721112697756315,-0.050996268565707055,0,70,255.0,255.0,255.0
153,7.65,-11.44293500749993,4.224006606625952,-1.7072933104377286,-0.24109612283733128,-0.07068503927931025,-0.4364467897272829,-0.030358014428567965,-0.00846076884174706,-0.051839778171502544,0,70,255.0,255.0,255.0
154,7.7,-11.455028209927857,4.220462303844209,-1.7291808011091425,-0.24264094964020994,-0.07107656912499735,-0.43905986637600286,-0.03143505768657926,-0.007200424985737803,-0.05268328777729803,0,70,255.0,255.0,255.0
155,7.75,-11.4672,4.2169,-1.7512,-0.24423962860598922,-0.07140508177788402,-0.4417151185050126,-0.03251210094459034,-0.005940081129728769,-0.05352679738309396,0,70,255.0,255.0,255.0
156,7.800000000000001,-11.479452014274031,4.213321815993531,-1.773352652485624,-0.2458287967063309,-0.07173237480407824,-0.4443907421928193,-0.031054623069076137,-0.007151639918039816,-0.05349815012917451,0,70,255.0,255.0,255.0
157,7.8500000000000005,-11.491781665105737,4.209725752887269,-1.7956390503465707,-0.24734509091289686,-0.072120245769688,-0.4470649335179301,-0.029597145193561963,-0.008363198706350841,-0.05346950287525507,0,70,255.0,255.0,255.0
158,7.9,-11.504185308800425,4.2061087817842395,-1.8180591219647053,-0.24878851122568707,-0.07256869467471332,-0.44973769248034484,-0.02813966731804779,-0.009574757494661865,-0.053440855621335624,0,70,255.0,255.0,255.0
159,7.95,-11.51665930166341,4.202467873787473,-1.8406127957218934,-0.25015905764470164,-0.07307772151915418,-0.45240901908006365,-0.026682189442533616,-0.010786316282972889,-0.053412208367416183,0,70,255.0,255.0,255.0
160,8.0,-11.5292,4.1988,-1.8633,-0.25145673016994047,-0.0736473263030106,-0.4550789133170865,-0.025224711567019664,-0.011997875071283692,-0.053383561113495404,0,70,255.0,255.0,255.0
161,8.05,-11.541804747759723,4.195103330462385,-1.8861203714003338,-0.2527407874543937,-0.07420557277414423,-0.45772986835800844,-0.02613757981110815,-0.01033198377406139,-0.052654640523381945,0,70,255.0,255.0,255.0
162,8.1,-11.554474839468975,4.1913808309653335,-1.9090723794019755,-0.25407048815105127,-0.07468052468041673,-0.4603443773694247,-0.027050448055196602,-0.00866609247683915,-0.05192571993326851,0,70,255.0,255.0,255.0
163,8.15,-11.567212557298365,4.187636666237091,-1.9321542017034512,-0.25544583225991335,-0.07507218202182815,-0.4629224403513353,-0.027963316299285085,-0.0070002011796168485,-0.05119679934315506,0,70,255.0,255.0,255.0
164,8.200000000000001,-11.580020183418503,4.183875001005898,-1.9553640160032846,-0.2568668197809798,-0.07538054479837843,-0.46546405730374024,-0.02887618454337357,-0.005334309882394548,-0.0504678787530416,0,70,255.0,255.0,255.0
165,8.25,-11.5929,4.1801,-1.9787,-0.2583334507142507,-0.0756056130100676,-0.46796922822663944,-0.0297890527874638,-0.003668418585172084,-0.04973895816292817,0,70,255.0,255.0,255.0
166,8.3,-11.605853794687071,4.176314462156932,-2.002161061913042,-0.2598160534761019,-0.0758293340993409,-0.4704817843751454,-0.02951505768658444,-0.005280424985759403,-0.05076328777730696,0,70,255.0,255.0,255.0
167,8.35,-11.61888137701836,4.172515723251399,-2.025749032045526,-0.2612849564829091,-0.07613365550864354,-0.4730455570043701,-0.029241062585705094,-0.006892431386346664,-0.051787617391685706,0,70,255.0,255.0,255.0
168,8.4,-11.631982062006113,4.168699753267401,-2.049466471221491,-0.2627401597346724,-0.07651857723797556,-0.4756605461143139,-0.028967067484825734,-0.008504437786933983,-0.052811947006064494,0,70,255.0,255.0,255.0
169,8.450000000000001,-11.645155164662576,4.164862522188934,-2.0733159402649703,-0.2641816632313917,-0.07698409928733695,-0.4783267517049766,-0.028693072383946378,-0.010116444187521303,-0.05383627662044328,0,70,255.0,255.0,255.0
170,8.5,-11.6584,4.161,-2.0973,-0.26560946697306703,-0.07753022165672768,-0.4810441737763583,-0.02841907728306703,-0.011728450588108563,-0.054860606234821585,0,70,255.0,255.0,255.0
171,8.55,-11.67171607349199,4.157109220909888,-2.1214201809475006,-0.2670349986412061,-0.07809309082850388,-0.4837509941414139,-0.02860218944249491,-0.010786316282938722,-0.05341220836740266,0,70,255.0,255.0,255.0
172,8.6,-11.685103652457588,4.15319147602907,-2.1456738924159184,-0.2684696859173165,-0.07860885328502155,-0.4863853946130985,-0.028785301601922785,-0.009844181977768913,-0.05196381049998379,0,70,255.0,255.0,255.0
173,8.65,-11.698563194677188,4.149249120693307,-2.1700575134105873,-0.2699135288013984,-0.07907750902628076,-0.4889473751914123,-0.028968413761350665,-0.008902047672599072,-0.05051541263256486,0,70,255.0,255.0,255.0
174,8.700000000000001,-11.712095157931195,4.145284510238363,-2.1945674229368377,-0.2713665272934516,-0.07949905805228148,-0.4914369358763551,-0.029151525920778548,-0.00795991336742923,-0.04906701476514594,0,70,255.0,255.0,255.0
175,8.75,-11.7257,4.1413,-2.2192,-0.2728286813934762,-0.07987350036302368,-0.4938540766679268,-0.029334638080205533,-0.0070177790622591996,-0.04761861689772484,0,70,255.0,255.0,255.0
176,8.8,-11.739377911344967,4.137297454203512,-2.243952614296959,-0.2742839519590666,-0.08023030258663992,-0.49625823905919597,-0.028876184543408005,-0.007254309882389934,-0.04854787875304131,0,70,255.0,255.0,255.0
177,8.85,-11.75312801315129,4.133276772632319,-2.2688265982907985,-0.27571629984781704,-0.08059893135126267,-0.4987088645432309,-0.028417731006610495,-0.007490840702520661,-0.04947714060835774,0,70,255.0,255.0,255.0
178,8.9,-11.766949159285135,4.12923736395937,-2.2938242751361604,-0.2771257250597276,-0.08097938665689199,-0.5012059531200318,-0.027959277469812967,-0.0077273715226513955,-0.05040640246367421,0,70,255.0,255.0,255.0
179,8.950000000000001,-11.780840203612652,4.125178636857613,-2.318947967987682,-0.2785122275947983,-0.08137166850352781,-0.5037495047895983,-0.02750082393301544,-0.007963902342782131,-0.05133566431899068,0,70,255.0,255.0,255.0
180,9.0,-11.7948,4.1211,-2.3442,-0.2798758074530291,-0.08177577689117019,-0.5063395195519308,-0.027042370396217486,-0.008200433162912413,-0.052264926174307114,0,70,255.0,255.0,255.0
181,9.05,-11.808827481128143,4.117000962276061,-2.3695821618646673,-0.28122119352253333,-0.082185698824932,-0.5089440496218,-0.02677307238395112,-0.008196444187559715,-0.05191627662045679,0,70,255.0,255.0,255.0
182,9.1,-11.822921894937243,4.112881433441653,-2.3950941144208846,-0.2825531146914242,-0.08259542130992616,-0.5115311472139764,-0.026503774371684764,-0.008192455212207017,-0.051567627066606475,0,70,255.0,255.0,255.0
183,9.15,-11.837082568182273,4.108741423469215,-2.4207349860447698,-0.2838715709597018,-0.0830049443461527,-0.5141008123284606,-0.0262344763594184,-0.00818846623685432,-0.05121897751275614,0,70,255.0,255.0,255.0
184,9.200000000000001,-11.851308827618203,4.104580942331184,-2.446503905112437,-0.2851765623273661,-0.08341426793361159,-0.5166530449652521,-0.025965178347152035,-0.008184477261501621,-0.050870327958905816,0,70,255.0,255.0,255.0
185,9.25,-11.8656,4.1004,-2.4724,-0.28646808879441704,-0.08382339207230284,-0.5191878451243511,-0.02569588033488701,-0.008180488286148813,-0.05052167840505728,0,70,255.0,255.0,255.0
186,9.3,-11.879956164142468,4.096198696692243,-2.498422738244374,-0.28779127395080795,-0.08422690211364145,-0.5217255624536061,-0.027231525920748935,-0.007959913367395164,-0.05098701476514105,0,70,255.0,255.0,255.0
187,9.35,-11.894380407099735,4.0919774936010676,-2.524572944025661,-0.2891912413864919,-0.08461938340904235,-0.5242865466008652,-0.0287671715066108,-0.007739338448641521,-0.05145235112522481,0,70,255.0,255.0,255.0
188,9.4,-11.90887656798577,4.087736942163771,-2.5508517806847606,-0.29066799110146907,-0.0850008359585056,-0.5268707975661286,-0.030302817092472723,-0.007518763529887872,-0.05191768748530859,0,70,255.0,255.0,255.0
189,9.450000000000001,-11.92344848591454,4.0834775938176495,-2.577260411562574,-0.29222152309573923,-0.08537125976203115,-0.5294783153493962,-0.03183846267833464,-0.007298188611134222,-0.05238302384539236,0,70,255.0,255.0,255.0
190,9.5,-11.9381,4.0792,-2.6038,-0.2938518373693024,-0.08573065481961901,-0.5321090999506679,-0.03337410826419429,-0.007077613692380802,-0.052848360205478784,0,70,255.0,255.0,255.0
191,9.55,-11.952833462301992,4.074904250954966,-2.630470885157838,-0.29546971067423244,-0.08610669272049809,-0.5347137005637794,-0.03134082393300514,-0.007963902342782072,-0.05133566431898229,0,70,255.0,255.0,255.0
192,9.600000000000001,-11.967645276663815,4.070588592154074,-2.6572701094764732,-0.29698591976260297,-0.08652704505389723,-0.5372426663825662,-0.029307539601815986,-0.00885019099318334,-0.04982296843248579,0,70,255.0,255.0,255.0
193,9.65,-11.98253035987464,4.066250807875702,-2.684193891216189,-0.29840046463441405,-0.08699171181981642,-0.539695997407028,-0.02727425527062691,-0.009736479643584579,-0.04831027254598935,0,70,255.0,255.0,255.0
194,9.700000000000001,-11.997483628723646,4.0618886823982185,-2.7112384486372703,-0.29971334528966564,-0.08750069301825569,-0.5420736936371652,-0.025240970939437758,-0.010622768293985847,-0.04679757665949286,0,70,255.0,255.0,255.0
195,9.75,-12.0125,4.0575,-2.7384,-0.30092456172835774,-0.088053988649215,-0.5443757550729773,-0.023207686608247347,-0.011509056944387086,-0.045284880772992864,0,70,255.0,255.0,255.0
196,9.8,-12.02757558664957,4.053083499487893,-2.7656761211242764,-0.30210588335224375,-0.08859432700436297,-0.5466836352912747,-0.02404517834719161,-0.010104477261531077,-0.04703032795890503,0,70,255.0,255.0,255.0
197,9.850000000000001,-12.042711286245007,4.048641737782633,-2.7930698180684495,-0.3033290795630769,-0.08906443637536812,-0.5490787878688679,-0.024882670086135872,-0.008699897578675068,-0.04877577514481719,0,70,255.0,255.0,255.0
198,9.9,-12.057909192515659,4.044178226333425,-2.8205854544504843,-0.30459415036085735,-0.08946431676223046,-0.5515612128057565,-0.025720161825080107,-0.00729531789581911,-0.0505212223307293,0,70,255.0,255.0,255.0
199,9.950000000000001,-12.073171399190876,4.039696476589478,-2.8482273938883473,-0.30590109574558494,-0.08979396816495003,-0.5541309101019408,-0.02655765356402437,-0.0058907382129631015,-0.05226666951664147,0,70,255.0,255.0,255.0
200,10.0,-12.0885,4.0352,-2.876,-0.3072499157172597,-0.09005339058352677,-0.5567878797574206,-0.027395145302967272,-0.00448615853010681,-0.054012116702555346,0,70,255.0,255.0,255.0
201,10.05,-12.103896991099731,4.03069135109346,-2.9039062303450587,-0.30863475591679246,-0.09029999926205705,-0.5594477582711196,-0.027998462678342415,-0.00537818861110463,-0.05238302384540387,0,70,255.0,255.0,255.0
202,10.100000000000001,-12.119363978356159,4.026169256715392,-2.9319434182497317,-0.31004976198509393,-0.09059120944463724,-0.5620261821419611,-0.02860178005371756,-0.00627021869210245,-0.0507539309882524,0,70,255.0,255.0,255.0
203,10.15,-12.13490247006272,4.0216314867905965,-2.960107490981874,-0.3114949339221642,-0.0909270211312673,-0.5645231513699448,-0.029205097429092677,-0.00716224877310024,-0.04912483813110099,0,70,255.0,255.0,255.0
204,10.200000000000001,-12.150513974512856,4.017075811243865,-2.988394375809345,-0.31297027172800324,-0.09130743432194725,-0.5669386659550713,-0.02980841480446782,-0.00805427885409806,-0.047495745273949515,0,70,255.0,255.0,255.0
205,10.25,-12.1662,4.0125,-3.0168,-0.31447577540261096,-0.0917324490166771,-0.5692727258973397,-0.030411732179842943,-0.008946308935095848,-0.04586665241679544,0,70,255.0,255.0,255.0
206,10.3,-12.181961248951506,4.007902296138265,-3.045321357495489,-0.31596309298059194,-0.09217367594740426,-0.5715893316242469,-0.029080970939394196,-0.008702768293990366,-0.046797576659490595,0,70,255.0,255.0,255.0
207,10.350000000000001,-12.19779520033036,4.003282835355794,-3.073959708932628,-0.3173838724965504,-0.09260272584607614,-0.5739524835632888,-0.027750209698945445,-0.008459227652884886,-0.04772850090218575,0,70,255.0,255.0,255.0
208,10.4,-12.213698527233461,3.9986422265041908,-3.1027173816220204,-0.3187381139504864,-0.09301959871269275,-0.5763621817144654,-0.026419448458496742,-0.008215687011779414,-0.04865942514488087,0,70,255.0,255.0,255.0
209,10.450000000000001,-12.229667902757706,3.993981078435059,-3.131596702874276,-0.32002581734240004,-0.09342429454725408,-0.5788184260777769,-0.025088687218047995,-0.007972146370673934,-0.049590349387576026,0,70,255.0,255.0,255.0
210,10.5,-12.2457,3.9893,-3.1606,-0.32124698267229124,-0.09381681334976014,-0.581321216653223,-0.023757925977599292,-0.007728605729568683,-0.05052127363027292,0,70,255.0,255.0,255.0
211,10.55,-12.261792413094247,3.984599464353482,-3.1897291396729854,-0.3224568721608328,-0.09420529694832397,-0.5838429152318958,-0.024637653564062147,-0.007810738212984126,-0.050346669516639325,0,70,255.0,255.0,255.0
212,10.600000000000001,-12.277946420322404,3.979879401861431,-3.218984146019763,-0.3237107480286975,-0.09459788717105856,-0.586355883604887,-0.025517381150525,-0.00789287069639957,-0.050172065403005735,0,70,255.0,255.0,255.0
213,10.65,-12.29416422100344,3.97513960719264,-3.248364582530046,-0.32500861027588523,-0.09499458401796392,-0.5888601217721964,-0.026397108736987824,-0.007975003179815011,-0.049997461289372144,0,70,255.0,255.0,255.0
214,10.700000000000001,-12.310448014456316,3.9703798750158987,-3.277870012693554,-0.3263504589023963,-0.09539538748904006,-0.5913556297338242,-0.027276836323450678,-0.008057135663230455,-0.049822857175738554,0,70,255.0,255.0,255.0
215,10.75,-12.3268,3.9656,-3.3075,-0.32773629390823034,-0.09580029758428697,-0.5938424074897704,-0.02815656390991439,-0.008139268146646228,-0.049648253062104075,0,70,255.0,255.0,255.0
216,10.8,-12.343221898671507,3.960799846447807,-3.3372540838125717,-0.3291374183760892,-0.09620513625930516,-0.5963190074481716,-0.02788841480443853,-0.008054278854081009,-0.049415745273942234,0,70,255.0,255.0,255.0
217,10.850000000000001,-12.35971351838002,3.9559795571984795,-3.3671317069883275,-0.33052513538867423,-0.09660572546969508,-0.5987839820171647,-0.027620265698962667,-0.007969289561515788,-0.049183237485780386,0,70,255.0,255.0,255.0
218,10.9,-12.376274188752786,3.9511393447252483,-3.3971322882577977,-0.33189944494598544,-0.09700206521545673,-0.6012373311967496,-0.027352116593486818,-0.007884300268950572,-0.04895072969761855,0,70,255.0,255.0,255.0
219,10.950000000000001,-12.392903239417034,3.9462794215013446,-3.4272552463515127,-0.33326034704802293,-0.09739415549659014,-0.6036790549869265,-0.02708396748801096,-0.007799310976385352,-0.04871822190945671,0,70,255.0,255.0,255.0
220,11.0,-12.4096,3.9414,-3.4575,-0.3346078416947866,-0.09778199631309527,-0.6061091533876952,-0.026815818382536438,-0.0077143216838196915,-0.04848571412128955,0,70,255.0,255.0,255.0
221,11.05,-12.42636399221973,3.9365011498552875,-3.4878657250767313,-0.3359534543348011,-0.0981741580144574,-0.6085130549754171,-0.02700868721804364,-0.00797214637066526,-0.047670349387579226,0,70,255.0,255.0,255.0
222,11.100000000000001,-12.44319550615751,3.9315823693446483,-3.518350626026931,-0.337308710416591,-0.0985792109501618,-0.6108761883264532,-0.02720155605355084,-0.008229971057510829,-0.0468549846538689,0,70,255.0,255.0,255.0
223,11.15,-12.46009502398542,3.9266430139063657,-3.548952664438765,-0.33867360994015616,-0.09899715512020849,-0.6131985534408039,-0.027394424889058036,-0.008487795744356387,-0.046039619920158606,0,70,255.0,255.0,255.0
224,11.200000000000001,-12.477063027875554,3.9216824389787215,-3.5796698019004,-0.3400481529054968,-0.09942799052459744,-0.615480150318469,-0.027587293724565237,-0.008745620431201955,-0.045224255186448285,0,70,255.0,255.0,255.0
225,11.25,-12.4941,3.9167,-3.6105,-0.3414323393126127,-0.09987171716332867,-0.6177209789594486,-0.027780162560071542,-0.009003445118047071,-0.04440889045273533,0,70,255.0,255.0,255.0
226,11.3,-12.511206132449564,3.9116955541310423,-3.641442215880507,-0.3428087642847016,-0.10029823168286083,-0.6199807726501605,-0.02727683632348449,-0.008057135663239076,-0.04598285717573971,0,70,255.0,255.0,255.0
227,11.350000000000001,-12.52838045698994,3.906670965422926,-3.6724993889039528,-0.3441600229449612,-0.10067743072965259,-0.6223192646770226,-0.02677351008689744,-0.007110826208431082,-0.04755682389874409,0,70,255.0,255.0,255.0
228,11.4,-12.545621715305531,3.9016285996492894,-3.703675453987145,-0.34548611529339135,-0.10100931430370393,-0.6247364550400348,-0.02627018385031041,-0.0061645167536231215,-0.049130790621748424,0,70,255.0,255.0,255.0
229,11.450000000000001,-12.56292864908075,3.8965708225837683,-3.7349743460468923,-0.3467870413299922,-0.1012938824050149,-0.6272323437391975,-0.02576685761372336,-0.005218207298815127,-0.050704757344752806,0,70,255.0,255.0,255.0
230,11.5,-12.5803,3.8915,-3.7664,-0.3480628010547636,-0.10153113503358545,-0.6298069307745101,-0.025263531377134996,-0.0042718978440073885,-0.052278724067755356,0,70,255.0,255.0,255.0
231,11.55,-12.597734677982006,3.8864174336205437,-3.7979550114012444,-0.3493234885263924,-0.1017849152540956,-0.6323798544239403,-0.025163967488016147,-0.005879310976398378,-0.05063822190944991,0,70,255.0,255.0,255.0
232,11.600000000000001,-12.615232265882732,3.881320168963647,-3.829636618357263,-0.3505791978035653,-0.1021190661312253,-0.6348707529654551,-0.0250644035988973,-0.007486724108789368,-0.04899771975114446,0,70,255.0,255.0,255.0
233,11.65,-12.632792514792454,3.876204187496478,-3.861440719612658,-0.3518299288862821,-0.10253358766497453,-0.6372796263990548,-0.02496483970977845,-0.0090941372411803,-0.047357217592839077,0,70,255.0,255.0,255.0
234,11.700000000000001,-12.65041517580145,3.8710654706862058,-3.8933632139120364,-0.3530756817745431,-0.10302847985534332,-0.6396064747247391,-0.024865275820659602,-0.010701550373571289,-0.04571671543453362,0,70,255.0,255.0,255.0
235,11.75,-12.6681,3.8659,-3.9254,-0.3543164564683481,-0.10360374270233166,-0.6418512979425081,-0.02476571193153987,-0.012308963505962334,-0.04407621327622291,0,70,255.0,255.0,255.0
236,11.8,-12.685847155622413,3.860705111386782,-3.957548138514517,-0.35557728160975,-0.10417810730076045,-0.644083809654075,-0.02566729372453517,-0.010665620431188681,-0.04522425518645347,0,70,255.0,255.0,255.0
237,11.850000000000001,-12.703658479479138,3.855483558722486,-3.989809337667,-0.35688318584080164,-0.10467030474545055,-0.6463737234611535,-0.02656887551753047,-0.00902227735641503,-0.046372297096684036,0,70,255.0,255.0,255.0
238,11.9,-12.721536225524654,3.850239450364799,-4.022186467562224,-0.358234169161503,-0.10508033503640195,-0.6487210393637434,-0.027470457310525737,-0.007378934281641435,-0.047520339006914554,0,70,255.0,255.0,255.0
239,11.950000000000001,-12.739482647713448,3.844976894671408,-4.0546823983049665,-0.3596302315718542,-0.10540819817361469,-0.6511257573618449,-0.028372039103521037,-0.005735591206867783,-0.04866838091714512,0,70,255.0,255.0,255.0
240,12.0,-12.7575,3.8397,-4.0873,-0.3610713730718551,-0.10565389415708873,-0.6535878774554578,-0.02927362089651453,-0.0040922481320941895,-0.0498164228273712,0,70,255.0,255.0,255.0
241,12.05,-12.775589499528346,3.8344117208323274,-4.1200412345406905,-0.3624953850346101,-0.10588665554286147,-0.6560529069597609,-0.027686857613683436,-0.00521820729881523,-0.048784757344756347,0,70,255.0,255.0,255.0
242,12.100000000000001,-12.793748216200726,3.829110396146408,-4.152904430974742,-0.3638400588332235,-0.10617571488697027,-0.6584663531899335,-0.02610009433085234,-0.006344166465536271,-0.04775309186214149,0,70,255.0,255.0,255.0
243,12.15,-12.811972183108933,3.823793211044325,-4.185887010138447,-0.3651053944676953,-0.10652107218941509,-0.6608282161459751,-0.0245133310480213,-0.007470125632257271,-0.04672142637952667,0,70,255.0,255.0,255.0
244,12.200000000000001,-12.830257433344759,3.818457350628161,-4.218986392868103,-0.3662913919380256,-0.10692272745019599,-0.6631384958278861,-0.022926567765190208,-0.008596084798978311,-0.04568976089691181,0,70,255.0,255.0,255.0
245,12.25,-12.8486,3.8131,-4.2522,-0.3673980512442143,-0.10738068066931293,-0.6653971922356662,-0.021339804482357394,-0.009722043965699645,-0.04465809541429433,0,70,255.0,255.0,255.0
246,12.3,-12.866997246264205,3.8077192052839073,-4.285526123322727,-0.3685051782517916,-0.10784327052779483,-0.6676565625068864,-0.022945275820731605,-0.008781550373575895,-0.045716715434514846,0,70,255.0,255.0,255.0
247,12.350000000000001,-12.88545185571796,3.80231645669188,-4.31896653843404,-0.3696925788262875,-0.10825883570667053,-0.6699688637791177,-0.024550747159105813,-0.007841056781452145,-0.04677533545473536,0,70,255.0,255.0,255.0
248,12.4,-12.903967842039616,3.7968941054579006,-4.352523891883989,-0.37096025296770213,-0.10862737620594004,-0.6723340960523599,-0.026156218497479965,-0.006900563189328428,-0.04783395547495584,0,70,255.0,255.0,255.0
249,12.450000000000001,-12.922549218907513,3.7914545028159465,-4.386200830222625,-0.37230820067603554,-0.10894889202560337,-0.6747522593266133,-0.027761689835854177,-0.005960069597204678,-0.04889257549517636,0,70,255.0,255.0,255.0
250,12.5,-12.9412,3.786,-4.42,-0.3737364219512875,-0.10922338316566049,-0.6772233536018777,-0.029367161174226997,-0.005019576005080406,-0.04995119551539773,0,70,255.0,255.0,255.0
251,12.55,-12.959923115414837,3.7805322580320433,-4.453923072168406,-0.3751799019582312,-0.10949226234595899,-0.6796888430126913,-0.02837203910352038,-0.00573559120685908,-0.04866838091714312,0,70,255.0,255.0,255.0
252,12.600000000000001,-12.978717160927433,3.775050177086069,-4.487967815289104,-0.37657362586163956,-0.1097969422863464,-0.6820901916935921,-0.02737691703281377,-0.006451606408637754,-0.04738556631888852,0,70,255.0,255.0,255.0
253,12.65,-12.997579648732607,3.769551967124074,-4.522131022325599,-0.37791759366151256,-0.11013742298682275,-0.6844273996445801,-0.02638179496210719,-0.007167621610416402,-0.04610275172063395,0,70,255.0,255.0,255.0
254,12.700000000000001,-13.016508091025191,3.764035838108052,-4.556409486241398,-0.37921180535785026,-0.11051370444738805,-0.6867004668656554,-0.025386672891400577,-0.007883636812195076,-0.04481993712237935,0,70,255.0,255.0,255.0
255,12.75,-13.0355,3.7585,-4.5908,-0.38045626095065266,-0.11092578666804227,-0.688909393356818,-0.024391550820696217,-0.008599652013974057,-0.04353712252412478,0,70,255.0,255.0,255.0
256,12.8,-13.054553492076453,3.7529429625879196,-4.625299988003652,-0.38168721391529803,-0.11135568008836631,-0.6910920654423444,-0.02484656776511774,-0.008596084798987191,-0.04376976089693159,0,70,255.0,255.0,255.0
257,12.850000000000001,-13.07366910057232,3.7473644349638424,-4.659909400409546,-0.3829409177271645,-0.111785395147941,-0.6932863694465112,-0.025301584709539263,-0.008592517584000325,-0.044002399269738396,0,70,255.0,255.0,255.0
258,12.9,-13.092847963029957,3.741764426045805,-4.694628818813614,-0.384217372386252,-0.11221493184676634,-0.6954923053693183,-0.025756601653960768,-0.00858895036901346,-0.044235037642545195,0,70,255.0,255.0,255.0
259,12.950000000000001,-13.11209121699173,3.7361429447518453,-4.729458824811788,-0.3855165778925605,-0.11264429018484234,-0.6977098732107657,-0.02621161859838229,-0.008585383154026594,-0.044467676015352,0,70,255.0,255.0,255.0
260,13.0,-13.1314,3.7305,-4.7644,-0.3868385342460902,-0.11307347016216901,-0.6999390729708536,-0.026666635542803352,-0.008581815939039839,-0.044700314388161466,0,70,255.0,255.0,255.0
261,13.05,-13.150774916279355,3.724835891616277,-4.7994529758169895,-0.3881512423805576,-0.11348501730057522,-0.7021828952179369,-0.025841689835891024,-0.007880069597208363,-0.04505257549516966,0,70,255.0,255.0,255.0
262,13.100000000000001,-13.1702144367833,3.7191520830585607,-4.834618583072717,-0.3894227032296793,-0.11386147712188986,-0.7044443305203706,-0.025016744128978696,-0.007178323255376887,-0.04540483660217785,0,70,255.0,255.0,255.0
263,13.15,-13.189716499147567,3.713450328692706,-4.86989770241995,-0.3906529167934555,-0.1142028496261129,-0.7067233788781547,-0.024191798422066396,-0.006476576913545435,-0.04575709770918604,0,70,255.0,255.0,255.0
264,13.200000000000001,-13.209279041007887,3.7077323828845676,-4.905291214511455,-0.391841883071886,-0.1145091348132444,-0.7090200402912892,-0.02336685271515407,-0.005774830571713959,-0.04610935881619423,0,70,255.0,255.0,255.0
265,13.25,-13.2289,3.702,-4.9408,-0.3929896020649708,-0.11478033268328429,-0.7113343147597742,-0.022541907008240436,-0.005073084229882618,-0.04646161992320863,0,70,255.0,255.0,255.0
266,13.3,-13.248578042806127,3.696254270946972,-4.976424908728393,-0.39413981656246283,-0.11505625070933614,-0.7136643536859133,-0.02346667289144017,-0.00596363681219131,-0.04673993712235927,0,70,255.0,255.0,255.0
267,13.350000000000001,-13.268314752294483,3.6904936328019144,-5.012166667299591,-0.3953362693541148,-0.11537669636450343,-0.7160083084720101,-0.0243914387746399,-0.006854189394500002,-0.04701825432150991,0,70,255.0,255.0,255.0
268,13.4,-13.288112440379773,3.68471585918337,-5.048025971506593,-0.3965789604399268,-0.11574166964878614,-0.7183661791180644,-0.025316204657839597,-0.007744741976808662,-0.04729657152066054,0,70,255.0,255.0,255.0
269,13.450000000000001,-13.30797341897671,3.678918723709884,-5.084003517142397,-0.3978678898198988,-0.1161511705621843,-0.7207379656240761,-0.02624097054103933,-0.008635294559117353,-0.04757488871981118,0,70,255.0,255.0,255.0
270,13.5,-13.3279,3.6731,-5.1201,-0.39920305749403073,-0.11660519910469788,-0.7231236679900455,-0.02716573642423903,-0.009525847141427013,-0.04785320591896358,0,70,255.0,255.0,255.0
271,13.55,-13.347893712496138,3.6672582245958325,-5.156315389269442,-0.40053749136959543,-0.11705797986208404,-0.7254796900384037,-0.026211618598348516,-0.008585383154018475,-0.04638767601536562,0,70,255.0,255.0,255.0
272,13.600000000000001,-13.36795295403877,3.661394985733781,-5.192646747728921,-0.40182421935386564,-0.11746373742009973,-0.727762435591582,-0.025257500772458003,-0.007644919166609938,-0.04492214611176766,0,70,255.0,255.0,255.0
273,13.65,-13.388075339333337,3.6555126345738125,-5.22909041155368,-0.40306324144684125,-0.11782247177874502,-0.7299719046495805,-0.024303382946567524,-0.006704455179201434,-0.04345661620816975,0,70,255.0,255.0,255.0
274,13.700000000000001,-13.408258483085268,3.649613522275896,-5.26564271691896,-0.40425455764852236,-0.11813418293801989,-0.7321080972123991,-0.02334926512067701,-0.005763991191792897,-0.041991086304571795,0,70,255.0,255.0,255.0
275,13.75,-13.4285,3.6437,-5.3023,-0.40539816795890893,-0.11839887089792431,-0.7341710132800378,-0.022395147294785644,-0.004823527204384392,-0.04052555640097477,0,70,255.0,255.0,255.0
276,13.8,-13.448798307209323,3.637773630669695,-5.339059934193843,-0.4065422179591574,-0.11866382984232676,-0.7362408861604672,-0.023366852715152944,-0.005774830571713765,-0.042269358816205686,0,70,255.0,255.0,255.0
277,13.850000000000001,-13.469155031550432,3.631832824262961,-5.375925541784727,-0.40773485323042424,-0.11897635395509569,-0.7383979491616584,-0.024338558135520244,-0.006726133939043138,-0.0440131612314366,0,70,255.0,255.0,255.0
278,13.9,-13.489572602286882,3.625875202521379,-5.412901182278689,-0.40897607377270945,-0.11933644323623108,-0.740642202283611,-0.02531026355588751,-0.0076774373063724765,-0.045756963646667446,0,70,255.0,255.0,255.0
279,13.950000000000001,-13.510053448682221,3.619898387186532,-5.449991215181767,-0.410265879586013,-0.11974409768573294,-0.742973645526325,-0.02628196897625481,-0.008628740673701849,-0.04750076606189836,0,70,255.0,255.0,255.0
280,14.0,-13.5306,3.6139,-5.4872,-0.4116042706703349,-0.12019931730360127,-0.7453922788898008,-0.027253674396622074,-0.0095800440410313,-0.049244568477129214,0,70,255.0,255.0,255.0
281,14.05,-13.551213858666573,3.6078784527253864,-5.5245304739551875,-0.41294163679377643,-0.12065470076860522,-0.7478127653197243,-0.026240970541039473,-0.008635294559126292,-0.04757488871981168,0,70,255.0,255.0,255.0
282,14.100000000000001,-13.571893319759498,3.601835317214374,-5.561979885132176,-0.4142283677244389,-0.12106284675951391,-0.750149767761782,-0.02522826668545687,-0.007690545077221285,-0.04590520896249414,0,70,255.0,255.0,255.0
283,14.15,-13.592635851519137,3.5957729553406694,-5.599544059331568,-0.41546446346232213,-0.12142375527632734,-0.7524032862159737,-0.024215562829874308,-0.006745795595316311,-0.04423552920517667,0,70,255.0,255.0,255.0
284,14.200000000000001,-13.613438922185852,3.5896937289779767,-5.637218822353974,-0.4166499240074263,-0.12173742631904555,-0.7545733206822995,-0.02320285897429171,-0.005801046113411304,-0.042565849447859135,0,70,255.0,255.0,255.0
285,14.25,-13.6343,3.5836,-5.675,-0.41778474935975124,-0.12200385988766847,-0.7566598711607596,-0.0221901551187087,-0.0048562966315067735,-0.040896169690539885,0,70,255.0,255.0,255.0
286,14.3,-13.655217458124385,3.57749335842876,-5.712884569985407,-0.41892323486573585,-0.12226936708325098,-0.7587320525606375,-0.023349265120676782,-0.0057639911917930844,-0.04199108630457202,0,70,255.0,255.0,255.0
287,14.350000000000001,-13.676193289411575,3.571372306879541,-5.750874117686576,-0.420119675871819,-0.1225802590068478,-0.7608589797912169,-0.024508375122644865,-0.006671685752079396,-0.04308600291860415,0,70,255.0,255.0,255.0
288,14.4,-13.69723039163657,3.565234576115942,-5.788971380395041,-0.42137407237800034,-0.12293653565845891,-0.7630406528524979,-0.025667485124612907,-0.007579380312365675,-0.04418091953263624,0,70,255.0,255.0,255.0
289,14.450000000000001,-13.718331662574379,3.5590778969015617,-5.827179095402338,-0.4226864243842802,-0.12333819703808437,-0.7652770717444805,-0.02682659512658099,-0.008487074872651986,-0.04527583614666837,0,70,255.0,255.0,255.0
290,14.5,-13.7395,3.5529,-5.8655,-0.42405673189065846,-0.12378524314572412,-0.7675682364671648,-0.02798570512855081,-0.009394769432938155,-0.04637075276070135,0,70,255.0,255.0,255.0
291,14.55,-13.76073710883588,3.546699313559573,-5.903936046103186,-0.4254134237432787,-0.12423583089839012,-0.7698670244377295,-0.026281968976255562,-0.00862874067370173,-0.045580766061885915,0,70,255.0,255.0,255.0
292,14.600000000000001,-13.782039922594201,3.54047705526746,-5.942486044121525,-0.42668492878828407,-0.1246481172130943,-0.7721263130733533,-0.02457823282396032,-0.007862711914465303,-0.04479077936307048,0,70,255.0,255.0,255.0
293,14.65,-13.803404181934582,3.5342351401955625,-5.9811480190882715,-0.42787124702567464,-0.12502210208983666,-0.7743461023740364,-0.022874496671665134,-0.007096683155228906,-0.044000792664255065,0,70,255.0,255.0,255.0
294,14.700000000000001,-13.824825627516642,3.5279754834157764,-6.01991999603668,-0.42897237845545055,-0.1253577855286172,-0.7765263923397789,-0.021170760519369888,-0.00633065439599248,-0.04321080596543963,0,70,255.0,255.0,255.0
295,14.75,-13.8463,3.5217,-6.0588,-0.4299883230776117,-0.1256551675294359,-0.7786671829705805,-0.019467024367076036,-0.005564625636754972,-0.042420819266626,0,70,255.0,255.0,255.0
296,14.8,-13.867824506532093,3.51541018733295,-6.097786445601855,-0.431007070161146,-0.12593930932319006,-0.7807918496884431,-0.021282858974295698,-0.005801046113411082,-0.04256584944787605,0,70,255.0,255.0,255.0
297,14.850000000000001,-13.88940222021162,3.509105872050617,-6.136879305827329,-0.4321166089750413,-0.126235272140777,-0.7829237679153681,-0.023098693581515357,-0.006037466590067193,-0.0427108796291261,0,70,255.0,255.0,255.0
298,14.9,-13.911037680625103,3.502786463101809,-6.176078943251875,-0.43331693951929756,-0.12654305598219676,-0.7850629376513557,-0.024914528188734953,-0.006273887066723296,-0.042855909810376146,0,70,255.0,255.0,255.0
299,14.950000000000001,-13.932735427359056,3.4964513694353334,-6.21538572045095,-0.43460806179391476,-0.12686266084744935,-0.7872093588964058,-0.026730362795954615,-0.0065103075433794065,-0.0430009399916262,0,70,255.0,255.0,255.0
300,15.0,-13.9545,3.4901,-6.2548,-0.435989975798893,-0.12719408673653468,-0.7893630316505182,-0.028546197403171547,-0.006746728020034842,-0.04314597017287802,0,70,255.0,255.0,255.0
301,15.05,-13.976334465035748,3.4837319371086264,-6.294322171489399,-0.4373742956121368,-0.12752693180885177,-0.7915255768085065,-0.02682659512658032,-0.006567074872648024,-0.043355836146657015,0,70,255.0,255.0,255.0
302,15.100000000000001,-13.998235996559316,3.477347456530071,-6.333952732569163,-0.43867263531155104,-0.1278507942237995,-0.793698615265184,-0.02510699284998909,-0.006387421725261206,-0.043565702120436006,0,70,255.0,255.0,255.0
303,15.15,-14.020200295565008,3.4709470073972026,-6.373692207904229,-0.43988499489713573,-0.12816567398137788,-0.7958821470205503,-0.023387390573397924,-0.006207768577874394,-0.04377556809421499,0,70,255.0,255.0,255.0
304,15.200000000000001,-14.042223063047132,3.4645310388428894,-6.41354112215953,-0.4410113743688908,-0.12847157108158694,-0.7980761720746055,-0.021667788296806698,-0.006028115430487576,-0.04398543406799398,0,70,255.0,255.0,255.0
305,15.25,-14.0643,3.4581,-6.4535,-0.4420517737268163,-0.1287684855244266,-0.8002806904273496,-0.01994818602021242,-0.005848462283100542,-0.04419530004177297,0,70,255.0,255.0,255.0
306,15.3,-14.086428033324907,3.4516540642325446,-6.493568868440556,-0.44307974739030587,-0.12907296344140393,-0.8024658430775296,-0.021170760519370297,-0.006330654395992237,-0.043210805965422934,0,70,255.0,255.0,255.0
307,15.350000000000001,-14.108608993551114,3.4451923018290986,-6.533745763896024,-0.44416884977875337,-0.12940155096402584,-0.804601771023892,-0.022393335018528172,-0.006812846508883932,-0.0422263118890729,0,70,255.0,255.0,255.0
308,15.4,-14.130845937114865,3.438713507309381,-6.574028225131213,-0.4453190808921587,-0.1297542480922923,-0.8066884742664369,-0.023615909517686003,-0.00729503862177561,-0.04124181781272291,0,70,255.0,255.0,255.0
309,15.450000000000001,-14.153141920452411,3.432216475193109,-6.614413790910937,-0.44653044073052195,-0.13013105482620338,-0.8087259528051642,-0.02483848401684388,-0.007777230734667306,-0.04025732373637288,0,70,255.0,255.0,255.0
310,15.5,-14.1755,3.4257,-6.6549,-0.447802929293843,-0.13053197116575907,-0.8107142066400742,-0.026061058515997715,-0.00825942284755965,-0.03927282966002199,0,70,255.0,255.0,255.0
311,15.55,-14.19792220166462,3.4191630059611957,-6.695485554748384,-0.4490747148266419,-0.13094921442553265,-0.8127230508813664,-0.024810362795957257,-0.008430307543383234,-0.04108093999166462,0,70,255.0,255.0,255.0
312,15.600000000000001,-14.220406429236231,3.4126049361535333,-6.736173811846746,-0.4502839655734388,-0.1313750019200974,-0.8148223006392408,-0.0235596670759168,-0.008601192239206816,-0.04288905032330726,0,70,255.0,255.0,255.0
313,15.65,-14.24294955597553,3.406025363365273,-6.776969291570917,-0.4514306815342336,-0.13180933364945333,-0.8170119559136971,-0.022308971355876388,-0.008772076935030394,-0.04469716065494983,0,70,255.0,255.0,255.0
314,15.700000000000001,-14.26554845514322,3.3994238603846747,-6.817876514196726,-0.4525148627090264,-0.13225220961360043,-0.8192920167047356,-0.021058275635835927,-0.008942961630853978,-0.04650527098659247,0,70,255.0,255.0,255.0
315,15.75,-14.2882,3.3928,-6.8589,-0.4535365090978171,-0.13270362981253875,-0.8216624830123564,-0.019807579915792406,-0.009113846326677777,-0.048313381318232373,0,70,255.0,255.0,255.0
316,15.8,-14.31090236001661,3.3861539119226713,-6.900042512565912,-0.45457339330313207,-0.13313017885646775,-0.8240179533970116,-0.021667788296805074,-0.007948115430482688,-0.04590543406797099,0,70,255.0,255.0,255.0
317,15.850000000000001,-14.333658889503964,3.379487953556766,-6.941299788716993,-0.45570328792749765,-0.13349844135558703,-0.8262530264191537,-0.02352799667781774,-0.0067823845342876,-0.04349748681770962,0,70,255.0,255.0,255.0
318,15.9,-14.356474238983012,3.372805039229526,-6.982665808585119,-0.45692619297091386,-0.13380841730989654,-0.8283677020787825,-0.02538820505883034,-0.005616653638092554,-0.041089539567448326,0,70,255.0,255.0,255.0
319,15.950000000000001,-14.379353058974706,3.3661080832681907,-7.024134552302163,-0.4582421084333807,-0.13406010671939628,-0.8303619803758984,-0.02724841343984301,-0.004450922741897465,-0.038681592317186944,0,70,255.0,255.0,255.0
320,16.0,-14.4023,3.3594,-7.0657,-0.4596510343148981,-0.13425350958408624,-0.8322358613105011,-0.02910862182085472,-0.0032851918457017515,-0.03627364506692299,0,70,255.0,255.0,255.0
321,16.05,-14.425317958268938,3.352682946348118,-7.1073579949879715,-0.46104771196084043,-0.13443407014859549,-0.8341011355305836,-0.026758484016837746,-0.00393723073466795,-0.038337323736377577,0,70,255.0,255.0,255.0
322,16.1,-14.448402812747915,3.3459560496193994,-7.149111833285284,-0.46232688271658196,-0.13464723265755305,-0.8360695936841389,-0.024408346212820776,-0.004589269623634148,-0.040401002405832165,0,70,255.0,255.0,255.0
323,16.150000000000002,-14.471548688092426,3.3392176797166218,-7.190966674088611,-0.4634885465821226,-0.13489299711095892,-0.838141235771167,-0.022058208408803803,-0.005241308512600346,-0.04246468107528676,0,70,255.0,255.0,255.0
324,16.2,-14.494749708957956,3.332466206542563,-7.232927676594623,-0.4645327035574623,-0.13517136350881306,-0.8403160617916674,-0.019708070604787,-0.005893347401566497,-0.0445283597447412,0,70,255.0,255.0,255.0
325,16.25,-14.518,3.3257,-7.275,-0.46545935364260127,-0.13548233185111552,-0.842594071745641,-0.017357932800768694,-0.006545386290532473,-0.04659203841419668,0,70,255.0,255.0,255.0
326,16.3,-14.541295406907647,3.318917502684856,-7.317187107482206,-0.4663717588535156,-0.1358215405491503,-0.8448735044806609,-0.019138275635804218,-0.007022961630858855,-0.044585270986596696,0,70,255.0,255.0,255.0
327,16.35,-14.564638659504382,3.312117447965634,-7.359485678141878,-0.4673731812061817,-0.13618462801420142,-0.8470525988443007,-0.02091861847083974,-0.007500536971185237,-0.042578503558996714,0,70,255.0,255.0,255.0
328,16.400000000000002,-14.588034208647295,3.305298641903985,-7.401890695060447,-0.4684636207005996,-0.13657159424626883,-0.8491313548365607,-0.022698961305875263,-0.007978112311511618,-0.04057173613139673,0,70,255.0,255.0,255.0
329,16.45,-14.61148650519347,3.2984598905615576,-7.444397141319342,-0.4696430773367692,-0.13698243924535258,-0.8511097724574404,-0.02447930414091066,-0.008455687651837965,-0.038564968703796894,0,70,255.0,255.0,255.0
330,16.5,-14.635,3.2916,-7.487,-0.47091155111469063,-0.13741716301145263,-0.8529878517069404,-0.02625964697594796,-0.00893326299216346,-0.036558201276199576,0,70,255.0,255.0,255.0
331,16.55,-14.658578014100481,3.284718242912458,-7.52969597508321,-0.4722012526250864,-0.13784776765480392,-0.8548688465467746,-0.025328413439882156,-0.008290922741887821,-0.03868159231716873,0,70,255.0,255.0,255.0
332,16.6,-14.682219349234563,3.277815758518061,-7.572488654147213,-0.4734443924586789,-0.1382462552856414,-0.8568560109386573,-0.024397179903816353,-0.007648582491612181,-0.04080498335813788,0,70,255.0,255.0,255.0
333,16.650000000000002,-14.705921677318404,3.2708941526674358,-7.615383345669611,-0.47464097061546806,-0.13861262590396514,-0.8589493448825885,-0.02346594636775055,-0.007006242241336541,-0.042928374399107044,0,70,255.0,255.0,255.0
334,16.7,-14.72968267026816,3.2639550312112067,-7.658385358128004,-0.4757909870954539,-0.13894687950977508,-0.8611488483785679,-0.022534712831684813,-0.006363901991060948,-0.045051765440076046,0,70,255.0,255.0,255.0
335,16.75,-14.7535,3.257,-7.7015,-0.4768944418986365,-0.1392490161030712,-0.8634545214265961,-0.02160347929561901,-0.005721561740784642,-0.04717515648104964,0,70,255.0,255.0,255.0
336,16.8,-14.77737173669043,3.250030325665312,-7.7447305921849585,-0.4779752306461465,-0.13953938883163017,-0.8657471093322413,-0.02162807060478187,-0.005893347401574858,-0.04452835974475985,0,70,255.0,255.0,255.0
337,16.85,-14.801297543557373,3.24304591796212,-7.788072505269279,-0.4790572489591147,-0.13983835084322868,-0.8679073574010722,-0.021652661913944726,-0.0060651330623650735,-0.04188156300847005,0,70,255.0,255.0,255.0
338,16.900000000000002,-14.825277482079102,3.2360463474262717,-7.83151912226112,-0.480140496837541,-0.14014590213786668,-0.8699352656330884,-0.021677253223107585,-0.00623691872315529,-0.039234766272180255,0,70,255.0,255.0,255.0
339,16.95,-14.849311613733885,3.2290311845936155,-7.875063826168639,-0.48122497428142547,-0.14046204271554422,-0.8718308340282901,-0.02170184453227044,-0.006408704383945494,-0.03658796953589065,0,70,255.0,255.0,255.0
340,17.0,-14.8734,3.222,-7.9187,-0.482310681290768,-0.14078677257626124,-0.8735940625866774,-0.02172643584143019,-0.006580490044736154,-0.03394117279959907,0,70,255.0,255.0,255.0
341,17.05,-14.897543039137798,3.2149524544262946,-7.962423256176961,-0.48341782479032575,-0.14111467701867572,-0.8753587161242615,-0.0225593041408808,-0.006535687651842403,-0.036644968703767274,0,70,255.0,255.0,255.0
342,17.1,-14.92174247653595,3.2078885696334596,-8.006238124775681,-0.4845666117048561,-0.1414403413414455,-0.8772585594570542,-0.023392172440331406,-0.006490885258948652,-0.039348764607935474,0,70,255.0,255.0,255.0
343,17.150000000000002,-14.946000394365202,3.200808457627477,-8.05015136528592,-0.48575704203435893,-0.14176376554457057,-0.8792935925850551,-0.024225040739782013,-0.006446082866054901,-0.04205256051210367,0,70,255.0,255.0,255.0
344,17.2,-14.970318874796302,3.1937122304143304,-8.094169737197438,-0.48698911577883425,-0.14208494962805096,-0.8814638155082645,-0.02505790903923256,-0.006401280473161153,-0.044756356416271674,0,70,255.0,255.0,255.0
345,17.25,-14.9947,3.1866,-8.1383,-0.4882628329382822,-0.14240389359188668,-0.8837692282266822,-0.0258907773386845,-0.006356478080267403,-0.04746015232043277,0,70,255.0,255.0,255.0
346,17.3,-15.019144906758376,3.179471856629509,-8.1825467831072,-0.4895214701925422,-0.1427219030936697,-0.8860820261706959,-0.024454712831715297,-0.006363901991051924,-0.04505176544010997,0,70,255.0,255.0,255.0
347,17.35,-15.043650950298833,3.1723278035040403,-8.226906195628004,-0.49070830422145373,-0.14304028379099187,-0.8882744047706933,-0.023018648324746097,-0.006371325901836445,-0.04264337855978717,0,70,255.0,255.0,255.0
348,17.400000000000002,-15.068214540460101,3.1651678220638177,-8.271372216595203,-0.49182333502501685,-0.14335903568385333,-0.8903463640266746,-0.021582583817776897,-0.006378749812620966,-0.04023499167946437,0,70,255.0,255.0,255.0
349,17.45,-15.092832087080911,3.1579918937490628,-8.315938825041602,-0.4928665626032314,-0.14367815877225396,-0.8922979039386397,-0.020146519310807798,-0.006386173723405486,-0.03782660479914174,0,70,255.0,255.0,255.0
350,17.5,-15.1175,3.1508,-8.3606,-0.4938379869560976,-0.14399765305619386,-0.8941290245065887,-0.018710454803839482,-0.006393597634190007,-0.03541821791881716,0,70,255.0,255.0,255.0
351,17.55,-15.142215733828696,3.143592119055668,-8.405351211394237,-0.4948002944395004,-0.14431771060664725,-0.8959291791929568,-0.01978184453227351,-0.006408704383945674,-0.03658796953590768,0,70,255.0,255.0,255.0
352,17.6,-15.166980922268724,3.136368216350377,-8.45019389271231,-0.495816171409325,-0.14463852349458842,-0.8977878214601795,-0.02085323426070754,-0.0064238111337013406,-0.03775772115299819,0,70,255.0,255.0,255.0
353,17.650000000000002,-15.191798243794404,3.1291282541172514,-8.49513096833327,-0.4968856178655712,-0.1449600917200174,-0.8997049513082567,-0.021924623989141568,-0.006438917883457008,-0.038927472770088706,0,70,255.0,255.0,255.0
354,17.7,-15.216670376880053,3.1218721945894172,-8.540165362636149,-0.49800863380823907,-0.14528241528293412,-0.9016805687371884,-0.022996013717575522,-0.006454024633212673,-0.04009722438717914,0,70,255.0,255.0,255.0
355,17.75,-15.2416,3.1146,-8.5853,-0.4991852192373288,-0.14560549418333862,-0.9037146737469747,-0.024067403446009106,-0.0064691313829681185,-0.041266976004272315,0,70,255.0,255.0,255.0
356,17.8,-15.266588957926837,3.1073116671478163,-8.63053717131586,-0.50036535204946,-0.14592725447974186,-0.9057692570574872,-0.023137909039237212,-0.0064012804731611965,-0.040916356416227546,0,70,255.0,255.0,255.0
357,17.85,-15.291635760626276,3.1000073310944503,-8.675876633522758,-0.5014990101412525,-0.14624562223065474,-0.9078063093885975,-0.02220841463246532,-0.006333429563354274,-0.04056573682818278,0,70,255.0,255.0,255.0
358,17.900000000000002,-15.316738084362292,3.092687161467176,-8.72131751007173,-0.5025861935127066,-0.1465605974360773,-0.9098258307403055,-0.021278920225693426,-0.006265578653547352,-0.04021511724013801,0,70,255.0,255.0,255.0
359,17.95,-15.341893605398871,3.085351327893268,-8.7668589244138,-0.5036269021638218,-0.14687218009600947,-0.9118278211126112,-0.020349425818921598,-0.006197727743740434,-0.03986449765209326,0,70,255.0,255.0,255.0
360,18.0,-15.3671,3.078,-8.8125,-0.5046211360945986,-0.14718037021045133,-0.9138122805055147,-0.019419931412147484,-0.006129876833933068,-0.03951387806404405,0,70,255.0,255.0,255.0
361,18.05,-15.392355634463954,3.070633212353064,-8.858240103342329,-0.5056102973626716,-0.1474932714743848,-0.9157937925770941,-0.020146519310773502,-0.006386173723405357,-0.03974660479913475,0,70,255.0,255.0,255.0
362,18.1,-15.417661635226185,3.06325045927182,-8.904079573196656,-0.506635788025676,-0.14781898758279188,-0.9177869409854282,-0.02087310720939952,-0.0066424706128776455,-0.03997933153422544,0,70,255.0,255.0,255.0
363,18.150000000000002,-15.443019818756436,3.0558511000140434,-8.95001899137982,-0.5076976080836116,-0.14815751853567258,-0.9197917257305167,-0.02159969510802554,-0.0068987675023499334,-0.04021205826931614,0,70,255.0,255.0,255.0
364,18.2,-15.46843200152446,3.0484344938375116,-8.996058939708652,-0.5087957575364784,-0.14850886433302685,-0.9218081468123598,-0.022326283006651505,-0.007155064391822204,-0.04044478500440682,0,70,255.0,255.0,255.0
365,18.25,-15.4939,3.041,-9.0422,-0.5099302363842768,-0.14887302497485477,-0.9238362042309572,-0.023052870905280187,-0.007411361281294493,-0.040677511739494854,0,70,255.0,255.0,255.0
366,18.3,-15.519425304217352,3.033547483439926,-9.088442415314825,-0.5110814584998482,-0.14921965962271747,-0.925855572634125,-0.0229960137175766,-0.006454024633212527,-0.040097224387215205,0,70,255.0,255.0,255.0
367,18.35,-15.545008098468996,3.026078831818268,-9.13478507369062,-0.5122298377560345,-0.14951842743817603,-0.9278459266696788,-0.022939156529873016,-0.005496687985130561,-0.039516937034935556,0,70,255.0,255.0,255.0
368,18.400000000000002,-15.570648240611964,3.018596438476648,-9.181226524409,-0.5133753741528355,-0.14976932842123053,-0.9298072663376186,-0.02288229934216943,-0.004539351337048595,-0.03893664968265591,0,70,255.0,255.0,255.0
369,18.45,-15.596345588503288,3.011102696756686,-9.227765316751585,-0.5145180676902514,-0.14997236257188087,-0.9317395916379443,-0.022825442154465848,-0.003582014688966697,-0.0383563623303763,0,70,255.0,255.0,255.0
370,18.5,-15.6221,3.0036,-9.2744,-0.5156579183682821,-0.15012752989012718,-0.9336429025706563,-0.022768584966760486,-0.0026246780408851755,-0.037776074978095764,0,70,255.0,255.0,255.0
371,18.55,-15.647911148666644,2.9960896538872333,-9.32112943539837,-0.5167838686379249,-0.15030009003474293,-0.935535916886411,-0.02226942581894881,-0.004277727743744931,-0.037944497652095066,0,70,255.0,255.0,255.0
372,18.6,-15.673777970897838,2.9885686134551066,-9.367953732040872,-0.5178848609501769,-0.15055530266450168,-0.9374373523358659,-0.021770266671137135,-0.005930777446604687,-0.038112920326094375,0,70,255.0,255.0,255.0
373,18.650000000000002,-15.699699218795706,2.9810327460793635,-9.414873310984186,-0.5189608953050386,-0.15089316777940343,-0.9393472089190206,-0.02127110752332546,-0.007583827149464443,-0.03828134300009368,0,70,255.0,255.0,255.0
374,18.7,-15.725673644462383,2.9734779191357474,-9.461888593285,-0.5200119717025095,-0.15131368537944812,-0.9412654866358752,-0.020771948375513823,-0.009236876852324081,-0.03844976567409297,0,70,255.0,255.0,255.0
375,18.75,-15.7517,2.9659,-9.509,-0.52103809014259,-0.1518168554646358,-0.9431921854864298,-0.020272789227698595,-0.010889926555183838,-0.03861818834809405,0,70,255.0,255.0,255.0
376,18.8,-15.777777301116071,2.958296301011142,-9.556207843091698,-0.5220550669484489,-0.15231598023831083,-0.9451207598202416,-0.020406283006656523,-0.009075064391817619,-0.038524785004376484,0,70,255.0,255.0,255.0
377,18.85,-15.803905617939659,2.950669914361305,-9.603511998145907,-0.5230787184432556,-0.15272436190381758,-0.9470446639868675,-0.020539776785614455,-0.0072602022284514,-0.03843138166065891,0,70,255.0,255.0,255.0
378,18.900000000000002,-15.830085284205214,2.9430253772058963,-9.650912231654265,-0.5241090446270104,-0.15304200046115599,-0.9489638979863075,-0.020673270564572382,-0.00544534006508518,-0.03833797831694134,0,70,255.0,255.0,255.0
379,18.95,-15.856316633647177,2.935367226700326,-9.698408310108414,-0.5251460454997128,-0.1532688959103261,-0.9508784618185616,-0.020806764343530303,-0.003630477901719091,-0.038244574973223776,0,70,255.0,255.0,255.0
380,19.0,-15.8826,2.9277,-9.746,-0.5261897210613632,-0.1534050482513279,-0.9527883554836298,-0.020940258122485567,-0.0018156157383528715,-0.038151171629502656,0,70,255.0,255.0,255.0
381,19.05,-15.908935646869068,2.920026742068198,-9.793687192234845,-0.5272358635682871,-0.1535399890120109,-0.9547010438326268,-0.020905442154469787,-0.0035820146889668867,-0.0383563623303747,0,70,255.0,255.0,255.0
382,19.1,-15.935323557343521,2.9123445290996735,-9.841470275375515,-0.5282802652768103,-0.15376324972022457,-0.9566239917166673,-0.02087062618645401,-0.005348413639580902,-0.03856155303124674,0,70,255.0,255.0,255.0
383,19.150000000000002,-15.961763644383444,2.90464894509705,-9.889349762398764,-0.5293229261869326,-0.15407483037596897,-0.9585571991357515,-0.020835810218438233,-0.007114812590194916,-0.038766743732118775,0,70,255.0,255.0,255.0
384,19.200000000000003,-15.98825582094891,2.896935574062951,-9.937326166281343,-0.5303638462986541,-0.1544747309792441,-0.9605006660898793,-0.020800994250422453,-0.008881211540808932,-0.03897193443299082,0,70,255.0,255.0,255.0
385,19.25,-16.0148,2.8892,-9.9854,-0.5314030256119748,-0.15496295153004988,-0.9624543925790504,-0.020766178282407566,-0.010647610491423487,-0.03917712513386373,0,70,255.0,255.0,255.0
386,19.3,-16.04139611140766,2.8814391307160663,-10.03357138796893,-0.5324414787784212,-0.1554600637136438,-0.9643950648492494,-0.02077194837544454,-0.009236876852332744,-0.03844976567409527,0,70,255.0,255.0,255.0
387,19.35,-16.06804415268625,2.8736551692400014,-10.081838900352043,-0.5334802204495193,-0.15588663921528315,-0.96629936914646,-0.02077771846848151,-0.007826143213242003,-0.03772240621432681,0,70,255.0,255.0,255.0
388,19.400000000000002,-16.094744138261024,2.8658516424059037,-10.130200718750695,-0.5345192506252693,-0.156242678034968,-0.9681673054706822,-0.02078348856151848,-0.006415409574151261,-0.03699504675455835,0,70,255.0,255.0,255.0
389,19.450000000000003,-16.121496082557194,2.8580320770478704,-10.178655024766229,-0.5355585693056713,-0.15652818017269832,-0.9699988738219159,-0.020789258654555453,-0.005004675935060519,-0.03626768729478989,0,70,255.0,255.0,255.0
390,19.5,-16.1483,2.8502,-10.2272,-0.5365981764907248,-0.15674314562847408,-0.9717940742001612,-0.02079502874759065,-0.0035939422959696543,-0.035540327835018815,0,70,255.0,255.0,255.0
391,19.55,-16.1751559075003,2.842358335067537,-10.275834455889443,-0.5376382213180045,-0.15692375613341608,-0.9735906967703674,-0.02080676434359603,-0.0036304779017101835,-0.03632457497322507,0,70,255.0,255.0,255.0
392,19.6,-16.202063831911463,2.8345075939403204,-10.324559723216321,-0.5386788529250844,-0.1571061934186451,-0.9754265316974837,-0.020818499939601408,-0.0036670135074507127,-0.037108822111431315,0,70,255.0,255.0,255.0
393,19.650000000000002,-16.229023802572474,2.8266476852793345,-10.373377762598475,-0.5397200713119648,-0.15729045748416115,-0.9773015789815104,-0.02083023553560679,-0.0037035491131912415,-0.03789306924963757,0,70,255.0,255.0,255.0
394,19.700000000000003,-16.256035848822325,2.8187785177455655,-10.422290534653754,-0.5407618764786452,-0.15747654832996422,-0.9792158386224475,-0.02084197113161217,-0.0037400847189317707,-0.038677316387843816,0,70,255.0,255.0,255.0
395,19.75,-16.2831,2.8109,-10.4713,-0.5418042684251259,-0.15766446595605432,-0.9811693106202949,-0.020853706727615773,-0.0037766203246727414,-0.0394615635260509,0,70,255.0,255.0,255.0
396,19.8,-16.310216258591133,2.803011529013785,-10.520407588473299,-0.5428456359495769,-0.15788491175269137,-0.9831301480692718,-0.020800994250422988,-0.005041211540809894,-0.03897193443302508,0,70,255.0,255.0,255.0
397,19.85,-16.337384519667893,2.7951104549987176,-10.569612606782684,-0.5438843678501681,-0.15816858711013532,-0.9850665040635975,-0.020748281773230202,-0.006305802756947046,-0.038482305339999266,0,70,255.0,255.0,255.0
398,19.900000000000002,-16.36460465144909,2.7871936164767575,-10.618913830855417,-0.5449204641269,-0.15851549202838608,-0.9869783786032719,-0.020695569296037417,-0.007570393973084198,-0.037992676246973445,0,70,255.0,255.0,255.0
399,19.950000000000003,-16.391876522153524,2.779257851969865,-10.668310036618768,-0.5459539247797719,-0.15892562650744374,-0.9888657716882948,-0.020642856818844632,-0.00883498518922135,-0.03750304715394763,0,70,255.0,255.0,255.0
400,20.0,-16.4192,2.7713,-10.7178,-0.5469847498087843,-0.15939899054730822,-0.9907286833186665,-0.02059014434165185,-0.010099576405358857,-0.03701341806092184,0,70,255.0,255.0,255.0
401,20.05,-16.446575058135167,2.7633179488773236,-10.767382390217358,-0.5480192348836878,-0.15987259685581892,-0.9925607109525585,-0.02078925865448689,-0.008844675935068817,-0.0362676872947551,0,70,255.0,255.0,255.0
402,20.1,-16.474002089416963,2.7553137860648103,-10.817055449652953,-0.5490636756742331,-0.16028345814081513,-0.9943554520481421,-0.02098837296732193,-0.007589775464778778,-0.03552195652858836,0,70,255.0,255.0,255.0
403,20.150000000000002,-16.50148159163118,2.7472906488136335,-10.866817313979867,-0.5501180721804201,-0.1606315744022968,-0.9961129066054174,-0.021187487280156965,-0.006334874994488739,-0.03477622576242162,0,70,255.0,255.0,255.0
404,20.200000000000003,-16.5290140625636,2.7392516743749717,-10.916666118871191,-0.5511824244022487,-0.160916945640264,-0.9978330746243842,-0.021386601592992004,-0.0050799745241987,-0.03403049499625488,0,70,255.0,255.0,255.0
405,20.25,-16.5566,2.7312,-10.9666,-0.5522567323397192,-0.16113957185471667,-0.9995159561050427,-0.02158571590582703,-0.00382507405390875,-0.03328476423008642,0,70,255.0,255.0,255.0
406,20.3,-16.584239508868208,2.7231382754769196,-11.016618050657272,-0.5533174245156569,-0.16132870082403747,-1.0012190081204904,-0.02084197113167966,-0.00374008471892333,-0.03483731638781882,0,70,255.0,255.0,255.0
407,20.35,-16.611931122664252,2.7150672007420416,-11.066723194605515,-0.5543409294528872,-0.161513580326609,-1.0029996877438248,-0.020098226357532292,-0.0036550953839379094,-0.03638986854555122,0,70,255.0,255.0,255.0
408,20.400000000000002,-16.639672982026187,2.706986988268704,-11.116919313225122,-0.5553272471514101,-0.16169421036243128,-1.0048579949750456,-0.01935448158338492,-0.003570106048952489,-0.037942420703283616,0,70,255.0,255.0,255.0
409,20.450000000000003,-16.667463227592087,2.6988978505302446,-11.167210287896484,-0.5562763776112257,-0.16187059093150424,-1.006793929814153,-0.01861073680923755,-0.0034851167139670685,-0.03949497286101602,0,70,255.0,255.0,255.0
410,20.5,-16.6953,2.6908,-11.2176,-0.5571883208323337,-0.16204272203382797,-1.008807492261147,-0.017866992035091123,-0.0034001273789812103,-0.041047525018750974,0,70,255.0,255.0,255.0
411,20.55,-16.723182106391988,2.682692949214997,-11.268091007153554,-0.5581030670536823,-0.16225259984803284,-1.0108192565654661,-0.01872285681885001,-0.004994985189213198,-0.039423047154013326,0,70,255.0,255.0,255.0
412,20.6,-16.75111101992602,2.6745734109670214,-11.318680571924993,-0.5590606065142187,-0.1625422205527493,-1.0127497969765484,-0.019578721602608897,-0.006589842999445185,-0.03779856928927567,0,70,255.0,255.0,255.0
413,20.650000000000002,-16.779088880264062,2.666437398111547,-11.369364633119655,-0.5600609392139432,-0.16291158414797738,-1.014599113494394,-0.020434586386367783,-0.008184700809677172,-0.03617409142453802,0,70,255.0,255.0,255.0
414,20.700000000000003,-16.80711782706807,2.658280923504048,-11.420139129542878,-0.5611040651528556,-0.16336069063371703,-1.016367206119002,-0.02129045117012667,-0.00977955861990916,-0.03454961355980037,0,70,255.0,255.0,255.0
415,20.75,-16.8352,2.6501,-11.471,-0.5621899843309559,-0.16388954000996822,-1.018054074850374,-0.022146315953886386,-0.01137441643014081,-0.03292513569506106,0,70,255.0,255.0,255.0
416,20.8,-16.863336865563838,2.6418923276630912,-11.521944320728513,-0.5632783072696278,-0.16439689978382693,-1.0197279656176559,-0.021386601592991626,-0.008919974524206974,-0.03403049499621781,0,70,255.0,255.0,255.0
417,20.85,-16.891527197631664,2.6336623553898724,-11.572973717694518,-0.5643286444902551,-0.16478153746238894,-1.0214571243499957,-0.02062688723209687,-0.006465532618273137,-0.035135854297374564,0,70,255.0,255.0,255.0
418,20.900000000000002,-16.919769096917566,2.6254162192851074,-11.624090954296266,-0.5653409959928376,-0.16504345304565426,-1.0232415510473933,-0.019867172871202113,-0.0040110907123393,-0.03624121359853132,0,70,255.0,255.0,255.0
419,20.950000000000003,-16.948060664135646,2.6171600554535615,-11.675298793932011,-0.5663153617773753,-0.16518264653362288,-1.0250812457098488,-0.019107458510307353,-0.001556648806405464,-0.037346572899688076,0,70,255.0,255.0,255.0
420,21.0,-16.9764,2.6089,-11.7266,-0.5672517418438682,-0.1651991179262948,-1.0269762083373624,-0.018347744149409984,0.0008977930995281991,-0.03845193220083942,0,70,255.0,255.0,255.0
421,21.05,-17.004785631352654,2.600640140132638,-11.777996509932395,-0.5681757038678326,-0.16521580101665612,-1.0288768809639088,-0.018610736809168495,-0.0015651167139799768,-0.03757497286101808,0,70,255.0,255.0,255.0
422,21.1,-17.033217789547336,2.5923763674734897,-11.829486957296941,-0.5691128155247851,-0.1653556295976928,-1.0307337056234642,-0.01887372946892701,-0.004028026527488153,-0.03669801352119675,0,70,255.0,255.0,255.0
423,21.150000000000002,-17.06169713206569,2.5841025247480234,-11.881069149695293,-0.5700630768147253,-0.16561860366940492,-1.0325466823160285,-0.019136722128685522,-0.006490936340996328,-0.035821054181375406,0,70,255.0,255.0,255.0
424,21.200000000000003,-17.09022431638936,2.5758124546817043,-11.932740894729095,-0.5710264877376536,-0.16600472323179244,-1.034315811041602,-0.019399714788444038,-0.008953846154504504,-0.03494409484155407,0,70,255.0,255.0,255.0
425,21.25,-17.1188,2.5675,-11.9845,-0.5720030482935698,-0.16651398828485534,-1.0360410918001837,-0.019662707448206973,-0.011416755968012948,-0.03406713550172036,0,70,255.0,255.0,255.0
426,21.3,-17.14742460902554,2.5591607118063586,-12.036344839541911,-0.5729788772590284,-0.16704389614955317,-1.0377565105267217,-0.019370451170133758,-0.009779558619900474,-0.034549613559797986,0,70,255.0,255.0,255.0
427,21.35,-17.176097644179006,2.550796974716168,-12.088276053117722,-0.5739400934105833,-0.1674919441468454,-1.0394960531561634,-0.019078194892060543,-0.008142361271787999,-0.035032091617875606,0,70,255.0,255.0,255.0
428,21.400000000000002,-17.204818374819702,2.542412881722797,-12.140294846922579,-0.5748866967482344,-0.16785813227673196,-1.0412597196885094,-0.01878593861398733,-0.0065051639236755245,-0.035514569675953234,0,70,255.0,255.0,255.0
429,21.450000000000003,-17.23358607030693,2.534012525819618,-12.192402427151624,-0.5758186872719819,-0.16814246053921295,-1.0430475101237588,-0.018493682335914113,-0.00486796657556305,-0.035997047734030854,0,70,255.0,255.0,255.0
430,21.5,-17.2624,2.5256,-12.2446,-0.576736064981826,-0.16834492893428832,-1.044859424461912,-0.01820142605784003,-0.0032307692274513578,-0.036479525792099565,0,70,255.0,255.0,255.0
431,21.55,-17.291259932545188,2.517178612641926,-12.296888131899966,-0.5776687870960312,-0.16851261438513443,-1.046657076929206,-0.019107458510372245,-0.0034766488063926494,-0.0354265728996573,0,70,255.0,255.0,255.0
432,21.6,-17.32016763373665,2.508748533661837,-12.349264830232178,-0.5786468108328632,-0.16869259381492757,-1.0484020817518778,-0.02001349096290446,-0.003722528385333941,-0.034373620007215035,0,70,255.0,255.0,255.0
433,21.650000000000002,-17.349125368655518,2.500309148360784,-12.40172746261441,-0.5796701361923217,-0.1688848672236678,-1.0500944389299276,-0.020919523415436674,-0.003968407964275233,-0.03332066711477277,0,70,255.0,255.0,255.0
434,21.700000000000003,-17.378135402382924,2.491859842039821,-12.45427339666443,-0.5807387631744069,-0.16908943461135512,-1.0517341484633551,-0.021825555867968888,-0.0042142875432165244,-0.03226771422233051,0,70,255.0,255.0,255.0
435,21.75,-17.4072,2.4834,-12.5069,-0.5818526917791186,-0.16930629597798946,-1.0533212103521603,-0.022731588320499263,-0.004460167122156911,-0.031214761329886542,0,70,255.0,255.0,255.0
436,21.8,-17.436320460793716,2.4749288376259346,-12.559605832858235,-0.582953974356842,-0.16954564630990623,-1.0549271817564472,-0.021319714788441305,-0.005113846154513012,-0.033024094841588816,0,70,255.0,255.0,255.0
437,21.85,-17.465494220874408,2.4664448906364824,-12.612394225953574,-0.5839846632579627,-0.16981768059344077,-1.0566236198363192,-0.019907841256383344,-0.005767525186869112,-0.03483342835329109,0,70,255.0,255.0,255.0
438,21.900000000000002,-17.494717750558237,2.457946524834063,-12.665269702619796,-0.5849447584824804,-0.17012239882859315,-1.0584105245917765,-0.018495967724325386,-0.0064212042192252124,-0.036642761864993365,0,70,255.0,255.0,255.0
439,21.950000000000003,-17.523987520161377,2.4494321060210957,-12.718236786190676,-0.5858342600303954,-0.1704598010153633,-1.0602878960228188,-0.017084094192267425,-0.007074883251581314,-0.03845209537669564,0,70,255.0,255.0,255.0
440,22.0,-17.5533,2.4409,-12.7713,-0.5866531679017072,-0.17082988715375125,-1.0622557341294458,-0.015672220660209568,-0.007728562283937812,-0.04026142888839779,0,70,255.0,255.0,255.0
441,22.05,-17.58265262427994,2.4323492368543356,-12.824462136667103,-0.5874593154766105,-0.1711928003752389,-1.0642101960450063,-0.01657368233591915,-0.0067879665755679365,-0.03791704773402206,0,70,255.0,255.0,255.0
442,22.1,-17.612046682765726,2.4237815037922332,-12.87771906595354,-0.5883105361352992,-0.17150868381130804,-1.066047438902848,-0.017475144011628734,-0.005847370867198061,-0.03557266657964633,0,70,255.0,255.0,255.0
443,22.150000000000002,-17.641484429111536,2.415199152302962,-12.931064926906426,-0.5892068298777734,-0.1717775374619587,-1.067767462702971,-0.018376605687338315,-0.004906775158828185,-0.0332282854252706,0,70,255.0,255.0,255.0
444,22.200000000000003,-17.67096811697157,2.4066045338757935,-12.984493858572876,-0.5901481967040331,-0.17199936132719088,-1.0693702674453753,-0.019278067363047897,-0.003966179450458309,-0.03088390427089487,0,70,255.0,255.0,255.0
445,22.25,-17.7005,2.398,-13.038,-0.5911346366140781,-0.17217415540700456,-1.0708558531300603,-0.02017952903875564,-0.003025583742088278,-0.028539523116513976,0,70,255.0,255.0,255.0
446,22.3,-17.73008184208652,2.389387014956722,-13.09157922047336,-0.5921367637367445,-0.17235515218913716,-1.0723280340635306,-0.019905555867903674,-0.004214287543215862,-0.03034771422229812,0,70,255.0,255.0,255.0
447,22.35,-17.7597134480627,2.380763494194585,-13.145234310232278,-0.5931251922008685,-0.17259558416132617,-1.0738906245522901,-0.019631582697051713,-0.005402991344343445,-0.03215590532808226,0,70,255.0,255.0,255.0
448,22.400000000000002,-17.78939413299563,2.372126465954088,-13.19896978975451,-0.5940999220064498,-0.17289545132357154,-1.0755436245963388,-0.01935760952619975,-0.006591695145471027,-0.03396409643386641,0,70,255.0,255.0,255.0
449,22.450000000000003,-17.81912321195237,2.363472958475727,-13.252790179517833,-0.5950609531534884,-0.17325475367587329,-1.0772870341956768,-0.019083636355347783,-0.007780398946598611,-0.03577228753965055,0,70,255.0,255.0,255.0
450,22.5,-17.8489,2.3548,-13.3067,-0.5960082856419845,-0.17367349121823134,-1.0791208533503038,-0.01880966318449584,-0.008969102747725,-0.037580478645431015,0,70,255.0,255.0,255.0
451,22.55,-17.878724007374,2.346105903318777,-13.36070258143946,-0.5969536295764035,-0.174074590868214,-1.0809736677008581,-0.019004094192263392,-0.007074883251581161,-0.03653209537673375,0,70,255.0,255.0,255.0
452,22.6,-17.908595524983483,2.337394119429425,-13.414796493117363,-0.5979086950612108,-0.17438097954338946,-1.0827740628879772,-0.01919852520003094,-0.005180663755437322,-0.03548371210803648,0,70,255.0,255.0,255.0
453,22.650000000000002,-17.93851503890596,2.3286693838806847,-13.468979114075536,-0.5988734820964066,-0.17459265724375772,-1.0845220389116619,-0.019392956207798493,-0.003286444259293483,-0.03443532883933922,0,70,255.0,255.0,255.0
454,22.700000000000003,-17.968483035218966,2.319936432221296,-13.523247823355808,-0.5998479906819907,-0.1747096239693188,-1.0862175957719111,-0.019587387215566042,-0.0013922247631496442,-0.03338694557064195,0,70,255.0,255.0,255.0
455,22.75,-17.9985,2.3112,-13.5776,-0.6008322208179631,-0.17473187972007267,-1.0878607334687256,-0.01978181822332914,0.0005019947329947261,-0.03233856230193943,0,70,255.0,255.0,255.0
456,22.8,-18.028566128417488,2.3024629717681693,-13.632033653768802,-0.6018087179576241,-0.17477048433800915,-1.0894892951330464,-0.019278067363114097,-0.00204617945045448,-0.03280390427088698,0,70,255.0,255.0,255.0
457,22.85,-18.058680452003383,2.2937208280877126,-13.68654931729828,-0.6027600275542745,-0.17493649766511812,-1.0911411238958142,-0.018774316502899055,-0.004594353633903686,-0.03326924623983453,0,70,255.0,255.0,255.0
458,22.900000000000002,-18.08884171138053,2.2849671985231708,-13.741148153943358,-0.6036861496079141,-0.17522991970139956,-1.0928162197570297,-0.018270565642684013,-0.007142527817352893,-0.03373458820878208,0,70,255.0,255.0,255.0
459,22.950000000000003,-18.119048647171788,2.2761957126390864,-13.79583132705896,-0.6045870841185429,-0.17565075044685344,-1.0945145827166927,-0.01776681478246897,-0.009690702000802099,-0.034199930177729626,0,70,255.0,255.0,255.0
460,23.0,-18.1493,2.2674,-13.8506,-0.6054628310861611,-0.17619898990147972,-1.0962362127748024,-0.017263063922256627,-0.01223887618425068,-0.03466527214666826,0,70,255.0,255.0,255.0
461,23.05,-18.179594678956057,2.2585758096085446,-13.905454803485338,-0.6063234985931013,-0.17674747177975084,-1.0979491517669597,-0.017163636355353694,-0.00970039894659341,-0.03385228753961796,0,70,255.0,255.0,255.0
462,23.1,-18.209932267003005,2.2497273682197223,-13.960394237689526,-0.6071791947216965,-0.17716902979613908,-1.0996214415287642,-0.01706420878845076,-0.007161921708936142,-0.03303930293256767,0,70,255.0,255.0,255.0
463,23.150000000000002,-18.240312515571922,2.2408610220266287,-14.015416270151043,-0.6080299194719465,-0.17746366395064447,-1.1012530820602164,-0.016964781221547827,-0.004623444471278873,-0.032226318325517374,0,70,255.0,255.0,255.0
464,23.200000000000003,-18.270735176093893,2.2319831172223563,-14.070518868408376,-0.6088756728438512,-0.17763137424326697,-1.102844073361316,-0.016865353654644893,-0.0020849672336216048,-0.031413333718467086,0,70,255.0,255.0,255.0
465,23.25,-18.3012,2.2231,-14.1257,-0.6097164548374108,-0.17767216067400662,-1.1043944154320633,-0.01676592608774108,0.00045351000403592856,-0.030600349111411518,0,70,255.0,255.0,255.0
466,23.3,-18.331707155758284,2.214216189797652,-14.180958332289851,-0.6105772876699918,-0.17769562854298468,-1.1059460977991147,-0.017667387215499642,-0.0013922247631578163,-0.031466945570641884,0,70,255.0,255.0,255.0
467,23.35,-18.362258479984607,2.2053288990333955,-14.23629533194363,-0.6114831935589609,-0.1778113831503224,-1.1075411099891275,-0.01856884834325821,-0.003237959530351561,-0.03233354202987224,0,70,255.0,255.0,255.0
468,23.400000000000002,-18.39285622633179,2.1964335133703132,-14.291713165452482,-0.6124341725043176,-0.17801942449601985,-1.1091794520021019,-0.019470309471016772,-0.005083694297545306,-0.03320013848910261,0,70,255.0,255.0,255.0
469,23.450000000000003,-18.423502648452647,2.187525418471487,-14.347213999307558,-0.6134302245060624,-0.17831975258007696,-1.1108611238380377,-0.020371770598775336,-0.006929429064739051,-0.03406673494833297,0,70,255.0,255.0,255.0
470,23.5,-18.4542,2.1786,-14.4028,-0.6144713495641952,-0.17871236740249374,-1.1125861254969351,-0.02127323172653295,-0.008775163831931998,-0.03493333140755617,0,70,255.0,255.0,255.0
471,23.55,-18.484949498010806,2.169653831200848,-14.45847266735526,-0.6154953507269202,-0.179126014048312,-1.114314457036568,-0.019686814782465388,-0.0077707020007973995,-0.0341999301777573,0,70,255.0,255.0,255.0
472,23.6,-18.515748213058572,2.1606882356466945,-14.514230834535967,-0.6164400310424418,-0.1794894376025735,-1.1160061185147108,-0.01810039783839783,-0.006766240169662801,-0.03346652894795843,0,70,255.0,255.0,255.0
473,23.650000000000002,-18.546592179100934,2.1517057244921163,-14.57007266803904,-0.6173053905107599,-0.17980263806527827,-1.1176611099313638,-0.01651398089433027,-0.005761778338528202,-0.03273312771815956,0,70,255.0,255.0,255.0
474,23.700000000000003,-18.57747743009553,2.142708808891692,-14.625996334361412,-0.6180914291318749,-0.18006561543642632,-1.1192794312865268,-0.01492756395026271,-0.004757316507393604,-0.03199972648836069,0,70,255.0,255.0,255.0
475,23.75,-18.6084,2.1337,-14.682,-0.6187981469057862,-0.18027836971601763,-1.1208610825801997,-0.013341147006189047,-0.0037528546762581882,-0.0312663252585601,0,70,255.0,255.0,255.0
476,23.8,-18.639357252198483,2.124681285398955,-14.73808219828911,-0.6195053094223087,-0.18047231526376473,-1.1224280740546255,-0.014945353654714943,-0.004004967233625404,-0.03141333371846784,0,70,255.0,255.0,255.0
477,23.85,-18.670351867781104,2.115652558379826,-14.794242929912514,-0.6202926822712577,-0.1806788664393802,-1.1240024159520465,-0.01654956030324084,-0.00425707979099262,-0.03156034217837558,0,70,255.0,255.0,255.0
478,23.900000000000002,-18.701387857264486,2.106613188661219,-14.850482562391367,-0.6211602654526329,-0.180898023242864,-1.1255841082724631,-0.018153766951766737,-0.004509192348359836,-0.031707350638283324,0,70,255.0,255.0,255.0
479,23.950000000000003,-18.732469231165243,2.097562545961741,-14.906801463246813,-0.6221080589664344,-0.18112978567421617,-1.127173151015875,-0.019757973600292637,-0.004761304905727052,-0.031854359098191065,0,70,255.0,255.0,255.0
480,24.0,-18.7636,2.0885,-14.9632,-0.6231360628126621,-0.1813741537334367,-1.1287695441822823,-0.021362180248816642,-0.005013417463094028,-0.032001367558097016,0,70,255.0,255.0,255.0
481,24.05,-18.794783093195257,2.0794250272033312,-15.019678539488309,-0.6241794115838519,-0.18162472489663242,-1.1303732467449414,-0.02037177059877598,-0.005009429064734716,-0.03214673494826492,0,70,255.0,255.0,255.0
482,24.1,-18.826017115817013,2.0703375308340015,-15.076237445813987,-0.6251732398725398,-0.1818750966399102,-1.1319842176771087,-0.01938136094873532,-0.005005440666375404,-0.03229210233843283,0,70,255.0,255.0,255.0
483,24.150000000000002,-18.857299591841137,2.0612375208630054,-15.132877082395513,-0.6261175476787255,-0.18212526896326997,-1.1336024569787846,-0.01839095129869466,-0.005001452268016093,-0.03243746972860074,0,70,255.0,255.0,255.0
484,24.200000000000003,-18.888628045243507,2.0521250072613397,-15.18959781265136,-0.6270123350024092,-0.1823752418667118,-1.135227964649969,-0.017400541648653997,-0.004997463869656782,-0.032582837118768644,0,70,255.0,255.0,255.0
485,24.25,-18.92,2.043,-15.2464,-0.6278576018435907,-0.18262501535023565,-1.1368607406906612,-0.016410131998610744,-0.004993475471297026,-0.03272820450893121,0,70,255.0,255.0,255.0
486,24.3,-18.951413575020496,2.0338626057877174,-15.303283643757661,-0.6286890442423108,-0.1828687851497028,-1.1384789389655945,-0.01684756395018692,-0.004757316507388905,-0.03199972648839235,0,70,255.0,255.0,255.0
487,24.35,-18.982869268950864,2.024713318284166,-15.360247286831544,-0.6295423582386095,-0.18310074700097456,-1.1400607133395004,-0.017284995901763103,-0.004521157543480785,-0.03127124846785347,0,70,255.0,255.0,255.0
488,24.400000000000002,-19.01436817537098,2.015552727886756,-15.417289108026594,-0.630417543832487,-0.1833209009040509,-1.14160606381238,-0.01772242785333928,-0.004284998579572664,-0.030542770447314606,0,70,255.0,255.0,255.0
489,24.450000000000003,-19.045911387860738,2.0063814249928975,-15.474407286147766,-0.6313146010239434,-0.18352924685893182,-1.143114990384232,-0.01815985980491546,-0.004048839615664543,-0.02981429242677574,0,70,255.0,255.0,255.0
490,24.5,-19.0775,1.9972,-15.5316,-0.6322335298129785,-0.1837257848656173,-1.1445874930550572,-0.018597291756493384,-0.003812680651754885,-0.029085814406233368,0,70,255.0,255.0,255.0
491,24.55,-19.10913460672278,1.9880085496457987,-15.58886608548105,-0.6331444114468984,-0.18394013450455465,-1.1460629973926688,-0.01783797360029754,-0.004761304905739485,-0.029934359098229647,0,70,255.0,255.0,255.0
492,24.6,-19.140813808379562,1.9788051960293325,-15.646207006859845,-0.6340173271730083,-0.18420191535619126,-1.1475809289648802,-0.017078655444101698,-0.005709929159724085,-0.030782903790225927,0,70,255.0,255.0,255.0
493,24.650000000000002,-19.17253570667495,1.9695875675899674,-15.703624885498115,-0.6348522769913085,-0.18451112742052705,-1.1491412877716913,-0.016319337287905855,-0.0066585534137086864,-0.031631448482222206,0,70,255.0,255.0,255.0
494,24.700000000000003,-19.20429840331356,1.960353292767068,-15.761121842757591,-0.635649260901799,-0.18486777069756213,-1.1507440738131025,-0.015560019131710014,-0.007607177667693286,-0.032479993174218486,0,70,255.0,255.0,255.0
495,24.75,-19.2361,1.9511,-15.8187,-0.6364082789044796,-0.1852718451872964,-1.152389287089113,-0.01480070097551689,-0.008555801921677375,-0.03332853786620937,0,70,255.0,255.0,255.0
496,24.8,-19.26793919808839,1.941826395629088,-15.876360814318144,-0.6371653099700857,-0.18565867683207954,-1.1540370714637374,-0.01548054164872533,-0.0069174638696479765,-0.03258283711876507,0,70,255.0,255.0,255.0
497,24.85,-19.299817097530905,1.9325354975985019,-15.934103085729085,-0.6379563330693522,-0.1859635915742612,-1.1556475708009897,-0.016160382321933772,-0.005279125817618578,-0.031837136371320775,0,70,255.0,255.0,255.0
498,24.900000000000002,-19.331735397929222,1.9232314017533716,-15.991924949980955,-0.638781348202279,-0.1861865894138414,-1.1572207851008696,-0.016840222995142214,-0.0036407877655891784,-0.031091435623876475,0,70,255.0,255.0,255.0
499,24.950000000000003,-19.36369579888503,1.9139182039388276,-16.049824542821884,-0.6396403553688663,-0.18632767035082012,-1.1587567143633772,-0.017520063668350655,-0.0020024497135597797,-0.030345734876432176,0,70,255.0,255.0,255.0
500,25.0,-19.3957,1.9046,-16.1078,-0.6405333545691141,-0.18638683438519738,-1.160255358588513,-0.018199904341560824,-0.00036411166152960917,-0.029600034128989705,0,70,255.0,255.0,255.0
501,25.05,-19.42774940092366,1.8952794678378488,-16.16584985724638,-0.6414423486727743,-0.1864491581671272,-1.1617407167524063,-0.01815985980484811,-0.002128839615663772,-0.029814292426740965,0,70,255.0,255.0,255.0
502,25.1,-19.459844201496832,1.8859536135766588,-16.223974250223822,-0.6423493405495989,-0.18659971834676375,-1.163236787831187,-0.018119815268135397,-0.0038935675697979347,-0.030028550724492228,0,70,255.0,255.0,255.0
503,25.150000000000002,-19.491984301608174,1.8766180253965439,-16.28217371457808,-0.6432543301995879,-0.186838514924107,-1.1647435718248556,-0.01807977073142268,-0.005658295523932097,-0.030242809022243487,0,70,255.0,255.0,255.0
504,25.200000000000003,-19.524169601146344,1.867268291477619,-16.340448785954894,-0.6441573176227412,-0.187165547899157,-1.1662610687334114,-0.01803972619470997,-0.00742302347806626,-0.030457067319994747,0,70,255.0,255.0,255.0
505,25.25,-19.5564,1.8579,-16.3988,-0.6450583028190588,-0.18758081727191359,-1.1677892785568547,-0.01799968165799548,-0.009187751432199631,-0.030671325617740663,0,70,255.0,255.0,255.0
506,25.3,-19.588675198216972,1.848510133019516,-16.457227756696348,-0.6459452953388014,-0.188000690499411,-1.1693200615266528,-0.017480019131706107,-0.00760717766769734,-0.030559993174184185,0,70,255.0,255.0,255.0
507,25.35,-19.620994096481773,1.8391012480948623,-16.51573191337563,-0.6468063047322294,-0.18834153503868334,-1.170845277874273,-0.016960356605416733,-0.0060266039031950484,-0.030448660730627703,0,70,255.0,255.0,255.0
508,25.400000000000002,-19.65335539563809,1.829677296660451,-16.57431219170674,-0.6476413309993431,-0.18860335088973051,-1.1723649275997157,-0.01644069407912736,-0.004446030138692757,-0.030337328287071225,0,70,255.0,255.0,255.0
509,25.450000000000003,-19.685757796529604,1.8202422301506929,-16.63296831335857,-0.6484503741401423,-0.18878613805255262,-1.1738790107029804,-0.015921031552837986,-0.0028654563741904657,-0.030225995843514746,0,70,255.0,255.0,255.0
510,25.5,-19.7182,1.8108,-16.6917,-0.6492334341546269,-0.18888989652714958,-1.1753875271840672,-0.015401369026546874,-0.001284882609687843,-0.030114663399963604,0,70,255.0,255.0,255.0
511,25.55,-19.75068100620845,1.8013536000840868,-16.750507115968237,-0.6500084699720011,-0.18897207983523065,-1.176899037140977,-0.015600063668423661,-0.00200244971355522,-0.030345734876436128,0,70,255.0,255.0,255.0
512,25.6,-19.783201012576068,1.7919021940438902,-16.809390096273667,-0.6507934405214693,-0.1890901414985051,-1.178422100671711,-0.015798758310300448,-0.002720016817422597,-0.030576806352908655,0,70,255.0,255.0,255.0
513,25.650000000000002,-19.815760515839465,1.7824439879616496,-16.86834951859497,-0.6515883458030313,-0.18924408151697292,-1.1799567177762682,-0.015997452952177235,-0.0034375839212899746,-0.03080787782938118,0,70,255.0,255.0,255.0
514,25.700000000000003,-19.84836001273524,1.772977187919606,-16.927385960610856,-0.6523931858166869,-0.1894338998906341,-1.181502888454649,-0.016196147594054022,-0.004155151025157351,-0.031038949305853703,0,70,255.0,255.0,255.0
515,25.75,-19.881,1.7635,-16.9865,-0.6532079605624366,-0.18965959661948864,-1.1830606127068535,-0.016394842235932572,-0.004872718129024234,-0.031270020782329766,0,70,255.0,255.0,255.0
516,25.8,-19.91368077694923,1.7540106666441353,-17.04569177943071,-0.6540208247732011,-0.1899189901596659,-1.184603789909413,-0.016119726194646584,-0.005503023478065892,-0.030457067320060094,0,70,255.0,255.0,255.0
517,25.85,-19.946401853213956,1.7445075757295756,-17.104959701529722,-0.6548199331819012,-0.19020989896729523,-1.1861063194388595,-0.015844610153360597,-0.0061333288271075495,-0.029644113857790422,0,70,255.0,255.0,255.0
518,25.900000000000002,-19.979162541004055,1.734989151492948,-17.16430173391338,-0.6556052857885372,-0.19053232304237666,-1.1875682012951925,-0.01556949411207461,-0.006763634176149207,-0.02883116039552075,0,70,255.0,255.0,255.0
519,25.950000000000003,-20.011962152529442,1.7254538181708803,-17.223715844198026,-0.6563768825931088,-0.1908862623849102,-1.1889894354784116,-0.015294378070788624,-0.007393939525190865,-0.028018206933251077,0,70,255.0,255.0,255.0
520,26.0,-20.0448,1.7159,-17.2832,-0.657134723595616,-0.19127171699489576,-1.1903700219885172,-0.015019262029502656,-0.0080242448742327,-0.027205253470976132,0,70,255.0,255.0,255.0
521,26.05,-20.077675885994616,1.7063269333393707,-17.34275296630892,-0.6579082309351745,-0.19163995952610643,-1.1917578032213796,-0.015921031552836962,-0.006705456374194244,-0.028305995843520664,0,70,255.0,255.0,255.0
522,26.1,-20.11059157456812,1.6967371030378058,-17.402376697607455,-0.6587268267508998,-0.1919422626323152,-1.1932006215728692,-0.016822801076171272,-0.005386667874155789,-0.029406738216065195,0,70,255.0,255.0,255.0
523,26.150000000000002,-20.14354932014431,1.6871338060665555,-17.46207394575152,-0.6595905110427916,-0.192178626313522,-1.194698477042986,-0.01772457059950558,-0.0040678793741173325,-0.030507480588609727,0,70,255.0,255.0,255.0
524,26.200000000000003,-20.176551377147,1.6775203393968698,-17.521847462597062,-0.6604992838108503,-0.19234905056972693,-1.1962513696317303,-0.018626340122839886,-0.002749090874078877,-0.03160822296115426,0,70,255.0,255.0,255.0
525,26.25,-20.2096,1.6679,-17.5817,-0.6614531450550756,-0.19245353540092988,-1.1978592993391017,-0.019528109646172354,-0.001430302374039849,-0.032708965333707596,0,70,255.0,255.0,255.0
526,26.3,-20.24269647907229,1.6582751999983811,-17.64163315533361,-0.6623942514860828,-0.1925451717359097,-1.1994529972050891,-0.01811614759411773,-0.0022351510251529152,-0.03103894930579043,0,70,255.0,255.0,255.0
527,26.35,-20.275838248513562,1.6486448121191994,-17.701643908040488,-0.6632647598144874,-0.19267705050344516,-1.2009631942696808,-0.016704185542063103,-0.0030399996762659814,-0.029368933277873262,0,70,255.0,255.0,255.0
528,26.400000000000002,-20.309021778418696,1.639006824240827,-17.76172808308056,-0.6640646700402891,-0.19284917170353633,-1.2023898905328765,-0.015292223490008479,-0.003844848327379048,-0.027698917249956097,0,70,255.0,255.0,255.0
529,26.450000000000003,-20.34224353888255,1.6293592242416364,-17.821881505413756,-0.6647939821634882,-0.1930615353361831,-1.2037330859946764,-0.013880261437953853,-0.004649696978492114,-0.02602890122203893,0,70,255.0,255.0,255.0
530,26.5,-20.3755,1.6197,-17.8821,-0.6654526961840845,-0.19331414140138548,-1.2049927806550806,-0.012468299385899329,-0.005454545629604013,-0.024358885194120106,0,70,255.0,255.0,255.0
531,26.55,-20.40878859771622,1.6100274666671037,-17.94238081235664,-0.6660987631205019,-0.19358735353025536,-1.2062542079582648,-0.013374378070793481,-0.005473939525191086,-0.026098206933248873,0,70,255.0,255.0,255.0
532,26.6,-20.44211063137762,1.6003412484853945,-18.002726870230614,-0.6667901339911639,-0.19386153535390457,-1.2076026013484056,-0.014280456755687634,-0.0054933334207781575,-0.027837528672377636,0,70,255.0,255.0,255.0
533,26.650000000000002,-20.47546836618091,1.5906412969701331,-18.063142521926267,-0.6675268087960706,-0.19413668687233318,-1.2090379608255026,-0.015186535440581789,-0.00551272731636523,-0.0295768504115064,0,70,255.0,255.0,255.0
534,26.700000000000003,-20.508864067322797,1.5809275636365812,-18.123632115747945,-0.668308787535222,-0.19441280808554112,-1.2105602863895562,-0.01609261412547594,-0.005532121211952302,-0.03131617215063517,0,70,255.0,255.0,255.0
535,26.75,-20.5423,1.5712,-18.1842,-0.6691360702086182,-0.19468989899352843,-1.2121695780405664,-0.016998692810366478,-0.005551515107540039,-0.03305549388976914,0,70,255.0,255.0,255.0
536,26.8,-20.575777930062827,1.561458933333203,-18.244849195239837,-0.6699786960319467,-0.1949454141430689,-1.2137861709618396,-0.01670634012277396,-0.0046690908740786834,-0.03160822296116022,0,70,255.0,255.0,255.0
537,26.85,-20.60929762597596,1.5517061939392207,-18.30557741103708,-0.6708067042208957,-0.1951568080809363,-1.2153304003366823,-0.016413987435181444,-0.0037866666406173284,-0.030160952032551293,0,70,255.0,255.0,255.0
538,26.900000000000002,-20.642858356857676,1.5419439878786367,-18.366381029214402,-0.6716200947754649,-0.19532408080713062,-1.2168022661650948,-0.01612163474758893,-0.0029042424071559726,-0.028713681103942373,0,70,255.0,255.0,255.0
539,26.950000000000003,-20.676459391826263,1.5321745212120352,-18.427256431594486,-0.6724188676956545,-0.1954472323216519,-1.2182017684470767,-0.015829282059996414,-0.002021818173694617,-0.02726641017533345,0,70,255.0,255.0,255.0
540,27.0,-20.7101,1.5224,-18.4882,-0.6732030229814644,-0.1955262626245001,-1.219528907182628,-0.015536929372401254,-0.00113939394023288,-0.02581913924672108,0,70,255.0,255.0,255.0
541,27.05,-20.743779682032486,1.5126216000000836,-18.549208806684014,-0.6739864527517232,-0.19562298989746818,-1.2208251081943486,-0.01580026143794964,-0.002729696978491414,-0.02602890122210511,0,70,255.0,255.0,255.0
542,27.1,-20.77749886471856,1.502836375757721,-18.610282685621083,-0.6747830491252594,-0.19579923232234925,-1.2221317973048387,-0.016063593503498026,-0.004320000016749948,-0.02623866319748914,0,70,255.0,255.0,255.0
543,27.150000000000002,-20.8112582063884,1.4930403515153166,-18.671422161216142,-0.675592812102073,-0.1960549898991432,-1.2234489745140977,-0.016326925569046413,-0.005910303055008483,-0.02644842517287317,0,70,255.0,255.0,255.0
544,27.200000000000003,-20.845058365372157,1.4832295515152747,-18.732627757874138,-0.6764157416821641,-0.19639026262785012,-1.2247766398221258,-0.0165902576345948,-0.0075006060932670164,-0.026658187148257195,0,70,255.0,255.0,255.0
545,27.25,-20.8789,1.4734,-18.7939,-0.6772518378655326,-0.19680505050846986,-1.2261147932289231,-0.016853589700144056,-0.009090909131524327,-0.02686794912363233,0,70,255.0,255.0,255.0
546,27.3,-20.91278334180725,1.4635490666664621,-18.85523957802411,-0.6780754929611731,-0.19721862626705688,-1.2274733962607784,-0.016092614125474813,-0.007452121211956507,-0.027476172150577235,0,70,255.0,255.0,255.0
547,27.35,-20.946706915149807,1.4536795030298937,-18.916647846478604,-0.67886109927808,-0.19755026262966552,-1.228862410443981,-0.015331638550805571,-0.005813333292388687,-0.028084395177522144,0,70,255.0,255.0,255.0
548,27.400000000000002,-20.980668817588747,1.4437954060600948,-18.978126325921036,-0.6796086568162537,-0.19779995959629576,-1.2302818357785306,-0.01457066297613633,-0.004174545372820867,-0.02869261820446705,0,70,255.0,255.0,255.0
549,27.450000000000003,-21.01466714668512,1.4339008727268634,-19.03967653690898,-0.6803181655756937,-0.1979677171669476,-1.2317316722644276,-0.013809687401467086,-0.0025357574532530467,-0.029300841231411957,0,70,255.0,255.0,255.0
550,27.5,-21.0487,1.424,-19.1013,-0.6809896255564003,-0.19805353534162104,-1.2332119199016718,-0.013048711826799675,-0.0008969695336846772,-0.02990906425835682,0,70,255.0,255.0,255.0
551,27.55,-21.082766150738532,1.4140957333340685,-19.16299768121954,-0.6816635754035703,-0.19812650503430543,-1.234689306762514,-0.01390928205999985,-0.002021818173690331,-0.029186410175329403,0,70,255.0,255.0,255.0
552,27.6,-21.11686707468222,1.4041864121227023,-19.224768328464517,-0.6823805537624003,-0.19825571715899007,-1.2361305609192048,-0.014769852293200027,-0.003146666813695985,-0.028463756092301985,0,70,255.0,255.0,255.0
553,27.650000000000002,-21.151004923256632,1.3942692242443022,-19.28661013509973,-0.6831405606328903,-0.19844117171567502,-1.2375356823717443,-0.015630422526400203,-0.004271515453701639,-0.027741102009274567,0,70,255.0,255.0,255.0
554,27.700000000000003,-21.18518184788737,1.384341357577268,-19.348521294489956,-0.6839435960150403,-0.19868286870436025,-1.2389046711201324,-0.01649099275960038,-0.005396364093707293,-0.02701844792624715,0,70,255.0,255.0,255.0
555,27.75,-21.2194,1.3744,-19.4105,-0.6847896599088503,-0.19898080812504576,-1.240237527164369,-0.017351562992800496,-0.006521212733713977,-0.026295793843228665,0,70,255.0,255.0,255.0
556,27.8,-21.253660855238618,1.3644431999972642,-19.472544897097734,-0.6856382054245369,-0.19928335359572028,-1.241561376689158,-0.01659025763466352,-0.005580606093266991,-0.02665818714832327,0,70,255.0,255.0,255.0
557,27.85,-21.28796318612132,1.3544724484792947,-19.534656439663337,-0.6864486856723168,-0.1995388687343725,-1.2429033458792016,-0.01582895227652654,-0.004639999452820005,-0.027020580453417875,0,70,255.0,255.0,255.0
558,27.900000000000002,-21.322305089384724,1.3444900969626934,-19.59683553368008,-0.6872211006521897,-0.1997473535410023,-1.2442634347344999,-0.015067646918389566,-0.003699392812373019,-0.02738297375851248,0,70,255.0,255.0,255.0
559,27.950000000000003,-21.356684661765414,1.3344984969640614,-19.659083085131208,-0.6879554503641556,-0.19990880801560976,-1.2456416432550528,-0.014306341560252591,-0.002758786171926033,-0.027745367063607085,0,70,255.0,255.0,255.0
