idx,t,px,py,pz,vx,vy,vz,ax,ay,az,yaw,mode,ledr,ledg,ledb
0,0.0,13.5,-1.5,0.0,-0.002091795575164996,-0.00015258698966176066,0.0009496998581122601,0.0459015469019599,-0.004568956124058167,-0.043396398297347115,0,70,255.0,255.0,255.0
1,0.05,13.499952695359294,-1.5000134931316278,-7.410805107958634e-06,0.0001977740354232458,-0.00039019001524437467,-0.00125913806526836,0.04568123752156977,-0.004935164899246393,-0.04495711863787769,0,70,255.0,255.0,255.0
2,0.1,13.500019593812391,-1.5000393241755037,-0.00012721440681061152,0.0024763281769919813,-0.0006461034795864,-0.0035460120056755094,0.04546092814117965,-0.005301373674434618,-0.04651783897840827,0,70,255.0,255.0,255.0
3,0.15000000000000002,13.500200144585841,-1.5000784086535657,-0.0003633126059592851,0.004743866849541212,-0.0009203273826878366,-0.005910921963109187,0.045240618760789525,-0.005667582449622844,-0.04807855931893885,0,70,255.0,255.0,255.0
4,0.2,13.500493796906195,-1.5001316620877518,-0.0007196072034053058,0.0070003900530709335,-0.0012128617245486845,-0.008353867937569395,0.0450203093803994,-0.006033791224811069,-0.049639279659469425,0,70,255.0,255.0,255.0
5,0.25,13.5009,-1.5002,-0.0012,0.00924589778758115,-0.0015237065051689435,-0.01087484992905613,0.04480000000000926,-0.006399999999999297,-0.05120000000000005,0,70,255.0,255.0,255.0
6,0.30000000000000004,13.501418203093804,-1.5002843379122481,-0.0018083927965946948,0.011480390053071863,-0.0018528617245486142,-0.013473867937569398,0.044579690619619146,-0.006766208775187522,-0.05276072034053061,0,70,255.0,255.0,255.0
7,0.35000000000000003,13.502047855414157,-1.5003855913464341,-0.0025486873940407154,0.013703866849543066,-0.002200327382687696,-0.01615092196310919,0.04435938123922903,-0.007132417550375746,-0.05432144068106116,0,70,255.0,255.0,255.0
8,0.4,13.502788406187607,-1.5005046758244962,-0.003424785593189389,0.015916328176994763,-0.0025661034795861886,-0.018906012005675515,0.04413907185883892,-0.007498626325563971,-0.05588216102159171,0,70,255.0,255.0,255.0
9,0.45,13.503639304640705,-1.500642506868372,-0.004440589194892043,0.01811777403542696,-0.002950190015244093,-0.021739138065268365,0.0439187624784488,-0.007864835100752195,-0.057442881362122264,0,70,255.0,255.0,255.0
10,0.5,13.5046,-1.5008,-0.0056,0.020308204424839642,-0.0033525869896614082,-0.024650300141887738,0.04369845309805878,-0.008231043875940421,-0.05900360170265284,0,70,255.0,255.0,255.0
11,0.55,13.50566969226549,-1.5009779552193796,-0.006905418008513266,0.022472665752290604,-0.0037663630865600027,-0.02754939018445406,0.0428799999999797,-0.008320000000003346,-0.05696000000000001,0,70,255.0,255.0,255.0
12,0.6000000000000001,13.506846584530981,-1.5011767104387594,-0.008353236017026531,0.024596204424837616,-0.004184586989661744,-0.030346300141887744,0.04206154690190061,-0.008408956124066272,-0.05491639829734718,0,70,255.0,255.0,255.0
13,0.65,13.508128630663727,-1.5013964880484492,-0.00993834502128316,0.02667882044248067,-0.00460725869896663,-0.03304103001418878,0.041243093803821525,-0.008497912248129196,-0.05287279659469435,0,70,255.0,255.0,255.0
14,0.7000000000000001,13.50951378453098,-1.5016375104387594,-0.011655636017026532,0.028720513805219765,-0.005034378214474663,-0.035633579801357174,0.040424640705742435,-0.008586868372192122,-0.05082919489204152,0,70,255.0,255.0,255.0
15,0.75,13.511,-1.5019,-0.0135,0.030721284513054913,-0.005465945536185841,-0.038123949503392936,0.03960618760766327,-0.00867582449625507,-0.048785593189388576,0,70,255.0,255.0,255.0
16,0.8,13.512586227844233,-1.5021838412102333,-0.015467535169352252,0.0327409469377567,-0.00588168592921249,-0.04058457132461439,0.04118030938040828,-0.00795379122481087,-0.04963927965946935,0,70,255.0,255.0,255.0
17,0.8500000000000001,13.51427540646192,-1.5024875668985282,-0.01755916853785317,0.03483931545109575,-0.0062613246586669296,-0.04308787746933987,0.042754431153153284,-0.007231757953366669,-0.05049296612955012,0,70,255.0,255.0,255.0
18,0.9,13.516071471157487,-1.5028093719817068,-0.01977703432167797,0.03701639005307203,-0.006604861724549157,-0.04563386793756939,0.04432855292589829,-0.00650972468192247,-0.05134665259963089,0,70,255.0,255.0,255.0
19,0.9500000000000001,13.51797835723537,-1.5031474513765903,-0.022123266737001848,0.039272170743685574,-0.0069122971268591755,-0.048222542729302965,0.0459026746986433,-0.005787691410478269,-0.052200339069711665,0,70,255.0,255.0,255.0
20,1.0,13.52,-1.5035,-0.0246,0.04160665752293635,-0.007183630865596985,-0.05085390184454056,0.04747679647138825,-0.005065658139034104,-0.053054025539791605,0,70,255.0,255.0,255.0
21,1.05,13.522138996357572,-1.5038658799396876,-0.02720924131407774,0.043939546496683024,-0.007458893196591541,-0.05352032451708841,0.04583876247847849,-0.00594483510074815,-0.053602881362121935,0,70,255.0,255.0,255.0
22,1.1,13.52439258962134,-1.5042466219671273,-0.029952489831560788,0.0461905337707842,-0.0077781143756718,-0.056214189980752755,0.044200728485568726,-0.006824012062462197,-0.054151737184452264,0,70,255.0,255.0,255.0
23,1.1500000000000001,13.526756684706323,-1.504644424024723,-0.03283111769200497,0.0483596193452399,-0.00814129440283776,-0.05893549823553363,0.04256269449265897,-0.0077031890241762435,-0.054700593006782594,0,70,255.0,255.0,255.0
24,1.2000000000000002,13.529227186527537,-1.5050614840548793,-0.0358464970349661,0.05044680322005011,-0.008548433278089426,-0.06168424928143103,0.0409246604997492,-0.00858236598589029,-0.055249448829112924,0,70,255.0,255.0,255.0
25,1.25,13.5318,-1.5055,-0.039,0.05245208539521482,-0.00899953100142679,-0.06446044311844491,0.03928662650683984,-0.009461542947604401,-0.0557983046514422,0,70,255.0,255.0,255.0
26,1.3,13.534472186725477,-1.505961439031016,-0.0422922995743368,0.054444867075528536,-0.009450741284421704,-0.06722213060703201,0.04042464070570845,-0.008586868372192141,-0.05466919489204136,0,70,255.0,255.0,255.0
27,1.35,13.53724543505272,-1.5064443452329626,-0.04572127213590371,0.056494549465785665,-0.009858217838646006,-0.06992736260764905,0.04156265490457706,-0.00771219379677988,-0.053540085132640525,0,70,255.0,255.0,255.0
28,1.4000000000000001,13.540122590017223,-1.506946531919401,-0.049284094910302216,0.05860113256598624,-0.010221960664099692,-0.07257613912029606,0.042700669103445665,-0.006837519221367619,-0.05241097537323969,0,70,255.0,255.0,255.0
29,1.4500000000000002,13.543106496654483,-1.5074658124038933,-0.052977945123133814,0.060764616376130245,-0.010541969760782768,-0.07516846014497303,0.04383868330231428,-0.005962844645955359,-0.051281865613838844,0,70,255.0,255.0,255.0
30,1.5,13.5462,-1.508,-0.0568,0.06298500089621765,-0.01081824512869523,-0.07770432568167993,0.04497669750118283,-0.005088170070543088,-0.050152755854438125,0,70,255.0,255.0,255.0
31,1.55,13.54940505674052,-1.508547563936248,-0.060747960388575085,0.06520898520121256,-0.011090141665720765,-0.08021515305478366,0.04398267469861354,-0.005787691410478261,-0.05028033906971143,0,70,255.0,255.0,255.0
32,1.6,13.552720070167787,-1.5091095971010218,-0.06482162162482442,0.06738326836607901,-0.011397014269743056,-0.08273235958865108,0.04298865189604426,-0.006487212750413434,-0.05040792228498474,0,70,255.0,255.0,255.0
33,1.6500000000000001,13.556142555224794,-1.509687848297672,-0.06902130266678624,0.06950785039081699,-0.011738862940762108,-0.08525594528328215,0.041994629093474976,-0.0071867340903486055,-0.05053550550025805,0,70,255.0,255.0,255.0
34,1.7000000000000002,13.559670026854533,-1.5102840663295483,-0.07334732247249871,0.07158273127542653,-0.012115687678777918,-0.08778591013867688,0.04100060629090569,-0.007886255430283779,-0.05066308871553136,0,70,255.0,255.0,255.0
35,1.75,13.5633,-1.5109,-0.0778,0.07360791101990755,-0.012527488483790483,-0.09032225415483527,0.04000658348833608,-0.00858577677021885,-0.05079067193080511,0,70,255.0,255.0,255.0
36,1.8,13.567030786312444,-1.511537105223992,-0.0823798588713629,0.07563119211961054,-0.012956692052693319,-0.09287725717383322,0.04092466049978345,-0.008582365985894558,-0.05140944882911271,0,70,255.0,255.0,255.0
37,1.85,13.570863884276138,-1.512195666362949,-0.08708824136479859,0.07770037706988589,-0.013385725082379939,-0.09546319903774655,0.04184273751123082,-0.008578955201570265,-0.05202822572742032,0,70,255.0,255.0,255.0
38,1.9000000000000001,13.57480158908361,-1.5128756748899097,-0.09192669442255282,0.07981546587073363,-0.013814587572850347,-0.09808007974657526,0.042760814522678194,-0.008575544417245973,-0.052647002625727926,0,70,255.0,255.0,255.0
39,1.9500000000000002,13.578846195927387,-1.5135771222779137,-0.09689676498687137,0.08197645852215373,-0.014243279524104537,-0.10072789930031935,0.04367889153412557,-0.00857213363292168,-0.05326577952403553,0,70,255.0,255.0,255.0
40,2.0,13.583,-1.5143,-0.102,0.08418335502414617,-0.014671800936142513,-0.1034066576989788,0.04459696854557271,-0.008568722848597332,-0.05388455642234358,0,70,255.0,255.0,255.0
41,2.0500000000000003,13.587264598009705,-1.5150440151677833,-0.10723740412597334,0.08639424632034336,-0.015083090123506327,-0.10608381824988339,0.04383868330231419,-0.007882844645955147,-0.05320186561383937,0,70,255.0,255.0,255.0
42,2.1,13.591638792727665,-1.515807737447182,-0.11260781291598125,0.0885672233543776,-0.01546008540073803,-0.10872684426036275,0.043080398059055676,-0.007196966443312967,-0.05251917480533517,0,70,255.0,255.0,255.0
43,2.15,13.596120688440772,-1.5165894521426884,-0.1181095196430025,0.09070228612624891,-0.01580278676783762,-0.11133573573041688,0.04232211281579717,-0.006511088240670789,-0.05183648399683096,0,70,255.0,255.0,255.0
44,2.2,13.60070838943592,-1.5173874445587967,-0.12374081758001586,0.09279943463595733,-0.016111194224805107,-0.11391049266004585,0.041563827572538646,-0.005825210038028603,-0.05115379318832675,0,70,255.0,255.0,255.0
45,2.25,13.6054,-1.5182,-0.1295,0.09485866888350276,-0.016385307771640482,-0.11645111504924958,0.04080554232928024,-0.005139331835386396,-0.05047110237982333,0,70,255.0,255.0,255.0
46,2.3000000000000003,13.610194021648738,-1.519026034104874,-0.13538572462474385,0.09690382259900743,-0.016662947453282135,-0.11897946982663346,0.04100060629090565,-0.005966255430279681,-0.05066308871553143,0,70,255.0,255.0,255.0
47,2.35,13.615090544813203,-1.5198669838483239,-0.14139810697127644,0.09895872951259332,-0.016981933314668452,-0.12151742392080273,0.041195670252531055,-0.006793179025172959,-0.05085507505123952,0,70,255.0,255.0,255.0
48,2.4000000000000004,13.620090057153297,-1.5207249165393368,-0.1475376270054372,0.10102338962426054,-0.017342265355799434,-0.12406497733175743,0.04139073421415647,-0.007620102620066244,-0.05104706138694761,0,70,255.0,255.0,255.0
49,2.45,13.62519304632893,-1.5216018994868996,-0.1538047646930653,0.10309780293400898,-0.017743943576675077,-0.12662213005949752,0.041585798175781875,-0.008447026214959522,-0.05123904772265571,0,70,255.0,255.0,255.0
50,2.5,13.6304,-1.5225,-0.1602,0.10518196944183872,-0.018186967977295382,-0.129188882104023,0.04178086213740784,-0.009273949809852744,-0.051431034058364355,0,70,255.0,255.0,255.0
51,2.5500000000000003,13.635711315395346,-1.52342064841272,-0.16672369737505152,0.10727046328362717,-0.018633120063364848,-0.131758302443583,0.04175889153413008,-0.0085721336329259,-0.051345779524035115,0,70,255.0,255.0,255.0
52,2.6,13.641127028019527,-1.5243627271595226,-0.17337575919891304,0.10935785859525173,-0.01904418134058797,-0.1343234600564265,0.04173692093085233,-0.007870317455999063,-0.05126052498970588,0,70,255.0,255.0,255.0
53,2.6500000000000004,13.646647082946034,-1.5253244816999647,-0.1801559723352489,0.11144415537671241,-0.019420151808964756,-0.13688435494255358,0.04171495032757457,-0.007168501279072221,-0.05117527045537664,0,70,255.0,255.0,255.0
54,2.7,13.652271425248362,-1.5263041574936047,-0.18706412364772315,0.11352935362800919,-0.019761031468495196,-0.13944098710196418,0.04169297972429682,-0.006466685102145384,-0.05109001592104741,0,70,255.0,255.0,255.0
55,2.75,13.658,-1.5273,-0.1941,0.11561345334914208,-0.020066820319179297,-0.14199335653465833,0.04167100912101929,-0.005764868925218408,-0.05100476138671928,0,70,255.0,255.0,255.0
56,2.8000000000000003,13.66383271676988,-1.5283105722442458,-0.20126348587505039,0.11769432426648105,-0.020356572293260364,-0.1445473203990345,0.041563827572538604,-0.00582521003802427,-0.0511537931883276,0,70,255.0,255.0,255.0
57,2.85,13.66976934310869,-1.5293357075135867,-0.20855485623307146,0.11976983610639594,-0.020649341322981726,-0.1471087358534911,0.04145664602405792,-0.0058855511508301315,-0.05130282498993592,0,70,255.0,255.0,255.0
58,2.9000000000000004,13.675809611062563,-1.5303755566608048,-0.2159744836535675,0.12183998886888683,-0.020945127408343377,-0.14967760289802812,0.04134946447557723,-0.005945892263635994,-0.05145185679154425,0,70,255.0,255.0,255.0
59,2.95,13.681953252677621,-1.5314302705386817,-0.22352274071604228,0.12390478255395367,-0.021243930549345324,-0.15225392153264553,0.04124228292709655,-0.006006233376441856,-0.05160088859315257,0,70,255.0,255.0,255.0
60,3.0,13.6882,-1.5325,-0.2312,0.12596421716159648,-0.02154575074598756,-0.15483769175734335,0.04113510137861609,-0.006066574489247689,-0.051749920394761784,0,70,255.0,255.0,255.0
61,3.0500000000000003,13.694549817525136,-1.5335850626102965,-0.23900635912474727,0.12803223965045646,-0.021860590763592744,-0.15741241596027883,0.04158579817578221,-0.006527026214959744,-0.051239047722657194,0,70,255.0,255.0,255.0
62,3.1,13.70100359954571,-1.5346864427861306,-0.24694081586880112,0.13012279697917473,-0.022198453367483533,-0.1599615965296091,0.04203649497294833,-0.0069874779406717945,-0.050728175050552604,0,70,255.0,255.0,255.0
63,3.1500000000000004,13.707562472803717,-1.5358052916568163,-0.25500209305048144,0.13223588914775128,-0.022559338557659927,-0.1624852334653341,0.042487191770114445,-0.007447929666383849,-0.05021730237844801,0,70,255.0,255.0,255.0
64,3.2,13.714227564041149,-1.536942760351668,-0.26318891348810775,0.13437151615618614,-0.022943246334121918,-0.1649833267674539,0.042937888567280556,-0.0079083813920959,-0.049706429706343425,0,70,255.0,255.0,255.0
65,3.25,13.721,-1.5381,-0.2715,0.1365296780044793,-0.023350176696869517,-0.16745587643596846,0.04338858536444645,-0.008368833117807922,-0.04919555703423906,0,70,255.0,255.0,255.0
66,3.3000000000000003,13.727880013129578,-1.5392779773145677,-0.27993427762596074,0.13865671713169703,-0.023769064652368454,-0.16991501575985063,0.041692979724262794,-0.008386685102149377,-0.0491700159210469,0,70,255.0,255.0,255.0
67,3.35,13.73486425870847,-1.5404769213418905,-0.2884914802917241,0.14069897597690556,-0.024188845207084454,-0.17237287802807316,0.03999737408407915,-0.008404537086490832,-0.049144474807854756,0,70,255.0,255.0,255.0
68,3.4000000000000004,13.74194849772257,-1.5416968767119297,-0.29717154414450714,0.14265645454010495,-0.024609518361017536,-0.17482946324063608,0.03830176844389549,-0.008422389070832287,-0.0491189336946626,0,70,255.0,255.0,255.0
69,3.45,13.749128491157782,-1.5429378880546458,-0.3059744053315267,0.14452915282129514,-0.025031084114167684,-0.17728477139753943,0.036606162803711845,-0.008440241055173742,-0.049093392581470455,0,70,255.0,255.0,255.0
70,3.5,13.7564,-1.5442,-0.3149,0.14631707082047615,-0.025453542466534907,-0.17973880249878313,0.03491055716352842,-0.008458093039515197,-0.04906785146827741,0,70,255.0,255.0,255.0
71,3.5500000000000003,13.763760529956546,-1.5454830281314331,-0.32394853037140997,0.14812489182274288,-0.025863150626933725,-0.18220752100031887,0.03740228292713971,-0.007926233376437355,-0.04968088859315167,0,70,255.0,255.0,255.0
72,3.6,13.771214565620411,-1.5467858718463074,-0.33312126296430267,0.15005729911319013,-0.026246165804178642,-0.18470689135809829,0.03989400869075098,-0.007394373713359519,-0.050293925718025934,0,70,255.0,255.0,255.0
73,3.6500000000000004,13.778768336306003,-1.5481072014954653,-0.34241973037149054,0.15211429269181798,-0.026602587998269676,-0.18723691357212147,0.042385734454362264,-0.006862514050281678,-0.0509069628429002,0,70,255.0,255.0,255.0
74,3.7,13.786428071327727,-1.5494456874297486,-0.3518454651857855,0.15429587255862637,-0.026932417209206812,-0.18979758764238833,0.04487746021797353,-0.006330654387203842,-0.051519999967774455,0,70,255.0,255.0,255.0
75,3.75,13.7942,-1.5508,-0.3614,0.1566020387136153,-0.027235653436990057,-0.1923889135688989,0.047369185981583906,-0.005798794724125839,-0.05213303709264827,0,70,255.0,255.0,255.0
76,3.8000000000000003,13.802088267044235,-1.5521691101596995,-0.37108440088839983,0.1589077155773368,-0.027530332839895713,-0.19498290023887374,0.04485788856727545,-0.005988381392100312,-0.05162642970634503,0,70,255.0,255.0,255.0
77,3.85,13.810088678809889,-1.5535531912728795,-0.38089786785106544,0.16108782757034285,-0.027834491576200087,-0.1975515565395334,0.04234659115296701,-0.006177968060074784,-0.051119822320041794,0,70,255.0,255.0,255.0
78,3.9000000000000004,13.818194957053425,-1.5549527173062094,-0.39083913436953127,0.1631423746926335,-0.02814812964590319,-0.20009488247087792,0.03983529373865855,-0.006367554728049259,-0.050613214933738555,0,70,255.0,255.0,255.0
79,3.95,13.826400823531307,-1.5563681622263597,-0.40090693392533133,0.1650713569442087,-0.028471247049005017,-0.20261287803290726,0.03732399632435012,-0.006557141396023731,-0.050106607547435324,0,70,255.0,255.0,255.0
80,4.0,13.8347,-1.5578,-0.4111,0.16687477432506853,-0.028803843785505562,-0.20510554322562147,0.03481269891004102,-0.0067467280639982585,-0.04960000016113186,0,70,255.0,255.0,255.0
81,4.05,13.843088001866512,-1.5592485312297684,-0.42141706607499096,0.1686602458679115,-0.02913551801348476,-0.20757287804418648,0.03660616280367774,-0.006520241055169746,-0.0490933925814689,0,70,255.0,255.0,255.0
82,4.1000000000000005,13.851567519140035,-1.5607133630621746,-0.4318568656314357,0.17053539060543632,-0.02945586789102254,-0.21001488248376837,0.03839962669731449,-0.00629375404634123,-0.048586785001805924,0,70,255.0,255.0,255.0
83,4.15,13.8601430354803,-1.5621939292796967,-0.4424181321503848,0.17250020853764297,-0.029764893418118887,-0.2124315565443671,0.04019309059095121,-0.006067267037512717,-0.04808017742214296,0,70,255.0,255.0,255.0
84,4.2,13.868819034547046,-1.5636896636648123,-0.4530995991128893,0.1745546996645314,-0.03006259459477381,-0.21482290022598266,0.04198655448458793,-0.0058407800286842055,-0.04757356984248,0,70,255.0,255.0,255.0
85,4.25,13.8776,-1.5652,-0.4639,0.17669886398610174,-0.030348971420987306,-0.21718891352861508,0.04378001837822376,-0.005614293019855582,-0.047066962262814815,0,70,255.0,255.0,255.0
86,4.3,13.886489325489713,-1.5667247649212273,-0.4748185348116363,0.17886730095100764,-0.03064759510616379,-0.2195575875843798,0.04295746021801153,-0.0063306543872037185,-0.047679999967774916,0,70,255.0,255.0,255.0
87,4.3500000000000005,13.895486044629967,-1.5682653564784226,-0.4858562696231923,0.1809946100079029,-0.03098203685970768,-0.2219569135253926,0.042134902057799274,-0.007047015754551868,-0.04829303767273504,0,70,255.0,255.0,255.0
88,4.4,13.904588101025368,-1.569823565575004,-0.4970147370289298,0.18308079115678758,-0.03135229668161898,-0.22438689135165332,0.04131234389758704,-0.007763377121900006,-0.04890607537769514,0,70,255.0,255.0,255.0
89,4.45,13.913793438280512,-1.5714011831143904,-0.5082954696231117,0.1851258443976616,-0.03175837457189768,-0.2268475210631621,0.0404897857373748,-0.008479738489248143,-0.04951911308265525,0,70,255.0,255.0,255.0
90,4.5,13.9231,-1.573,-0.5197,0.187129769730525,-0.032200270530543786,-0.22933880265991882,0.03966722757716101,-0.00919609985659614,-0.05013215078761335,0,70,255.0,255.0,255.0
91,4.55,13.932505896174641,-1.5746212090853224,-0.5312295946784638,0.18910255032806264,-0.032642101561859385,-0.23184477161829498,0.039243996324345214,-0.008477141396027791,-0.05010660754743408,0,70,255.0,255.0,255.0
92,4.6000000000000005,13.942009902340097,-1.5762636110241355,-0.5428844558757961,0.19105416936295955,-0.033047984670146566,-0.23434946341466226,0.0388207650715294,-0.007758182935459427,-0.050081064307254806,0,70,255.0,255.0,255.0
93,4.65,13.951610960418227,-1.577925408420287,-0.5546645197338967,0.1929846268352156,-0.03341791985540533,-0.2368528780490205,0.0383975338187136,-0.007039224474891076,-0.05005552106707554,0,70,255.0,255.0,255.0
94,4.7,13.961308012330905,-1.5796048038776256,-0.5665697223946646,0.1948939227448309,-0.03375190711763568,-0.23935501552136978,0.037974302565897795,-0.006320266014322726,-0.05002997782689626,0,70,255.0,255.0,255.0
95,4.75,13.9711,-1.5813,-0.5786,0.19678205709180535,-0.0340499464568376,-0.24185587583171012,0.03755107131308044,-0.0056013075537543755,-0.05000443458671611,0,70,255.0,255.0,255.0
96,4.800000000000001,13.98098628981172,-1.583009598737482,-0.590755086474509,0.19867449773674645,-0.03433599864639857,-0.24434332594243996,0.038146554484562244,-0.0058407800286841925,-0.049493569842476805,0,70,255.0,255.0,255.0
97,4.8500000000000005,13.99096794600965,-1.5847337994250354,-0.6030339068736239,0.2005967125402616,-0.03463402445970602,-0.24680523281595784,0.03874203765604403,-0.006080252503614006,-0.04898270509823752,0,70,255.0,255.0,255.0
98,4.9,14.00104645730172,-1.5864732007438485,-0.6154351840354845,0.20254870150235083,-0.03494402389675997,-0.2492415964522637,0.03933752082752582,-0.0063197249785438185,-0.04847184035399823,0,70,255.0,255.0,255.0
99,4.95,14.011223312395861,-1.5882284013751076,-0.6279576407982299,0.20453046462301416,-0.0352659969575604,-0.25165241685135764,0.039933003999007614,-0.006559197453473632,-0.047960975609758934,0,70,255.0,255.0,255.0
100,5.0,14.0215,-1.59,-0.6406,0.20654200190225158,-0.035599943642107335,-0.2540376940132396,0.04052848717048896,-0.0067986699284035,-0.04745011086551987,0,70,255.0,255.0,255.0
101,5.050000000000001,14.031877744578479,-1.5917883959647496,-0.6533612594235012,0.20856745872494906,-0.03593390385254853,-0.25641392461194407,0.04048978573740829,-0.006559738489244001,-0.04759911308265892,0,70,255.0,255.0,255.0
102,5.1000000000000005,14.0423567136213,-1.5935931912757224,-0.6662415166297087,0.21059098047599242,-0.036255917491031735,-0.25879760532150553,0.040451084304327624,-0.006320807050084506,-0.047748115299797965,0,70,255.0,255.0,255.0
103,5.15,14.052936810374884,-1.5954137886043203,-0.679241144124166,0.2126125671553818,-0.036565984557556976,-0.2611887361419239,0.04041238287124695,-0.0060818756109250124,-0.04789711751693702,0,70,255.0,255.0,255.0
104,5.2,14.063617938085644,-1.5972495906219453,-0.6923605144124154,0.2146322187631171,-0.03686410505212424,-0.2635873170731992,0.04037368143816629,-0.005842944171765518,-0.04804611973407606,0,70,255.0,255.0,255.0
105,5.25,14.0744,-1.5991,-0.7056,0.2166499352991984,-0.03715027897473353,-0.2659933481153315,0.040334980005085175,-0.0056040127326061895,-0.048195121951214226,0,70,255.0,255.0,255.0
106,5.300000000000001,14.085282731874369,-1.6009648174035198,-0.7189598758314872,0.21865566736347203,-0.037448385943406756,-0.2684009756097842,0.03989430256585837,-0.006320266014322761,-0.04810997782689359,0,70,255.0,255.0,255.0
107,5.3500000000000005,14.09626519950515,-1.6028454354720754,-0.7324400266075417,0.22063936555578426,-0.03778230557616581,-0.2708043458980209,0.03945362512663157,-0.0070365192960393196,-0.048024833702572954,0,70,255.0,255.0,255.0
108,5.4,14.107346301198746,-1.604743644838871,-0.7460402394678524,0.22260102987613517,-0.03815203787301069,-0.2732034589800415,0.03901294768740477,-0.007752772577755878,-0.04793968957825232,0,70,255.0,255.0,255.0
109,5.45,14.118524935261563,-1.6066612361371113,-0.7597603015521087,0.22454066032452472,-0.0385575828339414,-0.27559831485584607,0.03857227024817798,-0.008469025859472437,-0.04785454545393168,0,70,255.0,255.0,255.0
110,5.5,14.1298,-1.6086,-0.7736,0.22645825690095295,-0.03899894045895792,-0.2779889135254347,0.03813159280895162,-0.00918527914118894,-0.04776940132961238,0,70,255.0,255.0,255.0
111,5.550000000000001,14.141170527924055,-1.6105611344211712,-0.7875592372505505,0.22836187182115206,-0.03944055237382459,-0.280382172948919,0.038013003999012175,-0.008479197453477706,-0.04796097560975961,0,70,255.0,255.0,255.0
112,5.6000000000000005,14.152636088358106,-1.6125434668359762,-0.8016383769401255,0.23025955730085418,-0.0398468602043057,-0.2827850110864107,0.037894415189072723,-0.007773115765766484,-0.048152549889906825,0,70,255.0,255.0,255.0
113,5.65,14.164196384830129,-1.6145452320401952,-0.815837898004425,0.23215131334005934,-0.040217863950401236,-0.2851974279379097,0.03777582637913328,-0.007067034078055263,-0.04834412417005405,0,70,255.0,255.0,255.0
114,5.7,14.175851120868105,-1.6165646648296097,-0.8301582793791498,0.23403713993876749,-0.040553563612111224,-0.28761942350341607,0.037657237569193834,-0.006360952390344041,-0.04853569845020127,0,70,255.0,255.0,255.0
115,5.75,14.1876,-1.6186,-0.8446,0.2359170370969787,-0.04085395918943565,-0.2900509977829298,0.03753864875925483,-0.005654870702632764,-0.04872727273034938,0,70,255.0,255.0,255.0
116,5.800000000000001,14.199443156429414,-1.6206498449117959,-0.8591631751663111,0.23781684535191522,-0.0411414045612955,-0.29247033259454047,0.03845368143820479,-0.005842944171761314,-0.04804611973407579,0,70,255.0,255.0,255.0
117,5.8500000000000005,14.211382447062425,-1.6227142971840205,-0.8738464656319573,0.2397624052407992,-0.04143825360661178,-0.2948556097563374,0.039368714117154736,-0.00603101764088986,-0.04736496673780221,0,70,255.0,255.0,255.0
118,5.9,14.223420159480726,-1.624793827000348,-0.888648168514448,0.24175371676363067,-0.041744506325384484,-0.2972068292683207,0.04028374679610468,-0.006219091110018405,-0.04668381374152863,0,70,255.0,255.0,255.0
119,5.95,14.23555858126602,-1.62688890454445,-0.9035665809312924,0.24379077992040965,-0.042060162717613626,-0.2995239911304903,0.04119877947505462,-0.006407164579146952,-0.04600266074525505,0,70,255.0,255.0,255.0
120,6.0,14.2478,-1.629,-0.9186,0.24587359471113612,-0.042385222783299176,-0.30180709534284617,0.042113812154004115,-0.0065952380482754425,-0.04532150774898058,0,70,255.0,255.0,255.0
121,6.050000000000001,14.260145646358287,-1.6311274859316467,-0.9337472620842057,0.24793874677118974,-0.04271382938099288,-0.304088496672919,0.040492270248139284,-0.006549025859472612,-0.04593454545393217,0,70,255.0,255.0,255.0
122,6.1000000000000005,14.272592523392197,-1.6332713444279419,-0.9490093605320462,0.24992282173595007,-0.04304012536924644,-0.30640054988823945,0.03887072834227448,-0.006502813670669782,-0.04654758315888375,0,70,255.0,255.0,255.0
123,6.15,14.285136577246963,-1.6354314599584139,-0.9643878279377838,0.25182581960541717,-0.04336411074805986,-0.3087432549888074,0.037249186436409676,-0.006456601481866952,-0.04716062086383533,0,70,255.0,255.0,255.0
124,6.2,14.297773754067817,-1.6376077169925907,-0.9798841968956808,0.25364774037959104,-0.04368578551743313,-0.3111166119746229,0.03562764453054487,-0.006410389293064122,-0.0477736585687869,0,70,255.0,255.0,255.0
125,6.25,14.3105,-1.6398,-0.9955,0.25538858405847165,-0.04400514967736627,-0.313520620845686,0.034006102624680956,-0.006364177104261404,-0.04838669627373626,0,70,255.0,255.0,255.0
126,6.300000000000001,14.323312658137432,-1.642008211361618,-1.011236576496867,0.2571321675633195,-0.044323277914731514,-0.3159436807137844,0.03573723756923306,-0.006360952390348373,-0.048535698450199054,0,70,255.0,255.0,255.0
127,6.3500000000000005,14.336214659368785,-1.6442323251042115,-1.027094492239859,0.258962307815395,-0.044641244916401104,-0.31837419069070594,0.03746837251378514,-0.006357727676435343,-0.04868470062666184,0,70,255.0,255.0,255.0
128,6.4,14.349210331531426,-1.6464723331659965,-1.0430741197344178,0.26087900481469806,-0.04495905068237505,-0.3208121507764506,0.03919950745833722,-0.0063545029625223124,-0.04883370280312462,0,70,255.0,255.0,255.0
129,6.45,14.362304002462707,-1.6487282274851873,-1.0591758314859845,0.2628822585612287,-0.04527669521265334,-0.3232575609710184,0.04093064240288929,-0.006351278248609283,-0.04898270497958741,0,70,255.0,255.0,255.0
130,6.5,14.3755,-1.651,-1.0754,0.264972069054987,-0.045594178507235975,-0.3257104212744093,0.042661777347443586,-0.006348053534696363,-0.0491317071560502,0,70,255.0,255.0,255.0
131,6.550000000000001,14.388801321091988,-1.6532876686218823,-1.0917464319283279,0.26706858297554864,-0.04591305896008206,-0.32813678047194206,0.04119877947502076,-0.006407164579146919,-0.04792266074525918,0,70,255.0,255.0,255.0
132,6.6000000000000005,14.402205639132662,-1.655591355155212,-1.1082126705085185,0.26909194700248906,-0.046234894965150666,-0.33050268734893523,0.03973578160259795,-0.006466275623597474,-0.046713614334468176,0,70,255.0,255.0,255.0
133,6.65,14.415709296627341,-1.657911207377601,-1.1247956931245455,0.27104216113580837,-0.04655968652244181,-0.3328081419053889,0.03827278373017514,-0.006525386668048028,-0.04550456792367718,0,70,255.0,255.0,255.0
134,6.7,14.429308636081348,-1.6602473730666598,-1.1414924771603818,0.27291922537550656,-0.04688743363195547,-0.33505314414130294,0.03680978585775234,-0.006584497712498583,-0.044295521512886175,0,70,255.0,255.0,255.0
135,6.75,14.443,-1.6626,-1.1583,0.27472313972158363,-0.04721813629369167,-0.33723769405667753,0.03534678798532953,-0.006643608756949082,-0.04308647510209562,0,70,255.0,255.0,255.0
136,6.800000000000001,14.45678045749462,-1.6649691141508542,-1.175216095789823,0.2764975005344805,-0.0475444862449419,-0.33941319739844955,0.035627644530544796,-0.006410389293059823,-0.043933658568783965,0,70,255.0,255.0,255.0
137,6.8500000000000005,14.470649984100568,-1.667354254274941,-1.1922420257260677,0.2782859041746381,-0.04785917522299766,-0.34163105991355597,0.035908501075760046,-0.006177169829170568,-0.044780842035472286,0,70,255.0,255.0,255.0
138,6.9,14.484609281959205,-1.6697548373236009,-1.2093799077674006,0.2800883506420565,-0.04816220322785895,-0.3438912816019968,0.036189357620975304,-0.005943950365281312,-0.045628025502160614,0,70,255.0,255.0,255.0
139,6.95,14.498659053211895,-1.6721702802481737,-1.2266318598724892,0.28190483993673565,-0.048453570259525784,-0.346193862463772,0.03647021416619056,-0.005710730901392057,-0.046475208968848936,0,70,255.0,255.0,255.0
140,7.0,14.5128,-1.6746,-1.244,0.2837353720586755,-0.048733276317998155,-0.34853880249888164,0.036751070711406264,-0.00547751143750258,-0.047322392435537264,0,70,255.0,255.0,255.0
141,7.050000000000001,14.527032848929528,-1.6770438747747014,-1.261485984912382,0.2855814148865332,-0.04902899606015095,-0.3508984299342597,0.03709064240289984,-0.006351278248609262,-0.047062704979583266,0,70,255.0,255.0,255.0
142,7.1000000000000005,14.541358424465063,-1.6795036277450244,-1.279089626587213,0.2874444362989655,-0.04936840414285908,-0.35324507299684,0.037430214094393406,-0.007225045059715927,-0.046803017523629274,0,70,255.0,255.0,255.0
143,7.15,14.555777575535835,-1.6819814433279967,-1.2968102758058526,0.2893244362959725,-0.04975150056612255,-0.35557873168662263,0.03776978578588697,-0.008098811870822592,-0.04654333006767528,0,70,255.0,255.0,255.0
144,7.2,14.57029115107107,-1.6844795059406459,-1.3146472833496616,0.2912214148775542,-0.050178285329941334,-0.3578994060036075,0.038109357477380534,-0.008972578681929258,-0.046283642611721285,0,70,255.0,255.0,255.0
145,7.25,14.5849,-1.687,-1.3326,0.29313537204371054,-0.05064875843431547,-0.36020709594779476,0.038448929168873214,-0.009846345493035591,-0.04602395515576774,0,70,255.0,255.0,255.0
146,7.300000000000001,14.599604946787267,-1.6895441867503402,-1.35066796456065,0.2950648399193761,-0.05110752951445382,-0.3625130828645113,0.038729785857747424,-0.008504497712498274,-0.046215521512890594,0,70,255.0,255.0,255.0
147,7.3500000000000005,14.614406718039179,-1.6921096347449616,-1.3688514679250823,0.2970083506294853,-0.051499208205565306,-0.36482864809908383,0.039010642546621635,-0.007162649931960982,-0.04640708787001344,0,70,255.0,255.0,255.0
148,7.4,14.629306015897455,-1.694692989364413,-1.3871509890091893,0.29896590417403823,-0.05182379450764992,-0.36715379165151263,0.039291499235495846,-0.005820802151423689,-0.04659865422713629,0,70,255.0,255.0,255.0
149,7.45,14.644303542503822,-1.6972908959892428,-1.4055670067288644,0.30093750055303486,-0.052081288420707667,-0.36948851352179746,0.03957235592437005,-0.0044789543708863965,-0.04679022058425915,0,70,255.0,255.0,255.0
150,7.5,14.6594,-1.6999,-1.4241,0.3029231397664752,-0.052271689944738554,-0.3718328137099384,0.039853212613242484,-0.0031371065903488815,-0.046981786941380665,0,70,255.0,255.0,255.0
151,7.550000000000001,14.674595363921403,-1.7025177782239378,-1.4427501568450185,0.3048792254359618,-0.05244488588203219,-0.3741692386076942,0.03839021416621955,-0.0037907309013964314,-0.046475208968848575,0,70,255.0,255.0,255.0
152,7.6000000000000005,14.689886703378225,-1.7051450332751292,-1.4615165017124592,0.30676216118309724,-0.0526507630348782,-0.3764803346068233,0.036927215719196646,-0.004444355212443969,-0.04596863099631649,0,70,255.0,255.0,255.0
153,7.65,14.70527036087434,-1.7077833992143514,-1.4803977681573903,0.3085719470078815,-0.05288932140327659,-0.3787661017073258,0.035464217272173734,-0.005097979523491508,-0.04546205302378441,0,70,255.0,255.0,255.0
154,7.7,14.720742678913638,-1.7104345101023826,-1.4993926897348813,0.31030858291031455,-0.053160560987227344,-0.38102653990920177,0.03400121882515083,-0.005751603834539045,-0.044955475051252324,0,70,255.0,255.0,255.0
155,7.75,14.7363,-1.7131,-1.5185,0.31197206889039647,-0.05346448178673048,-0.38326164921245104,0.032538220378125704,-0.006405228145586306,-0.04444889707871935,0,70,255.0,255.0,255.0
156,7.800000000000001,14.751939997527117,-1.7157815003539088,-1.5377186080592766,0.31364225833678355,-0.05380092695741827,-0.38548196270471213,0.03426935747735478,-0.007052578681925046,-0.044363642611721855,0,70,255.0,255.0,255.0
157,7.8500000000000005,14.767665668447927,-1.718480632154522,-1.5570481252250823,0.315399004638132,-0.054169739654922985,-0.3876980134736232,0.03600049457658382,-0.0076999292182637746,-0.04427838814472435,0,70,255.0,255.0,255.0
158,7.9,14.78348134060518,-1.7211990137781812,-1.5764883383612496,0.3172423077944419,-0.054570919879244645,-0.38990980151918453,0.03773163167581287,-0.008347279754602505,-0.044193133677726856,0,70,255.0,255.0,255.0
159,7.95,14.799391341841622,-1.723938263601227,-1.5960390343316115,0.3191721678057132,-0.05500446763038323,-0.3921173268413959,0.039462768775041915,-0.008994630290941233,-0.04410787921072936,0,70,255.0,255.0,255.0
160,8.0,14.8154,-1.7267,-1.6157,0.32118858467194605,-0.05547038290833876,-0.39432058944025744,0.041193905874270964,-0.009641980827279795,-0.044022624743730976,0,70,255.0,255.0,255.0
161,8.05,14.831510245970128,-1.7294850203604275,-1.6354714109178763,0.3232077412169121,-0.0559194062882929,-0.3965429105734572,0.03957235592436976,-0.008318954370885893,-0.044870220584258394,0,70,255.0,255.0,255.0
162,8.1,14.847719422830068,-1.732290838106782,-1.6553549973872126,0.32514582026438305,-0.056302278345427344,-0.39880761149868327,0.037950805974468614,-0.0069959279144920375,-0.04571781642478578,0,70,255.0,255.0,255.0
163,8.15,14.86402347670494,-1.7351141456729233,-1.6753528783976115,0.3270028218143589,-0.056618999079742105,-0.40111469221593576,0.036329256024567415,-0.005672901458098136,-0.046565412265313195,0,70,255.0,255.0,255.0
164,8.200000000000001,14.880418353719877,-1.7379516354927096,-1.6954671729386739,0.3287787458668398,-0.056869568491237164,-0.40346415272521463,0.03470770607466621,-0.0043498750017042336,-0.047413008105840614,0,70,255.0,255.0,255.0
165,8.25,14.8969,-1.7408,-1.7157,0.3304735924218255,-0.05705398657991252,-0.40585599302651976,0.033086156124762844,-0.0030268485453098792,-0.048260603946366665,0,70,255.0,255.0,255.0
166,8.3,14.913465418592374,-1.743656818204381,-1.7360525482692195,0.3321507767955733,-0.05722544788940896,-0.40823439500146025,0.034001218825149074,-0.0038316038345475147,-0.04687547505125165,0,70,255.0,255.0,255.0
167,8.35,14.930115840231808,-1.7465232154183483,-1.7565222852260667,0.3338737143043404,-0.05743714696336727,-0.4105435405316449,0.03491628152553527,-0.004636359123785122,-0.04549034615613668,0,70,255.0,255.0,255.0
168,8.4,14.946853552575057,-1.7494012035301254,-1.7771057480483046,0.33564240494812686,-0.05768908380178747,-0.4127834296170739,0.0358313442259215,-0.005441114413022757,-0.04410521726102167,0,70,255.0,255.0,255.0
169,8.450000000000001,14.963680843278873,-1.752292794427935,-1.7977994739136953,0.3374568487269326,-0.05798125840466955,-0.41495406225774717,0.03674640692630773,-0.006245869702260393,-0.042720088365906655,0,70,255.0,255.0,255.0
170,8.5,14.9806,-1.7552,-1.8186,0.3393170456407576,-0.0583136707720135,-0.41705543845366455,0.0376614696266957,-0.0070506249914973895,-0.04133495947079169,0,70,255.0,255.0,255.0
171,8.55,14.997612879660384,-1.7581245068220483,-1.839504796005247,0.3411971516008004,-0.05866680215407426,-0.4191435094207025,0.03754276877501343,-0.007074630290932704,-0.04218787921072523,0,70,255.0,255.0,255.0
172,8.6,15.014719616242704,-1.7610667002198235,-1.86051506170852,0.34307132251825895,-0.05902113380110677,-0.4212742263747371,0.037424067923331174,-0.007098635590368018,-0.04304079895065875,0,70,255.0,255.0,255.0
173,8.65,15.031919912994832,-1.7640266402065752,-1.8816329294091705,0.34493955839313345,-0.05937666571311106,-0.4234475893157683,0.03730536707164891,-0.007122640889803334,-0.04389371869059229,0,70,255.0,255.0,255.0
174,8.700000000000001,15.049213473164643,-1.767004386795551,-1.9028605314065474,0.34680185922542384,-0.05973339789008711,-0.42566359824379635,0.03718666621996664,-0.007146646189238649,-0.044746638430525836,0,70,255.0,255.0,255.0
175,8.75,15.0666,-1.77,-1.9242,0.34865822501513016,-0.06009133033203491,-0.42792225315882093,0.037067965368285716,-0.007170651488673685,-0.045599558170458465,0,70,255.0,255.0,255.0
176,8.8,15.084079062766094,-1.7730131545074264,-1.945653067709794,0.3505006168012047,-0.060427343494294246,-0.43019956731572856,0.03662770607469463,-0.006269875001699586,-0.04549300810584391,0,70,255.0,255.0,255.0
177,8.85,15.101649694797374,-1.7760419837023569,-1.967219867939852,0.3523209956225996,-0.06071831783220487,-0.4324715539694053,0.036187446781103555,-0.005369098514725518,-0.045386458041229365,0,70,255.0,255.0,255.0
178,8.9,15.11931079544561,-1.7790842356435743,-1.988900134315014,0.35411936147931505,-0.0609642533457668,-0.43473821311985145,0.03574718748751246,-0.0044683220277514195,-0.045279907976614804,0,70,255.0,255.0,255.0
179,8.950000000000001,15.137061264062561,-1.7821376583898612,-2.010693600460117,0.3558957143713509,-0.06116515003498002,-0.43699954476706687,0.03530692819392137,-0.00356754554077732,-0.04517335791200025,0,70,255.0,255.0,255.0
180,9.0,15.1549,-1.7852,-2.0326,0.35765005429870717,-0.06132100789984453,-0.43925554891105145,0.03486666890032941,-0.002666769053803253,-0.045066807847385704,0,70,255.0,255.0,255.0
181,9.05,15.172826069275239,-1.788270075148246,-2.0546189331555786,0.35939238119437406,-0.06149582386874634,-0.4414982213163839,0.03482640692634638,-0.004325869702268915,-0.04464008836591091,0,70,255.0,255.0,255.0
182,9.1,15.190839204567792,-1.7913509649707482,-2.0767494665320703,0.36113269499134176,-0.06175359487007142,-0.4437195577476425,0.03478614495236334,-0.005984970350734519,-0.044213368884436124,0,70,255.0,255.0,255.0
183,9.15,15.208939305222728,-1.7944468172191272,-2.0989905333307743,0.36287099568961045,-0.062094320903819784,-0.44591955820482754,0.034745882978380306,-0.007644070999200182,-0.04378664940296133,0,70,255.0,255.0,255.0
184,9.200000000000001,15.22712627058511,-1.797561779645004,-2.121341066752986,0.36460728328917985,-0.06251800196999145,-0.4480982226879387,0.034705621004397266,-0.009303171647665844,-0.04335992992148653,0,70,255.0,255.0,255.0
185,9.25,15.2454,-1.8007,-2.1438,0.3663415577900502,-0.06302463806858637,-0.45025555119697613,0.03466535903041468,-0.010962272296131226,-0.04293321044001086,0,70,255.0,255.0,255.0
186,9.3,15.263760660132952,-1.8038641448995882,-2.1663663996678952,0.368089858421309,-0.06352536103072061,-0.4523995474187393,0.03526666621993791,-0.009066646189238177,-0.04282663843051253,0,70,255.0,255.0,255.0
187,9.35,15.282209486931457,-1.8070509564146495,-2.1890398659318664,0.369868224412044,-0.0639313026875102,-0.4545382150400274,0.03586797340946112,-0.007171020082345194,-0.042720066421014204,0,70,255.0,255.0,255.0
188,9.4,15.30074798366348,-1.810255695479917,-2.21182013236189,0.3716766557622551,-0.06424246303895512,-0.45667155406084065,0.03646928059898436,-0.005275393975452145,-0.04261349441151587,0,70,255.0,255.0,255.0
189,9.450000000000001,15.319377653597005,-1.8134736230301227,-2.234706932527943,0.37351515247194245,-0.0644588420850554,-0.458799564481179,0.037070587788507595,-0.003379767868559096,-0.04250692240201754,0,70,255.0,255.0,255.0
190,9.5,15.3381,-1.8167,-2.2577,0.3753837145411058,-0.06458043982581102,-0.4609222463010424,0.037671894978029474,-0.0014841417616657804,-0.04240035039251833,0,70,255.0,255.0,255.0
191,9.55,15.356916090192952,-1.8199317452534005,-2.2807994681728427,0.3772561851204036,-0.06470673200837199,-0.46306358900865546,0.03722692819388208,-0.0035675455407730835,-0.04325335791200457,0,70,255.0,255.0,255.0
192,9.600000000000001,15.37582524770639,-1.8231724093706532,-2.3040070697404658,0.3791064073604941,-0.06493719437988833,-0.46524758209224293,0.0367819614097347,-0.005650949319880387,-0.0441063654314908,0,70,255.0,255.0,255.0
193,9.65,15.394826360123348,-1.8264272008612055,-2.327324937221666,0.3809343812613771,-0.06527182694036002,-0.46747422555180457,0.03633699462558732,-0.007734353098987615,-0.04495937295097701,0,70,255.0,255.0,255.0
194,9.700000000000001,15.413918315026871,-1.829701328234505,-2.3507552031352454,0.3827401068230528,-0.0657106296897871,-0.4697435193873406,0.03589202784143993,-0.009817756878094918,-0.04581238047046325,0,70,255.0,255.0,255.0
195,9.75,15.4331,-1.833,-2.3743,0.3845235840455211,-0.06625360262816951,-0.4720554635988509,0.035447061057293006,-0.01190116065720237,-0.046665387989949014,0,70,255.0,255.0,255.0
196,9.8,15.452370179095242,-1.8363264740868093,-2.3979605276407354,0.38627740109706427,-0.06678371093579133,-0.4743540965466371,0.03470562100443199,-0.009303171647670102,-0.04527992992149848,0,70,255.0,255.0,255.0
197,9.850000000000001,15.471727122242998,-1.8396762061027379,-2.421734255106274,0.3879941461459644,-0.06718391979293653,-0.4765834565910008,0.033964180951570964,-0.006705182638137834,-0.04389447185304794,0,70,255.0,255.0,255.0
198,9.9,15.491168975843127,-1.843042701075262,-2.4456177187514445,0.3896738191922214,-0.06745422919960513,-0.47874354373194195,0.033222740898709975,-0.004107193628605658,-0.04250901378459745,0,70,255.0,255.0,255.0
199,9.950000000000001,15.510693886295508,-1.8464194640318572,-2.469607454931077,0.39131642023583535,-0.06759463915579708,-0.48083435796946056,0.03248130084584895,-0.0015092046190733899,-0.04112355571614691,0,70,255.0,255.0,255.0
200,10.0,15.5303,-1.8498,-2.4937,0.3929219492768063,-0.06760514966151246,-0.4828558993035566,0.03173986079298752,0.0010887843904585637,-0.03973809764769465,0,70,255.0,255.0,255.0
201,10.05,15.549986393426082,-1.8531799583993622,-2.5178928212642187,0.39454621049134386,-0.06761442424846487,-0.4848640248047991,0.03323058778851522,-0.0014597678685549648,-0.040586922402004004,0,70,255.0,255.0,255.0
202,10.100000000000001,15.569755863321632,-1.856563566218396,-2.5421871098344426,0.3962450080556579,-0.06775112644836795,-0.48691459154375705,0.03472131478404292,-0.004008320127568493,-0.04143574715631335,0,70,255.0,255.0,255.0
203,10.15,15.589612136504142,-1.859957194837748,-2.5665849877725564,0.39801834196974817,-0.06801525626122172,-0.4890075995204304,0.03621204177957057,-0.0065568723865819314,-0.042284571910622674,0,70,255.0,255.0,255.0
204,10.200000000000001,15.609558939791102,-1.8633672156380672,-2.591088577140447,0.3998662122336149,-0.06840681368702616,-0.49114304873481934,0.03770276877509827,-0.00910542464559546,-0.04313339666493203,0,70,255.0,255.0,255.0
205,10.25,15.6296,-1.8668,-2.6157,0.401788618847258,-0.06892579872578125,-0.4933209391869236,0.03919349577062503,-0.01165397690460912,-0.043982221419239576,0,70,255.0,255.0,255.0
206,10.3,15.64973784720044,-1.870260092315742,-2.640420987302392,0.4037137569375586,-0.06946259207034886,-0.4955178042341663,0.03781202784140152,-0.00981775687809498,-0.04389238047046744,0,70,255.0,255.0,255.0
207,10.350000000000001,15.66997022447048,-1.8737447290236797,-2.66525170555596,0.4055698216313982,-0.06990757441359076,-0.49771017723397043,0.036430559912178015,-0.007981536851580843,-0.0438025395216953,0,70,255.0,255.0,255.0
208,10.4,15.690293678140305,-1.8772493195737456,-2.6901919301583312,0.40735681292877646,-0.07026074575550695,-0.4998980581863358,0.03504909198295455,-0.006145316825066769,-0.04371269857292317,0,70,255.0,255.0,255.0
209,10.450000000000001,15.710704754540085,-1.880769273415875,-2.7152414365071356,0.40907473082969364,-0.07052210609609744,-0.5020814470912628,0.03366762405373104,-0.00430909679855263,-0.04362285762415103,0,70,255.0,255.0,255.0
210,10.5,15.7312,-1.8843,-2.7404,0.41072357533414955,-0.07069165543536221,-0.5042603439487509,0.032286156124505805,-0.002472876772038557,-0.043533016675378455,0,70,255.0,255.0,255.0
211,10.55,15.751776617772164,-1.8878380723376693,-2.765667229526216,0.4123427617584093,-0.07083920747014001,-0.5064247582585389,0.03248130084588263,-0.0034292046190732917,-0.04304355571614219,0,70,255.0,255.0,255.0
212,10.600000000000001,15.772434438796441,-1.8913847176868868,-2.791042067941722,0.41397170541873785,-0.07103457589726955,-0.5085646995203651,0.03267644556725947,-0.0043855324661080265,-0.042554094756905934,0,70,255.0,255.0,255.0
213,10.65,15.793173950934637,-1.894942326867269,-2.8165232915941196,0.4156104063151352,-0.07127776071675081,-0.5106801677342295,0.03287159028863629,-0.005341860313142727,-0.04206463379766969,0,70,255.0,255.0,255.0
214,10.700000000000001,15.813995642048557,-1.8985132906984343,-2.8421096768310123,0.4172588644476015,-0.07156876192858382,-0.5127711629001321,0.03306673501001312,-0.006298188160177463,-0.04157517283843343,0,70,255.0,255.0,255.0
215,10.75,15.8349,-1.9021,-2.8678,0.4189170798161365,-0.07190757953276856,-0.5148376850180728,0.033261879731388166,-0.007254516007212497,-0.04108571187919541,0,70,255.0,255.0,255.0
216,10.8,15.855887681710906,-1.9057044183335803,-2.8935932945927467,0.4205951960287989,-0.07226857804908877,-0.5168951627316759,0.03386276877510649,-0.0071854246455957714,-0.04121339666492663,0,70,255.0,255.0,255.0
217,10.850000000000001,15.876960020343748,-1.9093268002287742,-2.9194896226771565,0.4223033566936472,-0.07262612199732815,-0.5189590246845656,0.03446365781882481,-0.007116333283979047,-0.04134108145065785,0,70,255.0,255.0,255.0
218,10.9,15.89811851812114,-1.9129669729571783,-2.9454893034651914,0.42404156181068137,-0.07298021137748667,-0.5210292708767417,0.0350645468625431,-0.007047241922362324,-0.041468766236389065,0,70,255.0,255.0,255.0
219,10.950000000000001,15.919364677265687,-1.9166247637903884,-2.971592656168818,0.4258098113799015,-0.07333084618956438,-0.5231059013082044,0.03566543590626142,-0.006978150560745598,-0.041596451022120284,0,70,255.0,255.0,255.0
220,11.0,15.9407,-1.9203,-2.9978,0.4276081054013075,-0.07367802643356124,-0.5251889159789536,0.03626632494997972,-0.006909059199128653,-0.04172413580784884,0,70,255.0,255.0,255.0
221,11.05,15.962125455384212,-1.92399225432801,-3.024111592102798,0.4294044541264002,-0.07400648033350349,-0.5272745908147539,0.03558762405372623,-0.00622909679856082,-0.04170285762416341,0,70,255.0,255.0,255.0
222,11.100000000000001,15.98363987982856,-1.9277000813980163,-3.0505274413496557,0.4311668678066802,-0.07430093611341733,-0.52935920174137,0.03490892315747274,-0.005549134397992986,-0.04168157944047799,0,70,255.0,255.0,255.0
223,11.15,16.0052415765808,-1.9314217813040178,-3.077047494545115,0.43289534644214744,-0.07456139377330277,-0.5314427487588016,0.03423022226121927,-0.004869171997425177,-0.04166030125679256,0,70,255.0,255.0,255.0
224,11.200000000000001,16.026928848888694,-1.935155654140013,-3.1036716984937165,0.4345898900328021,-0.07478785331315983,-0.5335252318670493,0.03355152136496578,-0.004189209596857342,-0.04163902307310714,0,70,255.0,255.0,255.0
225,11.25,16.0487,-1.9389,-3.1304,0.436250498578644,-0.07498031473298851,-0.5356066510661124,0.032872820468712316,-0.0035092471962897553,-0.041617744889421715,0,70,255.0,255.0,255.0
226,11.3,16.070553696752246,-1.94265376435438,-3.1572323369960626,0.4378989874656113,-0.07517750061689998,-0.5376864740093088,0.0330667350099783,-0.004378188160169473,-0.04157517283843326,0,70,255.0,255.0,255.0
227,11.350000000000001,16.092490060342012,-1.94641847417916,-3.1841686119242225,0.4395571720796419,-0.07541813354900546,-0.5397641683499558,0.03326064955124429,-0.005247129124049191,-0.04153260078744481,0,70,255.0,255.0,255.0
228,11.4,16.114509575555658,-1.9501963018267505,-3.2112087183543494,0.4412250524207357,-0.07570221352930491,-0.5418397340880532,0.03345456409251026,-0.006116070087928877,-0.04149002873645635,0,70,255.0,255.0,255.0
229,11.450000000000001,16.136612727179536,-1.9539894196495604,-3.2383525498563186,0.44290262848889295,-0.07602974055779835,-0.5439131712236014,0.03364847863377625,-0.006985011051808595,-0.0414474566854679,0,70,255.0,255.0,255.0
230,11.5,16.1588,-1.9578,-3.2656,0.4445899002841133,-0.07640071463448575,-0.5459844797566,0.03384239317504134,-0.007853952015687726,-0.04140488463447767,0,70,255.0,255.0,255.0
231,11.55,16.18107175760681,-1.9616294882544711,-3.2929510599129515,0.44627959601114686,-0.07677151719889658,-0.5480595131480147,0.03374543590629964,-0.006978150560745298,-0.04159645102210945,0,70,255.0,255.0,255.0
232,11.600000000000001,16.203427878803392,-1.9654764218853438,-3.320406110953459,0.4479644438747434,-0.07709852969056029,-0.550144124858811,0.03364847863755793,-0.006102349105802871,-0.04178801740974124,0,70,255.0,255.0,255.0
233,11.65,16.225868121196562,-1.9693386113889813,-3.3479656320374893,0.44964444387490266,-0.07738175210947687,-0.5522383148889889,0.03355152136881623,-0.005226547650860474,-0.04197958379737301,0,70,255.0,255.0,255.0
234,11.700000000000001,16.24839224239316,-1.9732138672617459,-3.375630102081014,0.4513195960116249,-0.07762118445564634,-0.5543420832385483,0.033454564100074524,-0.0043507461959180465,-0.042171150185004794,0,70,255.0,255.0,255.0
235,11.75,16.271,-1.9771,-3.4034,0.45298990028491015,-0.07781682672906867,-0.5564554299074893,0.03335760683133149,-0.0034749447409752054,-0.04236271657263657,0,70,255.0,255.0,255.0
236,11.8,16.293691272820507,-1.9809954826277365,-3.4312754233521323,0.4546626284898176,-0.07800843058751449,-0.558555473398633,0.03355152136496518,-0.004189209596857389,-0.04163902307310748,0,70,255.0,255.0,255.0
237,11.850000000000001,16.316466424444428,-1.9849014382794647,-3.459254944261948,0.4563450524214067,-0.07823574768875442,-0.5606193322148001,0.033745435898598866,-0.004903474452739574,-0.0409153295735784,0,70,255.0,255.0,255.0
238,11.9,16.339325939658092,-1.988819652617325,-3.487336753495696,0.4580371720796775,-0.07849877803278844,-0.5626470063559909,0.033939350432232555,-0.005617739308621732,-0.04019163607404934,0,70,255.0,255.0,255.0
239,11.950000000000001,16.36227030324784,-1.992751911303457,-3.5155190418196303,0.45973898746462993,-0.07879752161961659,-0.564638495822205,0.034133264965866245,-0.006332004164503917,-0.03946794257452025,0,70,255.0,255.0,255.0
240,12.0,16.3853,-1.9967,-3.5438,0.461450498576264,-0.07913197844923882,-0.5665938006134427,0.034327179499497706,-0.0070462690203857425,-0.038744249074988524,0,70,255.0,255.0,255.0
241,12.05,16.408415151111164,-2.000665381234584,-3.572178446678521,0.46314989002959417,-0.07948276045104379,-0.5685505932574542,0.03364847863370731,-0.006985011051812572,-0.03952745668547114,0,70,255.0,255.0,255.0
242,12.100000000000001,16.431614423418907,-2.004648224996797,-3.600655711998755,0.4648153464396348,-0.07983047955442009,-0.5705465462819899,0.03296977776791692,-0.006923753083239402,-0.04031066429595376,0,70,255.0,255.0,255.0
243,12.15,16.454896120171068,-2.008648378141719,-3.629233753979728,0.46644686780638583,-0.08017513575936772,-0.5725816596870495,0.032291076902126556,-0.006862495114666234,-0.04109387190643635,0,70,255.0,255.0,255.0
244,12.200000000000001,16.47825854461549,-2.012665687524427,-3.657914530640469,0.46804445412984746,-0.08051672906588671,-0.5746559334726336,0.03161237603633616,-0.006801237146093063,-0.041877079516918964,0,70,255.0,255.0,255.0
245,12.25,16.5017,-2.0167,-3.6867,0.46960810541001946,-0.08085525947397702,-0.5767693676387415,0.030933675170545794,-0.006739979177519673,-0.04266028712739889,0,70,255.0,255.0,255.0
246,12.3,16.525219322734852,-2.0207509924339284,-3.715591589933788,0.47116981139178676,-0.08118052760831296,-0.5788901535715514,0.0315345641001474,-0.006270746195917647,-0.04217115018499519,0,70,255.0,255.0,255.0
247,12.350000000000001,16.548817481879954,-2.0248176617333473,-3.7445886077430375,0.47276156182003426,-0.0814823340935688,-0.5809864826572412,0.032135453029749,-0.005801513214315621,-0.04168201324259149,0,70,255.0,255.0,255.0
248,12.4,16.572495979657628,-2.028898834815801,-3.773689830585393,0.47438335669476167,-0.08176067892974452,-0.5830583548958106,0.03273634195935058,-0.005332280232713612,-0.041192876300187815,0,70,255.0,255.0,255.0
249,12.450000000000001,16.5962563182902,-2.032993338598837,-3.8028940356185,0.47603519601596933,-0.08201556211684016,-0.5851057702872599,0.033337230888952185,-0.004863047251111586,-0.04070373935778412,0,70,255.0,255.0,255.0
250,12.5,16.6201,-2.0371,-3.8322,0.47771707978365696,-0.0822469836548557,-0.5871287288315888,0.03393811981855421,-0.004393814269509244,-0.040214602415376,0,70,255.0,255.0,255.0
251,12.55,16.644028357949434,-2.041217849029703,-3.8616063935863316,0.4794188644032675,-0.08246712911570571,-0.5891207924563364,0.034133264965864996,-0.004412004164490968,-0.039467942574526474,0,70,255.0,255.0,255.0
252,12.600000000000001,16.668042049061285,-2.0453467280698163,-3.8911114570291003,0.4811304062802435,-0.08268818407130481,-0.5910755230890417,0.034328410113175785,-0.0044301940594726925,-0.03872128273367694,0,70,255.0,255.0,255.0
253,12.65,16.692141561198415,-2.049486682595079,-3.920713323678702,0.48285170541458505,-0.08291014852165297,-0.5929929207297041,0.03452355526048656,-0.004448383954454416,-0.03797462289282744,0,70,255.0,255.0,255.0
254,12.700000000000001,16.716327382223703,-2.0536377580802276,-3.950410126885536,0.4845827618062921,-0.08313302246675024,-0.5948729853783242,0.03471870040779735,-0.00446657384943614,-0.03722796305197791,0,70,255.0,255.0,255.0
255,12.75,16.7406,-2.0578,-3.9802,0.48632357545536475,-0.08335680590659658,-0.5967157170349019,0.03491384555510635,-0.004484763744417863,-0.03648130321112664,0,70,255.0,255.0,255.0
256,12.8,16.764959245467413,-2.061973611447261,-4.010082035720887,0.488034730995149,-0.08359095592885979,-0.5985786766031033,0.03353237603626267,-0.004881237146110312,-0.038037079516927565,0,70,255.0,255.0,255.0
257,12.850000000000001,16.789402321874917,-2.0661594259873874,-4.040059164140567,0.4896768130589911,-0.08384492962120761,-0.6005194249865946,0.03215090651741899,-0.005277710547802761,-0.03959285582272849,0,70,255.0,255.0,255.0
258,12.9,16.813925775548714,-2.0703584348038833,-4.070135274699801,0.4912498216468909,-0.08411872698364006,-0.6025379621853761,0.030769436998575362,-0.005674183949495195,-0.04114863212852936,0,70,255.0,255.0,255.0
259,12.950000000000001,16.838526152815007,-2.074571629080253,-4.100314256839359,0.4927537567588486,-0.08441234801615713,-0.6046342881994475,0.029387967479731686,-0.006070657351187644,-0.042704408434330286,0,70,255.0,255.0,255.0
260,13.0,16.8632,-2.0788,-4.1306,0.49418861839486405,-0.08472579271875884,-0.6068084030288091,0.028006497960888943,-0.006467130752879968,-0.04426018474013116,0,70,255.0,255.0,255.0
261,13.05,16.887945060180915,-2.083044505181254,-4.160995063530124,0.4956262116161121,-0.08505704716885852,-0.6089805011312565,0.02949723088903051,-0.006783047251106948,-0.04262373935776063,0,70,255.0,255.0,255.0
262,13.100000000000001,16.91276386343905,-2.0873059679806345,-4.191496686408642,0.4971383414837672,-0.08540409744386954,-0.6110707769645852,0.03098796381717208,-0.007098963749333929,-0.04098729397539009,0,70,255.0,255.0,255.0
263,13.15,16.93766013660673,-2.091585178189389,-4.222100777522097,0.49872500799782926,-0.08576694354379191,-0.6130792305287954,0.0324786967453136,-0.0074148802475608976,-0.03935084859301961,0,70,255.0,255.0,255.0
264,13.200000000000001,16.962637606516275,-2.095882925598762,-4.252803245757035,0.5003862111582985,-0.08614558546862562,-0.6150058618238872,0.03396942967345516,-0.0077307967457878775,-0.03771440321064908,0,70,255.0,255.0,255.0
265,13.25,16.9877,-2.1002,-4.2836,0.5021219509651748,-0.0865400232183707,-0.6168506708498602,0.03546016260159757,-0.008046713244014514,-0.03607795782827594,0,70,255.0,255.0,255.0
266,13.3,17.01285011380893,-2.104536367827726,-4.314488110158622,0.5038764225404095,-0.08690085539570665,-0.6186833188718668,0.0347187004077968,-0.006386573849422937,-0.03722796305198523,0,70,255.0,255.0,255.0
267,13.350000000000001,17.038087024368878,-2.1088887020900753,-4.345469290224874,0.5055938210059545,-0.087178680603313,-0.6205734671550588,0.03397723821399603,-0.00472643445483136,-0.03837796827569452,0,70,255.0,255.0,255.0
268,13.4,17.063408878024365,-2.1132528524385616,-4.376546415211814,0.5072741463618092,-0.08737349884118979,-0.6225211156994362,0.03323577602019529,-0.0030662950602398428,-0.03952797349940376,0,70,255.0,255.0,255.0
269,13.450000000000001,17.0888138211199,-2.117624668524699,-4.407722360132504,0.508917398607974,-0.087485310109337,-0.6245262645049992,0.03249431382639452,-0.0014061556656482658,-0.04067797872311305,0,70,255.0,255.0,255.0
270,13.5,17.1143,-2.122,-4.439,0.5105235777444487,-0.0875141144077546,-0.6265889135717475,0.03175285163259378,0.00025398372894358534,-0.0418279839468223,0,70,255.0,255.0,255.0
271,13.55,17.139865684583366,-2.1263764235078435,-4.470381295835391,0.512100098222255,-0.08756353124831114,-0.6286542233812765,0.0313079674796592,-0.0022306573512051696,-0.04078440843433525,0,70,255.0,255.0,255.0
272,13.600000000000001,17.165509639085432,-2.1307584236590644,-4.501864552691869,0.5136543744924146,-0.08773718014287511,-0.6306673544151811,0.030863083326724616,-0.0047152984313539245,-0.03974083292184819,0,70,255.0,255.0,255.0
273,13.65,17.191230751295812,-2.135152212056364,-4.533447161630649,0.5151864065549274,-0.08803506109144653,-0.6326283066734614,0.030418199173790048,-0.007199939511502591,-0.038697257409361176,0,70,255.0,255.0,255.0
274,13.700000000000001,17.21702790900413,-2.1395640003024425,-4.565126513712954,0.5166961944097936,-0.08845717409402538,-0.6345370801561172,0.029973315020855464,-0.009684580591651346,-0.037653681896874125,0,70,255.0,255.0,255.0
275,13.75,17.2429,-2.144,-4.5969,0.5181837380570131,-0.08900351915061167,-0.6363936748631487,0.02952843086792356,-0.012169221671800345,-0.03661010638438178,0,70,255.0,255.0,255.0
276,13.8,17.268846347857604,-2.1484643381409017,-4.628765906499816,0.5196751845705496,-0.08954901961105127,-0.6382517876030244,0.03012942967353319,-0.009650796745783428,-0.037714403210645404,0,70,255.0,255.0,255.0
277,13.850000000000001,17.294868019289392,-2.1529528032736667,-4.6607260990076576,0.5211966810243666,-0.08996859882519002,-0.6401651151842133,0.03073042847914282,-0.007132371819766509,-0.03881870003690902,0,70,255.0,255.0,255.0
278,13.9,17.320966516792378,-2.157459099335982,-4.692783338265591,0.5227482274184638,-0.09026225679302792,-0.6421336576067153,0.031331427284752425,-0.004613946893749681,-0.039922996863172605,0,70,255.0,255.0,255.0
279,13.950000000000001,17.34714334286358,-2.1619769302655314,-4.724940385015684,0.5243298237528418,-0.09042999351456499,-0.6441574148705306,0.03193242609036206,-0.002095521967732763,-0.04102729368943623,0,70,255.0,255.0,255.0
280,14.0,17.3734,-2.1665,-4.7572,0.5259414700275,-0.0904718089898012,-0.6462363869756588,0.03253342489597344,0.00042290295828384394,-0.0421315905157007,0,70,255.0,255.0,255.0
281,14.05,17.399737723986217,-2.1710238239285524,-4.789563878165348,0.5275671634955592,-0.09049639030748509,-0.6483066262066292,0.03249431382639471,-0.0014061556656396227,-0.04067797872311496,0,70,255.0,255.0,255.0
282,14.100000000000001,17.426156683757,-2.1755511632462685,-4.822029451277504,0.5291909014101396,-0.09061242455636516,-0.6503041848479704,0.032455202756815994,-0.0032352142895630894,-0.03922436693052922,0,70,255.0,255.0,255.0
283,14.15,17.452656781534674,-2.1800865905997084,-4.854593085306984,0.5308126837712409,-0.09081991173644141,-0.6522290628996821,0.03241609168723727,-0.005064272913486491,-0.037770755137943535,0,70,255.0,255.0,255.0
284,14.200000000000001,17.479237919541564,-2.184634678635433,-4.88725114622431,0.5324325105788632,-0.09111885184771382,-0.6540812603617647,0.03237698061765854,-0.0068933315374099585,-0.036317143345357794,0,70,255.0,255.0,255.0
285,14.25,17.5059,-2.1892,-4.92,0.5340503818330067,-0.09150924489018239,-0.6558607772342179,0.03233786954807982,-0.00872239016133336,-0.03486353155277211,0,70,255.0,255.0,255.0
286,14.3,17.532642756197532,-2.1937859661448904,-4.952836980838795,0.5356561614472283,-0.09192141915900712,-0.6576257075704587,0.031893315020784026,-0.007764580591655909,-0.03573368189685927,0,70,255.0,255.0,255.0
287,14.350000000000001,17.559465245682617,-2.1983913437412594,-4.985763295882333,0.5372397133350851,-0.09228570294934799,-0.6594341454239038,0.03144876049348822,-0.006806771021978459,-0.03660383224094643,0,70,255.0,255.0,255.0
288,14.4,17.586366357068936,-2.2030137382651835,-5.018781120506473,0.538801037496577,-0.09260209626120498,-0.6612860907945532,0.031004205966192442,-0.005848961452301042,-0.037473982585033566,0,70,255.0,255.0,255.0
289,14.450000000000001,17.61334497897017,-2.2076507551927387,-5.051892630087075,0.5403401339317044,-0.0928705990945781,-0.6631815436824072,0.03055965143889664,-0.004891151882623592,-0.03834413292912073,0,70,255.0,255.0,255.0
290,14.5,17.6404,-2.2123,-5.0851,0.5418570026404667,-0.09309121144946733,-0.6651205040874654,0.030115096911598194,-0.003933342312945953,-0.03921428327320786,0,70,255.0,255.0,255.0
291,14.55,17.667530451223655,-2.216959511491887,-5.1184049984794715,0.5433601907155174,-0.0932899330564844,-0.667078543511532,0.030012426090434904,-0.004015521967736869,-0.039107293689457555,0,70,255.0,255.0,255.0
292,14.600000000000001,17.694735933512533,-2.2216290617886942,-5.151807765193167,0.5448582452495101,-0.09349276364624103,-0.6690312334564112,0.02990975526927162,-0.004097701622527785,-0.03900030410570725,0,70,255.0,255.0,255.0
293,14.65,17.72201619018959,-2.2263088563395574,-5.185308032667126,0.5463511662424446,-0.09369970321873719,-0.6709785739221027,0.029807084448108333,-0.004179881277318698,-0.03889331452195694,0,70,255.0,255.0,255.0
294,14.700000000000001,17.74937096457776,-2.2309991005936136,-5.218905533427391,0.547838953694321,-0.09391075177397289,-0.6729205649086069,0.029704413626945047,-0.004262060932109614,-0.038786324938206634,0,70,255.0,255.0,255.0
295,14.75,17.7768,-2.2357,-5.2526,0.5493216076051392,-0.09412590931194814,-0.6748572064159235,0.029601742805783537,-0.004344240586900305,-0.038679335354455446,0,70,255.0,255.0,255.0
296,14.8,17.804303438907855,-2.24041198788756,-5.2863910252433195,0.5508230756907238,-0.09435884861505581,-0.6767801183834188,0.030456980617596066,-0.004973331537405832,-0.038237143345352456,0,70,255.0,255.0,255.0
297,14.850000000000001,17.831883020267252,-2.2451364091039645,-5.320277643345002,0.5523673056668987,-0.09462324246568873,-0.6786809207504588,0.031312218429408595,-0.005602422487911358,-0.03779495133624947,0,70,255.0,255.0,255.0
298,14.9,17.859540882172723,-2.249874836376588,-5.354258748825025,0.5539542975336644,-0.09491909086384694,-0.6805596135170436,0.03216745624122109,-0.006231513438416863,-0.0373527593271465,0,70,255.0,255.0,255.0
299,14.950000000000001,17.88727916271879,-2.254628842432808,-5.388333236203365,0.555584051291021,-0.09524639380953043,-0.6824161966831734,0.03302269405303362,-0.006860604388922388,-0.036910567318043506,0,70,255.0,255.0,255.0
300,15.0,17.9151,-2.2594,-5.4225,0.557256566938968,-0.09560515130273917,-0.684250670248848,0.033877931864847,-0.007489695339427893,-0.03646837530894054,0,70,255.0,255.0,255.0
301,15.05,17.94300459314493,-2.2641893369578705,-5.456758100547255,0.5589155065215614,-0.09596267248329056,-0.6860729829547988,0.03247965143889003,-0.0068111518826276096,-0.03642413292909126,0,70,255.0,255.0,255.0
302,15.100000000000001,17.970990385418467,-2.2689957017954483,-5.491107261426831,0.560504532082857,-0.09628626649100193,-0.6878930835417572,0.03108137101293305,-0.006132608425827327,-0.036379890549241976,0,70,255.0,255.0,255.0
303,15.15,17.999053881119533,-2.2738173981540903,-5.525547372032779,0.5620236436228547,-0.0965759333258733,-0.6897109720097231,0.029683090586976126,-0.005454064969027068,-0.0363356481693927,0,70,255.0,255.0,255.0
304,15.200000000000001,18.02719158454706,-2.278652729675155,-5.560078321759153,0.5634728411415547,-0.09683167298790464,-0.6915266483586964,0.02828481016101915,-0.004775521512226785,-0.036291405789543416,0,70,255.0,255.0,255.0
305,15.25,18.0554,-2.2835,-5.5947,0.5648521246389565,-0.09705348547709595,-0.6933401125886773,0.02688652973505956,-0.0040969780554261925,-0.036247163409695915,0,70,255.0,255.0,255.0
306,15.3,18.083676588512404,-2.288357864280956,-5.6294125725676665,0.5662188982230102,-0.09726246145178434,-0.6951679497973755,0.02778441362708596,-0.00426206093210946,-0.03686632493822906,0,70,255.0,255.0,255.0
307,15.350000000000001,18.11202263805888,-2.2932263837142424,-5.664217310947678,0.5676305660016651,-0.0974796915703069,-0.6970267450825003,0.028682297519112356,-0.004427143808792726,-0.03748548646676222,0,70,255.0,255.0,255.0
308,15.4,18.140440393349145,-2.2981059710070504,-5.6991157630438565,0.5690871279749213,-0.09770517583266362,-0.6989164984440517,0.029580181411138724,-0.004592226685475987,-0.038104647995295345,0,70,255.0,255.0,255.0
309,15.450000000000001,18.168932099092945,-2.302997038866573,-5.7341094767600245,0.570588584142779,-0.0979389142388545,-0.7008372098820298,0.030478065303165124,-0.004757309562159254,-0.03872380952382849,0,70,255.0,255.0,255.0
310,15.5,18.1975,-2.3079,-5.7692,0.5721349345052378,-0.09818090678887954,-0.7027888793964345,0.031375949195188824,-0.0049223924388422935,-0.03934297105235807,0,70,255.0,255.0,255.0
311,15.55,18.22614585280545,-2.3128152059183056,-5.8043884091820805,0.5736969005864401,-0.09842748170957334,-0.7047432178556953,0.03110269405290253,-0.004940604388909775,-0.038830567318071364,0,70,255.0,255.0,255.0
312,15.600000000000001,18.25486946234603,-2.3177427633475824,-5.839673894782458,0.575245203910528,-0.09867496722777053,-0.7066719361282418,0.03082943891061624,-0.004958816338977257,-0.03831816358378467,0,70,255.0,255.0,255.0
313,15.65,18.28367014548388,-2.3226827178177074,-5.875055175791793,0.5767798444775016,-0.09892336334347107,-0.7085750342140738,0.030556183768329956,-0.004977028289044738,-0.03780575984949799,0,70,255.0,255.0,255.0
314,15.700000000000001,18.31254721908116,-2.3276351148585546,-5.910530971200753,0.5783008222873611,-0.099172670056675,-0.7104525121131916,0.030282928626043665,-0.00499524023911222,-0.037293356115211285,0,70,255.0,255.0,255.0
315,15.75,18.3415,-2.3326,-5.9461,0.5798081373401061,-0.09942288736738229,-0.7123043698255948,0.030009673483755606,-0.005013452189179479,-0.03678095238092194,0,70,255.0,255.0,255.0
316,15.8,18.37052800026581,-2.3375773120458234,-5.98176099070401,0.5813134994312252,-0.09966761170991788,-0.7141311787798555,0.03020481016101293,-0.004775521512243605,-0.03629140578951019,0,70,255.0,255.0,255.0
317,15.850000000000001,18.399631512557022,-2.3425665628954278,-6.017512709922493,0.5828286183562074,-0.09990043951860667,-0.7159335104045459,0.03039994683827026,-0.0045375908353077294,-0.035801859198098446,0,70,255.0,255.0,255.0
318,15.9,18.428811024715326,-2.34756715772212,-6.053353933788972,0.5843534941150523,-0.10012137079344866,-0.7177113646996655,0.030595083515527578,-0.004299660158371864,-0.03531231260668672,0,70,255.0,255.0,255.0
319,15.950000000000001,18.458067024582423,-2.352578501699208,-6.089283438436968,0.5858881267077601,-0.10033040553444385,-0.7194647416652145,0.030790220192784906,-0.004061729481435988,-0.034822766015274974,0,70,255.0,255.0,255.0
320,16.0,18.4874,-2.3576,-6.1253,0.5874325161343308,-0.10052754374159223,-0.7211936413011929,0.030985356870042224,-0.0038237988044995674,-0.03433321942385792,0,70,255.0,255.0,255.0
321,16.05,18.51681014613132,-2.362631545898401,-6.161402828001882,0.5889691016886627,-0.10074207145075847,-0.7229240670248849,0.030478065303232063,-0.004757309562150537,-0.034883809523817366,0,70,255.0,255.0,255.0
322,16.1,18.5462964874259,-2.3676749850707077,-6.197592865527573,0.590480322664654,-0.10100327469780729,-0.7246820222535747,0.029970773736421905,-0.005690820319801508,-0.035434399623776806,0,70,255.0,255.0,255.0
323,16.150000000000002,18.575857755654813,-2.372732651293813,-6.233871489052324,0.5919661790623049,-0.10131115348273864,-0.7264675069872625,0.029463482169611744,-0.006624331077452479,-0.03598498972373625,0,70,255.0,255.0,255.0
324,16.2,18.60549268258915,-2.3778068783446122,-6.270240075051381,0.593426670881615,-0.10166570780555252,-0.7282805212259482,0.02895619060280162,-0.007557841835103383,-0.03653557982369565,0,70,255.0,255.0,255.0
325,16.25,18.6352,-2.3829,-6.3067,0.5948617981225849,-0.10206693766624896,-0.7301210649696321,0.028448899035992348,-0.00849135259275402,-0.03708616992365599,0,70,255.0,255.0,255.0
326,16.3,18.664978615208923,-2.3880133043605727,-6.343252497288467,0.5962820938141342,-0.1024521024870455,-0.7319805531206043,0.02836292862598011,-0.006915240239107678,-0.03729335611522764,0,70,255.0,255.0,255.0
327,16.35,18.694828137739407,-2.393143896821743,-6.379898227967222,0.597698090985183,-0.10275846169015973,-0.733850400581155,0.02827695821596787,-0.005339127885461336,-0.03750054230679929,0,70,255.0,255.0,255.0
328,16.400000000000002,18.72474835266543,-2.3982878371026275,-6.416637710001743,0.599109789635731,-0.10298601527559165,-0.7357306073512843,0.028190987805955633,-0.0037630155318149946,-0.03770772849837095,0,70,255.0,255.0,255.0
329,16.45,18.754739045060973,-2.4034411849223405,-6.453471461357508,0.6005171897657784,-0.10313476324334123,-0.737621173430992,0.0281050173959434,-0.002186903178168764,-0.03791491468994259,0,70,255.0,255.0,255.0
330,16.5,18.7848,-2.4086,-6.4904,0.6019202913753253,-0.1032047055934085,-0.7395220988202784,0.02801904698593294,-0.0006107908245218674,-0.03812210088151602,0,70,255.0,255.0,255.0
331,16.55,18.814931393033,-2.413761636659308,-6.527423182844255,0.6033425230547934,-0.10327351860105775,-0.7413937204926981,0.02887022019278992,-0.0021417294814486394,-0.03674276601526889,0,70,255.0,255.0,255.0
332,16.6,18.845134961616484,-2.4189286276423196,-6.56453822260355,0.6048073133946044,-0.10341887854155336,-0.7431963754218054,0.0297213933996469,-0.0036726681383754114,-0.03536343114902177,0,70,255.0,255.0,255.0
333,16.650000000000002,18.87541283368347,-2.4241048002956775,-6.601741670940715,0.6063146623947582,-0.1036407854148953,-0.7449300636076004,0.030572566606503884,-0.005203606795302183,-0.03398409628277464,0,70,255.0,255.0,255.0
334,16.7,18.905767137166965,-2.429293981966023,-6.6390300795185855,0.6078645700552546,-0.10393923922108357,-0.7465947850500827,0.03142373981336081,-0.006734545452228847,-0.032604761416527614,0,70,255.0,255.0,255.0
335,16.75,18.9362,-2.4345,-6.6764,0.6094570363760943,-0.1043142399601182,-0.748190539749253,0.032274913020218676,-0.008265484109155286,-0.031225426550278712,0,70,255.0,255.0,255.0
336,16.8,18.96671261265907,-2.4397257490021946,-6.713849171334514,0.6110358139666713,-0.10470982310872444,-0.7497885649086021,0.03087619060286462,-0.007557841835094571,-0.032695579823687405,0,70,255.0,255.0,255.0
337,16.85,18.997302415794657,-2.4449703926089774,-6.751380081618589,0.6125446554363808,-0.10507002414362766,-0.7514600977316217,0.02947746818551056,-0.006850199561033856,-0.03416573309709609,0,70,255.0,255.0,255.0
338,16.900000000000002,19.027965912600695,-2.4502321617146623,-6.788996406235406,0.6139835607852224,-0.10539484306482785,-0.7532051382183118,0.028078745768156506,-0.006142557286973141,-0.035635886370504785,0,70,255.0,255.0,255.0
339,16.95,19.05869960627116,-2.4555092872135647,-6.826701820568148,0.6153525300131965,-0.10568427987232497,-0.7550236863686722,0.026680023350802547,-0.005434915012912477,-0.03710603964391337,0,70,255.0,255.0,255.0
340,17.0,19.0895,-2.4608,-6.8645,0.6166515631203026,-0.10593833456611908,-0.756915742182703,0.02528130093344938,-0.004727272738851762,-0.03857619291732117,0,70,255.0,255.0,255.0
341,17.05,19.12036455633071,-2.466102567331913,-6.902393731817687,0.6179382210785359,-0.10615918896404468,-0.7588280198728851,0.026185017395881097,-0.004106903178172563,-0.03791491468996088,0,70,255.0,255.0,255.0
342,17.1,19.151294575204908,-2.471415401921771,-6.9403822509221,0.6192700648598907,-0.10634902488393634,-0.760707233651699,0.02708873385831281,-0.0034865336174933637,-0.03725363646260058,0,70,255.0,255.0,255.0
343,17.150000000000002,19.182292315913752,-2.4767369528456724,-6.978463904117669,0.6206470944643672,-0.10650784232579402,-0.7625533835191451,0.027992450320744527,-0.0028661640568141645,-0.03659235823524029,0,70,255.0,255.0,255.0
344,17.2,19.213360037748394,-2.482065669179716,-7.016637038208823,0.6220693098919651,-0.10663564128961776,-0.7643664694752231,0.028896166783176178,-0.0022457944961350096,-0.03593108000788004,0,70,255.0,255.0,255.0
345,17.25,19.2445,-2.4874,-7.0549,0.6235367111426848,-0.10673242177540751,-0.7661464915199331,0.029799883245608783,-0.0016254249354561434,-0.03526980178051975,0,70,255.0,255.0,255.0
346,17.3,19.27571396201809,-2.492739181670155,-7.0932511013947375,0.6250193017191592,-0.10684542103509964,-0.7678913555998591,0.02950373981336582,-0.0028945454522294424,-0.034524761416522574,0,70,255.0,255.0,255.0
347,17.35,19.307001683385725,-2.498085599703941,-7.131688514693017,0.6264870851240214,-0.10702187632063047,-0.7695989676615853,0.02920759638112286,-0.004163665969002741,-0.033779721052525406,0,70,255.0,255.0,255.0
348,17.400000000000002,19.338362423744304,-2.503442426902649,-7.170210377293927,0.6279400613572715,-0.10726178763199994,-0.7712693277051118,0.0289114529488799,-0.005432786485776041,-0.03303468068852823,0,70,255.0,255.0,255.0
349,17.45,19.369795442735256,-2.508812836067571,-7.208814826596557,0.6293782304189094,-0.10756515496920804,-0.7729024357304382,0.02861530951663696,-0.00670190700254925,-0.03228964032453111,0,70,255.0,255.0,255.0
350,17.5,19.4013,-2.5142,-7.2475,0.6308015923089352,-0.10793197833225485,-0.7744982917375648,0.028319166084394,-0.007971027519322993,-0.03154459996053571,0,70,255.0,255.0,255.0
351,17.55,19.432875595596915,-2.5196063059874683,-7.286265062603364,0.6322245720448166,-0.10831512689556042,-0.7761185577276758,0.028600023350865915,-0.007354915012899568,-0.033266039643905135,0,70,255.0,255.0,255.0
352,17.6,19.4645226912522,-2.5250309992624675,-7.325113290305838,0.6336615946440217,-0.10866746983354482,-0.7778248957019553,0.02888088061733783,-0.006738802506476143,-0.03498747932727456,0,70,255.0,255.0,255.0
353,17.650000000000002,19.496241989109038,-2.5304725395437337,-7.36404898670663,0.6351126601065505,-0.10898900714620803,-0.7796173056604034,0.029161737883809748,-0.0061226900000527175,-0.03670891901064398,0,70,255.0,255.0,255.0
354,17.7,19.528034191310578,-2.5359293865499994,-7.403076455404946,0.6365777684324028,-0.10927973883355008,-0.7814957876030197,0.029442595150281643,-0.0055065774936293365,-0.038430358694013275,0,70,255.0,255.0,255.0
355,17.75,19.5599,-2.5414,-7.4422,0.6380569196215785,-0.10953966489557097,-0.7834603415298046,0.029723452416747342,-0.0048904649872062445,-0.04015179837738625,0,70,255.0,255.0,255.0
356,17.8,19.591839655594253,-2.546882794379975,-7.481422248191808,0.6395224101015766,-0.10976607138265483,-0.7854104134894365,0.028896166783175112,-0.004165794496147613,-0.037851080007893646,0,70,255.0,255.0,255.0
357,17.85,19.623851551605465,-2.5523760032461893,-7.5207391240836365,0.6409465362998961,-0.10995624434518574,-0.787245449530594,0.028068881149602886,-0.0034411240050889816,-0.03555036163840104,0,70,255.0,255.0,255.0
358,17.900000000000002,19.65593361981955,-2.5578778149224175,-7.56014487587956,0.642329298216537,-0.11011018378316373,-0.7889654496532768,0.027241595516030656,-0.0027164535140303506,-0.03324964326890844,0,70,255.0,255.0,255.0
359,17.95,19.688083792022418,-2.56338641773243,-7.599633751783655,0.643670695851499,-0.11022788969658877,-0.7905704138574848,0.02641430988245849,-0.0019917830229717708,-0.030948924899415996,0,70,255.0,255.0,255.0
360,18.0,19.7203,-2.5689,-7.6392,0.6449707292047827,-0.11030936208546091,-0.7920603421432183,0.025587024248888035,-0.0012671125319136944,-0.02864820652992517,0,70,255.0,255.0,255.0
361,18.05,19.752580982026082,-2.574417716492634,-7.678839544629405,0.6462777875489193,-0.1104125875738225,-0.7935357883145795,0.02669530951657519,-0.0028619070025499797,-0.030369640324519255,0,70,255.0,255.0,255.0
362,18.1,19.78492870232595,-2.5799425877527744,-7.718555013359621,0.6476402601564403,-0.11059555278571591,-0.7950973061756702,0.02780359478426234,-0.004456701473186265,-0.03209107411911334,0,70,255.0,255.0,255.0
363,18.150000000000002,19.81734593161278,-2.585478600766598,-7.758350709775136,0.6490581470273455,-0.11085825772114113,-0.7967448957264909,0.028911880051949494,-0.00605149594382255,-0.03381250791370743,0,70,255.0,255.0,255.0
364,18.2,19.84983544059974,-2.591029742520281,-7.798230937460431,0.6505314481616352,-0.11120070238009816,-0.7984785569670408,0.03002016531963657,-0.007646290414458723,-0.035533941708301396,0,70,255.0,255.0,255.0
365,18.25,19.8824,-2.5966,-7.8382,0.6520601635593092,-0.11162288676258701,-0.8002982898973209,0.031128450587321943,-0.009241084885094897,-0.037255375502893706,0,70,255.0,255.0,255.0
366,18.3,19.915041216301432,-2.6021919396494892,-7.878261173290574,0.6535744397027475,-0.11203957832205479,-0.8021424332522441,0.029442595150209326,-0.007426577493616278,-0.03651035869403517,0,70,255.0,255.0,255.0
367,18.35,19.94775603909075,-2.607802445742713,-7.9184136224778845,0.6550044230743302,-0.11236554451194865,-0.8039493257667244,0.02775673971309671,-0.00561207010213766,-0.03576534188517664,0,70,255.0,255.0,255.0
368,18.400000000000002,19.980540253729338,-2.6134269820111915,-7.958655485019907,0.6563501136740573,-0.11260078533226857,-0.8057189674407619,0.026070884275984092,-0.003797562710659042,-0.0350203250763181,0,70,255.0,255.0,255.0
369,18.45,20.013389645578616,-2.6190610121864464,-7.998984898374618,0.6576115115019284,-0.11274530078301456,-0.8074513582743562,0.024385028838871593,-0.0019830553191805527,-0.03427530826745963,0,70,255.0,255.0,255.0
370,18.5,20.0463,-2.6247,-8.0394,0.6587886165579443,-0.11279909086418663,-0.8091464982675077,0.022699173401760753,-0.00016854792770204519,-0.03353029145859754,0,70,255.0,255.0,255.0
371,18.55,20.079268552768184,-2.6303409249094085,-8.0798989622083,0.6599684536400534,-0.11285309913795391,-0.8108064786764572,0.024494309882601175,-0.001991783022989128,-0.03286892489937702,0,70,255.0,255.0,255.0
372,18.6,20.112298341311075,-2.6359868292763746,-8.120480096728848,0.6612380475462044,-0.11299826916648555,-0.8124333907574455,0.0262894463634416,-0.0038150181182762108,-0.0322075583401565,0,70,255.0,255.0,255.0
373,18.650000000000002,20.14539385346987,-2.641642271188637,-8.161141750145248,0.6625973982763976,-0.11323460094978154,-0.8140272345104729,0.028084582844282023,-0.005638253213563293,-0.03154619178093598,0,70,255.0,255.0,255.0
374,18.7,20.178559577085775,-2.647311808733932,-8.201882269041093,0.6640465058306326,-0.11356209448784187,-0.8155880099355389,0.02987971932512232,-0.007461488308850247,-0.030884825221715505,0,70,255.0,255.0,255.0
375,18.75,20.2118,-2.653,-8.2427,0.6655853702089098,-0.11398074978066657,-0.8171157170326444,0.03167485580596541,-0.009284723404137218,-0.030223458662495872,0,70,255.0,255.0,255.0
376,18.8,20.24511817262583,-2.6587099607128764,-8.28359417787623,0.6671277457370499,-0.11440402512613147,-0.818663652041915,0.030020165319636027,-0.007646290414458611,-0.03169394170832727,0,70,255.0,255.0,255.0
377,18.85,20.278511395664967,-2.6644390371517885,-8.32456759060673,0.6685873867408735,-0.11474537882211244,-0.8202851112034771,0.028365474833306644,-0.006007857424780003,-0.03316442475415866,0,70,255.0,255.0,255.0
378,18.900000000000002,20.31197553239118,-2.670183133234263,-8.365623914399116,0.6699642932203806,-0.11500481086860947,-0.8219800945173309,0.026710784346977264,-0.004369424435101395,-0.03463490779999005,0,70,255.0,255.0,255.0
379,18.95,20.345506446078264,-2.6759381528778245,-8.406766825461002,0.6712584651755712,-0.11518232126562257,-0.8237486019834761,0.025056093860648,-0.0027309914454229046,-0.03610539084582134,0,70,255.0,255.0,255.0
380,19.0,20.3791,-2.6817,-8.448,0.6724699026064453,-0.11527791001315174,-0.825590633601913,0.023401403374316843,-0.0010925584557432977,-0.03757587389164918,0,70,255.0,255.0,255.0
381,19.05,20.41275315672848,-2.6874656322390873,-8.489325926286785,0.6736645634117716,-0.1153548003575244,-0.8274349131558909,0.024385028838734626,-0.0019830553191632866,-0.03619530826746915,0,70,255.0,255.0,255.0
382,19.1,20.446467276029068,-2.693236222116472,-8.530742340844238,0.6749084054903188,-0.11547621554506808,-0.8292101644286599,0.02536865430315241,-0.0028735521825832755,-0.034814742643289126,0,70,255.0,255.0,255.0
383,19.150000000000002,20.480244816965403,-2.699013995874314,-8.572245792258297,0.6762014288420869,-0.11564215557578274,-0.8309163874202199,0.026352279767570194,-0.003764049046003264,-0.0334341770191091,0,70,255.0,255.0,255.0
384,19.200000000000003,20.514088238601165,-2.7048011797547704,-8.613832829114907,0.6775436334670759,-0.1158526204496684,-0.832553582130571,0.027335905231987978,-0.004654545909423253,-0.03205361139492907,0,70,255.0,255.0,255.0
385,19.25,20.548,-2.7106,-8.6555,0.6789350193652856,-0.11610761016672505,-0.8341217485597128,0.028319530696403028,-0.005545042772843178,-0.030673045770747365,0,70,255.0,255.0,255.0
386,19.3,20.58198200046023,-2.7164123103307753,-8.697244516976637,0.6803420006158256,-0.1163847734437675,-0.8356606953345236,0.027959719325196447,-0.005541488308854969,-0.03088482522168228,0,70,255.0,255.0,255.0
387,19.35,20.616033900218774,-2.7222384743823236,-8.73906624601633,0.6817309912978052,-0.11666175899761057,-0.8372102310818811,0.027599907953989866,-0.00553793384486676,-0.031096604672617194,0,70,255.0,255.0,255.0
388,19.400000000000002,20.6501547997472,-2.7280784832684835,-8.780965716567701,0.6831019914112246,-0.1169385668282542,-0.8387703558017853,0.027240096582783285,-0.005534379380878551,-0.03130838412355211,0,70,255.0,255.0,255.0
389,19.450000000000003,20.684343799517087,-2.7339323281030956,-8.822943458079385,0.6844550009560836,-0.11721519693569842,-0.8403410694942363,0.026880285211576704,-0.0055308249168903425,-0.031520163574487024,0,70,255.0,255.0,255.0
390,19.5,20.7186,-2.7398,-8.865,0.6857900199323823,-0.11749164931994321,-0.8419223721592339,0.02652047384037104,-0.005527270452901689,-0.03173194302542015,0,70,255.0,255.0,255.0
391,19.55,20.752922841430596,-2.74568112643781,-8.907136005806668,0.6871274341249094,-0.11774610586740163,-0.8435223055060153,0.026976093860711366,-0.004650991445434803,-0.032265390845828544,0,70,255.0,255.0,255.0
392,19.6,20.787313123095842,-2.7515738803542336,-8.949352675090454,0.6884876293184534,-0.1179567484644867,-0.8451489112438169,0.02743171388105169,-0.003774712437967917,-0.03279883866623693,0,70,255.0,255.0,255.0
393,19.650000000000002,20.82177198404579,-2.7574760710517525,-8.991651341470902,0.6898706055130146,-0.11812357711119842,-0.846802189372639,0.027887333901392017,-0.002898433430501031,-0.033332286486645324,0,70,255.0,255.0,255.0
394,19.700000000000003,20.856300563330493,-2.7633855078328478,-9.03403333856757,0.6912763627085927,-0.11824659180753681,-0.8484821398924813,0.028342953921732344,-0.002022154423034145,-0.03386573430705372,0,70,255.0,255.0,255.0
395,19.75,20.8909,-2.7693,-9.0765,0.6927049009051878,-0.11832579255350183,-0.8501887628033441,0.028798573942072636,-0.0011458754155669881,-0.034399182127459405,0,70,255.0,255.0,255.0
396,19.8,20.92557063381739,-2.775218383917984,-9.119052259796687,0.6941082628845392,-0.11842280308662648,-0.8518980826414045,0.027335905231986125,-0.002734545909419195,-0.03397361139495789,0,70,255.0,255.0,255.0
397,19.85,20.96030960739786,-2.7811436042007407,-9.161689453621864,0.6954384914283864,-0.11859924714444375,-0.85358612394284,0.025873236521899615,-0.004323216403271402,-0.03354804066245637,0,70,255.0,255.0,255.0
398,19.900000000000002,20.99511326406964,-2.7870796325245064,-9.204410517548697,0.6966955865367294,-0.11885512472695363,-0.8552528867076502,0.024410567811813104,-0.00591188689712361,-0.03312246992995485,0,70,255.0,255.0,255.0
399,19.950000000000003,21.029977947160944,-2.793030440565515,-9.247214387650352,0.6978795482095678,-0.11919043583415612,-0.8568983709358354,0.022947899101726593,-0.0075005573909758165,-0.03269689919745333,0,70,255.0,255.0,255.0
400,20.0,21.0649,-2.799,-9.2901,0.6989903764469018,-0.1196051804660512,-0.8585225766273956,0.021485230391637522,-0.009089227884828466,-0.032271328464956284,0,70,255.0,255.0,255.0
401,20.05,21.099877023299843,-2.8049909378902553,-9.33306615500658,0.7001035143369807,-0.12001868178609407,-0.8601173639283809,0.023040285211517842,-0.007450824916885888,-0.03152016357445396,0,70,255.0,255.0,255.0
402,20.1,21.13491164731272,-2.811000502842803,-9.376111110422098,0.7012944049680536,-0.1203502629577398,-0.8616745929848411,0.024595340031398162,-0.005812421948943311,-0.030768998683951644,0,70,255.0,255.0,255.0
403,20.150000000000002,21.170007759675666,-2.8170245988502227,-9.419232988334326,0.7025630483401205,-0.12059992398098841,-0.8631942637967761,0.02615039485127848,-0.0041740189810007345,-0.030017833793449324,0,70,255.0,255.0,255.0
404,20.200000000000003,21.205169248025744,-2.8230591299050953,-9.462429910831036,0.7039094444531815,-0.12076766485583988,-0.864676376364186,0.0277054496711588,-0.002535616013058157,-0.029266668902947005,0,70,255.0,255.0,255.0
405,20.25,21.2404,-2.8291,-9.5057,0.7053335933072363,-0.12085348558229424,-0.8661209306870709,0.02926050449103723,-0.0008972130451160298,-0.028515504012450954,0,70,255.0,255.0,255.0
406,20.3,21.27570287298324,-2.8351442645209954,-9.54904232017699,0.7067736797675539,-0.12092646976899799,-0.8675844616450588,0.028342953921663912,-0.0020221544230339663,-0.030025734307062124,0,70,255.0,255.0,255.0
407,20.35,21.311076603351285,-2.8411935844280483,-9.592459704689752,0.7081678886994027,-0.12105570102459763,-0.8691235041177772,0.027425403352290597,-0.0031470958009519033,-0.031535964601673294,0,70,255.0,255.0,255.0
408,20.400000000000002,21.346518897227707,-2.8472507720746036,-9.635955929114017,0.709516220102783,-0.12124117934909319,-0.8707380581052261,0.026507852782917278,-0.00427203717886984,-0.033046194896284464,0,70,255.0,255.0,255.0
409,20.450000000000003,21.382027460736087,-2.853318639814106,-9.679534769025521,0.7108186739776945,-0.12148290474248463,-0.8724281236074056,0.025590302213543963,-0.005396978556787777,-0.034556425190895634,0,70,255.0,255.0,255.0
410,20.5,21.4176,-2.8594,-9.7232,0.7120752503241374,-0.12178087720477193,-0.8741937006243157,0.024672751644168045,-0.006521919934705078,-0.03606665548550758,0,70,255.0,255.0,255.0
411,20.55,21.453234684767203,-2.8654968040257636,-9.766954164285453,0.7133137665927863,-0.12208343913791407,-0.8759607894913904,0.024867899101787574,-0.005580557390980254,-0.034616899197483855,0,70,255.0,255.0,255.0
412,20.6,21.48893153928216,-2.871607559445005,-9.810794870818901,0.7145620402343162,-0.12233893294386995,-0.8776553905440642,0.025063046559407103,-0.00463919484725543,-0.03316714290946013,0,70,255.0,255.0,255.0
413,20.650000000000002,21.524691051413516,-2.8777299128513647,-9.85471849520962,0.715820071248727,-0.12254735862263962,-0.8792775037823365,0.025258194017026635,-0.003697832303530606,-0.0317173866214364,0,70,255.0,255.0,255.0
414,20.700000000000003,21.56051370902992,-2.8838615108384826,-9.898721413066896,0.717087859636019,-0.12270871617422303,-0.8808271292062079,0.025453341474646164,-0.0027564697598057818,-0.030267630333412673,0,70,255.0,255.0,255.0
415,20.75,21.5964,-2.89,-9.9428,0.7183654053961915,-0.12282300559862018,-0.8823042668156779,0.02564848893226479,-0.0018151072160806914,-0.028817874045389935,0,70,255.0,255.0,255.0
416,20.8,21.632350387947948,-2.8961437193759503,-9.986951422681198,0.719651253861279,-0.12293177367934845,-0.8837563803893855,0.0257854496712314,-0.0025356160130499787,-0.02926666890291561,0,70,255.0,255.0,255.0
417,20.85,21.668365239520078,-2.902293777791933,-10.031176012034654,0.7209439503633147,-0.12307656719992519,-0.8852309337059695,0.025922410410198007,-0.0032561248100192656,-0.029715463760441287,0,70,255.0,255.0,255.0
418,20.900000000000002,21.704444897118233,-2.9084519765199404,-10.075474890047513,0.7222434949022988,-0.12325738616035038,-0.8867279267654297,0.026059371149164616,-0.003976633606988553,-0.03016425861796696,0,70,255.0,255.0,255.0
419,20.950000000000003,21.740589703144256,-2.9146201168319656,-10.119849178706914,0.7235498874782312,-0.12347423056062405,-0.8882473595677662,0.026196331888131228,-0.00469714240395784,-0.03061305347549264,0,70,255.0,255.0,255.0
420,21.0,21.7768,-2.9208,-10.1643,0.7248631280911119,-0.12372710040074615,-0.8897892321129789,0.026333292627094274,-0.005417651200926854,-0.03106184833301473,0,70,255.0,255.0,255.0
421,21.05,21.813075763441002,-2.9269931184704365,-10.208828144989758,0.7261612179621261,-0.12399746614468922,-0.8913336889510769,0.025590302213474015,-0.005396978556795928,-0.03071642519090378,0,70,255.0,255.0,255.0
422,21.1,21.849415502637537,-2.9331997293872654,-10.25343308104249,0.7274221583124593,-0.12426679825642575,-0.8928608746320693,0.024847311799853757,-0.005376305912665002,-0.03037100204879283,0,70,255.0,255.0,255.0
423,21.150000000000002,21.88581736011357,-2.9394197810688762,-10.298113944600347,0.7286459491421116,-0.12453509673595574,-0.8943707891559562,0.024104321386233498,-0.005355633268534076,-0.03002557890668188,0,70,255.0,255.0,255.0
424,21.200000000000003,21.922279478393072,-2.9456532218336577,-10.34286987210547,0.7298325904510827,-0.12480236158327916,-0.8958634325227375,0.02336133097261324,-0.0053349606244031495,-0.029680155764570927,0,70,255.0,255.0,255.0
425,21.25,21.9588,-2.9519,-10.3877,0.7309820822393729,-0.12506859279839602,-0.8973388047324131,0.022618340558992145,-0.005314287980271226,-0.02933473262245556,0,70,255.0,255.0,255.0
426,21.3,21.99537775828805,-2.9581598067423034,-10.432603997359779,0.7321358742902123,-0.12531836174189784,-0.898828863806309,0.023533341474581363,-0.004676469759800863,-0.030267630333379016,0,70,255.0,255.0,255.0
427,21.35,22.032014349929785,-2.9644313046590063,-10.477583663795391,0.733335416386831,-0.1255362397743761,-0.900365567765751,0.024448342390170578,-0.004038651539330499,-0.03120052804430247,0,70,255.0,255.0,255.0
428,21.400000000000002,22.068712062427498,-2.9707128992045573,-10.522641331551116,0.7345807085292293,-0.12572222689583087,-0.9019489166107393,0.025363343305759796,-0.0034008333188601365,-0.032133425755225924,0,70,255.0,255.0,255.0
429,21.450000000000003,22.105473183283472,-2.977002995833406,-10.567779332871227,0.7358717507174071,-0.12587632310626212,-0.9035789103412737,0.02627834422134901,-0.002763015098389773,-0.03306632346614938,0,70,255.0,255.0,255.0
430,21.5,22.1423,-2.9833,-10.613,0.7372085429513642,-0.12599852840566986,-0.9052555489573542,0.027193345136936387,-0.002125196877918567,-0.03399922117707099,0,70,255.0,255.0,255.0
431,21.55,22.179194003406803,-2.9896028545603497,-10.65830466557113,0.7385432848769943,-0.12612108688771664,-0.906918855823669,0.026196331888265676,-0.0027771424039535124,-0.03253305347552098,0,70,255.0,255.0,255.0
432,21.6,22.216153497643326,-2.9959126519767105,-10.70369066377595,0.7398281761401908,-0.12627624264606524,-0.9085088543049062,0.025199318639594962,-0.0034290879299884577,-0.031066885773970966,0,70,255.0,255.0,255.0
433,21.650000000000002,22.253175990176445,-3.002231022112895,-10.749154329195203,0.7410632167409538,-0.1264639956807155,-0.9100255444010661,0.02420230539092425,-0.004081033456023403,-0.029600718072420956,0,70,255.0,255.0,255.0
434,21.700000000000003,22.29025898847305,-3.00855959483272,-10.79469199640964,0.7422484066792832,-0.12668434599166756,-0.9114689261121484,0.02320529214225354,-0.004732978982058348,-0.028134550370870943,0,70,255.0,255.0,255.0
435,21.75,22.3274,-3.0149,-10.8403,0.7433837459551791,-0.1269372935789213,-0.9128389994381532,0.0222082788935829,-0.005384924508092581,-0.026668382669315704,0,70,255.0,255.0,255.0
436,21.8,22.364597428084743,-3.021253575016296,-10.8859757403557,0.7445229862018323,-0.12720529070723413,-0.9141997128990013,0.02336133097254562,-0.005334960624419781,-0.027760155764605457,0,70,255.0,255.0,255.0
437,21.85,22.40185325949692,-3.0276204874341537,-10.931720881100814,0.7457198790524336,-0.12747078964136327,-0.9156150150146137,0.024514383051508336,-0.005284996740746982,-0.028851928859895213,0,70,255.0,255.0,255.0
438,21.900000000000002,22.439170376866723,-3.034000612343863,-10.977538151668076,0.7469744245069831,-0.12773379038130883,-0.9170849057849908,0.025667435130471056,-0.005235032857074182,-0.029943701955184965,0,70,255.0,255.0,255.0
439,21.950000000000003,22.47655166282435,-3.040393824835715,-11.023430281490226,0.7482866225654808,-0.1279942929270707,-0.9186093852101322,0.026820487209433773,-0.005185068973401383,-0.03103547505047472,0,70,255.0,255.0,255.0
440,22.0,22.514,-3.0468,-11.0694,0.7496564732279266,-0.12825229727864895,-0.9201884532900381,0.027973539288397298,-0.0051351050897281425,-0.03212724814576173,0,70,255.0,255.0,255.0
441,22.05,22.55151708425423,-3.0532188453744653,-11.115449173006068,0.7510127703156703,-0.12849775028335156,-0.921770292580335,0.026278344221348046,-0.004683015098376402,-0.031146323466119504,0,70,255.0,255.0,255.0
442,22.1,22.589099864369015,-3.0596493982866764,-11.161576211820801,0.7522843076500614,-0.1287205987884866,-0.9233030856366501,0.024583149154298795,-0.004230925107024662,-0.030165398786477275,0,70,255.0,255.0,255.0
443,22.150000000000002,22.62674410235668,-3.0660905285116544,-11.207778664132501,0.7534710852311002,-0.12892084279405405,-0.9247868324589829,0.022887954087249546,-0.0037788351156729212,-0.02918447410683505,0,70,255.0,255.0,255.0
444,22.200000000000003,22.664445560229566,-3.072541105824422,-11.254054077629469,0.7545731030587864,-0.12909848230005389,-0.9262215330473337,0.021192759020200295,-0.003326745124321181,-0.02820354942719282,0,70,255.0,255.0,255.0
445,22.25,22.7022,-3.079,-11.3004,0.7555903611331202,-0.12925351730648618,-0.927607187401702,0.01949756395314939,-0.0028746551329701386,-0.027222624747553326,0,70,255.0,255.0,255.0
446,22.3,22.740004634898344,-3.0854662434858446,-11.346814767620028,0.7566099325355053,-0.12939570815936177,-0.9289911167796626,0.02128529214225721,-0.002812978982054081,-0.02813455037087104,0,70,255.0,255.0,255.0
447,22.35,22.777862483027043,-3.091939519419144,-11.393299871615987,0.7577188903473459,-0.1295348152046916,-0.9304206424387892,0.023073020331365032,-0.002751302831138023,-0.02904647599418875,0,70,255.0,255.0,255.0
448,22.400000000000002,22.815778013706574,-3.0984196736095213,-11.439857591801928,0.7589172345686419,-0.1296708384424756,-0.9318957643790815,0.02486074852047285,-0.0026896266802219656,-0.029958401617506465,0,70,255.0,255.0,255.0
449,22.450000000000003,22.8537556962574,-3.1049065518665997,-11.486490207991917,0.7602049651993933,-0.1298037778727138,-0.9334164826005399,0.026648476709580673,-0.0026279505293059077,-0.030870327240824176,0,70,255.0,255.0,255.0
450,22.5,22.8918,-3.1114,-11.5332,0.7615820822395999,-0.12993363349540618,-0.934982797103164,0.02843620489869192,-0.0025662743783898545,-0.031782252864140936,0,70,255.0,255.0,255.0
451,22.55,22.929913976152395,-3.1179001806821582,-11.579988556513818,0.7629634995423014,-0.13007941707920107,-0.9365532403010285,0.026820487209368138,-0.003265068973405559,-0.031035475050437522,0,70,255.0,255.0,255.0
452,22.6,22.968095003522823,-3.12440852403675,-11.62685470171526,0.7642641309605367,-0.13026014039274675,-0.9380863446082077,0.025204769520044357,-0.003963863568421264,-0.030288697236734108,0,70,255.0,255.0,255.0
453,22.650000000000002,23.006339042817046,-3.130926777050262,-11.673796568659794,0.7654839764943059,-0.1304758034360432,-0.939582110024702,0.023589051830720572,-0.004662658163436969,-0.029541919423030694,0,70,255.0,255.0,255.0
454,22.700000000000003,23.044642054740844,-3.137456686709183,-11.720812290402886,0.7666230361436088,-0.13072640620909043,-0.9410405365505109,0.02197333414139679,-0.005361452758452673,-0.028795141609327283,0,70,255.0,255.0,255.0
455,22.75,23.083,-3.144,-11.7679,0.7676813099084456,-0.13101194871188845,-0.9424616241856347,0.020357616452074012,-0.006060247353468773,-0.028048363795626585,0,70,255.0,255.0,255.0
456,22.8,23.121409860492054,-3.1505578337855247,-11.815058206324705,0.7687200692952558,-0.13129462352383311,-0.9438679220162062,0.02119275902033523,-0.0052467451243172975,-0.028203549427228226,0,70,255.0,255.0,255.0
457,22.85,23.159872702881668,-3.1571287844338594,-11.86228692152298,0.7698005858104793,-0.1315366232243202,-0.9452819791283577,0.022027901588596445,-0.004433242895165822,-0.028358735058829868,0,70,255.0,255.0,255.0
458,22.900000000000002,23.198390615025243,-3.1637108181894322,-11.909586533558903,0.7709228594541155,-0.1317379478133497,-0.946703795522089,0.02286304415685766,-0.0036197406660143467,-0.028513920690431512,0,70,255.0,255.0,255.0
459,22.950000000000003,23.23696568477922,-3.1703019012966704,-11.956957430396551,0.772086890226165,-0.13189859729092165,-0.9481333711974008,0.023698186725118878,-0.002806238436862872,-0.028669106322033153,0,70,255.0,255.0,255.0
460,23.0,23.2756,-3.1769,-12.0044,0.7732926781266273,-0.13201857165703598,-0.9495707061542924,0.024533329293373818,-0.001992736207711898,-0.028824291953634784,0,70,255.0,255.0,255.0
461,23.05,23.314295381879372,-3.183503684175746,-12.05191461818736,0.7745242232766996,-0.13213408882546165,-0.951015071634154,0.024728476709516126,-0.0026279505293145358,-0.028950327240828248,0,70,255.0,255.0,255.0
462,23.1,23.353052584950518,-3.190113938227814,-12.099501612192824,0.775765525797579,-0.13228136670996743,-0.9524657388783753,0.024923624125658433,-0.0032631648509171733,-0.029076362528021708,0,70,255.0,255.0,255.0
463,23.150000000000002,23.391872097081976,-3.1967323501920104,-12.147161297104605,0.7770165856892653,-0.13246040531055336,-0.9539227078869562,0.02511877154180074,-0.0038983791725198105,-0.02920239781521517,0,70,255.0,255.0,255.0
464,23.200000000000003,23.43075440614229,-3.203360508104138,-12.194893988010927,0.7782774029517591,-0.13267120462721943,-0.9553859786598968,0.02531391895794305,-0.0045335934941224485,-0.02932843310240863,0,70,255.0,255.0,255.0
465,23.25,23.4697,-3.21,-12.2427,0.7795479775850597,-0.1329137646599656,-0.956855551197197,0.025509066374083567,-0.0051688078157250406,-0.02945446838960386,0,70,255.0,255.0,255.0
466,23.3,23.508708611990457,-3.2166522295114945,-12.290579320925856,0.7807830375979449,-0.13317702117432006,-0.9583117914471695,0.023893334141325596,-0.005361452758452725,-0.028795141609295517,0,70,255.0,255.0,255.0
467,23.35,23.54777695731627,-3.223317862654884,-12.338530629705733,0.7819373109991923,-0.13344990993581088,-0.9597350653581267,0.02227760190856762,-0.005554097701180411,-0.028135814828987176,0,70,255.0,255.0,255.0
468,23.400000000000002,23.58690099664685,-3.2299973810425278,-12.386552278022686,0.7830107977888017,-0.1337324309444381,-0.9611253729300683,0.02066186967580965,-0.005746742643908095,-0.027476488048678832,0,70,255.0,255.0,255.0
469,23.450000000000003,23.62607669065162,-3.2366912662867806,-12.43464261755976,0.7840034979667732,-0.1340245842002017,-0.9624827141629945,0.019046137443051676,-0.00593938758663578,-0.026817161268370488,0,70,255.0,255.0,255.0
470,23.5,23.6653,-3.2434,-12.4828,0.7849154115331068,-0.1343263697031017,-0.9638070890569054,0.017430405210292044,-0.006132032529362785,-0.026157834488061305,0,70,255.0,255.0,255.0
471,23.55,23.7045685701588,-3.250123397778278,-12.531023298109218,0.7858476263314957,-0.1345978264772572,-0.9651297625771595,0.019858186725260865,-0.004726238436858201,-0.026749106322104595,0,70,255.0,255.0,255.0
472,23.6,23.74388678578441,-3.2568586111526487,-12.579313468984244,0.786901230205633,-0.1347989935467875,-0.9664819996891159,0.022285968240229683,-0.003320444344353617,-0.02734037815614789,0,70,255.0,255.0,255.0
473,23.650000000000002,23.783260716330627,-3.26360212563788,-12.62767199080466,0.7880762231555187,-0.1349298709116926,-0.9678638003927743,0.024713749755198505,-0.0019146502518490325,-0.02793164999019118,0,70,255.0,255.0,255.0
474,23.700000000000003,23.822696431251227,-3.2703504267487413,-12.676100341750052,0.7893726051811529,-0.13499045857197242,-0.969275164688135,0.027141531270167323,-0.0005088561593444485,-0.028522921824234472,0,70,255.0,255.0,255.0
475,23.75,23.8622,-3.2771,-12.7246,0.7907903762825353,-0.134980756527627,-0.9707160925751978,0.029569312785134194,0.0008969379331615901,-0.02911419365827239,0,70,255.0,255.0,255.0
476,23.8,23.901775507374346,-3.283848579375393,-12.77317228663727,0.7922104570761104,-0.13497567291665125,-0.972177158244213,0.027233918957869252,-0.0006935934941310288,-0.029328433102339173,0,70,255.0,255.0,255.0
477,23.85,23.941419099546092,-3.290598892734521,-12.821817894357293,0.7935137681783223,-0.1350501158770401,-0.9736489358854317,0.02489852513060431,-0.0022841249214236477,-0.02954267254640595,0,70,255.0,255.0,255.0
478,23.900000000000002,23.98112493803066,-3.2973549164059532,-12.870537358758684,0.7947003095891709,-0.1352040854087936,-0.9751314254988537,0.022563131303339368,-0.0038746563487162666,-0.029756911990472732,0,70,255.0,255.0,255.0
479,23.950000000000003,24.020887184343486,-3.304120626718257,-12.91933121544005,0.7957700813086563,-0.13543758151191174,-0.9766246270844791,0.020227737476074426,-0.0054651877760088854,-0.029971151434539513,0,70,255.0,255.0,255.0
480,24.0,24.0607,-3.3109,-12.9682,0.7967230833367783,-0.13575060418639445,-0.9781285406423075,0.01789234364880965,-0.007055719203300281,-0.03018539087860539,0,70,255.0,255.0,255.0
481,24.05,24.100559000343814,-3.31769588472015,-13.01714355534171,0.7976465453640732,-0.13607548185614265,-0.9796016044459818,0.019046137442983217,-0.005939387586627093,-0.02873716126836745,0,70,255.0,255.0,255.0
482,24.1,24.140465616031236,-3.3245066179092677,-13.06615895358659,0.7986276970810767,-0.13634454294505718,-0.9810022567691442,0.020199931237156788,-0.004823055969953906,-0.027288931658129515,0,70,255.0,255.0,255.0
483,24.150000000000002,24.180422731546752,-3.331329408738309,-13.115242574160618,0.7996665384877889,-0.13655778745313804,-0.9823304976117948,0.021353725031330355,-0.0037067243532807183,-0.02584070204789158,0,70,255.0,255.0,255.0
484,24.200000000000003,24.220433231374848,-3.3381614663782337,-13.164390796489762,0.8007630695842097,-0.13671521538038525,-0.9835863269739334,0.022507518825503923,-0.0025903927366075306,-0.02439247243765364,0,70,255.0,255.0,255.0
485,24.25,24.2605,-3.345,-13.2136,0.8019172903703392,-0.13681682672679876,-0.9847697448555602,0.023661312619673858,-0.001474061119933312,-0.02294424282741847,0,70,255.0,255.0,255.0
486,24.3,24.300625291250395,-3.351843081744007,-13.262867891995894,0.8030913614675871,-0.13691439965878058,-0.9859604239718526,0.02330153127024221,-0.0024288561593392233,-0.024682921824276095,0,70,255.0,255.0,255.0
487,24.35,24.34080883632897,-3.3586922356284115,-13.31219749129635,0.8042474434973634,-0.13705971234273268,-0.9872380370379878,0.02294174992081056,-0.003383651198745135,-0.026421600821133723,0,70,255.0,255.0,255.0
488,24.400000000000002,24.381049735782344,-3.365549848640813,-13.361593144598858,0.8053855364596681,-0.1372527647786551,-0.988602584053966,0.022581968571378914,-0.004338446238151047,-0.028160279817991348,0,70,255.0,255.0,255.0
489,24.450000000000003,24.421347090157145,-3.3724183077688097,-13.411059198600913,0.8065056403545015,-0.1374935569665478,-0.9900540650197871,0.022222187221947267,-0.005293241277556958,-0.029898958814848973,0,70,255.0,255.0,255.0
490,24.5,24.4617,-3.3793,-13.4606,0.8076077551818629,-0.13778208890641078,-0.9915924799354507,0.021862405872513868,-0.006248036316962802,-0.03163763781169848,0,70,255.0,255.0,255.0
491,24.55,24.502107834654602,-3.3861965883038248,-13.510218476674714,0.8087080087655776,-0.13807491950873507,-0.9931326996666067,0.022147737476070087,-0.005465187776008429,-0.029971151434535392,0,70,255.0,255.0,255.0
492,24.6,24.542571038652895,-3.3931068395770896,-13.559911881228013,0.8098225289294699,-0.13832860768401162,-0.9945895950789043,0.02243306907962631,-0.004682339235054056,-0.0283046650573723,0,70,255.0,255.0,255.0
493,24.650000000000002,24.583090325323887,-3.400028796698442,-13.609676047443957,0.8109513156735402,-0.1385431534322405,-0.9959631661723439,0.022718400683182528,-0.003899490694099683,-0.026638178680209207,0,70,255.0,255.0,255.0
494,24.700000000000003,24.623666407996588,-3.40696050254653,-13.659506809106603,0.8120943689977882,-0.1387185567534216,-0.9972534129469253,0.02300373228673875,-0.0031166421531453104,-0.024971692303046116,0,70,255.0,255.0,255.0
495,24.75,24.6643,-3.4139,-13.7094,0.8132516889022141,-0.138854817647555,-0.9984603354026486,0.023289063890292283,-0.002333793612190549,-0.023305205925885808,0,70,255.0,255.0,255.0
496,24.8,24.704991370131197,-3.4208457650406947,-13.759352601305254,0.814396603470109,-0.13897792230627515,-0.9996527773617363,0.022507518825501182,-0.0025903927366153694,-0.024392472437623363,0,70,255.0,255.0,255.0
497,24.85,24.745739009059463,-3.427798006063232,-13.809366183791601,0.8155024407847643,-0.13911385692121656,-1.0008995826464109,0.02172597376071008,-0.0028469918610401898,-0.025479738949360918,0,70,255.0,255.0,255.0
498,24.900000000000002,24.786540962922118,-3.43475736456542,-13.859443465625324,0.81656920084618,-0.13926262149237917,-1.0022007512566726,0.020944428695918983,-0.0031035909854650098,-0.02656700546109847,0,70,255.0,255.0,255.0
499,24.950000000000003,24.827395277856525,-3.4417244820450734,-13.909587164972697,0.8175968836543562,-0.13942421601976304,-1.0035562831925207,0.020162883631127882,-0.00336019010988983,-0.027654271972836028,0,70,255.0,255.0,255.0
500,25.0,24.8683,-3.4487,-13.9598,0.8185854892092926,-0.13959864050336815,-1.0049661784539559,0.019381338566334172,-0.0036167892343141883,-0.028741538484569062,0,70,255.0,255.0,255.0
501,25.05,24.90925388482061,-3.455684351533396,-14.010083918104275,0.8195775773539982,-0.1397733912661648,-1.0063841908864413,0.02030218722188285,-0.0033732412775527598,-0.027978958814847833,0,70,255.0,255.0,255.0
502,25.1,24.950258525109284,-3.462677136169986,-14.060437783605588,0.820615707931481,-0.13993596463112343,-1.0077640743354406,0.02122303587743153,-0.0031296933207913312,-0.0272163791451266,0,70,255.0,255.0,255.0
503,25.150000000000002,24.991316222987642,-3.469677745039878,-14.110859690054761,0.8216998809417413,-0.14008636059824395,-1.009105828800954,0.02214388453298021,-0.0028861453640299023,-0.02645379947540537,0,70,255.0,255.0,255.0
504,25.200000000000003,25.03242928057734,-3.47668556927318,-14.161347731002625,0.822830096384779,-0.14022457916752643,-1.0104094542829811,0.023064733188528894,-0.0026425974072684737,-0.025691219805684142,0,70,255.0,255.0,255.0
505,25.25,25.0736,-3.4837,-14.2119,0.8240063542605942,-0.14035062033897078,-1.0116749507815224,0.02398558184408195,-0.0023990494505068405,-0.024928640135959412,0,70,255.0,255.0,255.0
506,25.3,25.114829890586353,-3.490720828825721,-14.26251492627765,0.8251810871138664,-0.14048851262906206,-1.0129224590924983,0.023003732286808173,-0.0031166421531453204,-0.024971692303081383,0,70,255.0,255.0,255.0
507,25.35,25.156117290503424,-3.497749449256825,-14.313192281786057,0.8263067274892751,-0.1406622845542853,-1.0141721200118305,0.022021882729534398,-0.0038342348557838003,-0.025014744470203354,0,70,255.0,255.0,255.0
508,25.400000000000002,25.197459745127315,-3.5047876552750687,-14.36393217415564,0.82738327538682,-0.14087193611464047,-1.0154239335395188,0.021040033172260622,-0.00455182755842228,-0.025057796637325328,0,70,255.0,255.0,255.0
509,25.450000000000003,25.23885479983414,-3.5118372408622083,-14.414734711016816,0.8284107308065011,-0.14111746731012756,-1.016677899675563,0.020058183614986846,-0.00526942026106076,-0.0251008488044473,0,70,255.0,255.0,255.0
510,25.5,25.2803,-3.5189,-14.4656,0.8293890937483187,-0.14139887814074656,-1.0179340184199632,0.01907633405771403,-0.005987012963698968,-0.025143900971560385,0,70,255.0,255.0,255.0
511,25.55,25.32179375283398,-3.5259771331637193,-14.516528376785132,0.8303700741905398,-0.14168055821758638,-1.0192059727435723,0.020162883631125277,-0.005280190109893502,-0.025734271972802255,0,70,255.0,255.0,255.0
512,25.6,25.363337912877032,-3.5330674668027138,-14.567521089250194,0.8314053821114312,-0.14192689715173593,-1.0205074456172434,0.021249433204536525,-0.004573367256088036,-0.026324642974044125,0,70,255.0,255.0,255.0
513,25.650000000000002,25.404935196503104,-3.5401692338598485,-14.61857961332269,0.8324950175109934,-0.14213789494319518,-1.0218384370409768,0.022335982777947773,-0.003866544402282571,-0.026915013975286,0,70,255.0,255.0,255.0
514,25.700000000000003,25.44658832008611,-3.5472806672779886,-14.669705424930125,0.8336389803892261,-0.14231355159196418,-1.023198947014772,0.02342253235135902,-0.0031597215484771056,-0.02750538497652787,0,70,255.0,255.0,255.0
515,25.75,25.4883,-3.5544,-14.7209,0.8348372707461292,-0.1424538670980429,-1.0245889755386295,0.02450908192476664,-0.0024528986946721343,-0.0280957559777697,0,70,255.0,255.0,255.0
516,25.8,25.53007189807774,-3.5615258385194006,-14.772164366581833,0.8360266161239616,-0.1425812545005914,-1.0259816499332157,0.02306473318852953,-0.00264259740726849,-0.027611219805680057,0,70,255.0,255.0,255.0
517,25.85,25.57190145798845,-3.5686582835323195,-14.82349776121318,0.8371437440649823,-0.14271812683876975,-1.0273500975191976,0.02162038445229242,-0.0028322961198648466,-0.02712668363359042,0,70,255.0,255.0,255.0
518,25.900000000000002,25.61378506886029,-3.5757978092855383,-14.874898972553611,0.8381886545691909,-0.1428644841125779,-1.0286943182965749,0.020176035716055314,-0.0030219948324612025,-0.026642147461500777,0,70,255.0,255.0,255.0
519,25.950000000000003,25.655719119821423,-3.582944890025838,-14.926366789262694,0.8391613476365878,-0.14302032632201586,-1.0300143122653478,0.018731686979818203,-0.003211693545057559,-0.026157611289411138,0,70,255.0,255.0,255.0
520,26.0,25.6977,-3.5901,-14.9779,0.8400618232671727,-0.14318565346708362,-1.0313100794255161,0.017287338243582973,-0.003401392257652791,-0.025673075117319755,0,70,255.0,255.0,255.0
521,26.05,25.739725054855068,-3.5972635127586776,-15.029497356887545,0.8409474613136372,-0.14335442378005134,-1.0325794275235602,0.018138183614993697,-0.003349420261056312,-0.02510084880444089,0,70,255.0,255.0,255.0
522,26.1,25.781795455169178,-3.604435399068008,-15.081157465897096,0.8418756416286721,-0.14352059549318927,-1.0338201643059604,0.018989028986404425,-0.003297448264459833,-0.02452862249156203,0,70,255.0,255.0,255.0
523,26.150000000000002,25.823913328055745,-3.611615528998,-15.13287889646288,0.8428463642122777,-0.14368416860649733,-1.0350322897727164,0.01983987435781515,-0.003245476267863354,-0.023956396178683167,0,70,255.0,255.0,255.0
524,26.200000000000003,25.86608080062821,-3.6188037726186613,-15.18466021801911,0.8438596290644537,-0.1438451431199756,-1.0362158039238287,0.020690719729225874,-0.003193504271266875,-0.023384169865804307,0,70,255.0,255.0,255.0
525,26.25,25.9083,-3.626,-15.2365,0.8449154361852,-0.14400351903362402,-1.037370706759297,0.021541565100633875,-0.0031415322746704,-0.02281194355292726,0,70,255.0,255.0,255.0
526,26.3,25.950572682501992,-3.6332041104458885,-15.288397405867999,0.8459915386214982,-0.1441610503792027,-1.0385326399725345,0.021502532351292913,-0.003159721548477546,-0.023665384976570905,0,70,255.0,255.0,255.0
527,26.35,25.99289912133486,-3.6404161201956486,-15.340353975198441,0.8470656894203294,-0.1443194911884718,-1.039737245256954,0.02146349960195195,-0.0031779108222846912,-0.024518826400214546,0,70,255.0,255.0,255.0
528,26.400000000000002,26.035279218916735,-3.647636074722464,-15.392371841594882,0.8481378885816935,-0.1444788414614312,-1.0409845226125558,0.02142446685261099,-0.003196100096091837,-0.025372267823858187,0,70,255.0,255.0,255.0
529,26.450000000000003,26.07771287766574,-3.65486401949952,-15.444453138660885,0.8492081361055904,-0.14463910119808096,-1.04227447203934,0.021385434103270026,-0.0032142893698989825,-0.02622570924750183,0,70,255.0,255.0,255.0
530,26.5,26.1202,-3.6621,-15.4966,0.8502764319920204,-0.1448002703984211,-1.0436070935373059,0.021346401353929068,-0.003232478643705905,-0.027079150671140084,0,70,255.0,255.0,255.0
531,26.55,26.162740215136974,-3.6693440454577684,-15.548813819640463,0.8513263842003658,-0.1449613747031402,-1.0449380125863188,0.020651686979883257,-0.0032116935450567483,-0.02615761128937598,0,70,255.0,255.0,255.0
532,26.6,26.205332059491393,-3.6765961201493984,-15.60109303330915,0.8523416006900087,-0.1451214397529268,-1.0462228546662435,0.019956972605837446,-0.0031909084464075916,-0.025236071907611873,0,70,255.0,255.0,255.0
533,26.650000000000002,26.24797379627733,-3.6838561721121454,-15.653435337157605,0.8533220814609495,-0.14528046554778096,-1.04746161977708,0.019262258231791632,-0.003170123347758435,-0.02431453252584777,0,70,255.0,255.0,255.0
534,26.700000000000003,26.290663688708843,-3.691124149383262,-15.705838427337374,0.854267826513188,-0.14543845208770265,-1.0486543079188284,0.01856754385774582,-0.003149338249109278,-0.023392993144083666,0,70,255.0,255.0,255.0
535,26.75,26.3334,-3.6984,-15.7583,0.855178835846724,-0.14559539937269184,-1.0498009190914883,0.017872829483698283,-0.0031285531504599007,-0.022471453762316074,0,70,255.0,255.0,255.0
536,26.8,26.376181656950127,-3.70568370772304,-15.810818515570155,0.8560949245770455,-0.145753450808235,-1.0509473096821904,0.018770719729159793,-0.003193504271266968,-0.023384169865771666,0,70,255.0,255.0,255.0
537,26.85,26.419010240699578,-3.7129753992067576,-15.863395491564972,0.85705590781964,-0.14591474979981853,-1.0521393360780655,0.0196686099746213,-0.003258455392074035,-0.024296885969227258,0,70,255.0,255.0,255.0
538,26.900000000000002,26.461887995973964,-3.7202752368289556,-15.916033209774715,0.8580617855745076,-0.1460792963474424,-1.0533769982791132,0.02056650022008281,-0.0033234065128811023,-0.02520960207268285,0,70,255.0,255.0,255.0
539,26.950000000000003,26.504817167498903,-3.727583382967436,-15.968733951989638,0.8591125578416483,-0.14624709045110665,-1.0546602962853338,0.02146439046554432,-0.0033883576336881695,-0.026122318176138443,0,70,255.0,255.0,255.0
540,27.0,26.5478,-3.7349,-16.0215,0.8602082246210622,-0.1464181321108112,-1.055989230096727,0.022362280711004878,-0.0034533087544950103,-0.027035034279597525,0,70,255.0,255.0,255.0
541,27.05,26.590837957062522,-3.7422251236500736,-16.07433291807892,0.8613019174914208,-0.14658482206392107,-1.057320748684906,0.021385434103337694,-0.0032142893698991113,-0.026225709247568917,0,70,255.0,255.0,255.0
542,27.1,26.633929377710302,-3.749558283023572,-16.127231400430965,0.8623467680313959,-0.14673956104780111,-1.058611801021484,0.02040858749567051,-0.0029752699853032127,-0.02541638421554031,0,70,255.0,255.0,255.0
543,27.150000000000002,26.67707181982682,-3.7568988805720336,-16.180193423743546,0.8633427762409878,-0.14688234906245137,-1.0598623871064603,0.019431740888003327,-0.0027362506007073137,-0.024607059183511703,0,70,255.0,255.0,255.0
544,27.200000000000003,26.720262841295565,-3.7642463187469963,-16.233216964704084,0.8642899421201964,-0.14701318610787187,-1.0610725069398352,0.018454894280336143,-0.002497231216111415,-0.023797734151483094,0,70,255.0,255.0,255.0
545,27.25,26.7635,-3.7716,-16.2863,0.8651882656690214,-0.14713207218406252,-1.0622421605216086,0.017478047672667252,-0.002258211831515533,-0.022988409119450992,0,70,255.0,255.0,255.0
546,27.3,26.806781714799786,-3.7789597976766665,-16.339441012114158,0.8660894054572817,-0.14726726093607814,-1.0634016955781969,0.01856754385774463,-0.003149338249109114,-0.023392993144080172,0,70,255.0,255.0,255.0
547,27.35,26.850109848459216,-3.7863274686989556,-16.392640506711178,0.8670450200547959,-0.14744700600897345,-1.0645814598360166,0.019657040042822014,-0.004040464666702695,-0.02379757716870935,0,70,255.0,255.0,255.0
548,27.400000000000002,26.893487124718757,-3.793705240882912,-16.445899495251115,0.868055109461564,-0.14767130740274842,-1.0657814532950678,0.020746536227899393,-0.0049315910842962765,-0.02420216119333853,0,70,255.0,255.0,255.0
549,27.450000000000003,26.936916267318864,-3.8010953420445786,-16.499218989194038,0.8691196736775859,-0.14794016511740304,-1.0670016759553504,0.021836032412976776,-0.005822717501889858,-0.02460674521796771,0,70,255.0,255.0,255.0
550,27.5,26.9804,-3.8085,-16.5526,0.8702387127028616,-0.14825357915293735,-1.0682421278168643,0.02292552859804875,-0.0067138439194835975,-0.02501132924259508,0,70,255.0,255.0,255.0
551,27.55,27.023939983738337,-3.8159204856432605,-16.606043033464456,0.8713484606794497,-0.14855413419176675,-1.0694724690023303,0.021464390465474437,-0.005308357633692197,-0.024202318176043024,0,70,255.0,255.0,255.0
552,27.6,27.067533628452836,-3.8233542421806055,-16.65954657272435,0.872385151749409,-0.14878441491630656,-1.0706623596344687,0.020003252332900127,-0.003902871347900798,-0.023393307109490967,0,70,255.0,255.0,255.0
553,27.650000000000002,27.111177281298165,-3.83079775589632,-16.713108595252017,0.8733487859127398,-0.14894442132655686,-1.0718117997132794,0.018542114200325813,-0.0024973850621093988,-0.02258429604293891,0,70,255.0,255.0,255.0
554,27.700000000000003,27.154867289429,-3.83824751307469,-16.76672707851979,0.8742393631694416,-0.14903415342251752,-1.0729207892387627,0.017080976067751504,-0.0010918987763179986,-0.021775284976386852,0,70,255.0,255.0,255.0
555,27.75,27.1986,-3.8457,-16.8204,0.8750568835195148,-0.14905361120418864,-1.0739893282109179,0.01561983793517907,0.00031358750947374503,-0.020966273909829525,0,70,255.0,255.0,255.0
556,27.8,27.242372750246872,-3.853152659750292,-16.874126054028036,0.8758607518249045,-0.14906020229685446,-1.0750604284124525,0.016534894280409964,-0.0005772312161071673,-0.02187773415155371,0,70,255.0,255.0,255.0
557,27.85,27.286186837729446,-3.8606067625786236,-16.927906802391448,0.8767103729475558,-0.14911133432579937,-1.0761771016260733,0.017449950625640857,-0.0014680499416880796,-0.02278919439327789,0,70,255.0,255.0,255.0
558,27.900000000000002,27.330044550088584,-3.86806453553181,-16.981744523740844,0.8776057468874686,-0.1492070072910233,-1.0773393478517803,0.01836500697087175,-0.002358868667268992,-0.023700654635002077,0,70,255.0,255.0,255.0
559,27.950000000000003,27.37394817496515,-3.8755282056566642,-17.03564149672683,0.878546873644643,-0.14934722119252627,-1.0785471670895734,0.019280063316102644,-0.0032496873928499043,-0.024612114876726262,0,70,255.0,255.0,255.0
560,28.0,27.4179,-3.883,-17.0896,0.879533753219079,-0.14953197603030827,-1.0798005593394528,0.02019511966133969,-0.0041405061184307534,-0.02552357511844683,0,70,255.0,255.0,255.0
561,28.05,27.461901815274175,-3.8904816753555735,-17.143621550423415,0.880536532020937,-0.1497330566208164,-1.0810538173478632,0.01991603241298065,-0.0039027175018943225,-0.02460674521796554,0,70,255.0,255.0,255.0
562,28.1,27.50595342062939,-3.8979731075049013,-17.19770461770987,0.8815253564603771,-0.1499222477804977,-1.0822612338612494,0.019636945164621614,-0.003664928885357892,-0.023689915317484253,0,70,255.0,255.0,255.0
563,28.150000000000002,27.55005411834751,-3.905473701976443,-17.251846909784625,0.8825002265373992,-0.15009954950935217,-1.0834228088796116,0.019357857916262575,-0.003427140268821461,-0.022773085417002965,0,70,255.0,255.0,255.0
