idx,t,px,py,pz,vx,vy,vz,ax,ay,az,yaw,mode,ledr,ledg,ledb
0,0.0,4.5,7.5,0.0,0.00047143430677082463,0.0006150713698727731,0.0027967328356387523,-0.010457211681274236,-0.011380856438499481,-0.07036079402766503,0,70,255.0,255.0,255.0
1,0.05,4.500010571635044,7.500016542569315,5.1882382082995074e-05,-4.714021888647515e-05,4.693283014035581e-05,-0.0007215028956061741,-0.010285769345017756,-0.011344685150797207,-0.07036863522213202,0,70,255.0,255.0,255.0
2,0.1,4.499995428846725,7.5000047234257545,-7.215682388933995e-05,-0.0005571426277309509,-0.0005193971452069477,-0.00424013068657445,-0.010114327008761276,-0.011308513863094932,-0.07037647641659901,0,70,255.0,255.0,255.0
3,0.15000000000000002,4.499955000240884,7.499964632997534,-0.0003721372209031725,-0.0010585729197626031,-0.0010839185561691378,-0.007759150537266077,-0.009942884672504797,-0.011272342575392658,-0.07038431761106602,0,70,255.0,255.0,255.0
4,0.2,4.499889714423362,7.499896361712876,-0.0008480784119446703,-0.0015514310949814305,-0.0016466314027462135,-0.011278562447681053,-0.009771442336248317,-0.011236171287690383,-0.07039215880553301,0,70,255.0,255.0,255.0
5,0.25,4.4998,7.4998,-0.0015,-0.0020357171533874345,-0.0022075356849381757,-0.014798366417819377,-0.009599999999991834,-0.011199999999988108,-0.07040000000000007,0,70,255.0,255.0,255.0
6,0.30000000000000004,4.499686285576637,7.499675638287123,-0.002327921588055331,-0.0025114310949806147,-0.0027666314027450247,-0.018318562447681055,-0.009428557663735355,-0.011163828712285833,-0.07040784119446704,0,70,255.0,255.0,255.0
7,0.35000000000000003,4.499548999759115,7.499523367002466,-0.0033318627790968284,-0.0029785729197609706,-0.0033239185561667593,-0.021839150537266084,-0.009257115327478879,-0.011127657424583558,-0.070415682388934,0,70,255.0,255.0,255.0
8,0.4,4.499388571153274,7.499343276574245,-0.004511843176110661,-0.0034371426277285022,-0.0038793971452033807,-0.02536013068657446,-0.0090856729912224,-0.011091486136881285,-0.07042352358340095,0,70,255.0,255.0,255.0
9,0.45,4.499205428364956,7.499135457430684,-0.005867882382082997,-0.0038871402188832105,-0.004433067169854889,-0.028881502895606176,-0.008914230654965924,-0.01105531484917901,-0.07043136477786792,0,70,255.0,255.0,255.0
10,0.5,4.499,7.4989,-0.0074,-0.004328565693225094,-0.004984928630121281,-0.032403267164361246,-0.008742788318709442,-0.011019143561476735,-0.0704392059723351,0,70,255.0,255.0,255.0
11,0.55,4.498772286058406,7.498636904282192,-0.009108196029861676,-0.0047871354011926265,-0.005540407219158329,-0.03592424731366963,-0.009599999999991839,-0.01120000000000516,-0.07040000000000006,0,70,255.0,255.0,255.0
12,0.6000000000000001,4.498520572116813,7.498345808564385,-0.010992392059723355,-0.0052885656932242795,-0.006104928630121798,-0.03944326716436126,-0.010457211681274236,-0.011380856438533588,-0.07036079402766501,0,70,255.0,255.0,255.0
13,0.65,4.498242715146016,7.4980262607054815,-0.013052490074654189,-0.00583285656932005,-0.006678492863011688,-0.04296032671643613,-0.011314423362556631,-0.011561712877062013,-0.07032158805532998,0,70,255.0,255.0,255.0
14,0.7000000000000001,4.497936572116813,7.497677808564386,-0.015288392059723353,-0.006420008029479942,-0.007261099917827999,-0.046475425969894256,-0.01217163504383903,-0.01174256931559044,-0.07028238208299493,0,70,255.0,255.0,255.0
15,0.75,4.4976,7.4973,-0.0177,-0.007050020073703952,-0.007852749794570731,-0.04998856492473563,-0.013028846725121425,-0.011923425754118894,-0.07024317611065994,0,70,255.0,255.0,255.0
16,0.8,4.497231770189737,7.496892744584107,-0.02028729429249797,-0.007668027300238937,-0.00843173972061639,-0.05350444829764046,-0.011691442336277946,-0.011236171287707446,-0.07039215880553293,0,70,255.0,255.0,255.0
17,0.8500000000000001,4.496834311773634,7.496457398739993,-0.023050568982009776,-0.008219164307331748,-0.008976366923341477,-0.057027780805288926,-0.010354037947434468,-0.010548916821295998,-0.0705411415004059,0,70,255.0,255.0,255.0
18,0.9,4.496410968262662,7.495995680603828,-0.025990196525272593,-0.008703431094982384,-0.00948663140274599,-0.06055856244768104,-0.009016633558590992,-0.009861662354884553,-0.07069012419527888,0,70,255.0,255.0,255.0
19,0.9500000000000001,4.495965083167793,7.4955093083117745,-0.02910654937902361,-0.009120827663190846,-0.009962533158829933,-0.0640967932248168,-0.007679229169747514,-0.009174407888473107,-0.07083910689015185,0,70,255.0,255.0,255.0
20,1.0,4.4955,7.495,-0.0324,-0.009471354011957136,-0.010404072191593302,-0.06764247313669623,-0.006341824780904073,-0.008487153422061702,-0.0709880895850249,0,70,255.0,255.0,255.0
21,1.05,4.495018233182645,7.494468917381382,-0.035870626800146445,-0.009804755397853998,-0.010844633898374431,-0.07117795949576855,-0.006994230654970405,-0.009135314849183488,-0.07043136477786802,0,70,255.0,255.0,255.0
22,1.1,4.494518980788652,7.49391499647564,-0.03951733201223757,-0.010170777077454177,-0.011317603676511653,-0.07468560961448305,-0.007646636529036736,-0.009783476276305273,-0.06987463997071115,0,70,255.0,255.0,255.0
23,1.1500000000000001,4.494000611803338,7.4933366168792075,-0.04333872382425546,-0.010569419050757672,-0.01182298152600496,-0.07816542349283967,-0.008299042403103068,-0.010431637703427058,-0.06931791516355428,0,70,255.0,255.0,255.0
24,1.2000000000000002,4.493461495212015,7.492732158188517,-0.047333410424182244,-0.011000681317764485,-0.012360767446854359,-0.08161740113083849,-0.0089514482771694,-0.011079799130548844,-0.0687611903563974,0,70,255.0,255.0,255.0
25,1.25,4.4929,7.4921,-0.0515,-0.01146456387847461,-0.012930961439059842,-0.0850415425284794,-0.009603854151235713,-0.011727960557670586,-0.06820446554923976,0,70,255.0,255.0,255.0
26,1.3,4.492314497079682,7.4914387858903675,-0.05583739850691625,-0.011960951108350737,-0.013517724685890943,-0.08845571371928526,-0.010251635043809394,-0.011742569315573381,-0.06836238208299475,0,70,255.0,255.0,255.0
27,1.35,4.4917033650717535,7.490748215357446,-0.060345702969039995,-0.01248972738285555,-0.01410521837061718,-0.09187778073677887,-0.010899415936383074,-0.011757178073476177,-0.06852029861674973,0,70,255.0,255.0,255.0
28,1.4000000000000001,4.491064984523986,7.49002825187934,-0.0650253081777056,-0.013050892701989046,-0.014693442493238559,-0.09530774358096025,-0.011547196828956753,-0.011771786831378972,-0.06867821515050472,0,70,255.0,255.0,255.0
29,1.4500000000000002,4.490397735984145,7.489278858934156,-0.06987660892424748,-0.013644447065751226,-0.01528239705375508,-0.09874560225182935,-0.012194977721530434,-0.011786395589281767,-0.0688361316842597,0,70,255.0,255.0,255.0
30,1.5,4.4897,7.4885,-0.0749,-0.01427039047414209,-0.015872082052166735,-0.1021913567493862,-0.012842758614104041,-0.01180100434718459,-0.06899404821801469,0,70,255.0,255.0,255.0
31,1.55,4.488970978498627,7.487691939057148,-0.08009577917218855,-0.014879440168738581,-0.016444467358058067,-0.10563918562709038,-0.011519229169755603,-0.011094407888468676,-0.06891910689015215,0,70,255.0,255.0,255.0
32,1.6,4.488213158924331,7.4868561420945765,-0.08546385611160248,-0.01542231339111765,-0.0169815228410136,-0.10908326743840142,-0.010195699725407166,-0.010387811429752761,-0.0688441655622896,0,70,255.0,255.0,255.0
33,1.6500000000000001,4.487429850100719,7.48599437560343,-0.09100404346492215,-0.0158990101412793,-0.017483248501033343,-0.11252360218331935,-0.008872170281058727,-0.009681214971036849,-0.06876922423442706,0,70,255.0,255.0,255.0
34,1.7000000000000002,4.486624360851406,7.485108406074855,-0.09671615387882788,-0.016309530419223523,-0.017949644338117292,-0.11596018986184413,-0.007548640836710289,-0.008974618512320934,-0.06869428290656451,0,70,255.0,255.0,255.0
35,1.75,4.4858,7.4842,-0.1026,-0.016653874224950325,-0.018380710352265437,-0.11939303047397579,-0.006225111392361787,-0.008268022053605079,-0.06861934157870109,0,70,255.0,255.0,255.0
36,1.8,4.48495918892581,7.4832702578810375,-0.10865548480432954,-0.01698528821668914,-0.01881640588186982,-0.12282754377235323,-0.007031448277190906,-0.009159799130570363,-0.06876119035639668,0,70,255.0,255.0,255.0
37,1.85,4.484100799230927,7.482317616264249,-0.11488287258455007,-0.01735701905266942,-0.019296690265322474,-0.12626914950961546,-0.007837785162020024,-0.010051576207535646,-0.06890303913409226,0,70,255.0,255.0,255.0
38,1.9000000000000001,4.483222815073139,7.481339845706941,-0.12128251796260585,-0.017769066732891147,-0.019821563502623388,-0.12971784768576247,-0.008644122046849141,-0.010943353284500931,-0.06904488791178784,0,70,255.0,255.0,255.0
39,1.9500000000000002,4.482323220610234,7.480334716766423,-0.1278547755604411,-0.018221431257354332,-0.020391025593772566,-0.13317363830079426,-0.00945045893167826,-0.011835130361466216,-0.06918673668948343,0,70,255.0,255.0,255.0
40,2.0,4.4814,7.4793,-0.1346,-0.018714112626058967,-0.021005076538770012,-0.13663652135471077,-0.010256795816507236,-0.012726907438431578,-0.0693285854671779,0,70,255.0,255.0,255.0
41,2.0500000000000003,4.480451465798133,7.478234229418701,-0.14151828161049335,-0.019227406964509596,-0.02161790911446285,-0.14009063928349672,-0.010274977721517808,-0.01178639558928178,-0.06883613168425944,0,70,255.0,255.0,255.0
42,2.1,4.479477244151961,7.477138992848428,-0.14860865355019723,-0.01974161039821075,-0.022183716097698192,-0.14352013452313672,-0.010293159626528381,-0.010845883740131988,-0.06834367790134097,0,70,255.0,255.0,255.0
43,2.15,4.478477289606724,7.4760166415688065,-0.15586988468465454,-0.020256722927162428,-0.022702497488476043,-0.1469250070736308,-0.010311341531538953,-0.009905371890982197,-0.06785122411842251,0,70,255.0,255.0,255.0
44,2.2,4.477451556707658,7.474869526859455,-0.1633007438794079,-0.020772744551364644,-0.023174253286796412,-0.15030525693497898,-0.010329523436549526,-0.008964860041832397,-0.06735877033550404,0,70,255.0,255.0,255.0
45,2.25,4.4764,7.4737,-0.1709,-0.02128967527081738,-0.023598983492659285,-0.1536608841071812,-0.010347705341560015,-0.008024348192682718,-0.06686631655258468,0,70,255.0,255.0,255.0
46,2.3000000000000003,4.47532294788166,7.47250962444416,-0.17866658875369731,-0.021785083925274028,-0.024023957660283955,-0.15700189909365994,-0.009468640836705788,-0.008974618512303939,-0.06677428290656424,0,70,255.0,255.0,255.0
47,2.35,4.4742222241612275,7.471296812342039,-0.18660011321466097,-0.02223653935448796,-0.02449644534388968,-0.16033831239783763,-0.008589576331851572,-0.009924888831925152,-0.06668224926054381,0,70,255.0,255.0,255.0
48,2.4000000000000004,4.4731000264999645,7.470059188017838,-0.19470034329877609,-0.022644041558459185,-0.02501644654347647,-0.1636701240197143,-0.007710511826997345,-0.010875159151546371,-0.06659021561452336,0,70,255.0,255.0,255.0
49,2.45,4.471958552559134,7.468794375795758,-0.2029670489219274,-0.0230075905371877,-0.025583961259044316,-0.16699733395928998,-0.006831447322143127,-0.011825429471167584,-0.06649818196850292,0,70,255.0,255.0,255.0
50,2.5,4.4708,7.4675,-0.2114,-0.023327186290673495,-0.026198989490593225,-0.17031994221656457,-0.005952382817288909,-0.012775699790788742,-0.06640614832248137,0,70,255.0,255.0,255.0
51,2.5500000000000003,4.469625542675231,7.466174472804662,-0.2199993633747176,-0.02366425733439779,-0.0268142602443996,-0.17366176434186367,-0.007530458931682684,-0.011835130361466212,-0.06726673668948241,0,70,255.0,255.0,255.0
52,2.6,4.468432259203132,7.464819357783418,-0.2287668935911589,-0.024080232183841765,-0.02738250252673985,-0.17704661588551282,-0.009108535046076446,-0.010894560932143691,-0.06812732505648343,0,70,255.0,255.0,255.0
53,2.6500000000000004,4.467216204393417,7.463437006359846,-0.23770474212024142,-0.024575110839005435,-0.027903716337613974,-0.18047449684751202,-0.010686611160470223,-0.009953991502821162,-0.06898791342348445,0,70,255.0,255.0,255.0
54,2.7,4.465973433055802,7.462029769957514,-0.24681506043288262,-0.025148893299888786,-0.028377901677021967,-0.1839454072278613,-0.012264687274863984,-0.009013422073498641,-0.06984850179048548,0,70,255.0,255.0,255.0
55,2.75,4.4647,7.4606,-0.2561,-0.025801579566491827,-0.028805058544963836,-0.18745934702656056,-0.013842763389257745,-0.008072852644176204,-0.07070909015748739,0,70,255.0,255.0,255.0
56,2.8000000000000003,4.463393281417419,7.459149284337197,-0.26556075774743243,-0.026453886737136473,-0.02923100136211448,-0.19095904353888535,-0.01224952343652794,-0.00896486004184953,-0.06927877033550404,0,70,255.0,255.0,255.0
57,2.85,4.462055939026246,7.4576761565242915,-0.27519471242070354,-0.027026531910144622,-0.02970154454914879,-0.19438722406011097,-0.010656283483798148,-0.00985686743952285,-0.0678484505135207,0,70,255.0,255.0,255.0
58,2.9000000000000004,4.460691955926365,7.456178386542785,-0.2849982882202586,-0.027519515085516286,-0.03021668810606677,-0.19774388859023742,-0.009063043531068342,-0.010748874837196177,-0.06641813069153736,0,70,255.0,255.0,255.0
59,2.95,4.459305315217656,7.454653744374186,-0.29496790934654227,-0.027932836263251458,-0.03077643203286841,-0.20102903712926473,-0.007469803578338552,-0.011640882234869497,-0.06498781086955402,0,70,255.0,255.0,255.0
60,3.0,4.4579,7.4531,-0.3051,-0.028266495443350144,-0.03138077632955371,-0.2042426696771928,-0.005876563625608733,-0.012532889632542787,-0.06355749104757136,0,70,255.0,255.0,255.0
61,3.0500000000000003,4.456478931655094,7.451515589846549,-0.31539200563555286,-0.028584195717044795,-0.031989734307146474,-0.20744606150259468,-0.006831447322177214,-0.011825429471167544,-0.06457818196850384,0,70,255.0,255.0,255.0
62,3.1,4.455040784691882,7.44990161611942,-0.32584545672602694,-0.028949640175567865,-0.032563319276670465,-0.2107004878740432,-0.007786331018745686,-0.011117969309792307,-0.06559887288943633,0,70,255.0,255.0,255.0
63,3.1500000000000004,4.453583171901124,7.448259847469016,-0.33646290499872467,-0.029362828818919363,-0.0331015312381257,-0.21400594879153834,-0.008741214715314168,-0.010410509148417063,-0.06661956381036883,0,70,255.0,255.0,255.0
64,3.2,4.452103706073576,7.446592052545742,-0.3472469021809482,-0.029823761647099285,-0.033604370191512176,-0.21736244425508006,-0.00969609841188264,-0.009703048987041826,-0.06764025473130131,0,70,255.0,255.0,255.0
65,3.25,4.4506,7.4449,-0.3582,-0.030332438660107625,-0.034071836136829875,-0.22076997426466846,-0.010650982108451057,-0.008995588825666534,-0.06866094565223446,0,70,255.0,255.0,255.0
66,3.3000000000000003,4.449070191962206,7.443185156276606,-0.36932401971035644,-0.03085733039469019,-0.03452206140930858,-0.22418471045073646,-0.010344687274851381,-0.009013422073481658,-0.06792850179048444,0,70,255.0,255.0,255.0
67,3.35,4.447514522206226,7.441447778998029,-0.3806178606751889,-0.03136690738759276,-0.03497317834417804,-0.2275628244437169,-0.010038392441251709,-0.009031255321296783,-0.06719605792873443,0,70,255.0,255.0,255.0
68,3.4000000000000004,4.445933756469142,7.439687823581148,-0.3920796917848433,-0.03186116963881536,-0.03542518694143826,-0.2309043162436099,-0.009732097607652033,-0.009049088569111907,-0.0664636140669844,0,70,255.0,255.0,255.0
69,3.45,4.444328660488038,7.437905245442845,-0.40370768192966516,-0.032340117148357966,-0.03587808720108923,-0.23420918585041536,-0.00942580277405236,-0.009066921816927032,-0.06573117020523438,0,70,255.0,255.0,255.0
70,3.5,4.4427,7.4361,-0.4155,-0.03280374991622059,-0.03633187912313097,-0.23747743326413331,-0.009119507940452687,-0.009084755064742323,-0.0649987263434848,0,70,255.0,255.0,255.0
71,3.5500000000000003,4.441048300496081,7.434271785047025,-0.4274551155230219,-0.03326648270419026,-0.03680202005562096,-0.24072709669445932,-0.009389803578334101,-0.009720882234856934,-0.06498781086955421,0,70,255.0,255.0,255.0
72,3.6,4.439373126483217,7.432419267888463,-0.4395727005732177,-0.033742730274054,-0.037303967346616666,-0.24397621435108874,-0.009660099216215513,-0.010357009404971541,-0.06497689539562361,0,70,255.0,255.0,255.0
73,3.6500000000000004,4.437673802222311,7.430540858206387,-0.4518527278619025,-0.034232492625811815,-0.03783772099611811,-0.24722478623402167,-0.009930394854096927,-0.010993136575086153,-0.06496597992169302,0,70,255.0,255.0,255.0
74,3.7,4.435949651974271,7.428634965682876,-0.46429517010039156,-0.03473576975946369,-0.03840328100412528,-0.2504728123432581,-0.010200690491978338,-0.01162926374520076,-0.06495506444776242,0,70,255.0,255.0,255.0
75,3.75,4.4342,7.4267,-0.4769,-0.035252561675009654,-0.03900064737063817,-0.25372029267879787,-0.010470986129859694,-0.012265390915315089,-0.0649441489738325,0,70,255.0,255.0,255.0
76,3.8000000000000003,4.43242460605347,7.4247349035352945,-0.4896675181975562,-0.03575673878855364,-0.03959785836819783,-0.25698690277142633,-0.009696098411899608,-0.01162304898707129,-0.0657202547313033,0,70,255.0,255.0,255.0
77,3.85,4.430624971860909,7.422740749448121,-0.5025993370319405,-0.036222171516199615,-0.040162952269345305,-0.2602923181519282,-0.008921210693939528,-0.010980707058827498,-0.0664963604887741,0,70,255.0,255.0,255.0
78,3.9000000000000004,4.428803034641613,7.420719143593299,-0.5156973967675469,-0.036648859857947594,-0.04069592907408059,-0.2636365388203037,-0.008146322975979442,-0.0103383651305837,-0.0672724662462449,0,70,255.0,255.0,255.0
79,3.95,4.42696073161488,7.418671691825653,-0.5289636376687687,-0.037036803813797564,-0.041196788782403675,-0.2670195647765527,-0.007371435258019363,-0.009696023202339907,-0.06804857200371571,0,70,255.0,255.0,255.0
80,4.0,4.4251,7.4166,-0.5424,-0.03738600338374952,-0.04166553139431457,-0.27044139602067524,-0.006596547540059339,-0.009053681274095893,-0.06882467776118562,0,70,255.0,255.0,255.0
81,4.05,4.42322207529004,7.414505400811799,-0.5560076116867536,-0.037738562141601574,-0.04211854647159015,-0.2738532922198357,-0.007505802774022793,-0.009066921816927098,-0.0676511702052328,0,70,255.0,255.0,255.0
82,4.1000000000000005,4.4213253860731445,7.412388134319055,-0.5697843512990204,-0.0381365836611518,-0.04257222357600729,-0.2772065130411986,-0.008415058007986264,-0.009080162359758304,-0.06647766264927996,0,70,255.0,255.0,255.0
83,4.15,4.41940765921123,7.410248167420412,-0.5837272850679103,-0.0385800679424002,-0.04302656270756598,-0.2805010584847637,-0.009324313241949718,-0.009093402902589509,-0.06530415509332714,0,70,255.0,255.0,255.0
84,4.2,4.417466621566209,7.408085467014513,-0.5978334792245333,-0.03906901498534677,-0.04348156386626623,-0.28373692855053123,-0.010233568475913172,-0.009106643445420715,-0.06413064753737431,0,70,255.0,255.0,255.0
85,4.25,4.4155,7.4059,-0.6121,-0.039603424789991515,-0.04393722705210804,-0.28691412323850113,-0.011142823709876737,-0.009119883988251976,-0.06295713998141883,0,70,255.0,255.0,255.0
86,4.3,4.41350629278637,7.40369149321751,-0.6265244350554294,-0.04013701264503789,-0.044407955745444046,-0.29006392834923067,-0.010200690491978385,-0.009709263745188133,-0.06303506444776188,0,70,255.0,255.0,255.0
87,4.3500000000000005,4.41148708384651,7.401458713275658,-0.6411064577719785,-0.04062349383918936,-0.044908153426626865,-0.29321762968327736,-0.009258557274080016,-0.0102986435021243,-0.06311298891410493,0,70,255.0,255.0,255.0
88,4.4,4.409444728513466,7.39920018672505,-0.6558462629608126,-0.041062868372445896,-0.04543782009565647,-0.29637522724064114,-0.008316424056181663,-0.010888023259060457,-0.06319091338044798,0,70,255.0,255.0,255.0
89,4.45,4.407381582120282,7.396914440116295,-0.6707440454330977,-0.041455136244807525,-0.0459969557525329,-0.2995367210213221,-0.007374290838283311,-0.011477403015996614,-0.06326883784679102,0,70,255.0,255.0,255.0
90,4.5,4.4053,7.3946,-0.6858,-0.04180029745627422,-0.04658556039725613,-0.3027021110253202,-0.006432157620384904,-0.012066782772932605,-0.06334676231313274,0,70,255.0,255.0,255.0
91,4.55,4.403201553564479,7.392255826318158,-0.7010146480915284,-0.04214538727823518,-0.04717763054663782,-0.3058909943832414,-0.007371435258053446,-0.011616023202335303,-0.06420857200371603,0,70,255.0,255.0,255.0
92,4.6000000000000005,4.401084678540812,7.389882612578311,-0.7163898176130664,-0.04253744098207957,-0.04774716271748967,-0.3091229682256918,-0.008310712895722005,-0.011165263631737993,-0.06507038169429934,0,70,255.0,255.0,255.0
93,4.65,4.3989470267349065,7.387481485679386,-0.7319276630888398,-0.04297645856780738,-0.048294156909811634,-0.3123980325526714,-0.009249990533390547,-0.010714504061140691,-0.06593219138488263,0,70,255.0,255.0,255.0
94,4.7,4.396786249952666,7.385053572520306,-0.7476303390430755,-0.04346244003541862,-0.04881861312360373,-0.31571618736418006,-0.010189268171059088,-0.01026374449054339,-0.06679400107546592,0,70,255.0,255.0,255.0
95,4.75,4.3946,7.3826,-0.7635,-0.04399538538491329,-0.049320531358865966,-0.31907743266021793,-0.011128545808727408,-0.009812984919946088,-0.06765581076604832,0,70,255.0,255.0,255.0
96,4.800000000000001,4.392386692955715,7.3801220015098545,-0.7795377725784567,-0.04452943824202889,-0.04979352206800014,-0.3224200941178036,-0.01023356847589607,-0.009106643445420727,-0.06605064753737507,0,70,255.0,255.0,255.0
97,4.8500000000000005,4.39014780199024,7.377621236411096,-0.7957406717757566,-0.0450187422325029,-0.050231195703408046,-0.32568249741395544,-0.009338591143064746,-0.008400301970895377,-0.06444548430870184,0,70,255.0,255.0,255.0
98,4.9,4.387885564546909,7.3750994705574096,-0.8121046846838282,-0.04546329735633536,-0.05063355226508968,-0.32886464254867376,-0.008443613810233425,-0.007693960496370028,-0.0628403210800286,0,70,255.0,255.0,255.0
99,4.95,4.385602218069051,7.372558469802482,-0.8286257983945999,-0.04586310361352624,-0.05100059175304505,-0.33196652952195826,-0.007548636477402101,-0.006987619021844679,-0.061235157851355373,0,70,255.0,255.0,255.0
100,5.0,4.3833,7.37,-0.8453,-0.04621816100407555,-0.05133231416727414,-0.33498815833380924,-0.006653659144570501,-0.0062812775473192195,-0.05962999462268215,0,70,255.0,255.0,255.0
101,5.050000000000001,4.38098047461266,7.367424967642423,-0.8621246615946457,-0.04656885975364647,-0.051680281181357264,-0.33801262914554603,-0.007374290838266183,-0.007637403016005437,-0.06134883784678851,0,70,255.0,255.0,255.0
102,5.1000000000000005,4.378642513498224,7.364830841777307,-0.8791026952839083,-0.04695559008790218,-0.052096054468874685,-0.3411230421184881,-0.008094922531961854,-0.00899352848469163,-0.06306768107089485,0,70,255.0,255.0,255.0
103,5.15,4.376284315077458,7.362214232090978,-0.8962383981758479,-0.04737835200684266,-0.05257963402982642,-0.3443193972526355,-0.008815554225657524,-0.010349653953377823,-0.06478652429500117,0,70,255.0,255.0,255.0
104,5.2,4.373904077771129,7.359571748269767,-0.9135360673785251,-0.04783714551046792,-0.05313101986421247,-0.3476016945479882,-0.009536185919353193,-0.011705779422064015,-0.0665053675191075,0,70,255.0,255.0,255.0
105,5.25,4.3715,7.3569,-0.931,-0.04833197059877798,-0.053750211972032814,-0.35096993400454624,-0.010256817613048808,-0.013061904890749598,-0.06822421074321294,0,70,255.0,255.0,255.0
106,5.300000000000001,4.3690706085936455,7.354196527920452,-0.9486331810429617,-0.04884312274338153,-0.05438135320656545,-0.35434538930001314,-0.010189268171093101,-0.01218374449055577,-0.06679400107546092,0,70,255.0,255.0,255.0
107,5.3500000000000005,4.3666157440168645,7.351462596479678,-0.9664333470886117,-0.049350897415887295,-0.0549685864210884,-0.3576493341120924,-0.010121718729137396,-0.011305584090361954,-0.06536379140770893,0,70,255.0,255.0,255.0
108,5.4,4.3641355751432584,7.348700401078678,-0.9843969226127811,-0.04985529461629527,-0.05551191161560165,-0.36088176844078396,-0.010054169287181692,-0.010427423690168141,-0.06393358173995692,0,70,255.0,255.0,255.0
109,5.45,4.361630270846435,7.34591213711845,-1.0025203320913003,-0.05035631434460546,-0.05601132879010521,-0.36404269228608804,-0.009986619845225985,-0.009549263289974328,-0.06250337207220492,0,70,255.0,255.0,255.0
110,5.5,4.3591,7.3431,-1.0208,-0.05085395660081786,-0.05646683794459907,-0.36713210564800447,-0.00991907040326978,-0.008671102889780347,-0.06107316240445204,0,70,255.0,255.0,255.0
111,5.550000000000001,4.356545091012757,7.340265720675769,-1.039233014233509,-0.051338649272834116,-0.05690630599238916,-0.37018981365439985,-0.00946863647738027,-0.008907619021823202,-0.061235157851361605,0,70,255.0,255.0,255.0
112,5.6000000000000005,4.353966510434321,7.3374091723039845,-1.057819116361646,-0.051800820248555896,-0.0573575998467814,-0.37325562143314067,-0.009018202551490767,-0.009144135153866053,-0.06139715329827116,0,70,255.0,255.0,255.0
113,5.65,4.351365384349506,7.334529763594315,-1.0765587113730284,-0.05224046952798319,-0.057820719507775765,-0.37632952898422695,-0.008567768625601265,-0.009380651285908904,-0.06155914874518072,0,70,255.0,255.0,255.0
114,5.7,4.348742838843128,7.33162690325643,-1.0954522042562742,-0.05265759711111601,-0.05829566497537229,-0.3794115363076587,-0.008117334699711763,-0.009617167417951756,-0.06172114419209027,0,70,255.0,255.0,255.0
115,5.75,4.3461,7.3287,-1.1145,-0.05305220299795436,-0.05878243624957094,-0.382501643403436,-0.007666900773822205,-0.009853683549994496,-0.061883139638999385,0,70,255.0,255.0,255.0
116,5.800000000000001,4.343437827355324,7.32574858937647,-1.1337027620230042,-0.05343428016528343,-0.05927342282387251,-0.38561535608238867,-0.007616185919340734,-0.009785779422068196,-0.06266536751910518,0,70,255.0,255.0,255.0
117,5.8500000000000005,4.3407566142458505,7.322772714304387,-1.1530621874648062,-0.053813821589888435,-0.05976101419177776,-0.38876818015534653,-0.007565471064859264,-0.009717875294141897,-0.06344759539921095,0,70,255.0,255.0,255.0
118,5.9,4.338056487458714,7.319772544544066,-1.1725802318951055,-0.05419082727176936,-0.0602452103532867,-0.39196011562230976,-0.0075147562103777925,-0.009649971166215599,-0.06422982327931673,0,70,255.0,255.0,255.0
119,5.95,4.335337573781052,7.316748249855831,-1.1922588508836034,-0.05456529721092621,-0.06072601130839932,-0.3951911624832782,-0.007464041355896322,-0.009582067038289298,-0.0650120511594225,0,70,255.0,255.0,255.0
120,6.0,4.3326,7.3137,-1.2121,-0.05493723140735899,-0.061203417057115635,-0.39846132073825197,-0.007413326501414852,-0.009514162910362722,-0.06579427903952562,0,70,255.0,255.0,255.0
121,6.050000000000001,4.329843599565945,7.310627921818348,-1.232104737674476,-0.05532423006602555,-0.06168000271212449,-0.4017167620160452,-0.008066619845247302,-0.009549263289991162,-0.06442337207220337,0,70,255.0,255.0,255.0
122,6.1000000000000005,4.327067032582277,7.307531970478471,-1.252270533779132,-0.05574389339188372,-0.062158343386114756,-0.40490365794547234,-0.008719913189079737,-0.0095843636696196,-0.06305246510488115,0,70,255.0,255.0,255.0
123,6.15,4.324268665815637,7.30441205822942,-1.2725939610465502,-0.05619622138493352,-0.06263843907908645,-0.4080220085265333,-0.009373206532912175,-0.009619464049248039,-0.06168155813755893,0,70,255.0,255.0,255.0
124,6.2,4.321446866032665,7.301268097320246,-1.2930715922093123,-0.05668121404517494,-0.06312028979103955,-0.41107181375922824,-0.010026499876744612,-0.009654564428876477,-0.0603106511702367,0,70,255.0,255.0,255.0
125,6.25,4.3186,7.2981,-1.3137,-0.05719887137260797,-0.0636038955219741,-0.4140530736435569,-0.010679793220576994,-0.009689664808504972,-0.058939744202914035,0,70,255.0,255.0,255.0
126,6.300000000000001,4.315726974380895,7.2949077233501365,-1.334476687279094,-0.05771679957061508,-0.06408656632763467,-0.4170215958534321,-0.010037334699707237,-0.009617167417917648,-0.059801144192091205,0,70,255.0,255.0,255.0
127,6.3500000000000005,4.312828855425039,7.291691403781728,-1.355402877418668,-0.0582026048425787,-0.06456561226376586,-0.42003318806276607,-0.00939487617883749,-0.009544670027330325,-0.06066254418126836,0,70,255.0,255.0,255.0
128,6.4,4.309907249278737,7.288451222538252,-1.376480723918695,-0.05865628718849883,-0.06504103333036769,-0.42308785027155893,-0.008752417657967743,-0.009472172636743003,-0.061523944170445516,0,70,255.0,255.0,255.0
129,6.45,4.30696376208829,7.285187360863183,-1.397712380279148,-0.05907784660837547,-0.06551282952744017,-0.4261855824798106,-0.008109959137097998,-0.00939967524615568,-0.06238534415962267,0,70,255.0,255.0,255.0
130,6.5,4.304,7.2819,-1.4191,-0.05946728310220863,-0.06598100085498328,-0.42932638468752116,-0.007467500616228195,-0.00932717785556847,-0.06324674414879983,0,70,255.0,255.0,255.0
131,6.550000000000001,4.301017302910478,7.278589184781106,-1.44064531320915,-0.059840571651511756,-0.06645373197733015,-0.4324848545702266,-0.007464041355896278,-0.009582067038306245,-0.06309205115941748,0,70,255.0,255.0,255.0
132,6.6000000000000005,4.298015945717566,7.275254414394615,-1.4623483565461985,-0.06021368723779826,-0.06693920755881391,-0.4356355898034629,-0.007460582095564361,-0.009836956221044016,-0.06293735817003511,0,70,255.0,255.0,255.0
133,6.65,4.294995937069415,7.271895051617572,-1.484208743278672,-0.060586629861068185,-0.06743742759943455,-0.43877859038723016,-0.007457122835232444,-0.010091845403781786,-0.06278266518065276,0,70,255.0,255.0,255.0
134,6.7,4.291957285614177,7.268510459227019,-1.5062260866740969,-0.060959399521321504,-0.06794839209919208,-0.4419138563215282,-0.007453663574900527,-0.010346734586519558,-0.0626279721912704,0,70,255.0,255.0,255.0
135,6.75,4.2889,7.2651,-1.5284,-0.06133199621855823,-0.0684721010580865,-0.4450413876063571,-0.007450204314568443,-0.010601623769257107,-0.06247327920188317,0,70,255.0,255.0,255.0
136,6.800000000000001,4.285823813977195,7.261663537525442,-1.5507300598843072,-0.06172091382334117,-0.06897850576304027,-0.4481589858656602,-0.008106499876749017,-0.009654564428893462,-0.06223065117023863,0,70,255.0,255.0,255.0
137,6.8500000000000005,4.282727361704697,7.258202938639813,-1.5732156963965398,-0.06214264620623313,-0.06943755750097585,-0.45126445272338095,-0.008762795438929579,-0.008707505088529834,-0.061988023138594084,0,70,255.0,255.0,255.0
138,6.9,4.279609002443602,7.254720570991462,-1.5958563029666188,-0.06259719336723413,-0.06984925627189326,-0.45435778817951955,-0.00941909100111014,-0.007760445748166205,-0.06174539510694954,0,70,255.0,255.0,255.0
139,6.95,4.276467095455005,7.25121880222874,-1.6186512730244653,-0.06308455530634413,-0.07021360207579247,-0.4574389922340759,-0.010075386563290703,-0.006813386407802576,-0.061502767075305,0,70,255.0,255.0,255.0
140,7.0,4.2733,7.2477,-1.6416,-0.06360473202356319,-0.07053059491267351,-0.46050806488705,-0.010731682125471154,-0.005866327067438948,-0.06126013904366001,0,70,255.0,255.0,255.0
141,7.050000000000001,4.270106641180743,7.244165465117124,-1.6647016472536225,-0.06412377305512688,-0.07086424497051307,-0.4635512019671321,-0.010029959137076461,-0.007479675246143281,-0.060465344159623936,0,70,255.0,255.0,255.0
142,7.1000000000000005,4.266888207463644,7.240612231046133,-1.6879544578676433,-0.06460772793727083,-0.07127856243728785,-0.4665545993030124,-0.009328236148681782,-0.009093023424847586,-0.059670549275587875,0,70,255.0,255.0,255.0
143,7.15,4.2636464531561735,7.23703626441658,-1.7113564448548535,-0.06505659666999505,-0.07177354731299783,-0.4695182568946909,-0.008626513160287104,-0.01070637160355189,-0.05887575439155181,0,70,255.0,255.0,255.0
144,7.2,4.260383132565801,7.233433531858017,-1.7349056212280425,-0.06547037925329956,-0.07234919959764302,-0.4724421747421676,-0.007924790171892423,-0.012319719782256194,-0.058080959507515746,0,70,255.0,255.0,255.0
145,7.25,4.2571,7.2298,-1.7586,-0.0658490756871843,-0.07300551929122344,-0.47532635284544245,-0.007223067183497522,-0.013933067960960277,-0.05728616462347791,0,70,255.0,255.0,255.0
146,7.300000000000001,4.253798421299832,7.226133002006061,-1.782438551101205,-0.06621599395614469,-0.07366051435491033,-0.47822820626581114,-0.007453663574917416,-0.012266734586514881,-0.05878797219126801,0,70,255.0,255.0,255.0
147,7.3500000000000005,4.250478208440727,7.2224353371756544,-1.8064240721328877,-0.06659444204467606,-0.07423219274987493,-0.4812051500645693,-0.007684259966337306,-0.010600401212069514,-0.06028977975905809,0,70,255.0,255.0,255.0
148,7.4,4.247138784931705,7.218711171342218,-1.8305603176139684,-0.06698441995277842,-0.07472055447611728,-0.4842571842417169,-0.007914856357757195,-0.008934067837624148,-0.06179158732684816,0,70,255.0,255.0,255.0
149,7.45,4.243779574281789,7.214964670339188,-1.854851042063366,-0.06738592768045176,-0.07512559953363734,-0.4873843087972541,-0.008145452749177086,-0.0072677344631787814,-0.06329339489463824,0,70,255.0,255.0,255.0
150,7.5,4.2404,7.2112,-1.8793,-0.06779896522769611,-0.07544732792243514,-0.4905865237311808,-0.008376049140597197,-0.00560140108873286,-0.06479520246242965,0,70,255.0,255.0,255.0
151,7.550000000000001,4.23699967361993,7.207420126858634,-1.9039097483415595,-0.06821225112029343,-0.07575769760984852,-0.4937919729696241,-0.00815538656329526,-0.006813386407802486,-0.06342276707530069,0,70,255.0,255.0,255.0
152,7.6000000000000005,4.233578958773451,7.203623220251249,-1.9286780536008066,-0.06861450388402564,-0.07612866656321539,-0.49692880043871085,-0.007934723985993328,-0.00802537172687209,-0.06205033168817174,0,70,255.0,255.0,255.0
153,7.65,4.230138407117009,7.199806250214547,-1.9536014846892744,-0.06900572351889275,-0.07656023478253574,-0.4999970061384412,-0.007714061408691395,-0.009237357045941693,-0.060677896301042804,0,70,255.0,255.0,255.0
154,7.7,4.226678570307044,7.195966186785229,-1.9786766105184947,-0.06938591002489479,-0.07705240226780956,-0.5029965900688151,-0.007493398831389463,-0.0104493423650113,-0.05930546091391386,0,70,255.0,255.0,255.0
155,7.75,4.2232,7.1921,-2.0039,-0.06975506340203169,-0.07760516901903684,-0.5059275522298327,-0.00727273625408742,-0.011661327684080569,-0.05793302552678359,0,70,255.0,255.0,255.0
156,7.800000000000001,4.219702884220449,7.1882056905594025,-2.0292688555325586,-0.0701350015626812,-0.07815669520569538,-0.5088279018556904,-0.007924790171892324,-0.010399719782260602,-0.058080959507522505,0,70,255.0,255.0,255.0
157,7.8500000000000005,4.216185956465467,7.184285381819349,-2.0547829134638866,-0.07054754241922093,-0.07864514099726291,-0.5117356481805849,-0.008576844089697219,-0.009138111880440655,-0.058228893488261414,0,70,255.0,255.0,255.0
158,7.9,4.212647586600262,7.180342227799594,-2.0804425436289344,-0.07099268597165091,-0.07907050639373944,-0.5146507912045165,-0.009228898007502111,-0.00787650397862071,-0.058376827469000324,0,70,255.0,255.0,255.0
159,7.95,4.209086144490038,7.176379382519893,-2.106248115862655,-0.07147043221997113,-0.07943279139512498,-0.5175733309274849,-0.009880951925307004,-0.006614896076800765,-0.05852476144973924,0,70,255.0,255.0,255.0
160,8.0,4.2055,7.1724,-2.1322,-0.0719807811641816,-0.07973199600141953,-0.5205032673494903,-0.010533005843111898,-0.005353288174981152,-0.05867269543047726,0,70,255.0,255.0,255.0
161,8.05,4.2018879894982755,7.168405910903756,-2.1582988295282064,-0.07249574262898874,-0.08004752156737353,-0.5234564196076182,-0.010065452749172714,-0.007267734463178659,-0.05945339489463991,0,70,255.0,255.0,255.0
162,8.1,4.198250815364679,7.164393652471356,-2.1845462925436485,-0.07298732643909887,-0.08045876944773739,-0.5264486068389542,-0.009597899655233548,-0.009182180751376098,-0.06023409435880253,0,70,255.0,255.0,255.0
163,8.15,4.194589646481944,7.160358438587076,-2.2109443407949882,-0.07345553259451208,-0.08096573964251114,-0.5294798290434984,-0.009130346561294363,-0.011096627039573606,-0.06101479382296518,0,70,255.0,255.0,255.0
164,8.200000000000001,4.190905651732806,7.156295483135198,-2.2374949260308856,-0.07390036109522832,-0.08156843215169476,-0.5325500862212509,-0.00866279346735518,-0.013011073327771114,-0.06179549328712783,0,70,255.0,255.0,255.0
165,8.25,4.1872,7.1522,-2.2642,-0.07432181194124761,-0.08226684697528824,-0.5356593783722112,-0.008195240373416346,-0.01492551961596833,-0.06257619275129223,0,70,255.0,255.0,255.0
166,8.3,4.183473957786447,7.14806906582557,-2.291060626354618,-0.07471402792136733,-0.0829492185248122,-0.5387544197138411,-0.0074933988313723564,-0.012369342364989374,-0.0612254609138972,0,70,255.0,255.0,255.0
167,8.35,4.179729182075814,7.143907208295228,-2.3180743163615194,-0.07507115182438484,-0.08350378121178718,-0.541781924463601,-0.006791557289328392,-0.00981316511401051,-0.05987472907650223,0,70,255.0,255.0,255.0
168,8.4,4.17596742747196,7.1397208178521,-2.3452376931911134,-0.07539318365030016,-0.08393053503621324,-0.5447418926214912,-0.006089715747284403,-0.007256987863031554,-0.05852399723910721,0,70,255.0,255.0,255.0
169,8.450000000000001,4.172190448578736,7.135516284939315,-2.372547380013805,-0.07568012339911329,-0.08422947999809034,-0.5476343241875117,-0.005387874205240413,-0.0047008106120525976,-0.057173265401712185,0,70,255.0,255.0,255.0
170,8.5,4.1684,7.1313,-2.4,-0.07593197107082422,-0.08440061609741852,-0.5504592191616624,-0.00468603266319656,-0.0021446333610740664,-0.055822533564315435,0,70,255.0,255.0,255.0
171,8.55,4.164596979355937,7.127076225793963,-2.4275930650533244,-0.07620014568553704,-0.08457160433336594,-0.553269901537014,-0.006040951925315882,-0.004694896076822644,-0.056604761449750296,0,70,255.0,255.0,255.0
172,8.6,4.160778856332061,7.122840714347735,-2.455327642010272,-0.07653606626335581,-0.08487010570510077,-0.5561196953066374,-0.007395871187435156,-0.007245158792571131,-0.05738698933518513,0,70,255.0,255.0,255.0
173,8.65,4.156942243630216,7.118587090004524,-2.483205686440559,-0.07693973280428054,-0.08529612021262305,-0.5590086004705326,-0.008750790449554478,-0.009795421508319708,-0.05816921722061999,0,70,255.0,255.0,255.0
174,8.700000000000001,4.153083753952248,7.114308977107542,-2.5112291539138973,-0.07741114530831127,-0.08584964785593277,-0.5619366170286996,-0.0101057097116738,-0.012345684224068286,-0.05895144510605485,0,70,255.0,255.0,255.0
175,8.75,4.1492,7.11,-2.5394,-0.07795030377544791,-0.08653068863502986,-0.5649037449811379,-0.01146062897379252,-0.01489594693981644,-0.05973367299148702,0,70,255.0,255.0,255.0
176,8.8,4.145288524789805,7.105655630998579,-2.5677199134320863,-0.07850138933647692,-0.08722836414171997,-0.5678939741381035,-0.010582793467367778,-0.013011073327787876,-0.05987549328713282,0,70,255.0,255.0,255.0
177,8.85,4.141350592595941,7.101278734313839,-2.59618951559739,-0.07900858312218469,-0.08783179596780864,-0.5708912943098512,-0.009704957960943068,-0.011126199715759379,-0.06001731358277862,0,70,255.0,255.0,255.0
178,8.9,4.137388398007175,7.096874022129808,-2.624809161046651,-0.07947188513257124,-0.08834098411329591,-0.5738957054963814,-0.008827122454518326,-0.009241326103730817,-0.06015913387842442,0,70,255.0,255.0,255.0
179,8.950000000000001,4.133404135612273,7.092446206630519,-2.653579204330608,-0.07989129536763653,-0.08875592857818174,-0.5769072076976937,-0.007949286948093584,-0.007356452491702252,-0.06030095417407022,0,70,255.0,255.0,255.0
180,9.0,4.1294,7.088,-2.6825,-0.08026681382738059,-0.08907662936246613,-0.5799258009137884,-0.00707145144166843,-0.005471578879673533,-0.06044277446971691,0,70,255.0,255.0,255.0
181,9.05,4.125377721484845,7.083538850211721,-2.7115712812183324,-0.08062629696855364,-0.08937893909975876,-0.5829142019105739,-0.007307874205253054,-0.006620810612031319,-0.05909326540169884,0,70,255.0,255.0,255.0
182,9.1,4.121337173284176,7.079061148396913,-2.7407902956001675,-0.08099760124790589,-0.08973871042366925,-0.5858351274539583,-0.00754429696883767,-0.007770042344389064,-0.05774375633368082,0,70,255.0,255.0,255.0
183,9.15,4.117277764341085,7.074564021476244,-2.7701536693728377,-0.0813807266654374,-0.09015594333419767,-0.5886885775439419,-0.007780719732422294,-0.00891927407674685,-0.05639424726566274,0,70,255.0,255.0,255.0
184,9.200000000000001,4.113198903598661,7.070044596370384,-2.7996580287636728,-0.08177567322114812,-0.09063063783134397,-0.5914745521805247,-0.008017142496006918,-0.010068505809104636,-0.055044738197644674,0,70,255.0,255.0,255.0
185,9.25,4.1091,7.0655,-2.8293,-0.08218244091503808,-0.09116279391510813,-0.5941930513637063,-0.008253565259591311,-0.011217737541462713,-0.05369522912962399,0,70,255.0,255.0,255.0
186,9.3,4.104980589270818,7.0609281681545335,-2.8590773616945877,-0.08259342278931897,-0.09170387945924653,-0.5969132182195984,-0.00818570971164385,-0.010425684224072607,-0.055111445106061495,0,70,255.0,255.0,255.0
187,9.35,4.100840714267358,7.056330272098506,-2.88899250200194,-0.08300101188620246,-0.09220536233751539,-0.5997041958743123,-0.008117854163696392,-0.009633630906682528,-0.05652766108249895,0,70,255.0,255.0,255.0
188,9.4,4.096680544628488,7.051708291965213,-2.9190489614619994,-0.08340520820568861,-0.09266724254991478,-0.6025659843278484,-0.008049998615748932,-0.00884157758929242,-0.05794387705893646,0,70,255.0,255.0,255.0
189,9.450000000000001,4.092500249993079,7.047064207887947,-2.9492502806147063,-0.08380601174777737,-0.09308952009644465,-0.6054985835802061,-0.007982143067801472,-0.008049524271902314,-0.059360093035373956,0,70,255.0,255.0,255.0
190,9.5,4.0883,7.0424,-2.9796,-0.08420342251246876,-0.09347219497710499,-0.6085019936313858,-0.007914287519854124,-0.007257470954512124,-0.0607763090118123,0,70,255.0,255.0,255.0
191,9.55,4.084079921431882,7.037717277170144,-3.010100872003319,-0.08460001187416746,-0.09383754306326035,-0.611528925211033,-0.007949286948093449,-0.00735645249170216,-0.060300954174071456,0,70,255.0,255.0,255.0
192,9.600000000000001,4.079839969646393,7.0330161632090595,-3.0407524963920727,-0.08499835120727812,-0.09420784022627522,-0.614532089048793,-0.007984286376332772,-0.007455434028892196,-0.05982559933633061,0,70,255.0,255.0,255.0
193,9.65,4.075580057144964,7.028296410662903,-3.0715536847791665,-0.08539844051180072,-0.09458308646614956,-0.617511485144666,-0.008019285804572096,-0.00755441556608223,-0.059350244498589784,0,70,255.0,255.0,255.0
194,9.700000000000001,4.071300096429022,7.0235577720778295,-3.102503248777508,-0.08580027978773533,-0.09496328178288344,-0.6204671134986519,-0.00805428523281142,-0.007653397103272266,-0.05887488966084894,0,70,255.0,255.0,255.0
195,9.75,4.067,7.0188,-3.1336,-0.08620386903508186,-0.09534842617647679,-0.6233989741107507,-0.008089284661050411,-0.007752378640462743,-0.05839953482310545,0,70,255.0,255.0,255.0
196,9.8,4.062679725001654,7.014022723164889,-3.1648423502921395,-0.08660652971400871,-0.09574594828771568,-0.6262830809362694,-0.008017142496023788,-0.008148505809092437,-0.0569647381976379,0,70,255.0,255.0,255.0
197,9.850000000000001,4.05833940714707,7.009225075065253,-3.196227112429773,-0.08700558328468425,-0.09616327675738605,-0.6290954479305145,-0.007945000330997163,-0.008544632977722132,-0.05552994157217035,0,70,255.0,255.0,255.0
198,9.9,4.0539792267916575,7.004406065383177,-3.2277506994213363,-0.08740102974710842,-0.09660041158548788,-0.6318360750934864,-0.007872858165970541,-0.008940760146351815,-0.05409514494670285,0,70,255.0,255.0,255.0
199,9.950000000000001,4.04959936429083,6.999564703800732,-3.2594095242752674,-0.0877928691012813,-0.09705735277202122,-0.634504962425185,-0.007800716000943918,-0.00933688731498151,-0.05266034832123531,0,70,255.0,255.0,255.0
200,10.0,4.0452,6.9947,-3.2912,-0.08818110134720282,-0.09753410031698605,-0.63710210992561,-0.007728573835917518,-0.00973301448361108,-0.0512255516957687,0,70,255.0,255.0,255.0
201,10.05,4.040781178561499,6.989811030170301,-3.3231201268281256,-0.08857386926979581,-0.0980266637858742,-0.6397227510438888,-0.007982143067801742,-0.009969524271914602,-0.0536000930353801,0,70,255.0,255.0,255.0
202,10.100000000000001,4.036342401765327,6.984897136529922,-3.355174253888839,-0.088979315653983,-0.09853105274417752,-0.6424621192291481,-0.008235712299685968,-0.010206034060218123,-0.055974634374991505,0,70,255.0,255.0,255.0
203,10.15,4.0318830356884074,6.979957727804393,-3.38736831753549,-0.0893974404997644,-0.09904726719189601,-0.6453202144813879,-0.008489281531570183,-0.010442543848521637,-0.058349175714602824,0,70,255.0,255.0,255.0
204,10.200000000000001,4.027402446407658,6.9749922127192425,-3.4197082541214274,-0.08982824380714002,-0.09957530712902969,-0.6482970368006084,-0.008742850763454407,-0.010679053636825158,-0.06072371705421423,0,70,255.0,255.0,255.0
205,10.25,4.0229,6.97,-3.4522,-0.09027172557610982,-0.1001151725555785,-0.6513925861868093,-0.00899641999533829,-0.010915563425128338,-0.06309825839382555,0,70,255.0,255.0,255.0
206,10.3,4.018375560752352,6.9649811561539074,-3.484847542395361,-0.09069799320681357,-0.10062739656878841,-0.654489914888176,-0.008054285232811096,-0.009573397103267904,-0.06079488966084266,0,70,255.0,255.0,255.0
207,10.350000000000001,4.01383098579162,6.959938378815056,-3.5176470720148743,-0.09107715409939093,-0.1010725122659053,-0.6574720751528936,-0.007112150470283902,-0.008231230781407467,-0.05849152092785979,0,70,255.0,255.0,255.0
208,10.4,4.009268630454714,6.954875023399251,-3.550592830436706,-0.09140920825384195,-0.10145051964692917,-0.660339066980962,-0.006170015707756741,-0.00688906445954708,-0.05618815219487699,0,70,255.0,255.0,255.0
209,10.450000000000001,4.004690850078539,6.949794445322297,-3.583679059239026,-0.0916941556701666,-0.10176141871186001,-0.6630908903723813,-0.005227880945229548,-0.005546898137686645,-0.05388478346189411,0,70,255.0,255.0,255.0
210,10.5,4.0001,6.9447,-3.6169,-0.09193199634836491,-0.10200520946069783,-0.6657275453271514,-0.004285746182702388,-0.004204731815826479,-0.05158141472891131,0,70,255.0,255.0,255.0
211,10.55,3.9954973784290955,6.939593945214071,-3.6502513035904323,-0.09218615790295555,-0.10224774993896825,-0.6683335894034054,-0.005880716000922992,-0.005496887314990647,-0.05266034832124477,0,70,255.0,255.0,255.0
212,10.600000000000001,3.990880055068189,6.934474148209854,-3.6837342580516683,-0.09252006794845721,-0.1025548981921969,-0.6709935801592759,-0.007475685819143597,-0.006789042814154814,-0.05373928191357823,0,70,255.0,255.0,255.0
213,10.65,3.986244042492735,6.929337378598602,-3.717351560717687,-0.0929337264848699,-0.10292665422038375,-0.6737075175947632,-0.009070655637364144,-0.008081198313318936,-0.05481821550591165,0,70,255.0,255.0,255.0
214,10.700000000000001,3.981585353278187,6.9241804059915655,-3.7511059089224714,-0.09342713351219363,-0.10336301802352879,-0.6764754017098671,-0.010665625455584749,-0.009373353812483103,-0.0558971490982451,0,70,255.0,255.0,255.0
215,10.75,3.9769,6.919,-3.785,-0.09400028903042837,-0.10386398960163205,-0.6792972325045876,-0.012260595273805519,-0.010665509311647337,-0.0569760826905803,0,70,255.0,255.0,255.0
216,10.8,3.9721853255312656,6.913793462989809,-3.8190360432429116,-0.09457337518136018,-0.10439760367534387,-0.6821437274982073,-0.010662850763466847,-0.010679053636824887,-0.056883717054206785,0,70,255.0,255.0,255.0
217,10.850000000000001,3.9674439939356225,6.908560228345528,-3.8532142957784585,-0.09506657410677508,-0.10493189496531455,-0.6849856042100083,-0.009065106253128175,-0.010692597962002438,-0.056791351417833265,0,70,255.0,255.0,255.0
218,10.9,3.9626799995743465,6.90330026220634,-3.8875345266925487,-0.095479885806673,-0.1054668634715441,-0.6878228626399907,-0.007467361742789558,-0.010706142287179986,-0.05669898578145975,0,70,255.0,255.0,255.0
219,10.950000000000001,3.957897336808714,6.898013530711436,-3.9219965050710934,-0.09581331028105401,-0.10600250919403256,-0.6906555027881544,-0.005869617232450885,-0.010719686612357537,-0.05660662014508624,0,70,255.0,255.0,255.0
220,11.0,3.9531,6.8927,-3.9566,-0.09606684752991809,-0.10653883213277986,-0.6934835246544993,-0.004271872722112269,-0.010733230937535088,-0.056514254508712725,0,70,255.0,255.0,255.0
221,11.05,3.9482909194458418,6.887360202826688,-3.9913445234379252,-0.09630434137160185,-0.10704183535965976,-0.6962915006037645,-0.005227880945238064,-0.009386898137660719,-0.05580478346189784,0,70,255.0,255.0,255.0
222,11.100000000000001,3.9434687691893204,6.881996938408034,-4.0262285588345055,-0.09658963562444191,-0.10747752194654593,-0.6990640030006892,-0.006183889168363859,-0.008040565337786349,-0.05509531241508297,0,70,255.0,255.0,255.0
223,11.15,3.938631159209878,6.876613572576034,-4.061250332512122,-0.09692273028843824,-0.10784589189343839,-0.7018010318452728,-0.00713989739148962,-0.006694232537912028,-0.054385841368268115,0,70,255.0,255.0,255.0
224,11.200000000000001,3.9337756994869575,6.871213471162689,-4.09640807079316,-0.09730362536359087,-0.10814694520033713,-0.7045025871375159,-0.008095905614615415,-0.0053478997380376585,-0.05367637032145323,0,70,255.0,255.0,255.0
225,11.25,3.9289,6.8658,-4.1317,-0.09773232084989979,-0.10838068186724217,-0.7071686688774181,-0.009051913837741066,-0.004001566938163004,-0.05296689927463483,0,70,255.0,255.0,255.0
226,11.3,3.924002196685367,6.860375325703434,-4.1671250630053915,-0.09817725933223284,-0.10861905488600897,-0.7098422700867401,-0.008745625455580637,-0.005533353812509012,-0.053977149098240335,0,70,255.0,255.0,255.0
227,11.350000000000001,3.919082529307095,6.8549368180223365,-4.202685068883528,-0.09860688339545787,-0.10893401724849308,-0.7125663837872422,-0.008439337073420207,-0.00706514068685502,-0.054987398921845836,0,70,255.0,255.0,255.0
228,11.4,3.9141417635861395,6.849480647489523,-4.238382543258968,-0.09902119303957485,-0.10932556895469447,-0.7153410099789246,-0.00813304869125979,-0.008596927561200972,-0.05599764874545131,0,70,255.0,255.0,255.0
229,11.450000000000001,3.9091806652434564,6.844002984637806,-4.274220011756273,-0.09942018826458383,-0.10979371000461317,-0.7181661486617874,-0.007826760309099361,-0.010128714435546981,-0.05700789856905682,0,70,255.0,255.0,255.0
230,11.5,3.9042,6.8385,-4.3102,-0.09980386907048479,-0.11033844039824917,-0.7210417998358303,-0.007520471926938721,-0.011660501309892268,-0.05801814839266051,0,70,255.0,255.0,255.0
231,11.55,3.8992002938126897,6.832968894359573,-4.346324024540514,-0.10018662129946942,-0.11089794509630542,-0.723907419049274,-0.007789617232446381,-0.010719686612357324,-0.05660662014508622,0,70,255.0,255.0,255.0
232,11.600000000000001,3.894181113582298,6.827410989502617,-4.382589565631388,-0.10058283079372944,-0.11141040905948492,-0.7267024618503389,-0.008058762537954041,-0.00977887191482238,-0.055195091897511935,0,70,255.0,255.0,255.0
233,11.65,3.889141786445562,6.821828637465873,-4.418993094452007,-0.10099249755326482,-0.11187583228778765,-0.7294269282390252,-0.008327907843461692,-0.008838057217287469,-0.05378356364993769,0,70,255.0,255.0,255.0
234,11.700000000000001,3.8840816395392173,6.8162241902860865,-4.455531082181752,-0.1014156215780756,-0.11229421478121367,-0.7320808182153327,-0.008597053148969353,-0.007897242519752525,-0.052372035402363404,0,70,255.0,255.0,255.0
235,11.75,3.879,6.8106,-4.4922,-0.10185220286816174,-0.1126655565397629,-0.7346641317792614,-0.008866198454476448,-0.006956427822217615,-0.050960507154786505,0,70,255.0,255.0,255.0
236,11.8,3.8738966280638736,6.804957896858269,-4.52899723883256,-0.10227625546988904,-0.11302116472876919,-0.7372320537161675,-0.008095905614615295,-0.007267899738033283,-0.051756370321456135,0,70,255.0,255.0,255.0
237,11.850000000000001,3.8687730163637113,6.799297623967194,-4.565923868590923,-0.10266179342962328,-0.11339234651356624,-0.739839768811407,-0.007325612774754142,-0.007579371653848952,-0.052552233488125766,0,70,255.0,255.0,255.0
238,11.9,3.863631090631611,6.793618402646983,-4.602981878933006,-0.10300881674736445,-0.11377910189415408,-0.7424872770649801,-0.006555319934893018,-0.007890843569664609,-0.05334809665479537,0,70,255.0,255.0,255.0
239,11.950000000000001,3.8584727765996742,6.787919454217848,-4.640173259516727,-0.10331732542311257,-0.11418143087053269,-0.7451745784768866,-0.005785027095031864,-0.008202315485480277,-0.054143959821465,0,70,255.0,255.0,255.0
240,12.0,3.8533,6.7822,-4.6775,-0.10358731945686762,-0.1145993334427021,-0.7479016730471265,-0.0050147342551704055,-0.008513787401296158,-0.054939822988132825,0,70,255.0,255.0,255.0
241,12.05,3.8481139939318147,6.776459518207349,-4.714963820129251,-0.10386035682097448,-0.11501739598862286,-0.750652366086056,-0.005906760309103811,-0.008208714435534187,-0.05508789856904333,0,70,255.0,255.0,255.0
242,12.100000000000001,3.8429132209628576,6.7706985146286085,-4.752565360004923,-0.10417799548777802,-0.11542020488625553,-0.7534104629040309,-0.006798786363037216,-0.007903641469772219,-0.05523597414995383,0,70,255.0,255.0,255.0
243,12.15,3.8376954510279924,6.764917751946195,-4.790304989815971,-0.1045402354572782,-0.11580776013560008,-0.7561759635010513,-0.007690812416970589,-0.007598568504010259,-0.055384049730864325,0,70,255.0,255.0,255.0
244,12.200000000000001,3.8324584540620847,6.75911799284252,-4.828183079751346,-0.10494707672947506,-0.11618006173665654,-0.7589488678771174,-0.008582838470903994,-0.007293495538248289,-0.05553212531177483,0,70,255.0,255.0,255.0
245,12.25,3.8272,6.7533,-4.8662,-0.10539851930436858,-0.1165371096894249,-0.7617291760322287,-0.009474864524837034,-0.006988422572485886,-0.05568020089267911,0,70,255.0,255.0,255.0
246,12.3,3.821918596208865,6.747464030312336,-4.90435548065044,-0.10585031724621352,-0.11690925131673086,-0.764478481939605,-0.00859705314896052,-0.007897242519752335,-0.0542920354023728,0,70,255.0,255.0,255.0
247,12.350000000000001,3.816615699784858,6.741608317518371,-4.9426466913893865,-0.10625822461926464,-0.11732683394140016,-0.7671583795724661,-0.007719241773084004,-0.008806062467018786,-0.052903869912066484,0,70,255.0,255.0,255.0
248,12.4,3.8112935052564185,6.735730589568239,-4.981070161803112,-0.10662224142352193,-0.11778985756343274,-0.7697688689308116,-0.00684143039720752,-0.009714882414285204,-0.051515704421760226,0,70,255.0,255.0,255.0
249,12.450000000000001,3.805954207151986,6.729828574412071,-5.019622421477893,-0.10694236765898539,-0.11829832218282868,-0.772309950014642,-0.0059636190213310045,-0.010623702361551654,-0.05012753893145391,0,70,255.0,255.0,255.0
250,12.5,3.8006,6.7239,-5.0583,-0.10721860332565503,-0.1188522277995879,-0.774781622823957,-0.005085807645454299,-0.011532522308818516,-0.04873937344114587,0,70,255.0,255.0,255.0
251,12.55,3.7952324212327233,6.717943560543311,-5.097100657268991,-0.10749037419416739,-0.11939359874444612,-0.7772577061555221,-0.005785027095040195,-0.010122315485510238,-0.050303959821456724,0,70,255.0,255.0,255.0
252,12.600000000000001,3.789850379897709,6.711961815297908,-5.1360270744375365,-0.10779710603515905,-0.11986445934813893,-0.7798120188061027,-0.006484246544626091,-0.00871210866220196,-0.051868546201767576,0,70,255.0,255.0,255.0
253,12.65,3.784452127946333,6.705958289780851,-5.175083162971585,-0.10813879884863001,-0.12026480961066632,-0.7824445607756989,-0.007183465994211963,-0.007301901838893733,-0.053433132582078366,0,70,255.0,255.0,255.0
254,12.700000000000001,3.779035917329971,6.699936509509195,-5.21427283433709,-0.10851545263458025,-0.12059464953202831,-0.7851553320643105,-0.007882685443797858,-0.005891695015585455,-0.05499771896238922,0,70,255.0,255.0,255.0
255,12.75,3.7736,6.6939,-5.2536,-0.10892706739300977,-0.12085397911222488,-0.7879443326719378,-0.008581904893383396,-0.004481488192277561,-0.056562305342700014,0,70,255.0,255.0,255.0
256,12.8,3.768142918860242,6.68785132751442,-5.293067490273596,-0.10935618597711695,-0.1211003537054877,-0.7907466934383,-0.008582838470903752,-0.005373495538235531,-0.0555321253117892,0,70,255.0,255.0,255.0
257,12.850000000000001,3.762664380624307,6.681789221289996,-5.332673810860472,-0.10978535124010015,-0.12139132866604845,-0.7934975452031168,-0.00858377204842411,-0.0062655028841935,-0.054501945280878386,0,70,255.0,255.0,255.0
258,12.9,3.757164382958251,6.675711451308361,-5.372416386310549,-0.11021456318195935,-0.12172690399390707,-0.7961968879663879,-0.008584705625944466,-0.0071575102301514384,-0.053471765249967614,0,70,255.0,255.0,255.0
259,12.950000000000001,3.75164292352813,6.669615787551151,-5.412292641173751,-0.1106438218026946,-0.12210707968906358,-0.7988447217281135,-0.008585639203464824,-0.008049517576109408,-0.0524415852190568,0,70,255.0,255.0,255.0
260,13.0,3.7461,6.6635,-5.4523,-0.11107312710230585,-0.122531855751518,-0.8014410464882936,-0.008586572780985513,-0.008941524922067567,-0.05141140518814513,0,70,255.0,255.0,255.0
261,13.05,3.740535903326308,6.657362329399005,-5.492436581636627,-0.11148488189736366,-0.12297298643360817,-0.8040275200912835,-0.007883619021326583,-0.008703702361539252,-0.052047538931447875,0,70,255.0,255.0,255.0
262,13.100000000000001,3.7349520976050634,6.651202899542106,-5.532703282120583,-0.11186148900443851,-0.12340222598767193,-0.8066458003814384,-0.007180665261667654,-0.008465879801010937,-0.052683672674750624,0,70,255.0,255.0,255.0
263,13.15,3.7293503402206643,6.645022304985705,-5.573101691786223,-0.11220294842353043,-0.12381957441370926,-0.8092958873587585,-0.006477711502008749,-0.008228057240482632,-0.053319806418053346,0,70,255.0,255.0,255.0
264,13.200000000000001,3.72373238855751,6.638821140286202,-5.613633400967911,-0.1125092601546394,-0.1242250317117202,-0.8119777810232438,-0.005774757742349819,-0.007990234679954317,-0.05395594016135609,0,70,255.0,255.0,255.0
265,13.25,3.7181,6.6326,-5.6543,-0.1127804241977654,-0.12461859788170469,-0.8146914813748941,-0.0050718039826906924,-0.007752412119425789,-0.054592073904657035,0,70,255.0,255.0,255.0
266,13.3,3.7124542678345245,6.6263593548895585,-5.6951021831799,-0.11305628643342773,-0.12500770056007987,-0.81738322619657,-0.005962685443801976,-0.007811695015581078,-0.05307771896237605,0,70,255.0,255.0,255.0
267,13.350000000000001,3.70679362895544,6.620099180541579,-5.736037060657207,-0.11337669274214561,-0.12539976738326283,-0.8199992532711318,-0.006853566904913258,-0.007870977911736366,-0.05156336402009507,0,70,255.0,255.0,255.0
268,13.4,3.701115856159092,6.613819328748818,-5.777100846544561,-0.11374164312391905,-0.1257947983512535,-0.8225395625985795,-0.00774444836602451,-0.007930260807891654,-0.05004900907781414,0,70,255.0,255.0,255.0
269,13.450000000000001,3.69541872224183,6.60751965130404,-5.818289754954612,-0.11415113757874806,-0.12619279346405196,-0.8250041541789132,-0.008635329827135793,-0.007989543704046944,-0.048534654135533165,0,70,255.0,255.0,255.0
270,13.5,3.6897,6.6012,-5.8596,-0.11460517610663262,-0.12659375272165818,-0.8273930280121327,-0.0095262112882466,-0.00804882660020212,-0.04702029919325135,0,70,255.0,255.0,255.0
271,13.55,3.683958225335594,6.5948602510427605,-5.901029085643777,-0.11505797236892541,-0.1269962113260664,-0.8297835751224403,-0.008585639203464876,-0.008049517576126597,-0.04860158521904945,0,70,255.0,255.0,255.0
272,13.600000000000001,3.6781949865731782,6.58850037829158,-5.942579675250601,-0.11546374002697912,-0.12739870447927085,-0.8322531865340377,-0.007645067118683153,-0.008050208552051075,-0.05018287124484755,0,70,255.0,255.0,255.0
273,13.65,3.6724126351429662,6.5821203800190204,-5.9842557220355355,-0.11582247908079372,-0.1278012321812715,-0.834801862246925,-0.006704495033901463,-0.008050899527975552,-0.051764157270645594,0,70,255.0,255.0,255.0
274,13.700000000000001,3.6666135224751697,6.57572025449764,-6.026061179213647,-0.11613418953036928,-0.1282037944320684,-0.8374296022611022,-0.00576392294911974,-0.00805159050390003,-0.053345443296443695,0,70,255.0,255.0,255.0
275,13.75,3.6608,6.5693,-6.068,-0.11639887137570572,-0.12860639123166154,-0.8401364065765693,-0.004823350864338161,-0.008052281479823842,-0.054926729322239964,0,70,255.0,255.0,255.0
276,13.8,3.654973630823102,6.562859640939401,-6.110075074244998,-0.11666382409087292,-0.12900745413565598,-0.8428584733136596,-0.005774757742349826,-0.007990234679953854,-0.05395594016137187,0,70,255.0,255.0,255.0
277,13.850000000000001,3.649132824751848,6.556399306292101,-6.152285038340399,-0.11697634714994071,-0.12940541469965694,-0.8455320005927066,-0.00672616462036149,-0.007928187880083868,-0.05298515100050378,0,70,255.0,255.0,255.0
278,13.9,3.6432752032690425,6.549919151175102,-6.194627465313301,-0.11733644055290907,-0.1298002729236644,-0.84815698841371,-0.007677571498373122,-0.007866141080213884,-0.05201436183963572,0,70,255.0,255.0,255.0
279,13.950000000000001,3.6373983878574916,6.543419330705401,-6.237099928190803,-0.11774410429977802,-0.13019202880767833,-0.8507334367766701,-0.008628978376384787,-0.007804094280343897,-0.05104357267876763,0,70,255.0,255.0,255.0
280,14.0,3.6315,6.5369,-6.2797,-0.11819933839054754,-0.13058068235169876,-0.8532613456815867,-0.009580385254396417,-0.0077420474804739126,-0.050072783517899566,0,70,255.0,255.0,255.0
281,14.05,3.625578451371999,6.530361185199639,-6.322425817376235,-0.11865473126758563,-0.1309739721313118,-0.8557745316229229,-0.008635329827127034,-0.007989543704046968,-0.05045465413554524,0,70,255.0,255.0,255.0
282,14.100000000000001,3.6196353144194306,6.523802396540016,-6.365277771387808,-0.11906287137326026,-0.13137963672210345,-0.8583068110951414,-0.007690274399857651,-0.008237039927620022,-0.05083652475319093,0,70,255.0,255.0,255.0
283,14.15,3.613672951780863,6.517223015280575,-6.408256816711263,-0.1194237587075714,-0.1317976761240738,-0.860858184098242,-0.006745218972588301,-0.00848453615119307,-0.05121839537083659,0,70,255.0,255.0,255.0
284,14.200000000000001,3.6076937260948627,6.510622422680755,-6.451363908023147,-0.11973739327051908,-0.13222809033722274,-0.863428650632225,-0.005800163545318917,-0.008732032374766125,-0.051600265988482275,0,70,255.0,255.0,255.0
285,14.25,3.6017,6.504,-6.4946,-0.1200037750621033,-0.13267087936155042,-0.8660182106970902,-0.004855108118049678,-0.008979528598339392,-0.051982136606129714,0,70,255.0,255.0,255.0
286,14.3,3.5956933636889006,6.4973556182620475,-6.537965656250067,-0.12026925083878276,-0.13309665733910597,-0.8686034001946538,-0.005763922949128388,-0.008051590503882787,-0.05142544329641402,0,70,255.0,255.0,255.0
287,14.350000000000001,3.5896723175704293,6.490691107547834,-6.581459876108376,-0.12058016735701615,-0.13347603841193872,-0.8711607550267316,-0.006672737780207098,-0.00712365240942618,-0.05086874998669833,0,70,255.0,255.0,255.0
288,14.4,3.583634589607507,6.4840087877025985,-6.625081267841649,-0.12093652461680346,-0.1338090225800486,-0.8736902751933237,-0.0075815526112857756,-0.006195714314969607,-0.05031205667698266,0,70,255.0,255.0,255.0
289,14.450000000000001,3.5775779077630565,6.477310978571575,-6.6688284397166155,-0.12133832261814473,-0.1340956098434357,-0.87619196069443,-0.008490367442364486,-0.005267776220513001,-0.04975536336726697,0,70,255.0,255.0,255.0
290,14.5,3.5715,6.4706,-6.7127,-0.12178556136103989,-0.13433580020209993,-0.8786658115300502,-0.00939918227344283,-0.004339838126057094,-0.04919867005754508,0,70,255.0,255.0,255.0
291,14.55,3.565399293872397,6.463877141752174,-6.7566947576235,-0.12223626537728559,-0.13459139851226007,-0.8811238675984585,-0.008628978376384665,-0.0058840942803484834,-0.049123572678786864,0,70,255.0,255.0,255.0
292,14.600000000000001,3.5592770152988518,6.457139573268645,-6.800812324178699,-0.12264845919867837,-0.13492420963013477,-0.8835781687979289,-0.007858774479326503,-0.007428350434639874,-0.04904847530002865,0,70,255.0,255.0,255.0
293,14.65,3.5531350897891096,6.450383433909031,-6.845052511922145,-0.12302214282521823,-0.13533423355572405,-0.8860287151284614,-0.007088570582268366,-0.008972606588931209,-0.04897337792127043,0,70,255.0,255.0,255.0
294,14.700000000000001,3.546975442852911,6.443604863032944,-6.889415133110394,-0.1233573162569052,-0.1358214702890279,-0.8884755065900559,-0.006318366685210203,-0.0105168627432226,-0.04889828054251222,0,70,255.0,255.0,255.0
295,14.75,3.5408,6.4368,-6.9339,-0.12365397949373926,-0.1363859198300463,-0.8909185431827127,-0.005548162788151401,-0.01206111889751349,-0.04882318316375489,0,70,255.0,255.0,255.0
296,14.8,3.534610260821512,6.4299662147292596,-6.978507313255935,-0.1239376876520758,-0.13695374861185364,-0.8933811294115184,-0.005800163545310325,-0.010652032374778589,-0.04968026598847147,0,70,255.0,255.0,255.0
297,14.850000000000001,3.528406021234161,6.423105799377582,-7.023238827176841,-0.1242339958482703,-0.1374511230675242,-0.8958865697815599,-0.00605216430246925,-0.009242945852043686,-0.050537348813188054,0,70,255.0,255.0,255.0
298,14.9,3.5221866512360545,6.416222276661277,-7.068096684469778,-0.12454290408232273,-0.137878043197058,-0.8984348642928373,-0.006304165059628166,-0.007833859329308836,-0.05139443163790461,0,70,255.0,255.0,255.0
299,14.950000000000001,3.515951520825298,6.409319169296646,-7.113083027841812,-0.12486441235423311,-0.13823450900045506,-0.9010260129453503,-0.00655616581678709,-0.006424772806573934,-0.05225151446262119,0,70,255.0,255.0,255.0
300,15.0,3.5097,6.4024,-7.1582,-0.12519852066400142,-0.13852052047771535,-0.9036600157390994,-0.006808166573945451,-0.005015686283837972,-0.053108597287336856,0,70,255.0,255.0,255.0
301,15.05,3.503431662841554,6.395467599330785,-7.203448789352765,-0.12553298401440927,-0.1387776070403237,-0.9062796147554643,-0.006570367442368715,-0.005267776220496149,-0.0516753633672584,0,70,255.0,255.0,255.0
302,15.100000000000001,3.497146899764502,6.38852202922102,-7.248826767113948,-0.1258555574082383,-0.13904729809976496,-0.9088275520758253,-0.006332568310791979,-0.005519866157154326,-0.05024212944717994,0,70,255.0,255.0,255.0
303,15.15,3.490846305266673,6.381562659445862,-7.294330350198747,-0.12616624084548847,-0.13932959365603914,-0.9113038277001823,-0.006094769179215252,-0.005771956093812493,-0.048808895527101534,0,70,255.0,255.0,255.0
304,15.200000000000001,3.4845304738458958,6.374588859780469,-7.339955955522365,-0.1264650343261598,-0.1396244937091462,-0.9137084416285355,-0.005856970047638516,-0.006024046030470669,-0.047375661607023084,0,70,255.0,255.0,255.0
305,15.25,3.4782,6.3676,-7.3857,-0.12675193785025232,-0.1399319982590862,-0.9160413938608846,-0.005619170916061789,-0.006276135967127949,-0.0459424276869429,0,70,255.0,255.0,255.0
306,15.3,3.4718550878122723,6.360595387947598,-7.431559929333011,-0.12705037629028434,-0.14025582322684563,-0.9183644115666215,-0.0063183666852186,-0.006676862743248263,-0.04697828054253412,0,70,255.0,255.0,255.0
307,15.350000000000001,3.4654943797078306,6.353574083738335,-7.477537304367376,-0.1273837745187742,-0.14059968453341104,-0.920739221915138,-0.007017562454375412,-0.007077589519368577,-0.04801413339812533,0,70,255.0,255.0,255.0
308,15.4,3.4591161276972535,6.346535085555276,-7.523634714735237,-0.12775213253572187,-0.14096358217878246,-0.9231658249064341,-0.007716758223532199,-0.007478316295488877,-0.04904998625371651,0,70,255.0,255.0,255.0
309,15.450000000000001,3.4527185837911176,6.339477391581477,-7.569854750068733,-0.1281554503411274,-0.14134751616295993,-0.9256442205405097,-0.008415953992689011,-0.00787904307160919,-0.05008583910930773,0,70,255.0,255.0,255.0
310,15.5,3.4463,6.3324,-7.6162,-0.12859372793499074,-0.14175148648594338,-0.9281744088173648,-0.009115149761845132,-0.008279769847729934,-0.051121691964900684,0,70,255.0,255.0,255.0
311,15.55,3.439859185909359,6.325302048878827,-7.662672293315199,-0.12903351082445644,-0.14216710005230043,-0.9307107389780526,-0.00847616581678218,-0.008344772806552216,-0.050331514462609826,0,70,255.0,255.0,255.0
312,15.600000000000001,3.433397181404175,6.318183235825638,-7.709270415416555,-0.12944134451666897,-0.1425859637665986,-0.9332075602636258,-0.007837181871719227,-0.008409775765374496,-0.04954133696031897,0,70,255.0,255.0,255.0
313,15.65,3.426915583944312,6.311043398333035,-7.7559923908603094,-0.12981722901162837,-0.14300807762883788,-0.9356648726740845,-0.007198197926656298,-0.008474778724196774,-0.048751159458028145,0,70,255.0,255.0,255.0
314,15.700000000000001,3.420415990989633,6.303882373893621,-7.802836244202711,-0.1301611643093346,-0.14343344163901828,-0.9380826762094286,-0.006559213981593346,-0.008539781683019056,-0.04796098195573729,0,70,255.0,255.0,255.0
315,15.75,3.4139,6.2967,-7.8498,-0.13047315040978769,-0.1438620557971398,-0.9404609708696581,-0.005920230036529972,-0.008604784641841778,-0.04717080445344912,0,70,255.0,255.0,255.0
316,15.8,3.4073689685502933,6.289496416537095,-7.8968820974061975,-0.13076758041189168,-0.1442757765639475,-0.9428246325211694,-0.005856970047629949,-0.007944046030465914,-0.0473756616070066,0,70,255.0,255.0,255.0
317,15.850000000000001,3.400823294675468,6.282272972959115,-7.9440826339664135,-0.1310588474145507,-0.1446564604001864,-0.9451985370303588,-0.005793710058729927,-0.007283307419090049,-0.047580518760564065,0,70,255.0,255.0,255.0
318,15.9,3.394263136525496,6.2750313211125865,-7.991402121823528,-0.13134695141776467,-0.1450041073058565,-0.9475826843972259,-0.005730450069829906,-0.006622568807714209,-0.04778537591412153,0,70,255.0,255.0,255.0
319,15.950000000000001,3.3876886522503487,6.267773112844039,-8.03884107312043,-0.1316318924215337,-0.14531871728095783,-0.9499770746217708,-0.005667190080929883,-0.0059618301963383444,-0.047990233067679,0,70,255.0,255.0,255.0
320,16.0,3.3811,6.2605,-8.0864,-0.13191367042585767,-0.14560029032549035,-0.9523817077039939,-0.005603930092029863,-0.005301091584962725,-0.048195090221239134,0,70,255.0,255.0,255.0
321,16.05,3.374496939889467,6.253213084972791,-8.134079317060014,-0.13221616752797577,-0.14588179369190518,-0.9547907309372585,-0.006495953992693172,-0.005959043071630764,-0.048165839109347,0,70,255.0,255.0,255.0
322,16.1,3.3678776398939516,6.245911272337905,-8.1818790487178,-0.13256326582512698,-0.14619619463265343,-0.9571982916149286,-0.007387977893356482,-0.006616994558298802,-0.048136587997454856,0,70,255.0,255.0,255.0
323,16.150000000000002,3.361239869953703,6.238592917216621,-8.22979912184558,-0.1329549653173114,-0.14654349314773507,-0.9596043897370041,-0.008280001794019791,-0.00727494604496684,-0.04810733688556272,0,70,255.0,255.0,255.0
324,16.2,3.3545814000089704,6.231256374730226,-8.277839463315573,-0.13339126600452894,-0.1469236892371501,-0.9620090253034849,-0.009172025694683037,-0.007932897531634831,-0.048078085773670586,0,70,255.0,255.0,255.0
325,16.25,3.3479,6.2239,-8.326,-0.1338721678867797,-0.14733678290089855,-0.9644121983143712,-0.010064049595346347,-0.008590849018303759,-0.048048834661775786,0,70,255.0,255.0,255.0
326,16.3,3.341194471891839,6.216522443571739,-8.37428063435375,-0.13433574947620328,-0.14776504866843165,-0.9668124437298086,-0.00847921398159721,-0.008539781683019542,-0.04796098195571865,0,70,255.0,255.0,255.0
327,16.35,3.334467745748724,6.209123537689269,-8.422681171162395,-0.13472008928493945,-0.14819076106920054,-0.9692082965099432,-0.0068943783678480745,-0.008488714347735325,-0.047873129249661514,0,70,255.0,255.0,255.0
328,16.400000000000002,3.32772378365969,6.201703410020931,-8.471201390794159,-0.1350251873129881,-0.14861392010320518,-0.9715997566547748,-0.005309542754098938,-0.008437647012451109,-0.04778527654360438,0,70,255.0,255.0,255.0
329,16.45,3.3209665477137706,6.194262188235062,-8.519841073617282,-0.1352510435603493,-0.1490345257704456,-0.9739868241643035,-0.0037247071403499147,-0.008386579677166895,-0.04769742383754725,0,70,255.0,255.0,255.0
330,16.5,3.3142,6.1868,-8.5686,-0.13539765802702308,-0.14945257807092188,-0.9763694990385293,-0.0021398715266012225,-0.008335512341883344,-0.04760957113148745,0,70,255.0,255.0,255.0
331,16.55,3.307426772543176,6.179317140740253,-8.617478145524982,-0.13554483456721148,-0.1498580116343769,-0.9787594941435077,-0.00374719008093456,-0.007881830196317002,-0.0479902330676465,0,70,255.0,255.0,255.0
332,16.6,3.30064417711115,6.171814576905017,-8.666476266632632,-0.13577237703511655,-0.1502407610905536,-0.9811685223452941,-0.005354508635267897,-0.007428148050750659,-0.04837089500380555,0,70,255.0,255.0,255.0
333,16.650000000000002,3.293848195407536,6.164293442699653,-8.715595314977792,-0.1360802854307383,-0.15060082643945197,-0.9835965836438884,-0.006961827189601235,-0.0069744659051843155,-0.048751556939964594,0,70,255.0,255.0,255.0
334,16.7,3.287034809135948,6.156754872329526,-8.764836242215301,-0.13646855975407665,-0.15093820768107202,-0.9860436780392904,-0.008569145743934458,-0.006520783759618005,-0.049132218876123616,0,70,255.0,255.0,255.0
335,16.75,3.2802,6.1492,-8.8142,-0.1369372000051317,-0.15125290481541376,-0.9885098055315006,-0.01017646429826824,-0.006067101614052106,-0.04951288081228089,0,70,255.0,255.0,255.0
336,16.8,3.273340837935455,6.141629793467246,-8.863686783546326,-0.13742091225495529,-0.15155490479405606,-0.9909495796961503,-0.009172025694674598,-0.0060128975316397154,-0.04807808577370396,0,70,255.0,255.0,255.0
337,16.85,3.266458745806674,6.1340445546906635,-8.913293762307084,-0.1378544025745992,-0.15185419456857774,-0.993317614108871,-0.008167587091080957,-0.005958693449227324,-0.04664329073512703,0,70,255.0,255.0,255.0
338,16.900000000000002,3.2595562347101645,6.126444419180458,-8.96301734929468,-0.1382376709640634,-0.1521507741389788,-0.9956139087696629,-0.0071631484874873155,-0.005904489366814933,-0.045208495696550104,0,70,255.0,255.0,255.0
339,16.95,3.2526358157424373,6.118829522446835,-9.012853957521516,-0.13857071742334792,-0.15244464350525921,-0.997838463678526,-0.006158709883893746,-0.005850285284402546,-0.04377370065797328,0,70,255.0,255.0,255.0
340,17.0,3.2457,6.1112,-9.0628,-0.13885354195245278,-0.15273580266741907,-0.9999912788354601,-0.0051542712802998825,-0.005796081201989933,-0.04233890561939546,0,70,255.0,255.0,255.0
341,17.05,3.2387506757150013,6.103555685390762,-9.11285312028972,-0.1391235164129689,-0.15304236918939854,-1.0021461870718837,-0.0056447071403452915,-0.006466579677188521,-0.04385742383755516,0,70,255.0,255.0,255.0
342,17.1,3.231787239662153,6.095895204332331,-9.163015884139039,-0.13941801266648732,-0.15338246063513794,-1.0043770212192158,-0.0061351430003907,-0.007137078152387108,-0.045375942055714845,0,70,255.0,255.0,255.0
343,17.150000000000002,3.224808465751803,6.0882168805785195,-9.213292087843492,-0.13973703071300797,-0.15375607700463725,-1.0066837812774554,-0.006625578860436109,-0.007807576627585695,-0.04689446027387453,0,70,255.0,255.0,255.0
344,17.2,3.2178131278943023,6.080519037883138,-9.26368552769863,-0.14008057055253093,-0.15416321829789648,-1.0090664672466032,-0.007116014720481482,-0.008478075102784234,-0.04841297849203412,0,70,255.0,255.0,255.0
345,17.25,3.2108,6.0728,-9.3142,-0.1404486321850561,-0.1546038845149157,-1.0115250791266588,-0.007606450580526225,-0.009148573577983043,-0.04993149671019381,0,70,255.0,255.0,255.0
346,17.3,3.203768459204537,6.065058664969706,-9.36483833529479,-0.14080502209316773,-0.1550436184483552,-1.0140016720163167,-0.006649145743939031,-0.008440783759596638,-0.04913221887612308,0,70,255.0,255.0,255.0
347,17.35,3.1967202955447136,6.0572962279800135,-9.41559950113677,-0.14111354675945,-0.15544796289087537,-1.016438301014271,-0.005691840907351837,-0.0077329939412102335,-0.048332941042052345,0,70,255.0,255.0,255.0
348,17.400000000000002,3.1896579022826224,6.049514458505467,-9.466481499331357,-0.14137420618390295,-0.15581691784247623,-1.018834966120522,-0.0047345360707646425,-0.007025204122823828,-0.047533663207981615,0,70,255.0,255.0,255.0
349,17.45,3.182583672680354,6.041715126020614,-9.51748233168396,-0.14158700036652647,-0.15615048330315773,-1.0211916673350692,-0.003777231234177516,-0.006317414304437473,-0.04673438537391093,0,70,255.0,255.0,255.0
350,17.5,3.1755,6.0339,-9.5686,-0.14175192930732067,-0.15644865927291998,-1.0235084046579133,-0.002819926397589878,-0.005609624486050846,-0.04593510753983843,0,70,255.0,255.0,255.0
351,17.55,3.1684082874668507,6.026070454730413,-9.61983273853112,-0.14192839521435788,-0.15673515701718133,-1.0257991248628584,-0.0042387098838982265,-0.0058502852844023265,-0.045693700657966116,0,70,255.0,255.0,255.0
352,17.6,3.1613059781589925,6.018226283747617,-9.671179711313886,-0.1421758002957105,-0.15703368780136023,-1.02807777472371,-0.005657493370206575,-0.006090946082753808,-0.045452293776093805,0,70,255.0,255.0,255.0
353,17.650000000000002,3.1541895251177077,6.010366885399612,-9.722640314831091,-0.14249414455137854,-0.1573442516254567,-1.0303443542404678,-0.0070762768565149235,-0.006331606881105289,-0.045210886894221494,0,70,255.0,255.0,255.0
354,17.7,3.1470553813842823,6.002491658034406,-9.774213945565528,-0.14288342798136197,-0.15766684848947074,-1.032598863413132,-0.008495060342823171,-0.006572267679456753,-0.0449694800123492,0,70,255.0,255.0,255.0
355,17.75,3.1399,5.9946,-9.8259,-0.14334365058566084,-0.1580014783934024,-1.034841302241703,-0.00991384382913063,-0.006812928477808455,-0.044728073130482215,0,70,255.0,255.0,255.0
356,17.8,3.132720790928059,5.986691516108639,-9.877697910580734,-0.14381739704940102,-0.15833575348291734,-1.0370738285322652,-0.009036014720476337,-0.006558075102788937,-0.044572978492010404,0,70,255.0,255.0,255.0
357,17.85,3.1255189918193165,5.978766637029521,-9.929607253607696,-0.1442472520577085,-0.15865728590368128,-1.039298600090904,-0.008158185611822041,-0.006303221727769419,-0.04441788385353859,0,70,255.0,255.0,255.0
358,17.900000000000002,3.1182967972465447,5.970825999896083,-9.981627641344295,-0.14463321561058323,-0.1589660756556943,-1.0415156169176192,-0.007280356503167747,-0.006048368352749901,-0.04426278921506678,0,70,255.0,255.0,255.0
359,17.95,3.1110564017825157,5.962870241841763,-10.033758686053925,-0.14497528770802526,-0.1592621227389563,-1.0437248790124105,-0.006402527394513515,-0.0057935149777304,-0.04410769457659498,0,70,255.0,255.0,255.0
360,18.0,3.1038,5.9549,-10.086,-0.14527346835003455,-0.1595454271534673,-1.0459263863752786,-0.005524698285858554,-0.005538661602709993,-0.043952599938116066,0,70,255.0,255.0,255.0
361,18.05,3.096529348820913,5.946915480835031,-10.138351619145954,-0.14555401658803555,-0.15984182905114644,-1.0481455610080792,-0.005697231234181424,-0.006317414304454172,-0.04481438537391186,0,70,255.0,255.0,255.0
362,18.1,3.0892444545637394,5.9389151681343,-10.190815274255339,-0.1458431914734527,-0.16017716858391273,-1.0504078249126698,-0.005869764182504294,-0.0070961670061983504,-0.04567617080970765,0,70,255.0,255.0,255.0
363,18.150000000000002,3.0819448858961103,5.930897115016055,-10.243393119791751,-0.146140993006286,-0.16055144575176628,-1.0527131780890502,-0.006042297130827164,-0.007874919707942529,-0.04653795624550344,0,70,255.0,255.0,255.0
364,18.2,3.0746302114856543,5.92285937459854,-10.296087310218772,-0.1464474211865354,-0.16096466055470696,-1.05506162053722,-0.006214830079150022,-0.008653672409686652,-0.04739974168129918,0,70,255.0,255.0,255.0
365,18.25,3.0673,5.9148,-10.3489,-0.14676247601420098,-0.16141681299273491,-1.05745315225718,-0.006387363027472448,-0.009432425111430831,-0.04826152711709142,0,70,255.0,255.0,255.0
366,18.3,3.0599538137882907,5.906717760551237,-10.401832412835462,-0.14708653659845825,-0.16186493031250657,-1.059831927435416,-0.006575060342818742,-0.008492267679435615,-0.0468894800123479,0,70,255.0,255.0,255.0
367,18.35,3.0525911899257245,5.898614290433275,-10.454882049370957,-0.14741998204848286,-0.16226603976067847,-1.0621421002584148,-0.006762757658165036,-0.007552110247440398,-0.04551743290760438,0,70,255.0,255.0,255.0
368,18.400000000000002,3.045211659169013,5.890491940039696,-10.508045479488718,-0.14776281236427477,-0.16262014133725064,-1.0643836707261765,-0.00695045497351133,-0.006611952815445181,-0.044145385802860856,0,70,255.0,255.0,255.0
369,18.45,3.037814752274868,5.882353059764077,-10.561319273070984,-0.14811502754583397,-0.162927235042223,-1.0665566388387009,-0.007138152288857611,-0.005671795383450031,-0.04277333869811743,0,70,255.0,255.0,255.0
370,18.5,3.0304,5.8742,-10.6147,-0.14847662759316052,-0.1631873208755956,-1.0686610045959881,-0.00732584960420346,-0.0047316379514541484,-0.04140129159337391,0,70,255.0,255.0,255.0
371,18.55,3.0229673960259245,5.866034276960019,-10.668185129512201,-0.14881983701812843,-0.16345044969882522,-1.0707507292502383,-0.006402527394513,-0.005793514977729923,-0.04218769457663144,0,70,255.0,255.0,255.0
372,18.6,3.015518785733362,5.857854070132595,-10.721775728260843,-0.14911688033261183,-0.1637666723733686,-1.0728797740536513,-0.00547920518482254,-0.006855392004005697,-0.04297409755988897,0,70,255.0,255.0,255.0
373,18.650000000000002,3.008056477427837,5.849656724825161,-10.775473762253386,-0.1493677575366107,-0.1641359888992258,-1.0750481390062272,-0.00455588297513208,-0.007917269030281471,-0.043760500543146494,0,70,255.0,255.0,255.0
374,18.7,3.000582779414876,5.841439586345151,-10.829281197497282,-0.14957246863012505,-0.1645583992763967,-1.077255824107966,-0.0036325607654416857,-0.00897914605655717,-0.04454690352640397,0,70,255.0,255.0,255.0
375,18.75,2.9931,5.8332,-10.8832,-0.14973101361315486,-0.16503390350488145,-1.0795028293588678,-0.0027092385557507814,-0.010041023082833167,-0.04533330650965972,0,70,255.0,255.0,255.0
376,18.8,2.9856094021080124,5.824936331608683,-10.937231869115736,-0.1499061153290277,-0.1655012708921949,-1.0817731555636418,-0.004294830079162782,-0.008653672409704051,-0.04547974168130047,0,70,255.0,255.0,255.0
377,18.85,2.9781080671408278,5.816651029036341,-10.991377437585676,-0.15016049662107114,-0.16589927074585187,-1.084050803526998,-0.005880421602574782,-0.007266321736574937,-0.045626176852941215,0,70,255.0,255.0,255.0
378,18.900000000000002,2.9705920311196357,5.808347560659658,-11.04563707149775,-0.15049415748928519,-0.1662279030658524,-1.086335773248936,-0.007466013125986782,-0.005878971063445823,-0.045772612024581966,0,70,255.0,255.0,255.0
379,18.95,2.96305733006563,5.800029394855318,-11.100011136939877,-0.1509070979336698,-0.16648716785219644,-1.088628064729456,-0.00905160464939867,-0.004491620390316806,-0.0459190471962227,0,70,255.0,255.0,255.0
380,19.0,2.9555,5.7917,-11.1545,-0.151399317954225,-0.16667706510488406,-1.0909276779685582,-0.010637196172810448,-0.003104269717187691,-0.04606548236786345,0,70,255.0,255.0,255.0
381,19.05,2.9479173955420244,5.783361996605247,-11.20910339402486,-0.15189170166576618,-0.16684846673239925,-1.093196648495206,-0.00905815228883602,-0.0037517953834199516,-0.044693338698045065,0,70,255.0,255.0,255.0
382,19.1,2.9403121457033263,5.775014613722038,-11.263818521396466,-0.15230513318310862,-0.16705224464322604,-1.0953970118383627,-0.007479108404861589,-0.004399321049652212,-0.04332119502822667,0,70,255.0,255.0,255.0
383,19.150000000000002,2.9326881980936164,5.766656232536203,-11.31864195175564,-0.15263961250625235,-0.1672883988373645,-1.0975287679980286,-0.00590006452088716,-0.005046846715884473,-0.04194905135840828,0,70,255.0,255.0,255.0
384,19.200000000000003,2.9250495003226047,5.758285234233579,-11.37357025474321,-0.15289513963519735,-0.16755692931481453,-1.0995919169742037,-0.00432102063691273,-0.005694372382116734,-0.04057690768858989,0,70,255.0,255.0,255.0
385,19.25,2.9174,5.7499,-11.4286,-0.1530717145699436,-0.16785783607557614,-1.1015864587668875,-0.002741976752938191,-0.006341898048348504,-0.0392047640187716,0,70,255.0,255.0,255.0
386,19.3,2.9097426157238897,5.741498881970324,-11.48372895478483,-0.15323107800790328,-0.16819286217819931,-1.1035842504555182,-0.003632560765450123,-0.007059146056578501,-0.04070690352644741,0,70,255.0,255.0,255.0
387,19.35,2.9020761500458656,5.733080116075507,-11.538959676828476,-0.15343497064648862,-0.16856375068123403,-1.1056571491195324,-0.004523144777962055,-0.007776394064808499,-0.04220904303412323,0,70,255.0,255.0,255.0
388,19.400000000000002,2.894398376505897,5.724641909195526,-11.594295921479706,-0.1536833924856995,-0.16897050158468016,-1.1078051547589305,-0.005413728790473986,-0.008493642073038496,-0.04371118254179904,0,70,255.0,255.0,255.0
389,19.450000000000003,2.8867070686439518,5.716182468210365,-11.649741444087292,-0.15397634352553602,-0.16941311488853786,-1.1100282673737123,-0.0063043128029859185,-0.009210890081268493,-0.045213322049474855,0,70,255.0,255.0,255.0
390,19.5,2.879,5.7077,-11.7053,-0.1543138237659981,-0.16989159059280703,-1.1123264869638778,-0.0071948968154973425,-0.00992813808949733,-0.046715461557154114,0,70,255.0,255.0,255.0
391,19.55,2.8712753415624164,5.699193675513456,-11.760974386835825,-0.1546719863026208,-0.17034808455480258,-1.1146423496827131,-0.007131604649411338,-0.008331620390324378,-0.04591904719625822,0,70,255.0,255.0,255.0
392,19.6,2.8635328541132092,5.690666521975936,-11.816763571289638,-0.15502698423093925,-0.17072475263183948,-1.1169183916835037,-0.007068312483325332,-0.0067351026911514275,-0.04512263283536233,0,70,255.0,255.0,255.0
393,19.650000000000002,2.855772695882794,5.6821225306816885,-11.87266556232554,-0.15537881755095334,-0.17102159482391774,-1.1191546129662493,-0.0070050203172393275,-0.0051385849919784775,-0.04432621847446644,0,70,255.0,255.0,255.0
394,19.700000000000003,2.8479950251015858,5.673565692924959,-11.92867836890763,-0.1557274862626632,-0.17123861113103733,-1.1213510135309506,-0.006941728151153322,-0.0035420672928055267,-0.04352980411357055,0,70,255.0,255.0,255.0
395,19.75,2.8402,5.665,-11.9848,-0.15607299036606867,-0.17137580155319826,-1.1235075933776064,-0.006878435985067322,-0.001945549593630691,-0.04273338975267116,0,70,255.0,255.0,255.0
396,19.8,2.8323880180264434,5.656428015975853,-12.041028697871878,-0.15640097678161766,-0.17151879960259162,-1.1256383508136372,-0.00624102063689115,-0.003774372382103523,-0.04249690768854925,0,70,255.0,255.0,255.0
397,19.85,2.824560433501295,5.6478465960207505,-12.097363638012977,-0.1566970924297578,-0.1717532387914086,-1.1277572841464614,-0.005603605288714978,-0.005603195170576355,-0.04226042562442735,0,70,255.0,255.0,255.0
398,19.900000000000002,2.816718839962924,5.639251168077721,-12.153804229218139,-0.15696133731048914,-0.17207911911964924,-1.12986439337608,-0.004966189940538808,-0.007432017959049186,-0.04202394356030544,0,70,255.0,255.0,255.0
399,19.950000000000003,2.808864830949702,5.630637160089794,-12.210349880282202,-0.15719371142381167,-0.17249644058731356,-1.131959678502492,-0.004328774592362635,-0.00926084074752202,-0.04178746149618354,0,70,255.0,255.0,255.0
400,20.0,2.801,5.622,-12.267,-0.15739421476972537,-0.17300520319440144,-1.1340431395256982,-0.0036913592441862875,-0.011089663535994276,-0.04155097943206343,0,70,255.0,255.0,255.0
401,20.05,2.793125386331809,5.6133366605831325,-12.323754021676667,-0.157596106570905,-0.173512717034833,-1.136116247062737,-0.004384312802998745,-0.009210890081268337,-0.04137332204948549,0,70,255.0,255.0,255.0
402,20.1,2.78523981188161,5.604650293941062,-12.380611476658455,-0.15783264605002525,-0.17392629220252828,-1.1381804717306467,-0.005077266361811203,-0.0073321166265423975,-0.04119566466690756,0,70,255.0,255.0,255.0
403,20.150000000000002,2.777341544265507,5.595945597007425,-12.437571920801913,-0.15810383320708613,-0.17424592869748726,-1.1402358135294277,-0.005770219920623661,-0.005453343171816458,-0.04101800728432962,0,70,255.0,255.0,255.0
404,20.200000000000003,2.7694288510996024,5.587227266715858,-12.494634909963581,-0.15840966804208761,-0.17447162651970993,-1.14228227245908,-0.006463173479436118,-0.0035745697170905186,-0.040840349901751685,0,70,255.0,255.0,255.0
405,20.25,2.7615,5.5785,-12.5518,-0.15875015055502975,-0.1746033856691963,-1.144319848519603,-0.0071561270382483055,-0.0016957962623647127,-0.04066269251917376,0,70,255.0,255.0,255.0
406,20.3,2.7535536366463202,5.569766941691617,-12.609067215421462,-0.1591025969347648,-0.17473433225807555,-1.1463766609354216,-0.006941728151153145,-0.0035420672928048,-0.041609804113573304,0,70,255.0,255.0,255.0
407,20.35,2.745589918972262,5.561025028215,-12.666438455353205,-0.15944432337014508,-0.1749575923984768,-1.1484808289309603,-0.0067273292640579845,-0.005388338323244887,-0.04255691570797285,0,70,255.0,255.0,255.0
408,20.400000000000002,2.7376093829750445,5.5522696438925765,-12.723916087574219,-0.1597753298611706,-0.17527316609040006,-1.150632352506219,-0.006512930376962824,-0.007234609353684974,-0.04350402730237239,0,70,255.0,255.0,255.0
409,20.450000000000003,2.7296125646518843,5.543496173046768,-12.78150247986349,-0.16009561640784137,-0.1756810533338453,-1.1528312316611975,-0.006298531489867663,-0.009080880384125061,-0.044451138896771936,0,70,255.0,255.0,255.0
410,20.5,2.7216,5.5347,-12.8392,-0.16040518301015735,-0.17618125412881253,-1.155077466395896,-0.006084132602772074,-0.010927151414565461,-0.045398250491164305,0,70,255.0,255.0,255.0
411,20.55,2.7135720670829095,5.525877972650402,-12.897009916637494,-0.16071350569003562,-0.1766859539328647,-1.1573051091955795,-0.0062487745923578445,-0.009260840747521891,-0.04370746149617799,0,70,255.0,255.0,255.0
412,20.6,2.7055285122293378,5.517032793198935,-12.95492910192873,-0.16103006046939314,-0.17710733820356472,-1.159448212545514,-0.006413416581943614,-0.0075945300804783206,-0.042016672501191676,0,70,255.0,255.0,255.0
413,20.650000000000002,2.697468923834312,5.508168627422268,-13.012953328901219,-0.16135484734822997,-0.17744540694091254,-1.1615067764456988,-0.006578058571529384,-0.00592821941343475,-0.040325883506205355,0,70,255.0,255.0,255.0
414,20.700000000000003,2.689392890292857,5.499289641097067,-13.071078370582471,-0.1616878663265461,-0.17770016014490822,-1.1634808008961346,-0.006742700561115154,-0.00426190874639118,-0.03863509451121904,0,70,255.0,255.0,255.0
415,20.75,2.6813,5.4904,-13.1293,-0.16202911740434145,-0.1778715978155517,-1.1653702858968205,-0.006907342550699802,-0.0025955980793475053,-0.03694430551622396,0,70,255.0,255.0,255.0
416,20.8,2.673190095022041,5.481502767706774,-13.187615518028565,-0.16236338030509484,-0.17802585201046264,-1.1672669022822701,-0.0064631734794358955,-0.0035745697170903286,-0.03892034990175513,0,70,255.0,255.0,255.0
417,20.85,2.6650640321103825,5.472596598989256,-13.246028336931886,-0.16267543475228505,-0.17822905478726075,-1.169262320886996,-0.006019004408171989,-0.004553541354833152,-0.040896394287286295,0,70,255.0,255.0,255.0
418,20.900000000000002,2.6569229216877046,5.46367904641835,-13.30454339682092,-0.16296528074591204,-0.17848120614594598,-1.1713565417109988,-0.005574835336908082,-0.005532512992575974,-0.04287243867281747,0,70,255.0,255.0,255.0
419,20.950000000000003,2.648767874176684,5.454747662564962,-13.36316563780664,-0.16323291828597586,-0.17878230608651835,-1.1735495647542777,-0.005130666265644176,-0.006511484630318798,-0.04484848305834863,0,70,255.0,255.0,255.0
420,21.0,2.6406,5.4458,-13.4219,-0.1634783473724765,-0.1791323546089778,-1.1758413900168334,-0.004686497194380079,-0.007490456268059997,-0.04682452744387611,0,70,255.0,255.0,255.0
421,21.05,2.6324203528289267,5.436834156522501,-13.480749611248253,-0.16370497308958257,-0.17949863802528254,-1.1781232816753486,-0.004378531489863442,-0.00716088038412916,-0.04445113889673526,0,70,255.0,255.0,255.0
422,21.1,2.6242297593291286,5.427850410844042,-13.53971035034375,-0.16391620052146286,-0.17984844264739072,-1.180286503906507,-0.004070565785346805,-0.006831304500198323,-0.0420777503495944,0,70,255.0,255.0,255.0
423,21.150000000000002,2.6160289894148674,5.418849586904331,-13.598776283815114,-0.16411202966811728,-0.1801817684753024,-1.182331056710308,-0.0037626000808301677,-0.006501728616267485,-0.03970436180245355,0,70,255.0,255.0,255.0
424,21.200000000000003,2.607818813000404,5.409832508643081,-13.65794147819099,-0.16429246052954585,-0.1804986155090175,-1.1842569400867524,-0.0034546343763135305,-0.006172152732336648,-0.03733097325531269,0,70,255.0,255.0,255.0
425,21.25,2.5996,5.4008,-13.7172,-0.1644574931057486,-0.18079898374853604,-1.1860641540358394,-0.003146668671795805,-0.005842576848406278,-0.03495758470817201,0,70,255.0,255.0,255.0
426,21.3,2.591372493662252,5.391752606203222,-13.77654763697843,-0.16465672733657166,-0.18109959588840588,-1.187855971016325,-0.004822700561127326,-0.006181908746387337,-0.036715094511253835,0,70,255.0,255.0,255.0
427,21.35,2.583132930573102,5.382689757634577,-13.835987061693137,-0.16493976316186135,-0.18141717462317478,-1.189735663486965,-0.006498732450458847,-0.0065212406443683965,-0.03847260431433566,0,70,255.0,255.0,255.0
428,21.400000000000002,2.574877120652825,5.3736106059643225,-13.89552266791863,-0.16530660058161756,-0.18175171995284273,-1.1917032314477587,-0.008174764339790369,-0.006860572542349456,-0.04023011411741749,0,70,255.0,255.0,255.0
429,21.450000000000003,2.5666008738216983,5.364514302862712,-13.955158849429418,-0.16575723959584038,-0.18210323187740973,-1.1937586748987068,-0.00985079622912189,-0.007199904440330515,-0.04198762392049932,0,70,255.0,255.0,255.0
430,21.5,2.5583,5.3554,-14.0149,-0.1662916802045297,-0.1824717103968758,-1.1959019938398086,-0.011526828118451737,-0.007539236338311328,-0.04374513372357747,0,70,255.0,255.0,255.0
431,21.55,2.549972072522064,5.3462674186646115,-14.074749440838035,-0.16680411756413185,-0.18282297842109194,-1.1980688342593568,-0.008970666265634994,-0.006511484630334715,-0.04292848305835014,0,70,255.0,255.0,255.0
432,21.6,2.541621718378464,5.3371185586176475,-14.134706202883715,-0.16718874683109322,-0.18312285885990928,-1.2001948421456436,-0.00641450441281825,-0.005483732922358101,-0.042111832393122814,0,70,255.0,255.0,255.0
433,21.650000000000002,2.5332553279738317,5.327955989238378,-14.194768244510382,-0.1674455680054137,-0.18337135171332777,-1.2022800174986692,-0.003858342560001506,-0.004455981214381489,-0.04129518172789549,0,70,255.0,255.0,255.0
434,21.700000000000003,2.5248792917128,5.318782279906071,-14.254933524091365,-0.16757458108709336,-0.18356845698134744,-1.2043243603184333,-0.0013021807071847621,-0.003428229506404875,-0.04047853106266816,0,70,255.0,255.0,255.0
435,21.75,2.5165,5.3096,-14.3152,-0.16757578607613216,-0.18371417466396822,-1.206327870604936,0.0012539811456329097,-0.002400477798427225,-0.03966188039744267,0,70,255.0,255.0,255.0
436,21.8,2.5081216162494915,5.300410519138331,-14.375565799669435,-0.16758280240689927,-0.183880490427237,-1.208300691946254,-0.001534634376317485,-0.004252152732324026,-0.039250973255274595,0,70,255.0,255.0,255.0
437,21.85,2.499739395913042,5.291210407894831,-14.436029726772011,-0.1677292495137639,-0.18413938993720064,-1.2102529679304637,-0.00432324989826788,-0.006103827666220826,-0.03884006611310652,0,70,255.0,255.0,255.0
438,21.900000000000002,2.4913463674518463,5.281995037082166,-14.496590754039865,-0.16801512739672608,-0.1844908731938591,-1.2121846985575648,-0.007111865420218274,-0.007955502600117625,-0.03842915897093844,0,70,255.0,255.0,255.0
439,21.950000000000003,2.4829355593271005,5.2727597775129995,-14.55724785420515,-0.16844043605578576,-0.1849349401972124,-1.2140958838275575,-0.00990048094216867,-0.009807177534014427,-0.03801825182877037,0,70,255.0,255.0,255.0
440,22.0,2.4745,5.2635,-14.618,-0.1690051754909429,-0.1854715909472605,-1.2159865237404417,-0.012689096464118865,-0.011658852467911096,-0.03760734468659521,0,70,255.0,255.0,255.0
441,22.05,2.4660350624799703,5.254212904782063,-14.67884656048423,-0.16956867280827392,-0.18599105986996603,-1.2178803979556192,-0.00985079622912122,-0.009119904440309199,-0.038147623920503554,0,70,255.0,255.0,255.0
442,22.1,2.457545497969368,5.244903009803025,-14.739788490028259,-0.16999025511385504,-0.18638358139129144,-1.2198012861324923,-0.0070124959941235765,-0.0065809564127073,-0.0386879031544119,0,70,255.0,255.0,255.0
443,22.150000000000002,2.4490384022187803,5.235576662432956,-14.800827139330176,-0.1702699224076863,-0.18664915551123676,-1.2217491882710605,-0.004174195759125933,-0.004042008385105403,-0.039228182388320244,0,70,255.0,255.0,255.0
444,22.200000000000003,2.4405208709787947,5.226240210041925,-14.86196385908806,-0.17040767468976764,-0.18678778222980197,-1.223724104371324,-0.0013358955241282878,-0.0015030603575035047,-0.039768461622228586,0,70,255.0,255.0,255.0
445,22.25,2.432,5.2169,-14.9232,-0.17040351196009912,-0.18679946154698712,-1.225726034433283,0.0015024047108695981,0.0010358876700982123,-0.04030874085612801,0,70,255.0,255.0,255.0
446,22.3,2.423480533830626,5.2075602617334145,-14.984536758393654,-0.17039850636000678,-0.1868112700928953,-1.227745716231254,-0.0013021807071756661,-0.0015082295064259205,-0.04047853106270303,0,70,255.0,255.0,255.0
447,22.35,2.414957812209484,5.198216752893063,-15.045974713114965,-0.17053373003081668,-0.1869502844976297,-1.2297738875395532,-0.00410676612522093,-0.004052346682950053,-0.040648321269278045,0,70,255.0,255.0,255.0
448,22.400000000000002,2.4064248236730292,5.188863113186004,-15.10751428863945,-0.17080918297252887,-0.18721650476119034,-1.2318105483581816,-0.0069113515432661955,-0.006596463859474186,-0.04081811147585306,0,70,255.0,255.0,255.0
449,22.450000000000003,2.3978745567577153,5.179492982319296,-15.169155909442624,-0.17122486518514332,-0.18760993088357716,-1.2338556986871387,-0.009715936961311459,-0.009140581035998319,-0.040987901682428086,0,70,255.0,255.0,255.0
450,22.5,2.3893,5.1701,-15.2309,-0.17178077666865998,-0.1881305628647901,-1.2359093385264244,-0.01252052237935608,-0.011684698212521605,-0.04115769188900309,0,70,255.0,255.0,255.0
451,22.55,2.380696402197525,5.160679648284277,-15.292746405941159,-0.17234130175169832,-0.18866785975845352,-1.2379367371193686,-0.00990048094217691,-0.009807177534014161,-0.03993825182876483,0,70,255.0,255.0,255.0
452,22.6,2.3720680531926943,5.151234778624719,-15.354692657511888,-0.1727708247628777,-0.18911128061819155,-1.239903163709301,-0.007280439504997741,-0.00792965685550672,-0.038718811768526575,0,70,255.0,255.0,255.0
453,22.650000000000002,2.3634215030891013,5.1417700848230234,-15.41673570611204,-0.1730693457021981,-0.1894608254440042,-1.2418086182962214,-0.0046603980678185716,-0.006052136176999277,-0.037499371708288314,0,70,255.0,255.0,255.0
454,22.700000000000003,2.3547633019903382,5.132290260680884,-15.478872503141462,-0.17323686456965953,-0.1897164942358915,-1.2436531008801297,-0.002040356630639402,-0.004174615498491833,-0.03627993164805005,0,70,255.0,255.0,255.0
455,22.75,2.3461,5.1228,-15.5411,-0.17327338136526202,-0.18987828699385337,-1.2454366114610265,0.0005796848065398041,-0.002297094819983636,-0.03506049158781366,0,70,255.0,255.0,255.0
456,22.8,2.3374362573792733,5.113302745129475,-15.603416017841718,-0.1732922866332015,-0.19002129087329042,-1.2472113352912768,-0.001335895524119906,-0.0034230603574989687,-0.03592846162219844,0,70,255.0,255.0,255.0
457,22.85,2.3287691750197372,5.103796932608056,-15.665821856837491,-0.173406970917674,-0.19022059302960329,-1.2490294576232464,-0.003251475854779616,-0.004549025895014301,-0.03679643165658322,0,70,255.0,255.0,255.0
458,22.900000000000002,2.320093963970564,5.0942797475219,-15.728319686912407,-0.17361743421867948,-0.19047619346279188,-1.250890978456935,-0.005167056185439327,-0.005674991432529634,-0.037664401690968,0,70,255.0,255.0,255.0
459,22.950000000000003,2.311405835280927,5.084748374957162,-15.790911677991549,-0.17392367653621796,-0.19078809217285625,-1.2527958977923432,-0.0070826365160990366,-0.006800956970044967,-0.03853237172535278,0,70,255.0,255.0,255.0
460,23.0,2.3027,5.0752,-15.8536,-0.17432569787028937,-0.19115628915979635,-1.2547442156294701,-0.008998216846759055,-0.007926922507560219,-0.03940034175973217,0,70,255.0,255.0,255.0
461,23.05,2.293972968285379,5.065632571197821,-15.916386322691976,-0.17474555171549125,-0.1915349767483854,-1.256705921715525,-0.007795936961315802,-0.0072205810360024165,-0.03906790168246523,0,70,255.0,255.0,255.0
462,23.1,2.2852264467283554,5.0560470909430535,-15.979270315138157,-0.17510529156642096,-0.19187834726339661,-1.2586510057977167,-0.006593657075872549,-0.006514239564444615,-0.038735461605198286,0,70,255.0,255.0,255.0
463,23.150000000000002,2.2764634410286417,5.046445325089375,-16.04225114623835,-0.1754049174230785,-0.1921864007048299,-1.260579467876045,-0.005391377190429297,-0.005807898092886813,-0.03840302152793135,0,70,255.0,255.0,255.0
464,23.200000000000003,2.2676869568859517,5.036829039490463,-16.105327984892362,-0.1756444292854639,-0.1924591370726853,-1.26249130795051,-0.004189097304986043,-0.005101556621329011,-0.0380705814506644,0,70,255.0,255.0,255.0
465,23.25,2.2589,5.0272,-16.1685,-0.1758238271535771,-0.1926965563669628,-1.2643865260211111,-0.0029868174195433195,-0.004395215149771037,-0.0377381413733886,0,70,255.0,255.0,255.0
466,23.3,2.250104669479209,5.017559770079235,-16.231766691390387,-0.175997506504832,-0.19291080213316894,-1.2662849778466463,-0.00396035663065201,-0.0041746154984743065,-0.03819993164801191,0,70,255.0,255.0,255.0
467,23.35,2.2412994380668407,5.007909103619726,-16.295128882609895,-0.17621986281664231,-0.19311401791681027,-1.2682065191859124,-0.004933895841760699,-0.003954015847177577,-0.03866172192263521,0,70,255.0,255.0,255.0
468,23.400000000000002,2.2324818719148682,4.9982485521205975,-16.35858772813421,-0.1764908960890081,-0.19330620371788673,-1.2701511500389098,-0.0059074350528693885,-0.003733416195880847,-0.039123512197258514,0,70,255.0,255.0,255.0
469,23.450000000000003,2.2236495371752634,4.988578667080979,-16.422144382439022,-0.17681060632192927,-0.19348735953639834,-1.2721188704056383,-0.006880974263978079,-0.003512816544584117,-0.039585302471881814,0,70,255.0,255.0,255.0
470,23.5,2.2148,4.9789,-16.4858,-0.17717899351540586,-0.19365748537234512,-1.2741096802860976,-0.0078545134750867,-0.003292216893287847,-0.04004709274649976,0,70,255.0,255.0,255.0
471,23.55,2.205931553797785,4.969212348485234,-16.549554911746483,-0.17755242226518508,-0.193861814718929,-1.2760741668978923,-0.007082636516081953,-0.004880956970066675,-0.03853237172528201,0,70,255.0,255.0,255.0
472,23.6,2.19704540100428,4.9595124945780436,-16.613406154422275,-0.17788725716701406,-0.19414558106935179,-1.2779629174586258,-0.006310759557077206,-0.006469697046845503,-0.037017650704064264,0,70,255.0,255.0,255.0
473,23.650000000000002,2.1881434713118826,4.949796466428236,-16.677349941224826,-0.17818349822089283,-0.19450878442361355,-1.2797759319682989,-0.00553888259807246,-0.008058437123624331,-0.03550292968284652,0,70,255.0,255.0,255.0
474,23.700000000000003,2.17922769441299,4.940060292185618,-16.741382485351586,-0.17844114542682132,-0.19495142478171423,-1.2815132104269105,-0.004767005639067712,-0.00964717720040316,-0.03398820866162877,0,70,255.0,255.0,255.0
475,23.75,2.1703,4.9303,-16.8055,-0.1786601987847996,-0.19547350214365383,-1.2831747528344615,-0.0039951286800636865,-0.011235917277180985,-0.032473487640411136,0,70,255.0,255.0,255.0
476,23.8,2.1613619153296497,4.920513235979827,-16.869700061623693,-0.17886480443442587,-0.19597793899111676,-1.284842354561742,-0.004189097304986425,-0.008941556621336721,-0.03423058145080626,0,70,255.0,255.0,255.0
477,23.85,2.1524133579160365,4.910704118068102,-16.933985699701015,-0.17907910851529826,-0.19636765780578752,-1.2865978109795422,-0.004383065929909164,-0.00664719596549246,-0.0359876752612014,0,70,255.0,255.0,255.0
478,23.900000000000002,2.143453842837599,4.900878382166462,-16.998361306966494,-0.1793031110274168,-0.19664265858766602,-1.2884411220878622,-0.004577034554831902,-0.004352835309648197,-0.037744769071596525,0,70,255.0,255.0,255.0
479,23.950000000000003,2.134482885172774,4.891041764176547,-17.062831276154647,-0.17953681197078147,-0.19680294133675236,-1.2903722878867019,-0.00477100317975464,-0.0020584746538039357,-0.03950186288199166,0,70,255.0,255.0,255.0
480,24.0,2.1255,4.8812,-17.1274,-0.17978021134539224,-0.19684850605304643,-1.2923913083760612,-0.004964971804676477,0.0002358860020401643,-0.04125895669238666,0,70,255.0,255.0,255.0
481,24.05,2.1165047848836163,4.871357107595456,-17.192070441758748,-0.18002835999710892,-0.1968824293166093,-1.2944124148551663,-0.004960974263990536,-0.0015928165445548796,-0.03958530247181036,0,70,255.0,255.0,255.0
482,24.1,2.107497167331573,4.861510233149549,-17.256839846773666,-0.1802763087717913,-0.19700778770750194,-1.2963498386232424,-0.004956976723304596,-0.0034215190911499236,-0.037911648251234054,0,70,255.0,255.0,255.0
483,24.150000000000002,2.098477157337721,4.851654804905916,-17.321704030909224,-0.1805240576694394,-0.1972245812257243,-1.2982035796802898,-0.004952979182618655,-0.005250221637744967,-0.03623799403065774,0,70,255.0,255.0,255.0
484,24.200000000000003,2.0894447648959127,4.8417862511081875,-17.38665881002985,-0.18077160669005315,-0.19753280987127644,-1.299973638026308,-0.004948981641932714,-0.0070789241843400115,-0.03456433981008144,0,70,255.0,255.0,255.0
485,24.25,2.0804,4.8319,-17.4517,-0.18101895583363264,-0.1979324736441583,-1.3016600136612977,-0.00494498410124633,-0.008907626730935148,-0.03289068558950525,0,70,255.0,255.0,255.0
486,24.3,2.0713429451358842,4.821992733638349,-17.51682457134133,-0.1812617555771403,-0.19834834374244228,-1.3033319860175743,-0.004767005639059627,-0.007727177200424179,-0.033988208661560666,0,70,255.0,255.0,255.0
487,24.35,2.062273972757671,4.812066149333697,-17.58203411320432,-0.18149565639753862,-0.19870519136420073,-1.3050588345274539,-0.004589027176872923,-0.00654672766991321,-0.03508573173361607,0,70,255.0,255.0,255.0
488,24.400000000000002,2.053193527811515,4.802123198209871,-17.64733136939664,-0.18172065829482761,-0.19900301650943364,-1.306840559190936,-0.00441104871468622,-0.005366278139402242,-0.036183254805671486,0,70,255.0,255.0,255.0
489,24.450000000000003,2.044102055243573,4.792166831390697,-17.712719083725972,-0.18193676126900724,-0.19924181917814096,-1.3086771600080211,-0.004233070252499516,-0.004185828608891272,-0.0372807778777269,0,70,255.0,255.0,255.0
490,24.5,2.035,4.7822,-17.7782,-0.1821439653200775,-0.19942159937032275,-1.3105686369787086,-0.00405509179031216,-0.0030053790783795,-0.038378300949775124,0,70,255.0,255.0,255.0
491,24.55,2.025887434572846,4.772224757851146,-17.84377607287593,-0.18236461769432916,-0.19959619571362722,-1.3124676410745062,-0.0047710031797542395,-0.003978474653799205,-0.0375818628821296,0,70,255.0,255.0,255.0
492,24.6,2.016762941637742,4.762239569515657,-17.90944610040906,-0.18262106563805294,-0.19981944683570269,-1.3143268232669216,-0.00548691456919632,-0.00495157022921891,-0.03678542481448408,0,70,255.0,255.0,255.0
493,24.650000000000002,2.0076247314162163,4.752242002254596,-17.975208091504232,-0.18291330915124882,-0.20009135273654913,-1.3161461835559547,-0.0062028259586384,-0.005924665804638615,-0.03598898674683856,0,70,255.0,255.0,255.0
494,24.700000000000003,1.9984710141297928,4.742229623329023,-18.04106005506627,-0.18324134823391677,-0.20041191341616657,-1.3179257219416054,-0.0069187373480804806,-0.00689776138005832,-0.03519254867919304,0,70,255.0,255.0,255.0
495,24.75,1.9893,4.7322,-18.107,-0.18360518288605682,-0.2007811288745549,-1.3196654384238737,-0.007634648737522287,-0.007870856955476846,-0.03439611061153869,0,70,255.0,255.0,255.0
496,24.8,1.9801105165727317,4.722151434957066,-18.17302633715496,-0.1839677736455433,-0.2011548734030499,-1.3213894496844125,-0.006868981641936756,-0.007078924184322932,-0.03456433981001226,0,70,255.0,255.0,255.0
497,24.85,1.9709038606913585,4.71208517260367,-18.23913908515944,-0.1842920810502505,-0.2014890212929872,-1.323121872404875,-0.006103314546351224,-0.0062869914131690185,-0.03473256900848583,0,70,255.0,255.0,255.0
498,24.900000000000002,1.9616819465236195,4.702003192771742,-18.305338664586444,-0.18457810510017844,-0.20178357254436682,-1.3248627065852612,-0.005337647450765693,-0.005495058642015105,-0.0349007982069594,0,70,255.0,255.0,255.0
499,24.950000000000003,1.9524466882372533,4.69190747529321,-18.371625496008967,-0.1848258457953271,-0.20203852715718873,-1.3266119522255708,-0.004571980355180161,-0.004703125870861191,-0.035069027405432975,0,70,255.0,255.0,255.0
500,25.0,1.9432,4.6818,-18.438,-0.18503530313569647,-0.2022538851314529,-1.3283696093258046,-0.0038063132595944627,-0.003911193099707111,-0.03523725660391186,0,70,255.0,255.0,255.0
501,25.05,1.9339432991362269,4.6716823023205905,-18.50446257850424,-0.1852362877234987,-0.20245631067416828,-1.3301345601878458,-0.004233070252494692,-0.004185828608908308,-0.03536077787773131,0,70,255.0,255.0,255.0
502,25.1,1.9246760155968226,4.661554140069659,-18.571013558953183,-0.18545861016094595,-0.20267246799234373,-1.331905687113578,-0.0046598272453949215,-0.004460464118109505,-0.03548429915155076,0,70,255.0,255.0,255.0
503,25.150000000000002,1.9153970824893045,4.651414826658431,-18.637653250149995,-0.1857022704480382,-0.20290235708597923,-1.333682990103001,-0.005086584238295151,-0.004735099627310702,-0.03560782042537021,0,70,255.0,255.0,255.0
504,25.200000000000003,1.906105432921191,4.641263675498136,-18.70438196089788,-0.18596726858477544,-0.2031459779550748,-1.3354664691561149,-0.005513341231195381,-0.005009735136511899,-0.035731341699189664,0,70,255.0,255.0,255.0
505,25.25,1.8968,4.6311,-18.7712,-0.18625360457115775,-0.20340333059963042,-1.33725612427292,-0.005940098224095802,-0.005284370645713077,-0.03585486297301088,0,70,255.0,255.0,255.0
506,25.3,1.8874802868823604,4.6209233557605724,-18.83810734882807,-0.18652707546046216,-0.2036598839002748,-1.339032309564225,-0.004998737348080416,-0.004977761380062202,-0.03519254867918703,0,70,255.0,255.0,255.0
507,25.35,1.87814807692135,4.610734267117693,-18.905102679027845,-0.1867534783059658,-0.20390110673763664,-1.3407753791408386,-0.004057376472065028,-0.004671152114411328,-0.03453023438536318,0,70,255.0,255.0,255.0
508,25.400000000000002,1.86880572351916,4.60053350059453,-18.97218433481358,-0.18693281310766868,-0.20412699911171595,-1.3424853330027613,-0.0031160155960496413,-0.004364542848760453,-0.033867920091539334,0,70,255.0,255.0,255.0
509,25.450000000000003,1.8594555800779797,4.590321822714243,-19.03935066039955,-0.18706507986557078,-0.2043375610225127,-1.3441621711499927,-0.0021746547200342547,-0.004057933583109579,-0.03320560579771548,0,70,255.0,255.0,255.0
510,25.5,1.8501,4.5801,-19.1066,-0.18715027857967212,-0.20453279247002687,-1.345805893582533,-0.0012332938440196006,-0.003751324317457616,-0.03254329150389701,0,70,255.0,255.0,255.0
511,25.55,1.8407403533343318,4.5698682746371215,-19.17393122618347,-0.18724741043465223,-0.2047441537247344,-1.3474482015552647,-0.0026519803551848333,-0.0047031258708436635,-0.03314902740537314,0,70,255.0,255.0,255.0
512,25.6,1.8313740767177753,4.559624791459565,-19.24134532493545,-0.18741547661519062,-0.20500310505711125,-1.3491207963230702,-0.004070666866350066,-0.00565492742422971,-0.033754763306849275,0,70,255.0,255.0,255.0
513,25.650000000000002,1.8219976234340531,4.549367170963449,-19.308843810595693,-0.18765447712128724,-0.20530964646715738,-1.3508236778859497,-0.005489353377515298,-0.0066067289776157575,-0.03436049920832541,0,70,255.0,255.0,255.0
514,25.700000000000003,1.812607446766887,4.539093033644888,-19.37642819750396,-0.18796441195294214,-0.2056637779548728,-1.3525568462439028,-0.0069080398886805314,-0.007558530531001804,-0.034966235109801534,0,70,255.0,255.0,255.0
515,25.75,1.8032,4.5288,-19.4441,-0.1883452811101553,-0.20606549952025754,-1.35432030139693,-0.008326726399846773,-0.008510332084386896,-0.0355719710112794,0,70,255.0,255.0,255.0
516,25.8,1.7937726997803125,4.518486745690944,-19.511860546438065,-0.18873928280093127,-0.20645150120078035,-1.3561028842146936,-0.007433341231191269,-0.006929735136524306,-0.03573134169925823,0,70,255.0,255.0,255.0
517,25.85,1.784326816207547,4.508156167044046,-19.579710421230377,-0.18908861523327444,-0.20675847303390998,-1.357893435566856,-0.006539956062535764,-0.005349138188661716,-0.035890712387237046,0,70,255.0,255.0,255.0
518,25.900000000000002,1.7748645827446252,4.497812215551676,-19.647650022803656,-0.18939327840718484,-0.20698641501964649,-1.3596919554534173,-0.00564657089388026,-0.0037685412407991274,-0.03605008307521587,0,70,255.0,255.0,255.0
519,25.950000000000003,1.7653882328544688,4.487458842706204,-19.715679749584627,-0.18965327232266246,-0.2071353271579899,-1.3614984438743776,-0.004753185725224755,-0.0021879442929365377,-0.0362094537631947,0,70,255.0,255.0,255.0
520,26.0,1.7559,4.4771,-19.7838,-0.18986859697970734,-0.20720520944894014,-1.3633129008297369,-0.003859800556569093,-0.0006073473450733946,-0.03636882445117884,0,70,255.0,255.0,255.0
521,26.05,1.7464016475444175,4.466738342599105,-19.852010588064278,-0.19006745836162242,-0.2072738414721448,-1.3651002615859593,-0.0040946547200340555,-0.00213793358311356,-0.03512560579771493,0,70,255.0,255.0,255.0
522,26.1,1.7368930584520348,4.456371340364254,-19.920308990143052,-0.19027806245171075,-0.2074190028072515,-1.3668254614095083,-0.004329508883499018,-0.003668519821153725,-0.033882387144251035,0,70,255.0,255.0,255.0
523,26.150000000000002,1.727373645587443,4.4459951668298485,-19.988692098189688,-0.19050040924997233,-0.20764069345426017,-1.3684885003003844,-0.0045643630469639805,-0.0051991060591938905,-0.03263916849078713,0,70,255.0,255.0,255.0
524,26.200000000000003,1.7178428218152342,4.435605995530295,-20.057156804157547,-0.19073449875640716,-0.2079389134131709,-1.3700893782585872,-0.004799217210428943,-0.006729692297234056,-0.03139594983732323,0,70,255.0,255.0,255.0
525,26.25,1.7083,4.4252,-20.1257,-0.1909803309710152,-0.2083136626839836,-1.3716280952841169,-0.005034071373892779,-0.008260278535273446,-0.030152731183864745,0,70,255.0,255.0,255.0
526,26.3,1.698744710042017,4.414774283912633,-20.194319501304822,-0.19123088375257954,-0.20870913291064047,-1.373160069441459,-0.004988039888680972,-0.007558530531001119,-0.03112623510981224,0,70,255.0,255.0,255.0
527,26.35,1.6891769499843128,4.404329671498939,-20.263016818197418,-0.19147913495988328,-0.20906951573708374,-1.3747407187950982,-0.0049420084034691655,-0.006856782526728791,-0.03209973903575974,0,70,255.0,255.0,255.0
528,26.400000000000002,1.6795968349055994,4.3938679171289285,-20.331794384437604,-0.19172508459292645,-0.20939481116331335,-1.376370043345035,-0.004895976918257359,-0.006155034522456463,-0.03307324296170724,0,70,255.0,255.0,255.0
529,26.450000000000003,1.670004479884591,4.383390775172612,-20.400654633785198,-0.19196873265170905,-0.20968501918932939,-1.378048043091269,-0.004849945433045552,-0.005453286518184135,-0.03404674688765473,0,70,255.0,255.0,255.0
530,26.5,1.6604,4.3729,-20.4696,-0.19221007913623103,-0.20994013981513174,-1.3797747180338003,-0.004803913947834415,-0.004751538513910303,-0.03502025081359861,0,70,255.0,255.0,255.0
531,26.55,1.650783512287513,4.362397321750359,-20.53863220671644,-0.19244900662805753,-0.21016162688530277,-1.3815074606482203,-0.0047531857252252055,-0.004107944292931389,-0.03428945376319986,0,70,255.0,255.0,255.0
532,26.6,1.6411551416107129,4.351884373639986,-20.60775013706728,-0.19268539770875356,-0.2103509342444249,-1.3832036634101204,-0.004702457502615996,-0.003464350071952475,-0.033558656712801116,0,70,255.0,255.0,255.0
533,26.650000000000002,1.6315150147901563,4.341362764654434,-20.676951964059906,-0.19291925237831914,-0.21050806189249804,-1.3848633263195005,-0.004651729280006787,-0.002820755850973561,-0.03282785966240237,0,70,255.0,255.0,255.0
534,26.700000000000003,1.6218632586463995,4.330834103779254,-20.74623586070169,-0.19315057063675425,-0.21063300982952224,-1.3864864493763605,-0.0046010010573975775,-0.002177161629994647,-0.032097062612003624,0,70,255.0,255.0,255.0
535,26.75,1.6122,4.3203,-20.8156,-0.1933793524840589,-0.21072577805549747,-1.3880730325807005,-0.004550272834788149,-0.001533567409014669,-0.031366265561599604,0,70,255.0,255.0,255.0
536,26.8,1.6025252408079305,4.309761229085926,-20.885042871829437,-0.19361308973518943,-0.21083635954815305,-1.389642087965672,-0.004799217210432264,-0.0028896922972086983,-0.03139594983725793,0,70,255.0,255.0,255.0
537,26.85,1.5928384835728344,4.29921523394111,-20.954564233533464,-0.19385927420510213,-0.21101474728521835,-1.3912126275644263,-0.005048161586076379,-0.004245817185402728,-0.03142563411291626,0,70,255.0,255.0,255.0
538,26.900000000000002,1.5831391059337734,4.2886586242533316,-21.024164159322776,-0.19411790589379707,-0.21126094126669331,-1.3927846513769637,-0.005297105961720494,-0.0056019420735967575,-0.031455318388574585,0,70,255.0,255.0,255.0
539,26.950000000000003,1.573426485529808,4.278088009710368,-21.093842723408063,-0.1943889848012742,-0.21157494149257802,-1.3943581594032837,-0.005546050337364609,-0.0069580669617907865,-0.03148500266423291,0,70,255.0,255.0,255.0
540,27.0,1.5637,4.2675,-21.1636,-0.19467251092753352,-0.21195674796287237,-1.395933151643387,-0.005794994713008261,-0.008314191849984942,-0.03151468693989301,0,70,255.0,255.0,255.0
541,27.05,1.5539595244807651,4.256892161905932,-21.233436305965824,-0.19493863443118487,-0.21234893492207735,-1.3975241874890776,-0.004849945433045808,-0.007373286518213482,-0.03212674688772666,0,70,255.0,255.0,255.0
542,27.1,1.544206924097948,4.246265890595568,-21.303352928798866,-0.1951575054708381,-0.21269407661469372,-1.3991458263321597,-0.0039048961530833547,-0.0064323811864420224,-0.03273880683556031,0,70,255.0,255.0,255.0
543,27.150000000000002,1.5344445614747477,4.23562353833224,-21.373351398648996,-0.19532912404649322,-0.21299217304072154,-1.4007980681726335,-0.002959846873120901,-0.005491475854670563,-0.03335086678339397,0,70,255.0,255.0,255.0
544,27.200000000000003,1.5246747992343652,4.2249674573792735,-21.443433245666085,-0.1954534901581502,-0.21324322420016079,-1.4024809130104992,-0.0020147975931584477,-0.004550570522899102,-0.03396292673122762,0,70,255.0,255.0,255.0
545,27.25,1.5149,4.2143,-21.5136,-0.19553060380580908,-0.21344723009301145,-1.4041943608457563,-0.0010697483131958396,-0.0036096651911263766,-0.03457498667905412,0,70,255.0,255.0,255.0
546,27.3,1.5051214612690078,4.203622923290344,-21.583852704307276,-0.19562437254007384,-0.21363990076353934,-1.4059091620780326,-0.0026810010573934625,-0.004097161629989061,-0.03401706261199279,0,70,255.0,255.0,255.0
547,27.35,1.4953362200353721,4.192935603676613,-21.65419045127108,-0.19579870391154844,-0.21385694625601034,-1.4075960671069556,-0.004292253801591085,-0.0045846580688517465,-0.03345913854493146,0,70,255.0,255.0,255.0
548,27.400000000000002,1.4855402481672324,4.18223682241771,-21.72461184608125,-0.19605359792023294,-0.21409836657042453,-1.4092550759325257,-0.005903506545788708,-0.005072154507714431,-0.03290121447787013,0,70,255.0,255.0,255.0
549,27.450000000000003,1.4757295175327285,4.171525360772539,-21.795115493927614,-0.19638905456612732,-0.21436416170678183,-1.4108861885547428,-0.007514759289986331,-0.005559650946577116,-0.0323432904108088,0,70,255.0,255.0,255.0
550,27.5,1.4659,4.1608,-21.8657,-0.19680507384923152,-0.21465433166508222,-1.4124894049736068,-0.009126012034183173,-0.006047147385439322,-0.03178536634375284,0,70,255.0,255.0,255.0
551,27.55,1.4560490304432023,4.1500601449326915,-21.936364076805077,-0.1972198754085201,-0.21493146202376268,-1.4140711641988049,-0.007466050337359829,-0.005038066961778161,-0.031485002664168954,0,70,255.0,255.0,255.0
552,27.6,1.4461793957605618,4.139307694697976,-22.007106866116818,-0.1975516788829675,-0.21515813836126005,-1.4156379052400236,-0.005806088640536486,-0.004028986538117001,-0.03118463898458507,0,70,255.0,255.0,255.0
553,27.650000000000002,1.4362952458563196,4.128545171996917,-22.077927617026017,-0.19780048427257377,-0.21533436067757436,-1.4171896280972633,-0.004146126943713142,-0.003019906114455841,-0.030884275305001183,0,70,255.0,255.0,255.0
554,27.700000000000003,1.426400730634718,4.117775099530571,-22.14882557862348,-0.19796629157733883,-0.21546012897270564,-1.4187263327705237,-0.002486165246889799,-0.00201082569079468,-0.0305839116254173,0,70,255.0,255.0,255.0
555,27.75,1.4165,4.107,-22.2198,-0.19804910079726273,-0.21553544324665383,-1.420248019259805,-0.0008262035500670173,-0.0010017452671335914,-0.03028354794582988,0,70,255.0,255.0,255.0
556,27.8,1.4065960169581815,4.096221296978893,-22.29085018847242,-0.1981201258258436,-0.21562625114140518,-1.4217581811267332,-0.0020147975931674,-0.0026305705229202623,-0.030122926731299415,0,70,255.0,255.0,255.0
557,27.85,1.3966869969223794,4.08543601753148,-22.36197568426166,-0.19825058055657946,-0.21579850029894584,-1.423260311932935,-0.003203391636267783,-0.004259395778706933,-0.029962305516768945,0,70,255.0,255.0,255.0
558,27.900000000000002,1.3867699684074872,4.074640089594619,-22.4331760858147,-0.19844046498947038,-0.2160521907192759,-1.4247544116784103,-0.004391985679368166,-0.005888221034493604,-0.02980168430223848,0,70,255.0,255.0,255.0
559,27.950000000000003,1.3768419599283965,4.063829441105172,-22.50445099157849,-0.1986897791245163,-0.21638732240239522,-1.426240480363159,-0.005580579722468549,-0.007517046290280275,-0.02964106308770801,0,70,255.0,255.0,255.0
560,28.0,1.3669,4.053,-22.5758,-0.19899852296171724,-0.21680389534830388,-1.4277185179871807,-0.006769173765568626,-0.009145871546065498,-0.029480441873168672,0,70,255.0,255.0,255.0
561,28.05,1.356942101724072,4.042149067151735,-22.64722316930526,-0.1993076212881061,-0.21721953341061961,-1.4292161112942803,-0.005594759289985723,-0.007479650946563353,-0.030423290410814742,0,70,255.0,255.0,255.0
562,28.1,1.3469702165499189,4.031279435176104,-22.718722396836544,-0.19955799889071582,-0.21755186044296024,-1.4307608470282622,-0.004420344814402821,-0.0058134303470612075,-0.03136613894846081,0,70,255.0,255.0,255.0
