idx,t,px,py,pz,vx,vy,vz,ax,ay,az,yaw,mode,ledr,ledg,ledb
0,0.0,10.5,-1.5,0.0,-0.0009381254046497579,0.0008253131494466229,0.0007127900581895882,0.02325750485584018,-0.013903757793357258,-0.02375348069827506,0,70,255.0,255.0,255.0
1,0.05,10.499982227485432,-1.49997588872662,5.660442094825169e-06,0.00022846231386291287,0.00014364404874553464,-0.0004921165732327895,0.023406003884666644,-0.01336300623468627,-0.024442784558620045,0,70,255.0,255.0,255.0
2,0.1,10.500022969980577,-1.4999851849688266,-4.978607720689979e-05,0.0014024749838169068,-0.0005109874740220042,-0.0017314883976724165,0.023554502913493106,-0.012822254676015282,-0.025132088418965033,0,70,255.0,255.0,255.0
3,0.15000000000000002,10.500122598733004,-1.5000265368477232,-0.00016806281755603737,0.002583912605212224,-0.0011385814188559938,-0.003005325415129293,0.023703001942319564,-0.012281503117344295,-0.025821392279310018,0,70,255.0,255.0,255.0
4,0.2,10.500281484990289,-1.5000985924844132,-0.00035089303860344993,0.0037727751780488633,-0.0017391377857564336,-0.0043136276256034185,0.023851500971146026,-0.011740751558673306,-0.026510696139655007,0,70,255.0,255.0,255.0
5,0.25,10.5005,-1.5002,-0.0006,0.004969062702326826,-0.0023126565747233242,-0.005656395029094793,0.02399999999997248,-0.01120000000000232,-0.02720000000000001,0,70,255.0,255.0,255.0
6,0.30000000000000004,10.500778515009713,-1.5003294075155866,-0.0009171069613965504,0.006172775178046113,-0.0028591377857566658,-0.0070336276256034195,0.024148499028798946,-0.01065924844133133,-0.027889303860344997,0,70,255.0,255.0,255.0
7,0.35000000000000003,10.501117401266995,-1.5004854631522768,-0.0013039371824439627,0.007383912605206721,-0.0033785814188564576,-0.008445325415129294,0.02429699805762541,-0.010118496882660344,-0.028578607720689982,0,70,255.0,255.0,255.0
8,0.4,10.501517030019423,-1.5006668150311735,-0.0017622139227931003,0.008602474983808653,-0.0038709874740226998,-0.009891488397672416,0.024445497086451877,-0.009577745323989357,-0.029267911581034967,0,70,255.0,255.0,255.0
9,0.45,10.501977772514566,-1.50087211127338,-0.002293660442094825,0.009828462313851908,-0.004336355951255393,-0.01137211657323279,0.024593996115278342,-0.009036993765318368,-0.029957215441379956,0,70,255.0,255.0,255.0
10,0.5,10.5025,-1.5011,-0.0029,0.011061874595336486,-0.004774686850554537,-0.012887209941810413,0.024742495144104773,-0.00849624220664738,-0.03064651930172492,0,70,255.0,255.0,255.0
11,0.55,10.50308371247572,-1.5013496812110334,-0.0035820325965086252,0.012280436973940125,-0.005219092905720571,-0.014381372924353538,0.02400000000004069,-0.009279999999994005,-0.029119999999999993,0,70,255.0,255.0,255.0
12,0.6000000000000001,10.50372742495144,-1.5016225624220667,-0.004336865193017251,0.013461874595340557,-0.005702686850553937,-0.015799209941810416,0.023257504855976607,-0.010063757793340629,-0.027593480698275063,0,70,255.0,255.0,255.0
13,0.65,10.504429281189301,-1.5019206030275831,-0.005160681491271562,0.014606187459537784,-0.006225468685054634,-0.017140720994181045,0.022515009711912528,-0.010847515586687251,-0.02606696139655014,0,70,255.0,255.0,255.0
14,0.7000000000000001,10.50518742495144,-1.5022457624220666,-0.00604966519301725,0.01571337556653181,-0.006787438409222663,-0.018405906081465428,0.021772514567848445,-0.011631273380033875,-0.024540442094825213,0,70,255.0,255.0,255.0
15,0.75,10.506,-1.5026,-0.007,0.016783438916322627,-0.007388596023058021,-0.019594765203663565,0.021030019423784352,-0.012415031173380449,-0.02301392279310041,0,70,255.0,255.0,255.0
16,0.8,10.506865835087408,-1.5029846676402803,-0.008009162652568952,0.017857476926196,-0.007992490591359364,-0.020784880676982455,0.02193150097115051,-0.01174075155867329,-0.02459069613965504,0,70,255.0,255.0,255.0
17,0.8500000000000001,10.507786498927242,-1.5033986871594571,-0.009079802045487043,0.018976589013437677,-0.008562671178925351,-0.02205383481762907,0.022832982518516665,-0.011066471943966132,-0.02616746948620967,0,70,255.0,255.0,255.0
18,0.9,10.508764245223375,-1.5038403728584937,-0.010215860112120653,0.020140775178047663,-0.009099137785755978,-0.02340162762560342,0.02373446406588282,-0.010392192329258977,-0.027744242832764294,0,70,255.0,255.0,255.0
19,0.9500000000000001,10.50980132767967,-1.5043080390383536,-0.01142127878583618,0.021350035420025962,-0.00960189041185125,-0.0248282591009055,0.02463594561324898,-0.00971791271455182,-0.029321016179318923,0,70,255.0,255.0,255.0
20,1.0,10.5109,-1.5048,-0.0127,0.02260436973937256,-0.01007092905721116,-0.026333729243535314,0.02553742716061505,-0.00904363309984467,-0.03089778952587366,0,70,255.0,255.0,255.0
21,1.05,10.51206174717465,-1.505314848227846,-0.01405491679321557,0.023857655321269895,-0.01052294472884045,-0.027855104367716658,0.02459399611527831,-0.009036993765326903,-0.029957215441379952,0,70,255.0,255.0,255.0
22,1.1,10.51328497933959,-1.5058522889401051,-0.015484726625034589,0.02506376935090039,-0.01097462843374385,-0.029329450787673312,0.02365056506994157,-0.009030354430809137,-0.029016641356886246,0,70,255.0,255.0,255.0
23,1.1500000000000001,10.514567337917203,-1.5064123055384417,-0.016987078060245825,0.02622271182826405,-0.011425980171921365,-0.030756768503405283,0.02270713402460483,-0.00902371509629137,-0.02807606727239254,0,70,255.0,255.0,255.0
24,1.2000000000000002,10.515906464329877,-1.5069948814245187,-0.01855961966363804,0.027334482753360877,-0.01187699994337299,-0.03213705751491257,0.021763702979268086,-0.009017075761773605,-0.027135493187898832,0,70,255.0,255.0,255.0
25,1.25,10.5173,-1.5076,-0.0202,0.028399082126190855,-0.012327687748098726,-0.03347031782219516,0.02082027193393121,-0.009010436427255825,-0.02619491910340488,0,70,255.0,255.0,255.0
26,1.3,10.51874637621399,-1.508227939448336,-0.021906370174568774,0.029463901788735345,-0.012795730493280758,-0.03478670185215091,0.02177251456784841,-0.009711273380025521,-0.026460442094825187,0,70,255.0,255.0,255.0
27,1.35,10.520247183714403,-1.508880157080122,-0.023678891454374608,0.030576333582975696,-0.01329881508610128,-0.03611636203167768,0.022724757201765613,-0.010412110332795217,-0.026725965086245498,0,70,255.0,255.0,255.0
28,1.4000000000000001,10.521804803107818,-1.5095584049877404,-0.025518227646896062,0.03173637750891191,-0.013836941526560282,-0.03745929836077546,0.023676999835682812,-0.011112947285564913,-0.026991488077665805,0,70,255.0,255.0,255.0
29,1.4500000000000002,10.523421615000823,-1.5102644352635721,-0.027425042559611677,0.032944033566543976,-0.014410109814657771,-0.03881551083944427,0.024629242469600014,-0.01181378423833461,-0.027257011069086113,0,70,255.0,255.0,255.0
30,1.5,10.5251,-1.511,-0.0294,0.03419930175587191,-0.015018319950393742,-0.040184999467684064,0.02558148510351721,-0.01251462119110433,-0.027522534060506587,0,70,255.0,255.0,255.0
31,1.55,10.526841547969385,-1.5117661939788098,-0.03144360250850935,0.03545473752379021,-0.01562213329803514,-0.04155808822367971,0.02463594561321485,-0.011637912714551628,-0.02740101617931919,0,70,255.0,255.0,255.0
32,1.6,10.528644685802803,-1.5125614827394063,-0.033555707557466986,0.0366628963171934,-0.016182111221848906,-0.04292510108561599,0.023690406122912486,-0.010761204237998926,-0.0272794982981318,0,70,255.0,255.0,255.0
33,1.6500000000000001,10.53050704965153,-1.5133836745105977,-0.03573601135216996,0.03782377813608146,-0.016698253721835036,-0.04428603805349289,0.022744866632610126,-0.009884495761446226,-0.027157980416944404,0,70,255.0,255.0,255.0
34,1.7000000000000002,10.532426275666836,-1.5142305775211928,-0.037984210097915284,0.038937382980454405,-0.017170560797993527,-0.04564089912731043,0.021799327142307763,-0.009007787284893522,-0.02703646253575701,0,70,255.0,255.0,255.0
35,1.75,10.5344,-1.5151,-0.0403,0.04000371085031223,-0.017599032450324383,-0.0469896843070686,0.02085378765200524,-0.008131078808340686,-0.026914944654569783,0,70,255.0,255.0,255.0
36,1.8,10.536426631908466,-1.5159904846364238,-0.04268321979139387,0.04106914811609491,-0.01802773631457745,-0.04834094525313031,0.02176370297930209,-0.00901707576178209,-0.02713549318789865,0,70,255.0,255.0,255.0
37,1.85,10.538507673074381,-1.5169035119622523,-0.045134278315757476,0.04218008114824244,-0.018500740026502593,-0.04970323362585846,0.022673618306598944,-0.009903072715223494,-0.02735604172122752,0,70,255.0,255.0,255.0
38,1.9000000000000001,10.540645398286063,-1.5178412969698685,-0.047653726944424164,0.04333650994675481,-0.019018043586099806,-0.05107654942525306,0.023583533633895794,-0.0107890696686649,-0.027576590254556388,0,70,255.0,255.0,255.0
39,1.9500000000000002,10.54284208233183,-1.5188060546516566,-0.05024211704872723,0.04453843451163202,-0.019579646993369084,-0.05246089265131411,0.024493448961192647,-0.011675066622106304,-0.027797138787885256,0,70,255.0,255.0,255.0
40,2.0,10.5451,-1.5198,-0.0529,0.04578585484287406,-0.020185550248310428,-0.05385626330404159,0.02540336428848944,-0.01256106357554762,-0.028017687321214513,0,70,255.0,255.0,255.0
41,2.0500000000000003,10.547420724396748,-1.5208246674754946,-0.055627518325915226,0.047036670011826306,-0.020794921443657275,-0.05523813076379912,0.02462924246960005,-0.0118137842383261,-0.02725701106908603,0,70,255.0,255.0,255.0
42,2.1,10.549803021899667,-1.5218788694115848,-0.05842317917950315,0.04824877908983407,-0.02136692867214304,-0.0565819644109502,0.02385512065071067,-0.011066504901104583,-0.026496334816957554,0,70,255.0,255.0,255.0
43,2.15,10.552244957204215,-1.522960737609928,-0.06128508087013346,0.049422182076897365,-0.021901571933767728,-0.05788776424549486,0.023080998831821287,-0.010319225563883068,-0.02573565856482908,0,70,255.0,255.0,255.0
44,2.2,10.55474459500584,-1.5240684038721806,-0.06421132170717588,0.0505568789730162,-0.022398851228531347,-0.05915553026743311,0.0223068770129319,-0.009571946226661545,-0.024974982312700598,0,70,255.0,255.0,255.0
45,2.25,10.5573,-1.5252,-0.0672,0.05165286977819055,-0.022858766556433884,-0.06038526247676492,0.021532755194042463,-0.008824666889439975,-0.02421430606057201,0,70,255.0,255.0,255.0
46,2.3000000000000003,10.559909670504545,-1.5263540454615983,-0.07024990690494531,0.05273617183659931,-0.023304577910792223,-0.06161853169167316,0.02179932714230769,-0.009007787284893449,-0.02511646253575714,0,70,255.0,255.0,255.0
47,2.35,10.562573839326951,-1.5275306103914086,-0.07336260496622997,0.05383280249242132,-0.023759545284923227,-0.06289690873034064,0.022065899090572917,-0.009190907680346921,-0.026018619010942257,0,70,255.0,255.0,255.0
48,2.4000000000000004,10.565293172897078,-1.52873015259042,-0.07654034957504202,0.054942761745656606,-0.024223668678826915,-0.06422039359276739,0.022332471038838144,-0.009374028075800397,-0.026920775486127386,0,70,255.0,255.0,255.0
49,2.45,10.568068337644805,-1.529953129859621,-0.07978539612256938,0.05606604959630514,-0.02469694809250327,-0.06558898627895338,0.02259904298710337,-0.009557148471253869,-0.027822931961312504,0,70,255.0,255.0,255.0
50,2.5,10.5709,-1.5312,-0.0831,0.05720266604436693,-0.0251793835259523,-0.06700268678889862,0.022865614935368372,-0.009740268866707286,-0.028725088436497792,0,70,255.0,255.0,255.0
51,2.5500000000000003,10.573788593585066,-1.5324711506781123,-0.08648565405430364,0.05833864264178107,-0.025666766913172857,-0.06841574246950821,0.022573448961196983,-0.009755066622114977,-0.02779713878788583,0,70,255.0,255.0,255.0
52,2.6,10.576733620792533,-1.5337666890227801,-0.08994080095557698,0.05946001094048663,-0.026154890188163797,-0.0697824006676872,0.022281282987025596,-0.009769864377522669,-0.026869189139273872,0,70,255.0,255.0,255.0
53,2.6500000000000004,10.57973435120747,-1.5350866520283917,-0.09346312082969853,0.060566770940483634,-0.026643753350925125,-0.0711026613834356,0.021989117012854206,-0.00978466213293036,-0.02594123949066191,0,70,255.0,255.0,255.0
54,2.7,10.582790054414936,-1.5364310766893354,-0.0970502938025467,0.06165892264177206,-0.027133356401456834,-0.07237652461675341,0.02169695103868282,-0.009799459888338052,-0.025013289842049955,0,70,255.0,255.0,255.0
55,2.75,10.5859,-1.5378,-0.1007,0.0627364660443519,-0.027623699339758927,-0.07360399036764059,0.021404785064511156,-0.009814257643745744,-0.024085340193437776,0,70,255.0,255.0,255.0
56,2.8000000000000003,10.589063955155193,-1.5391933518259522,-0.10441067687784021,0.06382925759628713,-0.0281083544365189,-0.07483049843029406,0.022306877012897713,-0.00957194622665301,-0.024974982312700438,0,70,255.0,255.0,255.0
57,2.85,10.59228367750292,-1.540610633517471,-0.10818379121146214,0.06496715374564167,-0.02858089396242423,-0.07610148859891064,0.02320896896128426,-0.009329634809560278,-0.025864624431963093,0,70,255.0,255.0,255.0
58,2.9000000000000004,10.595561422273049,-1.5420512392960137,-0.11202156710616401,0.06615015449241556,-0.029041317917474926,-0.07741696087349037,0.024111060909670818,-0.009087323392467542,-0.026754266551225755,0,70,255.0,255.0,255.0
59,2.95,10.598899444695451,-1.5435145633830378,-0.1159262286672439,0.06737825983660876,-0.029489626301670985,-0.07877691525403321,0.025013152858057365,-0.00884501197537481,-0.027643908670488406,0,70,255.0,255.0,255.0
60,3.0,10.6023,-1.545,-0.1199,0.06865146977822129,-0.029925819115012405,-0.08018135174053921,0.025915244806443694,-0.00860270055828219,-0.028533550789751394,0,70,255.0,255.0,255.0
61,3.0500000000000003,10.605764385794162,-1.5465074420180789,-0.12394443843433567,0.0699123269730607,-0.030379815340750807,-0.08159026380931582,0.02451904298713287,-0.009557148471253895,-0.027822931961312376,0,70,255.0,255.0,255.0
62,3.1,10.609290069195788,-1.5480387769073358,-0.12805843419857454,0.07110337407693457,-0.030881533962137796,-0.08296364493667045,0.02312284116782206,-0.010511596384225592,-0.027112313132873364,0,70,255.0,255.0,255.0
63,3.1500000000000004,10.612873559700338,-1.5495963907875534,-0.13224021074564568,0.07222461108984292,-0.03143097497917337,-0.08430149512260315,0.021726639348511236,-0.0114660442971973,-0.02640169430443435,0,70,255.0,255.0,255.0
64,3.2,10.616511366803259,-1.5511826697785138,-0.13648799152847785,0.0732760380117857,-0.03202813839185752,-0.08560381436711388,0.020330437529200423,-0.012420492210168997,-0.025691075475995338,0,70,255.0,255.0,255.0
65,3.25,10.6202,-1.5528,-0.1408,0.07425765484276295,-0.03267302420019026,-0.08687060267020269,0.01893423570988939,-0.013374940123140777,-0.024980456647556437,0,70,255.0,255.0,255.0
66,3.3000000000000003,10.623936901668163,-1.554449680101732,-0.14517476938481733,0.07522543451147737,-0.03330038420047734,-0.08812044633244284,0.01977695103868711,-0.011719459888342124,-0.025013289842049514,0,70,255.0,255.0,255.0
67,3.35,10.627723245713923,-1.556128658853185,-0.14961207199423973,0.07623534994663166,-0.03384497018902448,-0.08937193165440764,0.020619666367484826,-0.010063979653543484,-0.02504612303654259,0,70,255.0,255.0,255.0
68,3.4000000000000004,10.6315611389256,-1.5578327975537725,-0.1541119899112535,0.07728740114822585,-0.03430678216583168,-0.09062505863609711,0.021462381696282545,-0.00840849941874483,-0.025078956231035666,0,70,255.0,255.0,255.0
69,3.45,10.635452688091519,-1.5595579575029064,-0.15867460521884486,0.07838158811625992,-0.03468582013089896,-0.0918798272775112,0.02230509702508026,-0.006753019183946191,-0.02511178942552874,0,70,255.0,255.0,255.0
70,3.5,10.6394,-1.5613,-0.1633,0.07951791085073386,-0.03498208408422631,-0.09313623757864997,0.02314781235387764,-0.005097538949147495,-0.02514462262002204,0,70,255.0,255.0,255.0
71,3.5500000000000003,10.643404807533189,-1.563056237574992,-0.16798848402639524,0.0806739349810315,-0.03528264785733937,-0.09440795086091276,0.02309315285802762,-0.006925011975375005,-0.02572390867048915,0,70,255.0,255.0,255.0
72,3.6,10.647467347948524,-1.5648297876799224,-0.1727412778244667,0.08182722613653662,-0.03567458528176381,-0.09570862844569888,0.023038493362177604,-0.008752485001602498,-0.02630319472095626,0,70,255.0,255.0,255.0
73,3.6500000000000004,10.651587484597263,-1.5666252189973568,-0.17755982960934052,0.08297778431724925,-0.03615789635749962,-0.0970382703330084,0.022983833866327585,-0.010579958027830006,-0.02688248077142337,0,70,255.0,255.0,255.0
74,3.7,10.655765080830667,-1.568447100209861,-0.1824455875961429,0.08412560952316939,-0.036732581084546814,-0.09839687652284122,0.02292917437047757,-0.012407431054057502,-0.027461766821890478,0,70,255.0,255.0,255.0
75,3.75,10.66,-1.5703,-0.1874,0.085270701754297,-0.037398639462905364,-0.09978444701519742,0.022874514874627327,-0.014234904080284716,-0.028041052872357808,0,70,255.0,255.0,255.0
76,3.8000000000000003,10.664291868199081,-1.5721869695982997,-0.19242409450960188,0.08639882556439343,-0.03806502437016671,-0.10117575022390626,0.022250437529229946,-0.012420492210168933,-0.02761107547599528,0,70,255.0,255.0,255.0
77,3.85,10.668639362491984,-1.5741049904271247,-0.19751721670789368,0.08749574550722,-0.03864068868392226,-0.10254555456279695,0.02162636018383257,-0.010606080340053167,-0.02718109807963276,0,70,255.0,255.0,255.0
78,3.9000000000000004,10.673040922685349,-1.5760495264568004,-0.2026782916513846,0.08856146158277671,-0.03912563240417203,-0.10389386003186954,0.02100228283843519,-0.008791668469937383,-0.026751120683270232,0,70,255.0,255.0,255.0
79,3.95,10.677494988585808,-1.5780160416576505,-0.20790624439658364,0.08959597379106352,-0.039519855530916,-0.10522066663112399,0.020378205493037812,-0.006977256599821618,-0.02632114328690771,0,70,255.0,255.0,255.0
80,4.0,10.682,-1.58,-0.2132,0.09059928213208046,-0.03982335806415418,-0.10652597436056031,0.019754128147640326,-0.005162844729705907,-0.025891165890545964,0,70,255.0,255.0,255.0
81,4.05,10.686554919670488,-1.581998284031809,-0.2185583379351974,0.09160276276139773,-0.04012125466199538,-0.10780104824346218,0.02038509702505049,-0.00675301918394205,-0.02511178942552903,0,70,255.0,255.0,255.0
82,4.1000000000000005,10.691160802083537,-1.5840134506115782,-0.22397945534395877,0.09263779183458552,-0.04049865998254839,-0.10903715330311323,0.021016065902460662,-0.00834319363817822,-0.024332412960512088,0,70,255.0,255.0,255.0
83,4.15,10.695819224661346,-1.5860494751754426,-0.2294614037851213,0.09370436935164381,-0.0409555740258132,-0.1102342895395134,0.021647034779870827,-0.009933368092414362,-0.023553036495495155,0,70,255.0,255.0,255.0
84,4.2,10.700531764826101,-1.588110333159538,-0.23500223481752255,0.09480249531257261,-0.041491996791789824,-0.11139245695266274,0.02227800365728099,-0.011523542546650507,-0.022773660030478225,0,70,255.0,255.0,255.0
85,4.25,10.7053,-1.5902,-0.2406,0.09593216971737191,-0.042107928280478255,-0.11251165554256123,0.022908972534691485,-0.013113717000886926,-0.021994283565461403,0,70,255.0,255.0,255.0
86,4.3,10.710125253118969,-1.5923214942744637,-0.2462537537496084,0.09707812339000199,-0.04274595698185186,-0.11365205680224504,0.022929174370511674,-0.012407431054057418,-0.023621766821890804,0,70,255.0,255.0,255.0
87,4.3500000000000005,10.715007829173864,-1.5944740071265628,-0.2519665619162716,0.09822508715442309,-0.043348671385884004,-0.11487383222475034,0.022949376206331862,-0.011701145107227898,-0.025249250078320237,0,70,255.0,255.0,255.0
88,4.4,10.719947778669274,-1.5966557728414301,-0.2577424932081305,0.09937306101063519,-0.043916071492574656,-0.11617698181007707,0.02296957804215205,-0.010994859160398392,-0.026876733334749638,0,70,255.0,255.0,255.0
89,4.45,10.72494515210979,-1.598865025704198,-0.2635856163333263,0.10052204495863828,-0.044448157301923835,-0.11756150555822528,0.02298977987797224,-0.010288573213568884,-0.02850421659117904,0,70,255.0,255.0,255.0
90,4.5,10.73,-1.6011,-0.2695,0.10167203899843241,-0.04494492881393155,-0.11902740346919496,0.023009981713792316,-0.009582287266739542,-0.03013169984760866,0,70,255.0,255.0,255.0
91,4.55,10.73511206785364,-1.6033589388703355,-0.275488247066369,0.10280474367860304,-0.045406917410595674,-0.12048672454755785,0.022298205493033053,-0.008897256599825645,-0.028241143286906883,0,70,255.0,255.0,255.0
92,4.6000000000000005,10.74027988122101,-1.6056401208821705,-0.2815470969909553,0.10390185954773573,-0.04583465447391412,-0.12185151779788567,0.02158642927227378,-0.008212225932911736,-0.026350586726205074,0,70,255.0,255.0,255.0
93,4.65,10.745501660661564,-1.6079418334588376,-0.28767182338235703,0.10496338660583043,-0.04622814000388686,-0.12312178322017837,0.02087465305151452,-0.007527195265997839,-0.024460030165503296,0,70,255.0,255.0,255.0
94,4.7,10.750775626734741,-1.61026236402367,-0.2938576998491725,0.10598932485288717,-0.0465873740005139,-0.12429752081443599,0.02016287683075526,-0.006842164599083942,-0.02256947360480152,0,70,255.0,255.0,255.0
95,4.75,10.7561,-1.6126,-0.3001,0.10697967428890595,-0.046912356463795254,-0.12537873058065852,0.019451100609995775,-0.006157133932169878,-0.020678917044099077,0,70,255.0,255.0,255.0
96,4.800000000000001,10.761473675466476,-1.6149539502441943,-0.30639565798491575,0.10797490189558714,-0.04725837337576578,-0.126465045007523,0.020358003657251503,-0.007683542546650956,-0.022773660030479124,0,70,255.0,255.0,255.0
97,4.8500000000000005,10.766898245942098,-1.6173271093447554,-0.3127482501199077,0.10901547465463111,-0.047680710718460355,-0.1276560965837064,0.021264906704507213,-0.009209951161132008,-0.02486840301685913,0,70,255.0,255.0,255.0
98,4.9,10.77237597868448,-1.619723293323219,-0.3191630132624417,0.11010139256603786,-0.04817936849187898,-0.12895188530920887,0.022171809751762923,-0.010736359775613057,-0.02696314600323914,0,70,255.0,255.0,255.0
99,4.95,10.777909140951241,-1.622146318201122,-0.3256451842699838,0.1112326556298074,-0.048754346696021654,-0.13035241118403035,0.023078712799018634,-0.012262768390094108,-0.029057888989619148,0,70,255.0,255.0,255.0
100,5.0,10.7835,-1.6246,-0.3322,0.1124092638459397,-0.04940564533088838,-0.1318576742081708,0.023985615846274233,-0.013789177004574993,-0.031152631975998712,0,70,255.0,255.0,255.0
101,5.050000000000001,10.789150030280451,-1.6270868601528874,-0.33883072099396827,0.11358364873904674,-0.050055589086341876,-0.13334909542235027,0.02298977987800642,-0.01220857321356449,-0.028504216591179573,0,70,255.0,255.0,255.0
102,5.1000000000000005,10.794857535010598,-1.6296042417388086,-0.3455327025294144,0.11470824183374036,-0.05062650265224483,-0.13470809586728877,0.021993943909738623,-0.010627969422554012,-0.02585580120636048,0,70,255.0,255.0,255.0
103,5.15,10.80062002460052,-1.632148193248286,-0.3522993235678764,0.1157830431300206,-0.051118386028597265,-0.1359346755429863,0.020998107941470827,-0.009047365631543534,-0.023207385821541388,0,70,255.0,255.0,255.0
104,5.2,10.806435009460293,-1.6347147631718424,-0.3591239630708923,0.11680805262788743,-0.051531239215399184,-0.1370288344494429,0.02000227197320303,-0.0074667618405330595,-0.020558970436722293,0,70,255.0,255.0,255.0
105,5.25,10.8123,-1.6373,-0.366,0.11778327032734089,-0.051865062212650574,-0.1379905725866585,0.01900643600493479,-0.005886158049522472,-0.017910555051902532,0,70,255.0,255.0,255.0
106,5.300000000000001,10.818213403411718,-1.6399010091442567,-0.3729230580392116,0.11876250314823229,-0.052183270278865844,-0.1389545733030761,0.020162876830720926,-0.006842164599088176,-0.0206494736048004,0,70,255.0,255.0,255.0
107,5.3500000000000005,10.824177214015512,-1.6425191237000112,-0.37989773976243507,0.11979955801041299,-0.052549278672559395,-0.14005551994713855,0.021319317656507044,-0.007798171148653864,-0.02338839215769822,0,70,255.0,255.0,255.0
108,5.4,10.830194322913446,-1.6451567336836372,-0.38693089246605283,0.12089443491388299,-0.05296308739373123,-0.14129341251884592,0.02247575848229316,-0.008754177698219552,-0.026127310710596038,0,70,255.0,255.0,255.0
109,5.45,10.836267621207588,-1.6478162291115088,-0.39402936344644707,0.1220471338586423,-0.05342469644238135,-0.14266825101819813,0.023632199308079277,-0.00971018424778524,-0.02886622926349386,0,70,255.0,255.0,255.0
110,5.5,10.8424,-1.6505,-0.4012,0.12325765484469091,-0.053934105818509756,-0.14418003544519528,0.024788640133865614,-0.010666190797350983,-0.03160514781639168,0,70,255.0,255.0,255.0
111,5.550000000000001,10.84859315607268,-1.653209903270086,-0.4084474468491858,0.12445433866801388,-0.05445932979819579,-0.14569661136534556,0.02307871279905278,-0.010342768390089957,-0.02905788898961906,0,70,255.0,255.0,255.0
112,5.6000000000000005,10.854844008927357,-1.655945663461147,-0.4157675384208457,0.1255655261245962,-0.05496838265751876,-0.1470858243441572,0.021368785464239974,-0.010019345982828939,-0.026510630162846487,0,70,255.0,255.0,255.0
113,5.65,10.861148283745692,-1.6587064720171651,-0.4231539065679126,0.12659121721443786,-0.05546126439647868,-0.1483476743816302,0.019658858129427168,-0.00969592357556792,-0.023963371336073916,0,70,255.0,255.0,255.0
114,5.7,10.867501705709355,-1.661491520382122,-0.43060018314331966,0.1275314119375389,-0.055937975015075546,-0.14948216147776458,0.017948930794614366,-0.0093725011683069,-0.021416112509301345,0,70,255.0,255.0,255.0
115,5.75,10.8739,-1.6643,-0.4381,0.12838611029389932,-0.05639851451330937,-0.15048928563256034,0.016239003459801227,-0.009049078761046048,-0.018868853682527886,0,70,255.0,255.0,255.0
116,5.800000000000001,10.88034037229757,-1.6671313777753998,-0.4456487545640455,0.1292441421797237,-0.056859410528348954,-0.1514749812355416,0.018082271973173008,-0.009386761840537099,-0.02055897043672157,0,70,255.0,255.0,255.0
117,5.8500000000000005,10.886825950275067,-1.669986222455401,-0.45324890655418276,0.13019433749121664,-0.05733719069736309,-0.1525451826762325,0.019925540486544754,-0.009724444920028144,-0.022249087190915225,0,70,255.0,255.0,255.0
118,5.9,10.893361342103784,-1.6728653782477023,-0.46090468126229717,0.13123669622837816,-0.05783185502035176,-0.1536998899546331,0.021768808999916504,-0.01006212799951919,-0.02393920394510888,0,70,255.0,255.0,255.0
119,5.95,10.899951155955,-1.6757696893600025,-0.46862030398027443,0.13237121839120827,-0.058343403497315004,-0.15493910307074338,0.02361207751328825,-0.010399811079010236,-0.025629320699302533,0,70,255.0,255.0,255.0
120,6.0,10.9066,-1.6787,-0.4764,0.13359790397970697,-0.058871836128252794,-0.15626282202456332,0.02545534602666044,-0.010737494158501337,-0.02731943745349552,0,70,255.0,255.0,255.0
121,6.050000000000001,10.913310954737051,-1.6816565856283148,-0.48424713489463267,0.1348250926130755,-0.059383028088409964,-0.15761946369248808,0.02363219930807958,-0.009710184247785233,-0.026946229263494097,0,70,255.0,255.0,255.0
122,6.1000000000000005,10.920080989972375,-1.684637446717249,-0.4921616353624239,0.13596112391051493,-0.05984285455303132,-0.15895744495091274,0.021809052589498747,-0.008682874337069147,-0.026573021073492683,0,70,255.0,255.0,255.0
123,6.15,10.926905547839171,-1.6876400149920256,-0.5001425683828988,0.13700599787202536,-0.06025131552211688,-0.16027676579983732,0.01998590587091792,-0.007655564426353061,-0.026199812883491266,0,70,255.0,255.0,255.0
124,6.2,10.933780070470645,-1.6906617221778681,-0.5081890009355825,0.13795971449760672,-0.06060841099566663,-0.16157742623926188,0.018162759152337088,-0.006628254515636974,-0.025826604693489852,0,70,255.0,255.0,255.0
125,6.25,10.9407,-1.6937,-0.5163,0.1388222737872591,-0.06091414097368057,-0.1628594262691863,0.01633961243375648,-0.005600944604920777,-0.02545339650348799,0,70,255.0,255.0,255.0
126,6.300000000000001,10.947662208754222,-1.6967534797113417,-0.5244747058574245,0.13967948736797006,-0.06124047711801117,-0.16412716399450603,0.017948930794682405,-0.0074525011683029205,-0.02525611250930053,0,70,255.0,255.0,255.0
127,6.3500000000000005,10.954669289835431,-1.699825590675604,-0.5327125519961222,0.14061716686672734,-0.061659391090510864,-0.16538503752011638,0.019558249155608304,-0.009304057731685031,-0.025058828515113072,0,70,255.0,255.0,255.0
128,6.4,10.96172526653953,-1.7029209617841954,-0.5410130452061077,0.1416353122835309,-0.06217088289117967,-0.16663304684601735,0.021167567516534203,-0.011155614295067142,-0.024861544520925614,0,70,255.0,255.0,255.0
129,6.45,10.968834162162418,-1.7060442219285246,-0.5493756922773954,0.14273392361838075,-0.06277495252001758,-0.16787119197220893,0.0227768858774601,-0.013007170858449253,-0.024664260526738157,0,70,255.0,255.0,255.0
130,6.5,10.976,-1.7092,-0.5578,0.1439130008712769,-0.06347159997702459,-0.16909947289869112,0.024386204238386444,-0.014858727421830809,-0.024466976532550033,0,70,255.0,255.0,255.0
131,6.550000000000001,10.98322581024606,-1.712391095526319,-0.5662852416756697,0.1451129579150671,-0.06415106343954571,-0.17030388032948748,0.02361207751322033,-0.012319811079014106,-0.02370932069930335,0,70,255.0,255.0,255.0
132,6.6000000000000005,10.990510650685904,-1.7156129905803357,-0.5748297566530878,0.14627420862259893,-0.064703581084926,-0.17147040496862145,0.022837950788054232,-0.009780894736197449,-0.022951664866056678,0,70,255.0,255.0,255.0
133,6.65,10.997852586002715,-1.7188593378711927,-0.5834316507926709,0.1473967529938725,-0.06512915291316546,-0.17259904681609312,0.02206382406288813,-0.007241978393380792,-0.02219400903281001,0,70,255.0,255.0,255.0
134,6.7,11.005249680879684,-1.722123790108033,-0.5920890299548359,0.14848059102888775,-0.06542777892426409,-0.17368980587190247,0.021289697337722034,-0.004703062050564135,-0.021436353199563336,0,70,255.0,255.0,255.0
135,6.75,11.0127,-1.7254,-0.6008,0.1495257227276447,-0.06559945911822186,-0.17474268213604943,0.02051557061255549,-0.002164145707747145,-0.020678697366315557,0,70,255.0,255.0,255.0
136,6.800000000000001,11.02020175026154,-1.7286837381833826,-0.6095635274398968,0.15054068097176693,-0.06577126912380638,-0.17580931468754457,0.02008275915233257,-0.004708254515632962,-0.021986604693488874,0,70,255.0,255.0,255.0
137,6.8500000000000005,11.027753707420962,-1.731979247003054,-0.6183820213915272,0.15153399864287798,-0.06607028456978516,-0.17694134260539832,0.019649947692109655,-0.007252363323518734,-0.023294512020662163,0,70,255.0,255.0,255.0
138,6.9,11.03535478944961,-1.7352928867310344,-0.6272587516232093,0.15250567574097787,-0.06649650545615823,-0.17813876588961075,0.01921713623188674,-0.009796472131404506,-0.024602419347835455,0,70,255.0,255.0,255.0
139,6.95,11.043003914318842,-1.7386310176393431,-0.636196987903261,0.15345571226606664,-0.0670499317829256,-0.17940158454018187,0.018784324771663828,-0.012340580939290278,-0.025910326675008748,0,70,255.0,255.0,255.0
140,7.0,11.0507,-1.742,-0.6452,0.15438410821814422,-0.06773056355008725,-0.1807297985571116,0.01835151331144025,-0.014884689747175495,-0.027218234002181374,0,70,255.0,255.0,255.0
141,7.050000000000001,11.058442388707784,-1.7454043517401516,-0.6542702485647437,0.15531631819786695,-0.06842786006522798,-0.1820748609203346,0.018936885877469188,-0.013007170858453172,-0.026584260526737628,0,70,255.0,255.0,255.0
142,7.1000000000000005,11.066232119630259,-1.7488412214074491,-0.6634069577808039,0.15627779680589116,-0.06903128063593258,-0.18338822460978538,0.019522258443498114,-0.011129651969730883,-0.025950287051293888,0,70,255.0,255.0,255.0
143,7.15,11.074070656198844,-1.7523059152046707,-0.6726085427144926,0.15726854404221677,-0.06954082526220105,-0.184669889625464,0.020107631009527043,-0.009252133081008593,-0.025316313575850152,0,70,255.0,255.0,255.0
144,7.2,11.081959461844953,-1.755793739334595,-0.6818734184321208,0.15828855990684385,-0.06995649394403343,-0.18591985596737037,0.02069300357555597,-0.007374614192286304,-0.024682340100406416,0,70,255.0,255.0,255.0
145,7.25,11.0899,-1.7593,-0.6912,0.1593378443997724,-0.07027828668142967,-0.1871381236355046,0.021278376141585564,-0.005497095303564126,-0.02404836662496268,0,70,255.0,255.0,255.0
146,7.300000000000001,11.09789349490733,-1.7628212548560123,-0.7005866783011293,0.16040204623675508,-0.07058129061528276,-0.18832324163111777,0.021289697337722124,-0.006623062050559707,-0.023356353199562675,0,70,255.0,255.0,255.0
147,7.3500000000000005,11.105940214058005,-1.766359067367151,-0.7100317474852574,0.16146681413354463,-0.07094059288648565,-0.1894737589554609,0.021301018533858684,-0.00774902879755527,-0.022664339774162684,0,70,255.0,255.0,255.0
148,7.4,11.114040185755016,-1.7699162524502834,-0.7195334775188209,0.16253214809014097,-0.0713561934950383,-0.19058967560853404,0.021312339729995244,-0.008874995544550832,-0.02197232634876269,0,70,255.0,255.0,255.0
149,7.45,11.12219343830135,-1.7734956250222773,-0.7290901383682562,0.16359804810654413,-0.07182809244094072,-0.19167099159033715,0.021323660926131804,-0.010000962291546393,-0.021280312923362694,0,70,255.0,255.0,255.0
150,7.5,11.1304,-1.7771,-0.7387,0.16466451418275413,-0.07235628972419295,-0.19271770690087028,0.02133498212226792,-0.011126929038541844,-0.02058829949796226,0,70,255.0,255.0,255.0
151,7.550000000000001,11.138659631662893,-1.7807314288357998,-0.7483622382307399,0.16571549685510314,-0.07289497747363886,-0.19378417255519453,0.02070432477169274,-0.010420580939294311,-0.02207032667500648,0,70,255.0,255.0,255.0
152,7.6000000000000005,11.146971024137718,-1.7843889091239478,-0.7580796522781671,0.16673494665992342,-0.07339834781812238,-0.19492473956837092,0.020073667421117575,-0.009714232840046792,-0.02355235385205067,0,70,255.0,255.0,255.0
153,7.65,11.155332600781096,-1.788070674994196,-0.7678559472102244,0.16772286359721492,-0.07386640075764353,-0.19613940794039958,0.019443010070542405,-0.009007884740799272,-0.025034381029094867,0,70,255.0,255.0,255.0
154,7.7,11.16374278494965,-1.791774960576296,-0.7776948280948546,0.16867924766697764,-0.0742991362922023,-0.1974281776712804,0.018812352719967236,-0.008301536641551751,-0.02651640820613906,0,70,255.0,255.0,255.0
155,7.75,11.1722,-1.7955,-0.7876,0.1696040988692116,-0.0746965544217987,-0.19879104876101347,0.018181695369391404,-0.007595188542304232,-0.027998435383182363,0,70,255.0,255.0,255.0
156,7.800000000000001,11.180703178441092,-1.7992442298007887,-0.7975739687759119,0.17052796634283454,-0.07507079949016347,-0.20015606814810327,0.0187730035755267,-0.007374614192286307,-0.026602340100408052,0,70,255.0,255.0,255.0
157,7.8500000000000005,11.189253289391123,-1.8030068961370582,-0.8076144434020748,0.17148139922676428,-0.07543401584102734,-0.20145128277105429,0.019364311781661987,-0.007154039842268387,-0.02520624481763377,0,70,255.0,255.0,255.0
158,7.9,11.197851811120607,-1.806787447572933,-0.8177179336402817,0.17246439752100076,-0.0757862034743903,-0.20267669262986662,0.019955619987797272,-0.006933465492250467,-0.023810149534859482,0,70,255.0,255.0,255.0
159,7.95,11.20650022190006,-1.810585332672539,-0.8278809492523256,0.17347696122554399,-0.07612736239025239,-0.20383229772454023,0.02054692819393256,-0.0067128911422325455,-0.022414054252085196,0,70,255.0,255.0,255.0
160,8.0,11.2152,-1.8144,-0.8381,0.17451909034039403,-0.07645749258861356,-0.2049180980550751,0.021138236400068067,-0.006492316792214403,-0.02101795896931069,0,70,255.0,255.0,255.0
161,8.05,11.22395245457274,-1.8182316519610457,-0.848372286665613,0.17558063777354904,-0.07682182456570749,-0.20597555485239202,0.021323660926131718,-0.008080962291542293,-0.021280312923364877,0,70,255.0,255.0,255.0
162,8.1,11.232758218297791,-1.8220835063278202,-0.8586977741135342,0.1766514564330072,-0.0772655888177678,-0.2070461293474116,0.02150908545219536,-0.009669607790870127,-0.021542666877419056,0,70,255.0,255.0,255.0
163,8.15,11.241617754736476,-1.8259595347140718,-0.8690771182286492,0.17773154631876856,-0.0777887853447945,-0.2081298215401339,0.021694509978259016,-0.011258253290198018,-0.021805020831473246,0,70,255.0,255.0,255.0
164,8.200000000000001,11.250531527450109,-1.8298637087335492,-0.8795109748958428,0.17882090743083312,-0.0783914141467876,-0.20922663143055892,0.021879934504322667,-0.012846898789525907,-0.022067374785527432,0,70,255.0,255.0,255.0
165,8.25,11.2595,-1.8338,-0.89,0.17991953976920086,-0.0790734752237471,-0.21033655901868661,0.02206535903038609,-0.014435544288853186,-0.022329728739580057,0,70,255.0,255.0,255.0
166,8.3,11.268523003267951,-1.8377707623550288,-0.9005448845616366,0.18098948256296044,-0.07973790224700732,-0.21146171244232953,0.020732352719996187,-0.012141536641555317,-0.02267640820613655,0,70,255.0,255.0,255.0
167,8.35,11.277597837417705,-1.8417718785516615,-0.9111464601437884,0.18199277504120048,-0.08028762888790263,-0.21260419983930026,0.019399346409606333,-0.009847528994257532,-0.02302308767269303,0,70,255.0,255.0,255.0
168,8.4,11.286721169933479,-1.8457976135707796,-0.921805593445122,0.18292941720392106,-0.08072265514643306,-0.21376402120959884,0.018066340099216427,-0.007553521346959663,-0.02336976713924952,0,70,255.0,255.0,255.0
169,8.450000000000001,11.295889668299504,-1.8498422323932653,-0.932523151164304,0.18379940905112216,-0.08104298102259859,-0.21494117655322525,0.016733333788826528,-0.005259513699661796,-0.023716446605806015,0,70,255.0,255.0,255.0
170,8.5,11.3051,-1.8539,-0.9433,0.18460275058280368,-0.08124860651639923,-0.21613566587017943,0.015400327478436449,-0.0029655060523634535,-0.02406312607236205,0,70,255.0,255.0,255.0
171,8.55,11.314349932355453,-1.8579668986188396,-0.9541369750878411,0.18540543197461312,-0.08144256644626402,-0.21734559537829057,0.016706928193941834,-0.0047928911422283876,-0.024334054252082776,0,70,255.0,255.0,255.0
172,8.6,11.323641632031391,-1.8620457794655347,-0.9650347853113121,0.18627344340219787,-0.08172789563062206,-0.21856907129538772,0.018013528909447175,-0.0066202762320932565,-0.02460498243180349,0,70,255.0,255.0,255.0
173,8.65,11.3329783655296,-1.86614121100281,-0.975994107990863,0.18720678486555786,-0.08210459406947336,-0.2198060936214709,0.019320129624952564,-0.008447661321958191,-0.02487591061152421,0,70,255.0,255.0,255.0
174,8.700000000000001,11.342363399351875,-1.8702577616933904,-0.9870156204469426,0.18820545636469316,-0.0825726617628179,-0.22105666235654015,0.02062673034045795,-0.010275046411823124,-0.025146838791244935,0,70,255.0,255.0,255.0
175,8.75,11.3518,-1.8744,-0.9981,0.18926945789960367,-0.08313209871065566,-0.2223207775005954,0.021933331055964844,-0.01210243150168755,-0.02541776697096565,0,70,255.0,255.0,255.0
176,8.8,11.361290867310236,-1.8785712431696133,-1.0092472150869998,0.19036478953861002,-0.083707831967936,-0.22355590604450776,0.02187993450428913,-0.010926898789525847,-0.023987374785528662,0,70,255.0,255.0,255.0
177,8.85,11.370836434456736,-1.8827698035862,-1.0204543986109629,0.19145745135003256,-0.08422478858960825,-0.22471951497914824,0.021826537952613422,-0.009751366077364185,-0.022556982600091723,0,70,255.0,255.0,255.0
178,8.9,11.380436567948115,-1.8869927424179807,-1.0317179745914264,0.1925474433338714,-0.08468296857567241,-0.22581160430451694,0.021773141400937713,-0.00857583336520248,-0.021126590414654735,0,70,255.0,255.0,255.0
179,8.950000000000001,11.390091134292998,-1.8912371208331742,-1.043034367047927,0.19363476549012637,-0.0850823719261285,-0.22683217402061376,0.021719744849262,-0.007400300653040778,-0.019696198229217747,0,70,255.0,255.0,255.0
180,9.0,11.3998,-1.8955,-1.0544,0.1947194178187976,-0.0854229986409765,-0.2277812241274387,0.021666348297586513,-0.006224767940878673,-0.018265806043780808,0,70,255.0,255.0,255.0
181,9.05,11.4095625984036,-1.8997793287027078,-1.065812564564161,0.19577540987095685,-0.0857581056819901,-0.22873478044367845,0.020573333788782906,-0.007179513699665532,-0.019876446605808406,0,70,255.0,255.0,255.0
182,9.1,11.419376630141674,-1.9040766061896646,-1.0772748202448361,0.19677675119767588,-0.08614095001094305,-0.22976886878801953,0.019480319279979338,-0.008134259458452357,-0.02148708716783595,0,70,255.0,255.0,255.0
183,9.15,11.429239362677945,-1.9083942193252676,-1.0887907936434311,0.19772344179895476,-0.08657153162783535,-0.23088348916046203,0.01838730477117573,-0.009089005217239217,-0.02309772772986355,0,70,255.0,255.0,255.0
184,9.200000000000001,11.439148063476145,-1.9127345549739139,-1.1003645113613512,0.19861548167479348,-0.08704985053266698,-0.2320786415610059,0.017294290262372124,-0.010043750976026077,-0.024708368291891148,0,70,255.0,255.0,255.0
185,9.25,11.4491,-1.9171,-1.112,0.19945287082519195,-0.08757590672543793,-0.23335432598965117,0.01620127575356789,-0.010998496734812568,-0.02631900885391847,0,70,255.0,255.0,255.0
186,9.3,11.459093139075364,-1.921492242019556,-1.1237001266563573,0.20027757097754367,-0.08810774530410383,-0.23464097218078017,0.016786730340501564,-0.010275046411822919,-0.02514683879124043,0,70,255.0,255.0,255.0
187,9.35,11.469128244976575,-1.9259101716551412,-1.1354631204096923,0.2011315438592421,-0.08860341136662023,-0.2358690098687752,0.017372184927435214,-0.009551596088833297,-0.02397466872856243,0,70,255.0,255.0,255.0
188,9.4,11.479206781340109,-1.9303519802809486,-1.1472860508348492,0.2020147894702872,-0.08906290491298714,-0.2370384390536364,0.01795763951436889,-0.008828145765843648,-0.022802498665884387,0,70,255.0,255.0,255.0
189,9.450000000000001,11.489330211802429,-1.934815859271171,-1.1591659875066707,0.20292730781067903,-0.0894862259432046,-0.2381492597353637,0.01854309410130256,-0.008104695442854,-0.021630328603206347,0,70,255.0,255.0,255.0
190,9.5,11.4995,-1.9393,-1.1711,0.20386909888041746,-0.08987337445727256,-0.23920147191395702,0.01912854868823577,-0.007381245119864488,-0.020458158540527016,0,70,255.0,255.0,255.0
191,9.55,11.509717645294948,-1.943802903219069,-1.1830861288104106,0.20484230621885588,-0.09024291310159509,-0.24025333083320063,0.01979974484930077,-0.007400300653036407,-0.021616198229217093,0,70,255.0,255.0,255.0
192,9.600000000000001,11.51998478995202,-1.9483243071897707,-1.1951262981163944,0.20584907336534758,-0.09061340452257621,-0.24136309173687875,0.02047094101036577,-0.007419356186208326,-0.02277423791790717,0,70,255.0,255.0,255.0
193,9.65,11.530303111961617,-1.9528642595509376,-1.2072234030171725,0.20688940031989247,-0.09098484872021592,-0.24253075462499135,0.021142137171430746,-0.007438411719380244,-0.023932277606597205,0,70,255.0,255.0,255.0
194,9.700000000000001,11.540674289314142,-1.957422807941403,-1.2193803386119673,0.20796328708249062,-0.09135724569451423,-0.24375631949753848,0.021813333332495747,-0.007457467252552164,-0.02509031729528728,0,70,255.0,255.0,255.0
195,9.75,11.5511,-1.962,-1.2316,0.20907073365314202,-0.09173059544547114,-0.24503978635452006,0.02248452949356028,-0.007476522785723971,-0.026248356983977317,0,70,255.0,255.0,255.0
196,9.8,11.561581079744846,-1.9665961451041685,-1.243884158102001,0.21016120414703926,-0.092120602289515,-0.2463137044864169,0.021134290262328582,-0.008123750976030207,-0.024708368291895665,0,70,255.0,255.0,255.0
197,9.850000000000001,11.572114995215346,-1.9712125995857768,-1.256230087124732,0.2111841626793749,-0.09254297054307417,-0.24751062318370967,0.01978405103109689,-0.008770979166336441,-0.023168379599814017,0,70,255.0,255.0,255.0
198,9.9,11.582698370813421,-1.9758509815153011,-1.2686339370964619,0.21213960925014894,-0.09299770020614866,-0.2486305424463983,0.01843381179986524,-0.009418207356642654,-0.02162839090773242,0,70,255.0,255.0,255.0
199,9.950000000000001,11.593327830941,-1.980512908963217,-1.2810918580454618,0.21302754385936143,-0.09348479127873845,-0.2496734622744829,0.017083572568633548,-0.01006543554694889,-0.02008840221565077,0,70,255.0,255.0,255.0
200,10.0,11.604,-1.9852,-1.2936,0.2138479665070123,-0.09400424376084351,-0.2506393826679634,0.015733333337401012,-0.010712663737254768,-0.018548413523568286,0,70,255.0,255.0,255.0
201,10.05,11.614712435725673,-1.9899133163642577,-1.306155638781586,0.21465687719298,-0.09452267774034613,-0.2515958512211326,0.016623094101306593,-0.010024695442849597,-0.01971032860320145,0,70,255.0,255.0,255.0
202,10.100000000000001,11.6254664291866,-1.9946516944671229,-1.31876055338468,0.21551027591714297,-0.0950067133051285,-0.25261041552828356,0.01751285486521217,-0.009336727148444426,-0.020872243682834614,0,70,255.0,255.0,255.0
203,10.15,11.636264204784691,-1.9994134143878588,-1.3314176485969806,0.2164081626795012,-0.09545635045519058,-0.2536830755894161,0.01840261562911772,-0.00864875885403928,-0.022034158762467733,0,70,255.0,255.0,255.0
204,10.200000000000001,11.647107986921855,-2.00419675620573,-1.3441298292061878,0.21735053748005476,-0.09587158919053242,-0.2548138314045303,0.0192923763930233,-0.007960790559634109,-0.023196073842100897,0,70,255.0,255.0,255.0
205,10.25,11.658,-2.009,-1.3569,0.21833740031880353,-0.09625242951115398,-0.2560026829736262,0.02018213715692796,-0.00727282226522874,-0.024357988921734464,0,70,255.0,255.0,255.0
206,10.3,11.66894197735246,-2.0138217894388006,-1.3697300867716558,0.21933928708104009,-0.09662068674909861,-0.2571908906290518,0.019893333332533954,-0.0074574672525564295,-0.02317031729528754,0,70,255.0,255.0,255.0
207,10.350000000000001,11.679933688038249,-2.0186622225457325,-1.3826180993365502,0.22032673365205696,-0.09699817623640963,-0.258319714703155,0.01960452950813995,-0.007642112239884119,-0.021982645668840617,0,70,255.0,255.0,255.0
208,10.4,11.690974410047811,-2.023521760933264,-1.395561068515616,0.22129974003185407,-0.09738489797308703,-0.25938915519593586,0.01931572568374595,-0.007826757227211802,-0.020794974042393735,0,70,255.0,255.0,255.0
209,10.450000000000001,11.702063421371582,-2.028400866213864,-1.4085560251297882,0.22225830622043152,-0.09778085195913082,-0.26039921210739436,0.019026921859351946,-0.008011402214539491,-0.019607302415946812,0,70,255.0,255.0,255.0
210,10.5,11.7132,-2.0333,-1.4216,0.2232024322177893,-0.09818603819454096,-0.2613498854375305,0.018738118034957285,-0.00819604720186684,-0.01841963078949993,0,70,255.0,255.0,255.0
211,10.55,11.72438365486449,-2.0382195258805402,-1.4346912141317911,0.2241459744828781,-0.09859457526326135,-0.2623125862626594,0.01900357256859442,-0.008145435546948864,-0.020088402215654645,0,70,255.0,255.0,255.0
212,10.600000000000001,11.7356148186604,-2.0431594153499475,-1.4478326492691214,0.22510278947464876,-0.09900058174923584,-0.263358725659096,0.019269027102231558,-0.008094823892030888,-0.02175717364180936,0,70,255.0,255.0,255.0
213,10.65,11.746894155024066,-2.0481195418790845,-1.4610284773405557,0.22607287719310126,-0.09940405765246445,-0.26448830362684034,0.019534481635868687,-0.008044212237112913,-0.023425945067964016,0,70,255.0,255.0,255.0
214,10.700000000000001,11.758222327591822,-2.0530997789388143,-1.4742828702746604,0.22705623763823563,-0.09980500297294714,-0.26570132016589243,0.019799936169505823,-0.007993600582194936,-0.02509471649411873,0,70,255.0,255.0,255.0
215,10.75,11.7696,-2.0581,-1.4876,0.22805287081005182,-0.10020341771068393,-0.2669977752762521,0.020065390703143837,-0.007942988927277184,-0.026763487920271167,0,70,255.0,255.0,255.0
216,10.8,11.781027403189587,-2.06312010703904,-1.5009826567011806,0.22903681498745515,-0.10060101219785661,-0.26829476432031135,0.019292376392989297,-0.007960790559629926,-0.025116073842096198,0,70,255.0,255.0,255.0
217,10.850000000000001,11.792503037320156,-2.0681601160544796,-1.5144281035869664,0.2299821084493508,-0.10099949676664693,-0.26950938266046176,0.018519362082834757,-0.00797859219198267,-0.023468659763921228,0,70,255.0,255.0,255.0
218,10.9,11.804024969855929,-2.073220071550399,-1.5279322221221614,0.23088875119573865,-0.10139887141705488,-0.27064163029670346,0.017746347772680242,-0.007996393824335413,-0.021821245685746317,0,70,255.0,255.0,255.0
219,10.950000000000001,11.815591268261135,-2.0783000180308786,-1.5414908937715714,0.2317567432266188,-0.10179913614908048,-0.2716915072290364,0.016973333462525702,-0.008014195456688156,-0.020173831607571344,0,70,255.0,255.0,255.0
220,11.0,11.8272,-2.0834,-1.5551,0.23258608454199123,-0.10220029096272369,-0.2726590134574605,0.016200319152371412,-0.008031997089040677,-0.018526417529393324,0,70,255.0,255.0,255.0
221,11.05,11.838849932377167,-2.0885200459633,-1.5687565590634875,0.2334187655672853,-0.1026013759453132,-0.273612356456094,0.01710692185939019,-0.008011402214539153,-0.01960730241594632,0,70,255.0,255.0,255.0
222,11.100000000000001,11.850542632058984,-2.093660120432136,-1.582462136383015,0.23429677672793026,-0.10300143118417762,-0.2746197436990552,0.01801352456640897,-0.00799080734003763,-0.020688187302499314,0,70,255.0,255.0,255.0
223,11.15,11.862280365552216,-2.0988201719193222,-1.5962194341707983,0.23522011802392617,-0.10340045667931695,-0.27568117518634394,0.01892012727342772,-0.007970212465536109,-0.02176907218905227,0,70,255.0,255.0,255.0
224,11.200000000000001,11.874065399363634,-2.104000148937672,-1.610031154639055,0.23618878945527302,-0.10379845243073123,-0.2767966509179604,0.019826729980446496,-0.007949617591034585,-0.022849957075605266,0,70,255.0,255.0,255.0
225,11.25,11.8859,-2.1092,-1.6239,0.2372027910219708,-0.10419541843842042,-0.2779661708939044,0.020733332687465245,-0.007929022716533174,-0.023930841962154226,0,70,255.0,255.0,255.0
226,11.3,11.89778566730174,-2.114419709107761,-1.6378279070448696,0.23821612274339596,-0.10459348402088862,-0.2791438098553113,0.01979993616954022,-0.007993600582195049,-0.023174716494121294,0,70,255.0,255.0,255.0
227,11.350000000000001,11.909720834443908,-2.119659402216977,-1.6518137508809747,0.23918278463892487,-0.10499477849663993,-0.2802836425433166,0.018866539651615194,-0.008058178447856924,-0.022418591026088366,0,70,255.0,255.0,255.0
228,11.4,11.921703167935203,-2.124919240772313,-1.6658556411946444,0.24010277670855748,-0.10539930186567432,-0.2813856689579201,0.017933143133690203,-0.008122756313518798,-0.021662465558055462,0,70,255.0,255.0,255.0
229,11.450000000000001,11.933730334284332,-2.1301993862184325,-1.67995168767221,0.24097609895229388,-0.10580705412799182,-0.2824498890991221,0.016999746615765178,-0.008187334179180673,-0.02090634009002253,0,70,255.0,255.0,255.0
230,11.5,11.9458,-2.1355,-1.6941,0.24180275137013402,-0.10621803528359239,-0.28347630296692233,0.016066350097841298,-0.008251912044842324,-0.020150214621988294,0,70,255.0,255.0,255.0
231,11.55,11.957910598415864,-2.140821117605657,-1.7082990127570346,0.24262874345914237,-0.10662468797113087,-0.28448440412266135,0.01697333346249216,-0.00801419545669648,-0.020173831607570403,0,70,255.0,255.0,255.0
232,11.600000000000001,11.970063630165384,-2.1461622706999566,-1.7225484600930878,0.24350008471638324,-0.10701945482926205,-0.2854936861276794,0.01788031682714302,-0.007776478868550633,-0.020197448593152513,0,70,255.0,255.0,255.0
233,11.65,11.982261362706971,-2.151522864991427,-1.7368484010506235,0.24441677514185667,-0.10740233585798593,-0.2865041489819765,0.01878730019179385,-0.007538762280404797,-0.02022106557873462,0,70,255.0,255.0,255.0
234,11.700000000000001,11.994506063499044,-2.156902306188598,-1.7511988946721067,0.24537881473556264,-0.10777333105730252,-0.2875157926855529,0.01969428355644471,-0.007301045692258951,-0.02024468256431673,0,70,255.0,255.0,255.0
235,11.75,12.0068,-2.1623,-1.7656,0.24638620349750115,-0.10813244042721182,-0.28852861723840817,0.020601266921095318,-0.007063329104112892,-0.020268299549897506,0,70,255.0,255.0,255.0
236,11.8,12.019144739034802,-2.1677158204696108,-1.7800520419269936,0.2473969034200397,-0.1085077640945903,-0.28955857365404564,0.019826729980446024,-0.007949617591026139,-0.020929957075599335,0,70,255.0,255.0,255.0
237,11.850000000000001,12.031539044894553,-2.173151514983198,-1.7945564087466765,0.2483688764955458,-0.10892740218631446,-0.2906216129459681,0.019052193039796727,-0.008835906077939385,-0.021591614601301164,0,70,255.0,255.0,255.0
238,11.9,12.043980981236906,-2.1786092992619808,-1.8091147546028619,0.24930212272401936,-0.10939135470238423,-0.2917177351141757,0.01827765609914746,-0.009722194564852599,-0.022253272127002968,0,70,255.0,255.0,255.0
239,11.950000000000001,12.056468611719506,-2.1840913890271763,-1.8237287336393653,0.2501966421054605,-0.1098996216427997,-0.2928469401586684,0.017503119158498164,-0.010608483051765845,-0.0229149296527048,0,70,255.0,255.0,255.0
240,12.0,12.069,-2.1896,-1.8384,0.2510524346398692,-0.11045220300756081,-0.2940092280794462,0.016728582217850008,-0.011494771538678838,-0.023576587178407493,0,70,255.0,255.0,255.0
241,12.05,12.081573645444932,-2.1951364005159015,-1.853129619534992,0.2518956428607096,-0.11099225565050719,-0.2951693012611569,0.016999746615766136,-0.010107334179176045,-0.022826340090022147,0,70,255.0,255.0,255.0
242,12.100000000000001,12.094189790256404,-2.200698069367251,-1.8679163049202092,0.2527524093014458,-0.11146293642547843,-0.29629186208844843,0.017270911013682264,-0.00871989681967325,-0.0220760930016368,0,70,255.0,255.0,255.0
243,12.15,12.106849112345408,-2.20628153796065,-1.88275818053793,0.25362273396207785,-0.11186424533247452,-0.29737691056132065,0.01754207541159838,-0.007332459460170505,-0.021325845913251477,0,70,255.0,255.0,255.0
244,12.200000000000001,12.119552289622943,-2.211883337702699,-1.8976533707704342,0.25450661684260567,-0.11219618237149546,-0.2984244466797736,0.01781323980951451,-0.0059450221006677115,-0.02057559882486613,0,70,255.0,255.0,255.0
245,12.25,12.1323,-2.2175,-1.9126,0.25540405794302934,-0.11245874754254129,-0.2994344704438072,0.018084404207432847,-0.004557584741164744,-0.019825351736480812,0,70,255.0,255.0,255.0
246,12.3,12.145092679185474,-2.223128977466783,-1.9275966799330395,0.2563005251371256,-0.1127072133033772,-0.30043622130132713,0.0177742835564155,-0.005381045692271836,-0.020244682564315757,0,70,255.0,255.0,255.0
247,12.350000000000001,12.157929794079838,-2.228771407547797,-1.94264397157249,0.2571814862986709,-0.11299685211176848,-0.3014589387002388,0.017464162905398154,-0.006204506643378928,-0.020664013392150706,0,70,255.0,255.0,255.0
248,12.4,12.170810569381464,-2.234429348895419,-1.9577429232454198,0.2580469414276654,-0.1133276639677151,-0.30250262264054223,0.017154042254380816,-0.0070279675944859895,-0.021083344219985638,0,70,255.0,255.0,255.0
249,12.450000000000001,12.18373422978873,-2.2401048601620275,-1.9728945832789004,0.25889689052410897,-0.11369964887121707,-0.3035672731222374,0.016843921603363468,-0.007851428545593082,-0.021502675047820583,0,70,255.0,255.0,255.0
250,12.5,12.1967,-2.2458,-1.9881,0.2597313335880017,-0.11411280682227438,-0.3046528901453243,0.016533800952347022,-0.008674889496700255,-0.02192200587565596,0,70,255.0,255.0,255.0
251,12.55,12.209707637813176,-2.251516489616966,-2.0033596607328517,0.2605822565907737,-0.11454689113598594,-0.30572581353353345,0.01750311915853279,-0.008688483051761842,-0.020994929652709514,0,70,255.0,255.0,255.0
252,12.600000000000001,12.222759033424248,-2.2572547004415613,-2.0186718087898345,0.26148164550385505,-0.11498165512745058,-0.30675238311059533,0.01847243736471856,-0.008702076606823428,-0.02006785342976307,0,70,255.0,255.0,255.0
253,12.65,12.235856610128733,-2.2630146664576736,-2.0340341264803916,0.26242950032724555,-0.11541709879666828,-0.3077325988765098,0.01944175557090429,-0.008715670161885014,-0.019140777206816655,0,70,255.0,255.0,255.0
254,12.700000000000001,12.249002791222145,-2.2687964216491907,-2.0494442961139665,0.2634258210609455,-0.11585322214363908,-0.30866646083127697,0.02041107377709006,-0.0087292637169466,-0.01821370098387021,0,70,255.0,255.0,255.0
255,12.75,12.2622,-2.2746,-2.0649,0.26447060770495456,-0.11629002516836294,-0.3095539689748968,0.021380391983274905,-0.00874285727200752,-0.01728662476092291,0,70,255.0,255.0,255.0
256,12.8,12.275449569561822,-2.2804250640653536,-2.0803998771355565,0.2654984484997751,-0.11670522215267971,-0.31045252456454137,0.019733239809544733,-0.007865022100662877,-0.01865559882486167,0,70,255.0,255.0,255.0
257,12.850000000000001,12.288748472223167,-2.286269790685959,-2.0959463932681746,0.266443931685909,-0.11707652737842923,-0.311419528857383,0.01808608763581456,-0.006987186929318231,-0.020024572888800433,0,70,255.0,255.0,255.0
258,12.9,12.302092590103602,-2.292131985273887,-2.1115429708330145,0.2673070572633565,-0.11740394084561152,-0.31245498185342147,0.01643893546208445,-0.006109351757973619,-0.02139354695273915,0,70,255.0,255.0,255.0
259,12.950000000000001,12.31547780532269,-2.2980094532412108,-2.127193032265237,0.2680878252321175,-0.11768746255422659,-0.3135588835526569,0.014791783288354274,-0.005231516586628974,-0.022762521016677913,0,70,255.0,255.0,255.0
260,13.0,12.3289,-2.3039,-2.1429,0.26878623559219195,-0.11792709250427443,-0.31473123395508923,0.013144631114622385,-0.0043536814152841385,-0.024131495080616627,0,70,255.0,255.0,255.0
261,13.05,12.342356483939541,-2.309802454121621,-2.158666430724925,0.26948794941014,-0.11818422025329647,-0.3159200882083002,0.014923921603299587,-0.0059314285455975835,-0.023422675047820973,0,70,255.0,255.0,255.0
262,13.100000000000001,12.355850277683091,-2.315719736814605,-2.1744914181374697,0.2702786277525219,-0.11852023535883419,-0.31707350145987134,0.01670321209197679,-0.007509175675911028,-0.022713855015025323,0,70,255.0,255.0,255.0
263,13.15,12.369385829456865,-2.321655792446779,-2.1903731901875516,0.27115827061933767,-0.11893513782088758,-0.3181914737098027,0.018482502580653926,-0.009086922806224418,-0.022005034982229693,0,70,255.0,255.0,255.0
264,13.200000000000001,12.382967587487096,-2.3276145653859692,-2.206309974825089,0.2721268780105873,-0.11942892763945664,-0.3192740049580943,0.020261793069331128,-0.010664669936537863,-0.02129621494943404,0,70,255.0,255.0,255.0
265,13.25,12.3966,-2.3336,-2.2223,0.27318444992627083,-0.12000160481454135,-0.3203210952047461,0.0220410835580096,-0.012242417066851474,-0.020587394916637525,0,70,255.0,255.0,255.0
266,13.3,12.410286094680018,-2.339614719448165,-2.238341599964745,0.27424575385964917,-0.12057389683413619,-0.3213391226022588,0.020411073777124387,-0.01064926371694197,-0.0201337009838693,0,70,255.0,255.0,255.0
267,13.350000000000001,12.42402321704448,-2.3456560620556224,-2.254433534181949,0.2752255573039833,-0.12106653118623556,-0.3223344653031331,0.018781063996239175,-0.009056110367032466,-0.019680007051101078,0,70,255.0,255.0,255.0
268,13.4,12.437807292068932,-2.351720044938997,-2.270574668416781,0.27612386025927316,-0.12147950787083944,-0.3233071233073689,0.01715105421535402,-0.0074629570171230175,-0.01922631311833287,0,70,255.0,255.0,255.0
269,13.450000000000001,12.451634244728924,-2.3578026852149145,-2.2867638684344085,0.2769406627255187,-0.12181282688794787,-0.3242570966149664,0.01552104443446881,-0.0058698036672135126,-0.018772619185564644,0,70,255.0,255.0,255.0
270,13.5,12.4655,-2.3639,-2.303,0.27767596470271994,-0.12206648823756078,-0.32518438522592535,0.013891034653583212,-0.004276650317303732,-0.018318925252797325,0,70,255.0,255.0,255.0
271,13.55,12.479401537340385,-2.3700090680857206,-2.3192823694160976,0.2783930351512684,-0.1223041924101591,-0.32611542138266225,0.014791783288353434,-0.005231516586628807,-0.018922521016678847,0,70,255.0,255.0,255.0
272,13.600000000000001,12.49334005413899,-2.376131214962908,-2.3356120451347366,0.2791551430315553,-0.12258963989622366,-0.3270766373275933,0.015692531923123657,-0.0061863828559538805,-0.019526116780560373,0,70,255.0,255.0,255.0
273,13.65,12.507317802267401,-2.382268827797234,-2.3519905361453266,0.2799622883435807,-0.12292283069575448,-0.3280680330607183,0.016593280557893848,-0.0071412491252789215,-0.020129712544441875,0,70,255.0,255.0,255.0
274,13.700000000000001,12.52133703359721,-2.388424293754374,-2.368419351437278,0.2808144710873447,-0.12330376480875156,-0.32908960858203745,0.01749402919266407,-0.008096115394603996,-0.020733308308323397,0,70,255.0,255.0,255.0
275,13.75,12.5354,-2.3946,-2.3849,0.2817116912628472,-0.12373244223521487,-0.3301413638915507,0.018394777827434705,-0.009050981663929036,-0.021336904072205343,0,70,255.0,255.0,255.0
276,13.8,12.549508555958443,-2.4007978082089547,-2.401433722370867,0.28263010553526646,-0.12417733352522667,-0.33120719186709185,0.018341793069336365,-0.008744669936542455,-0.02129621494944196,0,70,255.0,255.0,255.0
277,13.850000000000001,12.563662966399562,-2.40701747809275,-2.4180206852791075,0.28354587056978087,-0.12460690922886913,-0.3322709853864949,0.018288808311238025,-0.008438358209155875,-0.021255525826678577,0,70,255.0,255.0,255.0
278,13.9,12.577863098861457,-2.4132582438720687,-2.434660787001914,0.2844589863663903,-0.12502116934614227,-0.33333274444975974,0.018235823553139685,-0.008132046481769304,-0.021214836703915198,0,70,255.0,255.0,255.0
279,13.950000000000001,12.592108820882235,-2.4195193397675916,-2.4513539258164805,0.2853694529250948,-0.12542011387704605,-0.33439246905688647,0.018182838795041345,-0.007825734754382722,-0.021174147581151815,0,70,255.0,255.0,255.0
280,14.0,12.6064,-2.4258,-2.4681,0.2862772702458944,-0.12580374282158052,-0.33545015920787496,0.018129854036943005,-0.0075194230269954865,-0.021133458458389764,0,70,255.0,255.0,255.0
281,14.05,12.62073623882584,-2.432099699078463,-2.484898741100437,0.2871665427076796,-0.1261864734889356,-0.33649581114897353,0.01744104443446383,-0.007789803667208609,-0.02069261918555218,0,70,255.0,255.0,255.0
282,14.100000000000001,12.635116080262767,-2.4384188726660945,-2.5017492137488375,0.2880213746893408,-0.1265827231883014,-0.3375194211264302,0.01675223483198465,-0.008060184307421732,-0.020251779912714596,0,70,255.0,255.0,255.0
283,14.15,12.649537802286773,-2.4447581967144933,-2.518650315847019,0.28884176619087804,-0.12699249191967782,-0.33852098914024503,0.016063425229505497,-0.008330564947634846,-0.019810940639877025,0,70,255.0,255.0,255.0
284,14.200000000000001,12.663999682873852,-2.451118347175262,-2.5356009452968014,0.28962771721229136,-0.12741577968306486,-0.3395005151904179,0.01537461562702632,-0.008600945587847969,-0.01937010136703944,0,70,255.0,255.0,255.0
285,14.25,12.6785,-2.4575,-2.5526,0.2903792277535807,-0.12785258647846257,-0.3404579992769489,0.01468580602454761,-0.008871326228059528,-0.018929262094200983,0,70,255.0,255.0,255.0
286,14.3,12.693037688738197,-2.4639033954771943,-2.569646513227388,0.2911357236340103,-0.12827677251902916,-0.3414015635370122,0.015574029192634788,-0.00809611539460361,-0.01881330830832768,0,70,255.0,255.0,255.0
287,14.350000000000001,12.707614312549374,-2.470327031242875,-2.586740059725547,0.29193663067284426,-0.12866219801792292,-0.3423393301077817,0.016462252360721966,-0.00732090456114769,-0.018697354522454374,0,70,255.0,255.0,255.0
288,14.4,12.722232091991454,-2.476768969269959,-2.603880349610011,0.29278194887008246,-0.1290088629751439,-0.34327129898925757,0.01735047552880911,-0.006545693727691798,-0.018581400736581075,0,70,255.0,255.0,255.0
289,14.450000000000001,12.736893247622355,-2.4832272715313617,-2.6210670929963173,0.29367167822572515,-0.12931676739069212,-0.3441974701814398,0.018238698696896292,-0.0057704828942358784,-0.018465446950707773,0,70,255.0,255.0,255.0
290,14.5,12.7516,-2.4897,-2.6383,0.29460581873977204,-0.12958591126456748,-0.34511784368432835,0.019126921864982105,-0.004995272060779765,-0.018349493164833586,0,70,255.0,255.0,255.0
291,14.55,12.766353806221373,-2.4961859190127607,-2.655579205990013,0.2955385627562735,-0.12985843643494666,-0.34605793470297813,0.018182838795075082,-0.005905734754387305,-0.019254147581156924,0,70,255.0,255.0,255.0
292,14.600000000000001,12.781153069539736,-2.5026866023624064,-2.672906547348979,0.2964241026192796,-0.13017648474000623,-0.34704325844244405,0.01723875572516806,-0.0068161974479948465,-0.020158801997480262,0,70,255.0,255.0,255.0
293,14.65,12.795995429747409,-2.509204326205672,-2.6902842857129374,0.2972624383287903,-0.13054005617974612,-0.34807381490272615,0.01629467265526107,-0.007726660141602355,-0.02106345641380357,0,70,255.0,255.0,255.0
294,14.700000000000001,12.810878526636724,-2.515741366699292,-2.7077146827179317,0.2980535698848057,-0.13094915075416644,-0.34914960408382445,0.015350589585354048,-0.008637122835209895,-0.021968110830126904,0,70,255.0,255.0,255.0
295,14.75,12.8258,-2.5223,-2.7252,0.2987974972873257,-0.13140376846326712,-0.35027062598573877,0.014406506515446171,-0.009547585528817848,-0.022872765246449767,0,70,255.0,255.0,255.0
296,14.8,12.840758286376307,-2.5288817284717657,-2.7427414628125626,0.29954202534088753,-0.13185748174118375,-0.3513746976510759,0.015374615627026703,-0.008600945587847417,-0.021290101367034863,0,70,255.0,255.0,255.0
297,14.850000000000001,12.855755009291682,-2.5354849593075013,-2.760336150878542,0.30033495885002837,-0.13226386302205187,-0.3523996361224423,0.016342724738607234,-0.007654305646876986,-0.01970743748761996,0,70,255.0,255.0,255.0
298,14.9,12.870792589018903,-2.5421073259073537,-2.7779801075382404,0.3011762978147482,-0.13262291230587148,-0.3533454413998379,0.01731083385018773,-0.006707665705906589,-0.018124773608205115,0,70,255.0,255.0,255.0
299,14.950000000000001,12.88587344583075,-2.548746461671471,-2.795669376131959,0.3020660422350471,-0.13293462959264254,-0.3542121134832628,0.01827894296176826,-0.005761025764936158,-0.01654210972879021,0,70,255.0,255.0,255.0
300,15.0,12.901,-2.5554,-2.8134,0.303004192110925,-0.13319901488236507,-0.3549996523727169,0.01924705207334565,-0.004814385823966205,-0.014959445849374475,0,70,255.0,255.0,255.0
301,15.05,12.916173848273397,-2.562066367100178,-2.83116934275974,0.303941335880181,-0.13346363660032012,-0.35578727469271887,0.018238698696894658,-0.005770482894235776,-0.016545446950703126,0,70,255.0,255.0,255.0
302,15.100000000000001,12.931393293293539,-2.568747160407591,-2.848980049136857,0.30482806198061446,-0.13377606317178867,-0.3566541970677872,0.017230345320443666,-0.006726579964505346,-0.018131448052031773,0,70,255.0,255.0,255.0
303,15.15,12.946655814176978,-2.575444770164915,-2.866836084134103,0.3056643704122254,-0.13413629459677065,-0.35760041949792204,0.016221991943992712,-0.007682677034774883,-0.019717449153360368,0,70,255.0,255.0,255.0
304,15.200000000000001,12.96195889004028,-2.582161586614826,-2.8847414127542335,0.3064502611750137,-0.13454433087526613,-0.3586259419831233,0.015213638567541722,-0.008638774105044454,-0.021303450254689014,0,70,255.0,255.0,255.0
305,15.25,12.9773,-2.5889,-2.9027,0.30718573426897955,-0.1350001720072751,-0.3597307645233909,0.014205285191091654,-0.009594871175313546,-0.02288945135601672,0,70,255.0,255.0,255.0
306,15.3,12.992677520530103,-2.5956616031275246,-2.920714766148479,0.30792463113839075,-0.13545597185753797,-0.36085220357804476,0.015350589585354707,-0.008637122835201247,-0.021968110830134776,0,70,255.0,255.0,255.0
307,15.350000000000001,13.008093417534168,-2.6024447990621375,-2.938784452574033,0.30872079322751506,-0.1358638842907952,-0.36192757560640443,0.01649589397961776,-0.007679374495088948,-0.021046770304252834,0,70,255.0,255.0,255.0
308,15.4,13.02355055427318,-2.6092471934329877,-2.9569067559253477,0.3095742205363525,-0.13622390930704686,-0.36295688060847,0.01764119837388077,-0.006721626154976683,-0.020125429778370924,0,70,255.0,255.0,255.0
309,15.450000000000001,13.039051794008131,-2.616066391869225,-2.9750793728511087,0.3104849130649031,-0.1365360469062929,-0.3639401185842415,0.018786502768143823,-0.005763877814864384,-0.019204089252488978,0,70,255.0,255.0,255.0
310,15.5,13.0546,-2.6229,-2.9933,0.3114528708131669,-0.1368002970885333,-0.3648772895337189,0.01993180716240639,-0.004806129474751231,-0.01828274872660529,0,70,255.0,255.0,255.0
311,15.55,13.070196869606194,-2.6297464203897247,-3.011566792646345,0.3124081395662704,-0.13706447596952573,-0.3657959109951039,0.018278942961731978,-0.00576102576494463,-0.018462109728793412,0,70,255.0,255.0,255.0
312,15.600000000000001,13.085839436569794,-2.636607243343861,-3.029879740567013,0.3132807651093401,-0.13737639966502777,-0.3667235005065983,0.01662607876105757,-0.006715922055138029,-0.01864147073098153,0,70,255.0,255.0,255.0
313,15.65,13.101523568730295,-2.643484856103136,-3.048239292164507,0.3140707474423762,-0.1377360681750395,-0.367660058068202,0.014973214560383218,-0.007670818345331394,-0.018820831733169643,0,70,255.0,255.0,255.0
314,15.700000000000001,13.117245133927197,-2.6503816459082734,-3.0666458958413343,0.3147780865653785,-0.13814348149956093,-0.36860558367991525,0.01332035035970881,-0.008625714635524792,-0.01900019273535776,0,70,255.0,255.0,255.0
315,15.75,13.133,-2.6573,-3.0851,0.315402782478347,-0.13859863963859198,-0.3695600773417378,0.011667486159033569,-0.009580610925718602,-0.019179553737545874,0,70,255.0,255.0,255.0
316,15.8,13.148785401045119,-2.6642415153135786,-3.103602063266141,0.3160268105965124,-0.13905412426436106,-0.37052415244154335,0.013293638567580436,-0.008638774105044598,-0.01938345025467641,0,70,255.0,255.0,255.0
317,15.850000000000001,13.164604036186658,-2.6712046275624193,-3.1221525851579193,0.3167321463351051,-0.13946251704909646,-0.3714984223672054,0.014919790976127303,-0.007696937284370593,-0.01958734677180694,0,70,255.0,255.0,255.0
318,15.9,13.180459970805638,-2.678186982154471,-3.1407520754166263,0.31751878969412506,-0.13982381799279814,-0.37248288711872407,0.016545943384674112,-0.006755100463696621,-0.019791243288937468,0,70,255.0,255.0,255.0
319,15.950000000000001,13.196357270283077,-2.6851862244976816,-3.159401043783556,0.3183867406735725,-0.1401380270954661,-0.3734775466960992,0.018172095793220978,-0.005813263643022617,-0.019995139806068,0,70,255.0,255.0,255.0
320,16.0,13.2123,-2.6922,-3.1781,0.3193359992734472,-0.14040514435710041,-0.3744824010993309,0.0197982482017669,-0.004871426822349312,-0.020199036323198083,0,70,255.0,255.0,255.0
321,16.05,13.228291126213328,-2.6992267183559635,-3.1968489542890914,0.32030061804769494,-0.14067102697303055,-0.3754674792387231,0.018786502768143695,-0.005763877814855579,-0.01920408925248783,0,70,255.0,255.0,255.0
322,16.1,13.244329218683577,-2.7062678464064636,-3.215645918801314,0.3212146495502616,-0.14098153213858597,-0.3764028100245797,0.01777475733452049,-0.006656328807361847,-0.018209142181777577,0,70,255.0,255.0,255.0
323,16.150000000000002,13.260411748047161,-2.7133256152789826,-3.234488406168991,0.32207809378114705,-0.14133665985376673,-0.37728839345690085,0.016763011900897285,-0.007548779799868115,-0.017214195111067324,0,70,255.0,255.0,255.0
324,16.2,13.276536184940495,-2.720402256101001,-3.2533739290244443,0.3228909507403513,-0.14173641011857277,-0.3781242295356864,0.015751266467274153,-0.00844123079237432,-0.01621924804035714,0,70,255.0,255.0,255.0
325,16.25,13.2927,-2.7275,-3.2723,0.3236532204278744,-0.14218078293300418,-0.3789103182609366,0.01473952103365006,-0.00933368178488081,-0.01522430096964733,0,70,255.0,255.0,255.0
326,16.3,13.308901294101572,-2.734620411262569,-3.291265319577495,0.3244027172127074,-0.14262976784351455,-0.3797179306035618,0.015240350359669736,-0.008625714635533289,-0.017080192735362258,0,70,255.0,255.0,255.0
327,16.35,13.325140689079044,-2.7417623868117276,-3.3102733396368285,0.3251772554638414,-0.14304335439655752,-0.38061833753447283,0.015741179685689412,-0.007917747486185768,-0.018936084501077186,0,70,255.0,255.0,255.0
328,16.400000000000002,13.34141943700573,-2.7489241567296006,-3.329328699907414,0.3259768351812764,-0.14342154259213313,-0.38161153905366957,0.01624200901170909,-0.007209780336838248,-0.020791976266792113,0,70,255.0,255.0,255.0
329,16.45,13.357738789954942,-2.7561039510983156,-3.3484360401186657,0.3268014563650123,-0.14376433243024134,-0.382697535161152,0.01674283833772873,-0.0065018131874907785,-0.02264786803250691,0,70,255.0,255.0,255.0
330,16.5,13.3741,-2.7633,-3.3676,0.32765111901504923,-0.14407172391088216,-0.3838763258569203,0.01724366766374752,-0.0057938460381421475,-0.024503759798220504,0,70,255.0,255.0,255.0
331,16.55,13.390503697380385,-2.7705108365937607,-3.3868233674009303,0.3284885131014744,-0.1443619016529113,-0.3850367983470276,0.016252095793258977,-0.005813263643022682,-0.021915139806071213,0,70,255.0,255.0,255.0
332,16.6,13.406948025000258,-2.7777362063466287,-3.4061015226513764,0.32927632859437517,-0.14465305027518444,-0.3860678398375274,0.015260523922770435,-0.0058326812479032155,-0.01932651981392192,0,70,255.0,255.0,255.0
333,16.650000000000002,13.423430503929932,-2.7849761578026166,-3.4254279942013572,0.33001456549375147,-0.1449451697777016,-0.3869694503284198,0.014268952052281894,-0.00585209885278375,-0.01673789982177263,0,70,255.0,255.0,255.0
334,16.7,13.439948655239737,-2.7922307395057357,-3.4447963105008905,0.3307032237996033,-0.1452382601604628,-0.38774162981970467,0.013277380181793422,-0.005871516457664283,-0.014149279829623522,0,70,255.0,255.0,255.0
335,16.75,13.4565,-2.7995,-3.4642,0.3313423035119308,-0.14553232142346803,-0.3883843783113821,0.012285808311303992,-0.005890934062544373,-0.011560659837472453,0,70,255.0,255.0,255.0
336,16.8,13.473083116376886,-2.8067842423623897,-3.483634810818784,0.3319952303813945,-0.14584262554484093,-0.38903087600832775,0.013831266467243997,-0.006521230792370556,-0.014299248040353114,0,70,255.0,255.0,255.0
337,16.85,13.489700810919937,-2.814084787801759,-3.5031053697576686,0.3327254301586552,-0.14618444450270507,-0.3898143031154174,0.015376724623184,-0.007151527522196739,-0.017037836243233774,0,70,255.0,255.0,255.0
338,16.900000000000002,13.506356947274547,-2.8214032120599346,-3.522618523287162,0.3335329028437129,-0.1465577782970606,-0.39073465963265114,0.016922182779124006,-0.007781824252022922,-0.01977642444611443,0,70,255.0,255.0,255.0
339,16.95,13.523055389086103,-2.8287410908787396,-3.542181117877769,0.33441764843656757,-0.14696262692790737,-0.39179194556002883,0.018467640935063902,-0.00841212098184906,-0.022515012648994897,0,70,255.0,255.0,255.0
340,17.0,13.5398,-2.8361,-3.5618,0.3353796669372192,-0.14739899039524548,-0.39298616089755056,0.02001309909100346,-0.009042417711675244,-0.025253600851873337,0,70,255.0,255.0,255.0
341,17.05,13.556593437112076,-2.8434809939566836,-3.5814797893239345,0.3363465653729383,-0.14783559616772474,-0.39418369761966005,0.01866283833775826,-0.008421813187494322,-0.022647868032506364,0,70,255.0,255.0,255.0
342,17.1,13.57343353132,-2.850883042446336,-3.6012161983179505,0.33724595077099506,-0.14824117171399492,-0.39525094770080127,0.017312577584513062,-0.007801208663313401,-0.020042135213139394,0,70,255.0,255.0,255.0
343,17.150000000000002,13.590316906971882,-2.8583045939576466,-3.6210027126499993,0.3380778231313896,-0.14861571703405607,-0.39618791114097407,0.015962316831267864,-0.007180604139132481,-0.01743640239377242,0,70,255.0,255.0,255.0
344,17.2,13.607240188415842,-2.865744096979304,-3.6408328179880307,0.3388421824541218,-0.14895923212790815,-0.39699458794017844,0.014612056078022758,-0.006559999614951604,-0.014830669574405634,0,70,255.0,255.0,255.0
345,17.25,13.6242,-2.8732,-3.6607,0.3395390287391919,-0.1492717169955512,-0.39767097809841456,0.013261795324777115,-0.005939395090769128,-0.012224936755036886,0,70,255.0,255.0,255.0
346,17.3,13.641193535174805,-2.8806709818108773,-3.680599631885479,0.34020250812685615,-0.1495669897842618,-0.3983303335130313,0.013277380181792697,-0.005871516457655089,-0.01414927982963106,0,70,255.0,255.0,255.0
347,17.35,13.658220263800068,-2.888156642412899,-3.7005346369705325,0.34086676675737115,-0.14985886864131673,-0.3990859060813777,0.01329296503880828,-0.00580363782454105,-0.016073622904225236,0,70,255.0,255.0,255.0
348,17.400000000000002,13.675280224837923,-2.8956568121094817,-3.720509826112846,0.341531804630737,-0.1501473535667159,-0.39993769580345384,0.013308549895823862,-0.005735759191427011,-0.017997965978819412,0,70,255.0,255.0,255.0
349,17.45,13.69237345725052,-2.903171321204043,-3.7405300101701053,0.34219762174695356,-0.1504324445604594,-0.40088570267925955,0.013324134752839445,-0.005667880558312978,-0.01992230905341345,0,70,255.0,255.0,255.0
350,17.5,13.7095,-2.9107,-3.7606,0.3428642181060209,-0.1507141416225472,-0.4019299267087951,0.01333971960985414,-0.005600001925199383,-0.02184665212800585,0,70,255.0,255.0,255.0
351,17.55,13.726660422188699,-2.9182430787998075,-3.7807232831341504,0.3435634021196432,-0.15101644469522355,-0.4029909683282198,0.014627640935038074,-0.006492120981854046,-0.02059501264898083,0,70,255.0,255.0,255.0
352,17.6,13.743857413479736,-2.9258023879020696,-3.8008980537999233,0.34432698219952473,-0.15136335372073262,-0.40398942797369325,0.01591556226022201,-0.007384240038508708,-0.01934337316995581,0,70,255.0,255.0,255.0
353,17.650000000000002,13.761094193676422,-2.9333801576044283,-3.821121182898621,0.34515495834566545,-0.15175486869907442,-0.40492530564521545,0.01720348358540594,-0.00827635909516337,-0.01809173369093079,0,70,255.0,255.0,255.0
354,17.7,13.778373982582073,-2.9409786182045243,-3.841389541331545,0.3460473305580653,-0.15219098963024894,-0.4057986013427863,0.018491404910589787,-0.00916847815181797,-0.01684009421190586,0,70,255.0,255.0,255.0
355,17.75,13.7957,-2.9486,-3.8617,0.34700409883672445,-0.15267171651425623,-0.40660931506640596,0.019779326235774164,-0.01006059720847241,-0.015588454732879065,0,70,255.0,255.0,255.0
356,17.8,13.813074376070398,-2.9562455029898933,-3.882050435577921,0.3479598833945692,-0.15313523143484215,-0.40741779317408816,0.018452056078013947,-0.008479999614963086,-0.0167506695744086,0,70,255.0,255.0,255.0
357,17.85,13.830494882280993,-2.963912205978823,-3.9024427478297774,0.34884930444452583,-0.15351971647575255,-0.40828438202384687,0.017124785920253734,-0.00689940202145376,-0.017912884415938135,0,70,255.0,255.0,255.0
358,17.900000000000002,13.847958200456386,-2.971596157472807,-3.922879842292674,0.34967236198659457,-0.1538251716369875,-0.409209081615682,0.015797515762493518,-0.005318804427944434,-0.01907509925746767,0,70,255.0,255.0,255.0
359,17.95,13.865461012421187,-2.9792934059778604,-3.9433646245037126,0.3504290560207752,-0.15405159691854697,-0.4101918919495936,0.014470245604733398,-0.0037382068344352206,-0.020237314098997122,0,70,255.0,255.0,255.0
360,18.0,13.883,-2.987,-3.9639,0.3511193865470678,-0.15419899232043102,-0.4112328130255816,0.01314297544697185,-0.002157609240925451,-0.021399528940524437,0,70,255.0,255.0,255.0
361,18.05,13.900572473529706,-2.9947133092406215,-3.9844877745541694,0.35178106430206396,-0.15434662956541167,-0.4122658589754303,0.013324134752872844,-0.003747880558300465,-0.019922309053421006,0,70,255.0,255.0,255.0
362,18.1,13.918178257396292,-3.0024359881826395,-4.00512535488097,0.3524518000223551,-0.1545737803762611,-0.4132250439309238,0.013505294058773836,-0.005338151875675479,-0.018445089166317576,0,70,255.0,255.0,255.0
363,18.150000000000002,13.935817804498031,-3.0101720125043463,-4.025809047930689,0.35313159370794134,-0.15488044475297924,-0.41411036789206207,0.01368645336467483,-0.0069284231930504935,-0.01696786927921415,0,70,255.0,255.0,255.0
364,18.2,13.953491567733176,-3.017925357884035,-4.046535160653604,0.35382044535882257,-0.1552666226955661,-0.41492183085884515,0.01386761267057581,-0.008518694510425395,-0.015490649392110822,0,70,255.0,255.0,255.0
365,18.25,13.9712,-3.0257,-4.0673,0.35451835497499884,-0.15573231420402173,-0.4156594328312731,0.01404877197647636,-0.010108965827799743,-0.014013429505007391,0,70,255.0,255.0,255.0
366,18.3,13.988943729810776,-3.033498860047621,-4.088100866205407,0.3552358593971758,-0.15621425030351216,-0.4163827709241956,0.01465140491059956,-0.009168478151817969,-0.01492009421189301,0,70,255.0,255.0,255.0
367,18.35,14.00672408813383,-3.0413206412906213,-4.108939032646342,0.3559834954660588,-0.15664916201920356,-0.4171514422524624,0.015254037844722762,-0.008227990475836196,-0.01582675891877863,0,70,255.0,255.0,255.0
368,18.400000000000002,14.024542581551495,-3.0491629925098116,-4.129816765984575,0.3567612631816481,-0.1570370493510958,-0.4179654468160735,0.015856670778845963,-0.007287502799854422,-0.01673342362566425,0,70,255.0,255.0,255.0
369,18.45,14.042400716646107,-3.0570235624860005,-4.150736332881872,0.35756916254394333,-0.15737791229918896,-0.4188247846150288,0.016459303712969123,-0.006347015123872715,-0.017640088332549805,0,70,255.0,255.0,255.0
370,18.5,14.0603,-3.0649,-4.1717,0.35840719355294487,-0.15767175086348306,-0.4197294556493285,0.01706193664709099,-0.005406527447891385,-0.01854675303943587,0,70,255.0,255.0,255.0
371,18.55,14.078241407227189,-3.0727904505688954,-4.192709560624208,0.3592434981092395,-0.15794836922054112,-0.42065105732778896,0.01639024560469381,-0.00565820683443086,-0.018317314098983312,0,70,255.0,255.0,255.0
372,18.6,14.09622379006839,-3.0806950466548764,-4.213764914533663,0.3600462181134143,-0.15823757154692616,-0.42156118705922685,0.01571855456229663,-0.005909886220970335,-0.018087875158530758,0,70,255.0,255.0,255.0
373,18.650000000000002,14.114245469295994,-3.08861441745641,-4.234865488131015,0.3608153535654692,-0.15853935784263817,-0.4224598448436421,0.01504686351989945,-0.006161565607509811,-0.0178584362180782,0,70,255.0,255.0,255.0
374,18.7,14.1323047656824,-3.096549192171962,-4.25601070781891,0.36155090446540417,-0.15885372810767712,-0.4233470306810347,0.014375172477502317,-0.0064132449940492685,-0.017628997277625662,0,70,255.0,255.0,255.0
375,18.75,14.1504,-3.1045,-4.2772,0.3622528708132194,-0.15918068234204305,-0.42422274457140463,0.013703481435104248,-0.006664924380588078,-0.017399558337171328,0,70,255.0,255.0,255.0
376,18.8,14.16852984128047,-3.112467337676798,-4.298432891297765,0.36294214816586223,-0.15951227281431848,-0.42509299976463716,0.013867612670609389,-0.00659869451042927,-0.017410649392131106,0,70,255.0,255.0,255.0
377,18.85,14.186694351592616,-3.1204511720898735,-4.31970930921901,0.36363963208028033,-0.159840551793086,-0.4259638095106178,0.01403174390611453,-0.006532464640270462,-0.017421740447090883,0,70,255.0,255.0,255.0
378,18.900000000000002,14.204893941264528,-3.128451337664549,-4.341029281491373,0.3643453225564737,-0.16016551927834555,-0.4268351738093463,0.01419587514161967,-0.006466234770111654,-0.01743283150205066,0,70,255.0,255.0,255.0
379,18.95,14.223129020624294,-3.1364676688261492,-4.362392835842489,0.36505921959444226,-0.16048717527009712,-0.4277070926608228,0.014360006377124798,-0.00640000489995285,-0.01744392255701044,0,70,255.0,255.0,255.0
380,19.0,14.2414,-3.1445,-4.3838,0.3657813231941861,-0.16080551976834084,-0.4285795660650474,0.014524137612629495,-0.006333775029794264,-0.017455013611971548,0,70,255.0,255.0,255.0
381,19.05,14.259707227650935,-3.15254819872391,-4.405250874184735,0.3665079092273253,-0.16112253952218275,-0.4294569436136609,0.014539303712938966,-0.006347015123881495,-0.01764008833256794,0,70,255.0,255.0,255.0
382,19.1,14.278050803561152,-3.16061226498563,-4.426745848590301,0.36723525356548004,-0.161440221280729,-0.43034357489830416,0.01455446981324844,-0.006360255217968725,-0.017825163053164332,0,70,255.0,255.0,255.0
383,19.150000000000002,14.2964307656459,-3.168692231885395,-4.448285385903499,0.36796335620865017,-0.16175856504397962,-0.43123945991897733,0.01456963591355791,-0.006373495312055955,-0.018010237773760724,0,70,255.0,255.0,255.0
384,19.200000000000003,14.314847151820432,-3.17678813252344,-4.469869948811132,0.36869221715683587,-0.1620775708119346,-0.4321445986756803,0.014584802013867382,-0.006386735406143185,-0.01819531249435712,0,70,255.0,255.0,255.0
385,19.25,14.3333,-3.1849,-4.4915,0.36942183641003695,-0.16239723858459393,-0.43305899116841307,0.014599968114178186,-0.006399975500229527,-0.018380387214955718,0,70,255.0,255.0,255.0
386,19.3,14.351789248115795,-3.193027867427561,-4.513175611963299,0.37014621492482896,-0.16271756909695068,-0.43395922578072677,0.014375172477502304,-0.006413244994039946,-0.017628997277591187,0,70,255.0,255.0,255.0
387,19.35,14.370314434162786,-3.2011717679676064,-4.5348952964197915,0.3708593536577872,-0.16303856308399794,-0.4348218908961722,0.014150376840826422,-0.0064265144878503655,-0.016877607340226652,0,70,255.0,255.0,255.0
388,19.400000000000002,14.388874996151879,-3.2093317347938726,-4.556657174894637,0.37156125260891165,-0.1633602205457357,-0.4356469865147495,0.01392558120415054,-0.006439783981660786,-0.01612621740286212,0,70,255.0,255.0,255.0
389,19.450000000000003,14.40747037209398,-3.217507801080092,-4.578459368912987,0.37225191177820227,-0.16368254148216402,-0.43643451263645844,0.01370078556747466,-0.006453053475471205,-0.015374827465497589,0,70,255.0,255.0,255.0
390,19.5,14.4261,-3.2257,-4.6003,0.3729313311656591,-0.1640055258932828,-0.43718446926129917,0.013475989930799681,-0.006466322969280958,-0.014623437528131333,0,70,255.0,255.0,255.0
391,19.55,14.444763779885884,-3.2339083315658472,-4.62217787796207,0.37362723107335805,-0.16432718409001387,-0.43793815326342783,0.014360006377158565,-0.006400004899961642,-0.01552392255701457,0,70,255.0,255.0,255.0
392,19.6,14.463463459787707,-3.2421326631439435,-4.644094565730534,0.374367331803375,-0.16464552638327895,-0.4387368615170007,0.015244022823517448,-0.006333686830642325,-0.016424407585897808,0,70,255.0,255.0,255.0
393,19.650000000000002,14.482201249746593,-3.250372828939117,-4.666052314517962,0.3751516333557098,-0.1649605527730781,-0.4395805940220176,0.01612803926987633,-0.006267368761323009,-0.017324892614781047,0,70,255.0,255.0,255.0
394,19.700000000000003,14.500979359803653,-3.258628663156194,-4.688053375536927,0.3759801357303626,-0.16527226325941127,-0.44046935077847876,0.017012055716235215,-0.006201050692003692,-0.018225377643664283,0,70,255.0,255.0,255.0
395,19.75,14.5198,-3.2669,-4.7101,0.3768528389273333,-0.16558065784227846,-0.4414031317863841,0.017896072162594923,-0.00613473262268438,-0.019125862672548788,0,70,255.0,255.0,255.0
396,19.8,14.538664432340676,-3.275186806309052,-4.73219367618842,0.37771286078174393,-0.16589369454299893,-0.4423361611655572,0.01650480201382976,-0.00638673540613444,-0.018195312494375924,0,70,255.0,255.0,255.0
397,19.85,14.557570126686384,-3.28348957945662,-4.7543328406580745,0.3785033191287163,-0.16621933138289194,-0.44322266303582164,0.015113531865064594,-0.006638738189584499,-0.01726476231620306,0,70,255.0,255.0,255.0
398,19.900000000000002,14.576513604861757,-3.291808949449661,-4.77651516703352,0.37922421396825035,-0.1665575683619574,-0.44406263739717755,0.013722261716299429,-0.0068907409730345585,-0.016334212138030196,0,70,255.0,255.0,255.0
399,19.950000000000003,14.59549138869142,-3.3001455462951355,-4.798738328939311,0.37987554530034623,-0.1669084054801954,-0.44485608424962475,0.012330991567534266,-0.007142743756484618,-0.015403661959857332,0,70,255.0,255.0,255.0
400,20.0,14.6145,-3.3085,-4.821,0.38045731312500386,-0.16727184273760584,-0.4456030035931633,0.010939721418769643,-0.007394746539934216,-0.014473111781684977,0,70,255.0,255.0,255.0
401,20.05,14.633536890751419,-3.316872443197945,-4.843298617284253,0.381025325799661,-0.16761803773799075,-0.44634920207434287,0.011780785567513352,-0.0064530534754620875,-0.015374827465496578,0,70,255.0,255.0,255.0
402,20.1,14.652603233466758,-3.3252610190295786,-4.865635671637171,0.3816353916817552,-0.16791714808515207,-0.447140486339713,0.012621849716257063,-0.005511360410989958,-0.016276543149308178,0,70,255.0,255.0,255.0
403,20.150000000000002,14.671701130806385,-3.3336633732622403,-4.888013417347962,0.38228751077128664,-0.16816917377908977,-0.44797685638927365,0.013462913865000772,-0.0045696673465178295,-0.01717825883311978,0,70,255.0,255.0,255.0
404,20.200000000000003,14.690832685430676,-3.3420771516632675,-4.910434108705836,0.3829816830682553,-0.16837411481980386,-0.44885831222302497,0.014303978013744481,-0.0036279742820457006,-0.018079974516931382,0,70,255.0,255.0,255.0
405,20.25,14.71,-3.3505,-4.9329,0.383717908572661,-0.16853197120729432,-0.44978485384096684,0.015145042162485911,-0.00268628121757275,-0.01898169020074425,0,70,255.0,255.0,255.0
406,20.3,14.729204804653651,-3.358930620899168,-4.955412654674568,0.3844738360196283,-0.16870615450503404,-0.4507150305370767,0.015092055716205177,-0.004281050692016453,-0.018225377643648143,0,70,255.0,255.0,255.0
407,20.35,14.748447339446594,-3.3673719444250656,-4.977970872793245,0.38522711414428157,-0.16896007627649598,-0.4516073916053317,0.015039069269924443,-0.005875820166460156,-0.01746906508655204,0,70,255.0,255.0,255.0
408,20.400000000000002,14.767727471912709,-3.3758279575013797,-5.000572763574636,0.3859777429466208,-0.1692937365216801,-0.4524619370457319,0.014986082823643707,-0.007470589640903859,-0.016712752529455935,0,70,255.0,255.0,255.0
409,20.450000000000003,14.787045069585883,-3.384302647051796,-5.023216436237354,0.38672572242664593,-0.16970713524058637,-0.4532786668582773,0.014933096377362972,-0.009065359115347562,-0.015956439972359827,0,70,255.0,255.0,255.0
410,20.5,14.8064,-3.3928,-5.0459,0.38747105258435705,-0.17020027243321484,-0.45405758104296784,0.014880109931081353,-0.010660128589791373,-0.015200127415264664,0,70,255.0,255.0,255.0
411,20.55,14.825791890633981,-3.401322673205384,-5.068621964017478,0.38819933012182234,-0.17069334424187185,-0.4548226757773463,0.014250991567530394,-0.009062743756488589,-0.015403661959874974,0,70,255.0,255.0,255.0
412,20.6,14.845219408746878,-3.4098680032701596,-5.091382437189855,0.3888961517411101,-0.1711065468088637,-0.45559794723895536,0.013621873203979434,-0.007465358923185804,-0.015607196504485282,0,70,255.0,255.0,255.0
413,20.650000000000002,14.86468098154279,-3.418431996732243,-5.114181928353494,0.38956151744222034,-0.17143988013419043,-0.45638339542779494,0.012992754840428472,-0.00586797408988302,-0.01581073104909559,0,70,255.0,255.0,255.0
414,20.700000000000003,14.8841750362258,-3.4270106601295507,-5.137020946344756,0.390195427225153,-0.17169334421785204,-0.45717902034386493,0.012363636476877514,-0.004270589256580235,-0.0160142655937059,0,70,255.0,255.0,255.0
415,20.75,14.9037,-3.4356,-5.1599,0.39079788108990804,-0.17186693905984848,-0.4579848219871654,0.011734518113326597,-0.0026732044232786745,-0.016217800138315752,0,70,255.0,255.0,255.0
416,20.8,14.92325483281043,-3.444197086279296,-5.1828194892555235,0.3914008434930849,-0.17202446852748138,-0.4587942663535463,0.01238397801374794,-0.0036279742820371523,-0.016159974516919463,0,70,255.0,255.0,255.0
417,20.85,14.942840625565893,-3.4528032424942974,-5.205779378447338,0.39203627889128284,-0.1722297364880522,-0.4596008194388574,0.013033437914169284,-0.00458274414079563,-0.01610214889552317,0,70,255.0,255.0,255.0
418,20.900000000000002,14.962459001916143,-3.4614208555696506,-5.228779523011391,0.39270418728450185,-0.17248274294156096,-0.4604044812430986,0.013682897814590627,-0.005537513999554107,-0.01604432327412688,0,70,255.0,255.0,255.0
419,20.950000000000003,14.982111585510927,-3.4700523124300027,-5.251819778383631,0.39340456867274193,-0.17278348788800763,-0.4612052517662701,0.01433235771501197,-0.006492283858312586,-0.015986497652730587,0,70,255.0,255.0,255.0
420,21.0,15.0018,-3.4787,-5.2749,0.3941374230560031,-0.1731319713273922,-0.4620031310083717,0.014981817615433712,-0.007447053717070995,-0.015928672031331192,0,70,255.0,255.0,255.0
421,21.05,15.021525578124304,-3.4873657816774317,-5.298020078960433,0.394885295905823,-0.17349678164820279,-0.4628002588084639,0.01493309637736253,-0.007145359115351941,-0.015956439972358804,0,70,255.0,255.0,255.0
422,21.1,15.04128848898955,-3.4960494267526525,-5.321180049020797,0.39563073269373933,-0.17384650723892742,-0.4635987750056076,0.01488437513929135,-0.006843664513632888,-0.01598420791338642,0,70,255.0,255.0,255.0
423,21.150000000000002,15.061088610792646,-3.504750180989157,-5.344379979600945,0.3963737334197522,-0.17418114809956606,-0.46439867959980263,0.014835653901220167,-0.006541969911913834,-0.01601197585441403,0,70,255.0,255.0,255.0
424,21.200000000000003,15.080925821730496,-3.513467290150441,-5.367619940120729,0.3971142980838614,-0.1745007042301188,-0.46519997259104906,0.014786932663148986,-0.006240275310194781,-0.016039743795441642,0,70,255.0,255.0,255.0
425,21.25,15.1008,-3.5222,-5.3909,0.397852426686067,-0.17480517563058554,-0.46600265397934676,0.01473821142507692,-0.005938580708474417,-0.016067511736469253,0,70,255.0,255.0,255.0
426,21.3,15.120710854692357,-3.530947787010977,-5.414220194902745,0.3985779728836166,-0.1751084048797118,-0.4668046984126016,0.01428363647690673,-0.006190589256575899,-0.01601426559372312,0,70,255.0,255.0,255.0
427,21.35,15.140657418475904,-3.5397110504950953,-5.437580425469475,0.3992807903337577,-0.17542423455624312,-0.4676040805387191,0.013829061528736539,-0.006442597804677382,-0.015961019450976985,0,70,255.0,255.0,255.0
428,21.400000000000002,15.160638554913277,-3.548490420473725,-5.460980558584832,0.3999608790364903,-0.17575266466017953,-0.4684008003576993,0.01337448658056635,-0.006694606352778864,-0.015907773308230854,0,70,255.0,255.0,255.0
429,21.450000000000003,15.180653127567098,-3.5572865269682366,-5.48442046113346,0.40061823899181437,-0.17609369519152104,-0.4691948578695422,0.01291991163239616,-0.006946614900880346,-0.01585452716548472,0,70,255.0,255.0,255.0
430,21.5,15.2007,-3.5661,-5.5079,0.4012528701997299,-0.17644732615026754,-0.4699862530742477,0.012465336684225115,-0.007198623448981145,-0.015801281022739033,0,70,255.0,255.0,255.0
431,21.55,15.22077820310627,-3.5749310702786623,-5.531419141428587,0.4018748125597101,-0.17678959883294967,-0.4707809475411336,0.012412357714982569,-0.006492283858304127,-0.015986497652695955,0,70,255.0,255.0,255.0
432,21.6,15.24088743710683,-3.5837783712669697,-5.554978249101306,0.40249410597122814,-0.17709655453609796,-0.4715849028395173,0.012359378745740023,-0.00578594426762711,-0.016171714282652877,0,70,255.0,255.0,255.0
433,21.650000000000002,15.261027569554253,-3.592640137115947,-5.578577786059731,0.4031107504342841,-0.1773681932597124,-0.4723981189693989,0.012306399776497477,-0.005079604676950093,-0.0163569309126098,0,70,255.0,255.0,255.0
434,21.700000000000003,15.281198468001119,-3.6015146019766155,-5.602218215345438,0.4037247459488779,-0.17760451500379298,-0.4732205959307783,0.01225342080725493,-0.004373265086273075,-0.01654214754256672,0,70,255.0,255.0,255.0
435,21.75,15.3014,-3.6104,-5.6259,0.4043360925150096,-0.1778055197683397,-0.4740523337236555,0.01220044183801372,-0.003666925495595663,-0.016727364172524517,0,70,255.0,255.0,255.0
436,21.8,15.321632332882558,-3.619295131874376,-5.649623239382907,0.4049627768775397,-0.17800519978848475,-0.47487151142285555,0.012866932663187667,-0.004320275310207232,-0.016039743795476003,0,70,255.0,255.0,255.0
437,21.85,15.341896833096774,-3.6282010644370275,-5.673386578125305,0.40562278578132843,-0.17823754729936042,-0.47565630810320314,0.013533423488361614,-0.0049736251248188,-0.015352123418427491,0,70,255.0,255.0,255.0
438,21.900000000000002,15.362195166869713,-3.6371194310624912,-5.697188297176248,0.40631611922637584,-0.17850256230096664,-0.47640672376469834,0.014199914313535561,-0.005626974939430368,-0.014664503041378977,0,70,255.0,255.0,255.0
439,21.950000000000003,15.382529000428436,-3.6460518651253033,-5.721026677484795,0.407042777212682,-0.17880024479330345,-0.47712275840734103,0.014866405138709508,-0.006280324754041937,-0.013976882664330465,0,70,255.0,255.0,255.0
440,22.0,15.4029,-3.655,-5.7449,0.4078027597402468,-0.17913059477637083,-0.4778044120311313,0.015532895963882076,-0.006933674568652126,-0.013289262287282444,0,70,255.0,255.0,255.0
441,22.05,15.423309265363496,-3.6639652022238343,-5.768807101039783,0.4085620799301528,-0.17947760201310933,-0.47848500676745015,0.014839911632356175,-0.0069466149008880155,-0.01393452716547233,0,70,255.0,255.0,255.0
442,22.1,15.443755630506073,-3.6729477709849214,-5.792749038397477,0.4092867509034825,-0.17982525626645962,-0.47919786474767856,0.014146927300830272,-0.006959555233123905,-0.014579792043662217,0,70,255.0,255.0,255.0
443,22.150000000000002,15.464237362966903,-3.681947738634091,-5.816727425235283,0.40997677266023586,-0.18017355753642175,-0.4799429859718164,0.01345394296930437,-0.006972495565359793,-0.015225056921852104,0,70,255.0,255.0,255.0
444,22.200000000000003,15.484752730285155,-3.690965137522174,-5.840743874715392,0.4106321452004129,-0.18052250582299564,-0.48072037043986376,0.012760958637778468,-0.006985435897595683,-0.01587032180004199,0,70,255.0,255.0,255.0
445,22.25,15.5053,-3.7,-5.8648,0.4112528685240136,-0.1808721011261813,-0.4815300181518206,0.012067974306251283,-0.006998376229831127,-0.016515586678232275,0,70,255.0,255.0,255.0
446,22.3,15.525877805663459,-3.7090520592302867,-5.888897156457965,0.41186090340185044,-0.1812043921590836,-0.4823564615073402,0.012253420807221629,-0.006293265086260015,-0.016542147542549835,0,70,255.0,255.0,255.0
447,22.35,15.546486244878936,-3.718119851623289,-5.913035668284788,0.4124782106047358,-0.1815014276348073,-0.4831842329060756,0.012438867308191975,-0.005588153942688903,-0.016568708406867395,0,70,255.0,255.0,255.0
448,22.400000000000002,15.567125781262686,-3.727201614401148,-5.937215601882627,0.41310479013266965,-0.18176320755335248,-0.48401333234802696,0.01262431380916232,-0.00488304279911779,-0.016595269271184956,0,70,255.0,255.0,255.0
449,22.450000000000003,15.587796878430956,-3.736295584786005,-5.9614370236536445,0.4137406419856521,-0.1819897319147191,-0.4848437598331941,0.012809760310132666,-0.004177931655546679,-0.016621830135502516,0,70,255.0,255.0,255.0
450,22.5,15.6085,-3.7454,-5.9857,0.4143857661636829,-0.1821810007189071,-0.4856755153615771,0.012995206811102111,-0.00347282051197495,-0.016648390999816964,0,70,255.0,255.0,255.0
451,22.55,15.629235511982667,-3.7545137608550196,-6.010004273128356,0.41503430646243,-0.1823768293505574,-0.48648914720318154,0.012946405138781801,-0.004360324754037283,-0.015896882664358968,0,70,255.0,255.0,255.0
452,22.6,15.650003389978181,-3.7636384225219244,-6.034348288463372,0.41568040667756107,-0.18261703319431083,-0.487265203628013,0.012897603466461492,-0.0052478289960996155,-0.015145374328900974,0,70,255.0,255.0,255.0
453,22.650000000000002,15.670803511982362,-3.7727762037613197,-6.058730167234211,0.4163240668090762,-0.18290161225016738,-0.48800368463607163,0.012848801794141183,-0.006135333238161948,-0.01439386599344298,0,70,255.0,255.0,255.0
454,22.700000000000003,15.691635755991031,-3.7819293233338103,-6.083148030670033,0.4169652868569752,-0.18323056651812702,-0.48870459022735735,0.012800000121820873,-0.007022837480224281,-0.013642357657984983,0,70,255.0,255.0,255.0
455,22.75,15.7125,-3.7911,-6.1076,0.4176040668212582,-0.18360389599818977,-0.48936792040187005,0.012751198449497902,-0.00791034172228633,-0.012890849322523046,0,70,255.0,255.0,255.0
456,22.8,15.733396146405871,-3.800289697349636,-6.132084951028612,0.4182418707484392,-0.18397629043868705,-0.4900389496799343,0.012760958637742714,-0.006985435897604196,-0.013950321800046177,0,70,255.0,255.0,255.0
457,22.85,15.754324195208335,-3.809496858289015,-6.156604777861725,0.41888016268503253,-0.1843024395879502,-0.4907629525818747,0.012770718825987527,-0.006060530072922061,-0.015009794277569308,0,70,255.0,255.0,255.0
458,22.900000000000002,15.775284170807865,-3.818719170553577,-6.181162129180532,0.419518942631038,-0.18458234344597926,-0.49153992910769123,0.012780479014232338,-0.005135624248239928,-0.01606926675509244,0,70,255.0,255.0,255.0
459,22.950000000000003,15.79627609760493,-3.8279543218787597,-6.205759653666226,0.42015821058645575,-0.1848160020127742,-0.49236987925738396,0.01279023920247715,-0.0042107184235577935,-0.01712873923261557,0,70,255.0,255.0,255.0
460,23.0,15.8173,-3.8372,-6.2304,0.42079796655128565,-0.18500341528833503,-0.4932528030309527,0.01279999939071974,-0.003285812598875726,-0.01818821171013907,0,70,255.0,255.0,255.0
461,23.05,15.838355902393852,-3.8464546497464394,-6.255084722757197,0.421438210543807,-0.18519000889469536,-0.4941230540770929,0.012809760310132211,-0.004177931655537849,-0.01662183013546812,0,70,255.0,255.0,255.0
462,23.1,15.85944382918848,-3.855719744322017,-6.279811000089731,0.42207894258229894,-0.18542120845388882,-0.49491498604449957,0.012819521229544684,-0.005070050712199972,-0.015055448560797168,0,70,255.0,255.0,255.0
463,23.150000000000002,15.880563804786183,-3.8649975140243757,-6.304574916043668,0.42272016266676143,-0.18569701396591537,-0.4956285989331726,0.012829282148957155,-0.005962169768862095,-0.01348906698612622,0,70,255.0,255.0,255.0
464,23.200000000000003,15.901715853589256,-3.8742901891511563,-6.3293725546650705,0.4233618707971946,-0.18601742543077504,-0.49626389274311217,0.012839043068369627,-0.006854288825524219,-0.011922685411455268,0,70,255.0,255.0,255.0
465,23.25,15.9229,-3.8836,-6.3542,0.4240040669735984,-0.18638244284846778,-0.49682086747431814,0.012848803987780322,-0.007746407882186279,-0.010356303836781766,0,70,255.0,255.0,255.0
466,23.3,15.944116244018721,-3.8929285036646086,-6.379054557942604,0.42464528707633836,-0.18675167398252826,-0.49737283401168736,0.012800000121819543,-0.007022837480232525,-0.011722357657986501,0,70,255.0,255.0,255.0
467,23.35,15.965364488037746,-3.902274564422918,-6.403938421779353,0.42528406698578036,-0.18708472659649106,-0.4979931032401168,0.012751196255858764,-0.006299267078278771,-0.013088411479191236,0,70,255.0,255.0,255.0
468,23.400000000000002,15.986644610047412,-3.9116363733489234,-6.428855006644801,0.42592040670192427,-0.18738160069035611,-0.4986816751596065,0.012702392389897985,-0.0055756966763250175,-0.014454465300395972,0,70,255.0,255.0,255.0
469,23.450000000000003,16.007956488038047,-3.9210121215166187,-6.453807727673499,0.4265543062247702,-0.18764229626412354,-0.4994385497701564,0.012653588523937206,-0.0048521262743712636,-0.015820519121600707,0,70,255.0,255.0,255.0
470,23.5,16.0293,-3.9304,-6.4788,0.427185765554318,-0.18786681331779326,-0.5002637270717665,0.012604784657976431,-0.004128555872416673,-0.017186572942803124,0,70,255.0,255.0,255.0
471,23.55,16.050675121531263,-3.9397985355951266,-6.503834645472388,0.4278206411508302,-0.1880752951751926,-0.5011216098761528,0.012790239202510458,-0.0042107184235574925,-0.017128739232649435,0,70,255.0,255.0,255.0
472,23.6,16.072082218660537,-3.949207597986312,-6.528912112792857,0.42846478947456906,-0.188287885160149,-0.5019766009950314,0.012975693747044487,-0.004292880974698312,-0.01707090552249575,0,70,255.0,255.0,255.0
473,23.650000000000002,16.093521755024177,-3.9586273925799342,-6.554032257377133,0.4291182105255346,-0.18850458327266245,-0.5028287004284024,0.013161148291578514,-0.004375043525839132,-0.01701307181234206,0,70,255.0,255.0,255.0
474,23.700000000000003,16.114994194258543,-3.9680581247823716,-6.57919493464094,0.4297809043037269,-0.18872538951273293,-0.5036779081762657,0.013346602836112541,-0.004457206076979952,-0.01695523810218837,0,70,255.0,255.0,255.0
475,23.75,16.1365,-3.9775,-6.6044,0.4304528708091458,-0.1889503038803604,-0.5045242242386212,0.013532057380646112,-0.0045393686281200996,-0.01689740439203291,0,70,255.0,255.0,255.0
476,23.8,16.15803926985622,-3.986953353954886,-6.629646860167846,0.4311121483203695,-0.18918714531670122,-0.5053407264837078,0.012839043068300783,-0.00493428882551164,-0.015762685411428008,0,70,255.0,255.0,255.0
477,23.85,16.17961063732011,-3.9964190436318345,-6.654933127049221,0.4317367751159759,-0.18944373276291157,-0.506100492779764,0.012146028755955454,-0.005329209022903181,-0.014627966430823104,0,70,255.0,255.0,255.0
478,23.900000000000002,16.20121236985589,-4.0058980563313416,-6.6802559638466725,0.43232675119596503,-0.18972006621899154,-0.5068035231267901,0.011453014443610125,-0.005724129220294721,-0.0134932474502182,0,70,255.0,255.0,255.0
479,23.950000000000003,16.22284273492778,-4.015391379353898,-6.70561253376275,0.43288207656033695,-0.19001614568494107,-0.5074498175247859,0.010760000131264796,-0.006119049417686262,-0.012358528469613297,0,70,255.0,255.0,255.0
480,24.0,16.2445,-4.0249,-6.731,0.4334027512090915,-0.19033197116076014,-0.5080393759737514,0.01006698581891774,-0.006513969615077775,-0.01122380948901025,0,70,255.0,255.0,255.0
481,24.05,16.266182999043856,-4.034424848585331,-6.75641631385623,0.43392276556766385,-0.1906641235579969,-0.5086194841890164,0.010733588523975178,-0.006772126274392191,-0.011980519121592448,0,70,255.0,255.0,255.0
482,24.1,16.28789283205902,-4.043966627486349,-6.781862579010262,0.434476110061489,-0.19100918378819937,-0.5092374278859106,0.011400191229032616,-0.007030282933706607,-0.012737228754174644,0,70,255.0,255.0,255.0
483,24.150000000000002,16.309631165552258,-4.0535259820947,-6.807340687236182,0.43506278469056714,-0.19136715185136757,-0.5098932070644339,0.012066793934090055,-0.007288439593021024,-0.013493938386756842,0,70,255.0,255.0,255.0
484,24.200000000000003,16.331399666030332,-4.063103557802036,-6.832852530308068,0.435682789454898,-0.19173802774750148,-0.5105868217245864,0.012733396639147493,-0.007546596252335439,-0.014250648019339038,0,70,255.0,255.0,255.0
485,24.25,16.3532,-4.0727,-6.8584,0.4363361243544818,-0.1921218114766011,-0.5113182718663679,0.013399999344206659,-0.007804752911648949,-0.015007357651918518,0,70,255.0,255.0,255.0
486,24.3,16.37503353396836,-4.082315251703789,-6.883984684407237,0.4370047894089915,-0.1924763604513165,-0.5120693367602211,0.013346602836181365,-0.006377206076966171,-0.015035238102207239,0,70,255.0,255.0,255.0
487,24.35,16.39690043444381,-4.09194644642277,-6.90960695690973,0.4376707846381,-0.19275953208429772,-0.5128217956765886,0.01329320632815607,-0.0049496592422833925,-0.015063118552495959,0,70,255.0,255.0,255.0
488,24.400000000000002,16.418800567935083,-4.101590015289857,-6.935266887208605,0.43833411004180717,-0.19297132637554484,-0.5135756486154707,0.013239809820130774,-0.003522112407600614,-0.015090999002784678,0,70,255.0,255.0,255.0
489,24.450000000000003,16.440733800950902,-4.111242389437963,-6.9609645450049875,0.4389947656201131,-0.1931117433250578,-0.5143308955768672,0.01318641331210548,-0.002094565572917836,-0.015118879453073398,0,70,255.0,255.0,255.0
490,24.5,16.4627,-4.1209,-6.9867,0.4396527513730177,-0.19318078293283664,-0.515087536560778,0.013133016804078412,-0.0006670187382353809,-0.01514675990336034,0,70,255.0,255.0,255.0
491,24.55,16.484698865082713,-4.130560544599514,-7.01247294851482,0.4402980767963977,-0.19325443463673447,-0.5158231687701021,0.012680000131122153,-0.002279049417678292,-0.014278528469609407,0,70,255.0,255.0,255.0
492,24.6,16.50672943016575,-4.140226786822573,-7.038281593350816,0.44092075138612996,-0.19340868787460447,-0.516515389407739,0.012226983458165894,-0.0038910800971212038,-0.013410297035858474,0,70,255.0,255.0,255.0
493,24.650000000000002,16.52879056270743,-4.149902756745874,-7.064123763929401,0.4415207751422143,-0.1936435426464466,-0.5171641984736881,0.011773966785209635,-0.005503110776564115,-0.01254206560210754,0,70,255.0,255.0,255.0
494,24.700000000000003,16.550881130166076,-4.159592484446118,-7.089997289671991,0.44209814806465086,-0.1939589989522609,-0.5177695959679497,0.011320950112253376,-0.007115141456007027,-0.011673834168356607,0,70,255.0,255.0,255.0
495,24.75,16.573,-4.1693,-7.1159,0.4426528701534396,-0.19435505679204731,-0.5183315818905238,0.010867933439294486,-0.008727172135449601,-0.010805602734605735,0,70,255.0,255.0,255.0
496,24.8,16.595146205700804,-4.179028169898154,-7.14183072153348,0.4431949034054025,-0.19476190100174237,-0.5189099881593721,0.01081339663922014,-0.007546596252351839,-0.012330648019326262,0,70,255.0,255.0,255.0
497,24.85,16.617319444893212,-4.188775206286938,-7.167792269687008,0.44373420981736167,-0.19510971641728253,-0.5195646466924564,0.010758859839145794,-0.006366020369254077,-0.01385569330404679,0,70,255.0,255.0,255.0
498,24.900000000000002,16.63951958123521,-4.198538157726646,-7.193788457073797,0.4442707893893171,-0.19539850303866776,-0.5202955574897767,0.010704323039071447,-0.005185444486156315,-0.015380738588767316,0,70,255.0,255.0,255.0
499,24.950000000000003,16.661746478384806,-4.208314072777569,-7.219823096307057,0.44480464212126886,-0.19562826086589813,-0.5211027205513331,0.010649786238997103,-0.004004868603058553,-0.016905783873487845,0,70,255.0,255.0,255.0
500,25.0,16.684,-4.2181,-7.2459,0.4453357680132167,-0.1957989898989736,-0.5219861358771254,0.010595249438921428,-0.0028242927199597645,-0.018430829158207374,0,70,255.0,255.0,255.0
501,25.05,16.70628031211407,-4.227893975807871,-7.27202176535126,0.4458823095819925,-0.1959699613562954,-0.5228728785924077,0.011266413312109523,-0.004014565572913415,-0.017038879453085423,0,70,255.0,255.0,255.0
502,25.1,16.728588790261426,-4.237697988029674,-7.298186127901154,0.4464624093444277,-0.19620044645626494,-0.523690023822434,0.011937577185297617,-0.005204838425867065,-0.015646929747963473,0,70,255.0,255.0,255.0
503,25.150000000000002,16.750927112351746,-4.247515012347542,-7.324389607775418,0.4470760673005223,-0.19649044519888212,-0.524437571567204,0.012608741058485712,-0.006395111278820715,-0.014254980042841522,0,70,255.0,255.0,255.0
504,25.200000000000003,16.773296956294708,-4.257348024443606,-7.350628725099787,0.4477232834502763,-0.19683995758414702,-0.5251155218267181,0.013279904931673808,-0.007585384131774365,-0.01286303033771957,0,70,255.0,255.0,255.0
505,25.25,16.7957,-4.2672,-7.3769,0.44840405779368964,-0.19724898361205953,-0.5257238746009761,0.013951068804861855,-0.008775656984728153,-0.011471080632600383,0,70,255.0,255.0,255.0
506,25.3,16.818137345842903,-4.277072726870363,-7.403200617061481,0.4490838582666174,-0.1976462535730779,-0.5263024974710001,0.013240950112248118,-0.0071151414560073995,-0.011673834168357369,0,70,255.0,255.0,255.0
507,25.35,16.840607794061086,-4.286963241594367,-7.429530418708381,0.44972815280491446,-0.19796049775766028,-0.5268912580178119,0.012530831419634382,-0.005454625927286646,-0.011876587704114356,0,70,255.0,255.0,255.0
508,25.400000000000002,16.863109569357817,-4.296867392883189,-7.455889911824542,0.4503369414085808,-0.19819171616580658,-0.5274901562414115,0.011820712727020646,-0.0037941103985658937,-0.012079341239871342,0,70,255.0,255.0,255.0
509,25.450000000000003,16.885640896436367,-4.3067810294480084,-7.482279603293803,0.45091022407761655,-0.1983399087975169,-0.5280991921417991,0.011110594034406911,-0.0021335948698451403,-0.012282094775628328,0,70,255.0,255.0,255.0
510,25.5,16.9082,-4.3167,-7.5087,0.4514480008120215,-0.19840507565279114,-0.5287183657189745,0.010400475341791449,-0.0004730793411256151,-0.012484848311386187,0,70,255.0,255.0,255.0
511,25.55,16.93078550451432,-4.326621516710675,-7.535151766402822,0.45197425735154123,-0.19846902435139543,-0.5293571315235961,0.010649786238995599,-0.0020848686030457537,-0.013065783873478062,0,70,255.0,255.0,255.0
512,25.6,16.953397633494237,-4.336548245592858,-7.561636197265329,0.45251297943592106,-0.19861356251309573,-0.5300249441063223,0.01089909713619975,-0.003696657864965892,-0.013646719435569938,0,70,255.0,255.0,255.0
513,25.650000000000002,16.976037010216995,-4.346484216119704,-7.588154744926424,0.45306416706516117,-0.19883869013789202,-0.530721803467153,0.0111484080334039,-0.005308447126886031,-0.014227654997661812,0,70,255.0,255.0,255.0
514,25.700000000000003,16.998704257959837,-4.356433457764366,-7.614708861725013,0.4536278202392615,-0.19914440722578433,-0.5314477096060886,0.01139771893060805,-0.006920236388806169,-0.014808590559753688,0,70,255.0,255.0,255.0
515,25.75,17.0214,-4.3664,-7.6413,0.454203938958222,-0.19953071377677264,-0.5322026625231285,0.011647029827809519,-0.008532025650726416,-0.015389526121848185,0,70,255.0,255.0,255.0
516,25.8,17.044124636099824,-4.376386806286936,-7.667929117327233,0.45477911232720913,-0.1999336490213356,-0.5329569764346176,0.011359904931677529,-0.007585384131791027,-0.01478303033771712,0,70,255.0,255.0,255.0
517,25.85,17.066877671961976,-4.386392576034201,-7.6945951922303095,0.45533992945138974,-0.20028925218995175,-0.5336809655569003,0.01107278003554554,-0.006638742612855637,-0.014176534553586057,0,70,255.0,255.0,255.0
518,25.900000000000002,17.089658389774215,-4.396414942637999,-7.72129670846977,0.4558863903307637,-0.20059752328262115,-0.5343746298899762,0.010785655139413552,-0.005692101093920247,-0.013570038769454992,0,70,255.0,255.0,255.0
519,25.950000000000003,17.112466071724306,-4.406451539494531,-7.748032149806154,0.4564184949653311,-0.2008584622993438,-0.5350379694338457,0.010498530243281562,-0.004745459574984858,-0.012963542985323926,0,70,255.0,255.0,255.0
520,26.0,17.1353,-4.4165,-7.7748,0.4569362433550918,-0.20107206924011964,-0.5356709841885086,0.010211405347148261,-0.0037988180560495355,-0.012357047201188465,0,70,255.0,255.0,255.0
521,26.05,17.158159951086397,-4.4265584581415816,-7.8015989642882495,0.45746929333963066,-0.2012683795632669,-0.536286962737929,0.011110594034406519,-0.004053594869841296,-0.012282094775627427,0,70,255.0,255.0,255.0
522,26.1,17.18104767865787,-4.436627050270339,-7.828428633813439,0.4580473027585325,-0.20147742872710378,-0.5368991936660714,0.012009782721664778,-0.004308371683633057,-0.01220714235006639,0,70,255.0,255.0,255.0
523,26.150000000000002,17.203965430686157,-4.446706413328304,-7.855288821194503,0.4586702716117972,-0.20169921673163022,-0.5375076769729357,0.012908971408923036,-0.004563148497424818,-0.01213218992450535,0,70,255.0,255.0,255.0
524,26.200000000000003,17.226915455142954,-4.456797184257513,-7.882179339050378,0.45933819989942476,-0.20193374357684626,-0.5381124126585218,0.013808160096181295,-0.004817925311216579,-0.012057237498944313,0,70,255.0,255.0,255.0
525,26.25,17.2499,-4.4669,-7.9091,0.4600510876214152,-0.20218100926275184,-0.5387134007228301,0.014707348783439045,-0.005072702125006767,-0.011982285073384169,0,70,255.0,255.0,255.0
526,26.3,17.27292035955461,-4.477015361146736,-7.936051025519769,0.46075171431426626,-0.20243283272559684,-0.5393351726136592,0.013317718930602832,-0.005000236388793232,-0.012888590559777504,0,70,255.0,255.0,255.0
527,26.35,17.295974013406546,-4.487143222884446,-7.963034272515938,0.46138285951447555,-0.20268103290163117,-0.5400022597788079,0.011928089077766617,-0.0049277706525796975,-0.013794896046170839,0,70,255.0,255.0,255.0
528,26.400000000000002,17.31905748748118,-4.497283404048786,-7.990052006752222,0.46194452322204294,-0.20292560979085483,-0.5407146622182762,0.010538459224930404,-0.004855304916366162,-0.014701201532564174,0,70,255.0,255.0,255.0
529,26.450000000000003,17.34216730770388,-4.507435723475419,-8.017106493992339,0.4624367054369686,-0.2031665633932678,-0.5414723799320643,0.00914882937209419,-0.004782839180152628,-0.015607507018957507,0,70,255.0,255.0,255.0
530,26.5,17.3653,-4.5176,-8.0442,0.46285940615925236,-0.20340389370887008,-0.542275412920172,0.007759199519256299,-0.004710373443939542,-0.016513812505349,0,70,255.0,255.0,255.0
531,26.55,17.388453010695166,-4.527776097271469,-8.071333733632674,0.4632678494033159,-0.20364028953434363,-0.5430603468074383,0.008578530243284643,-0.004745459575002453,-0.014883542985299213,0,70,255.0,255.0,255.0
532,26.6,17.411627467715938,-4.537964058191878,-8.098504676122811,0.46371725918358087,-0.20387843966637034,-0.5437637672187019,0.00939786096731299,-0.004780545706065366,-0.013253273465249425,0,70,255.0,255.0,255.0
533,26.650000000000002,17.434825419389128,-4.5481639704765495,-8.125708751796612,0.46420763550004723,-0.20411834410495017,-0.5443856741539632,0.010217191691341334,-0.004815631837128277,-0.011623003945199637,0,70,255.0,255.0,255.0
534,26.700000000000003,17.458048914041548,-4.558375921840815,-8.152941884980276,0.464738978352715,-0.20436000285008318,-0.5449260676132219,0.011036522415369678,-0.00485071796819119,-0.009992734425149849,0,70,255.0,255.0,255.0
535,26.75,17.4813,-4.5686,-8.1802,0.4653112877415841,-0.20460341590176928,-0.5453849475964782,0.011855853139396633,-0.0048858040992540985,-0.008362464905100175,0,70,255.0,255.0,255.0
536,26.8,17.504580397664736,-4.578836249767384,-8.207480439949535,0.46590488807247193,-0.20484600913703105,-0.5458474401565798,0.01188816009611715,-0.00481792531121572,-0.010137237498967114,0,70,255.0,255.0,255.0
537,26.85,17.527890515729712,-4.589084544348047,-8.23478622299282,0.4665001037511958,-0.20508520843289085,-0.5463986713463749,0.01192046705283767,-0.004750046523177341,-0.011912010092834054,0,70,255.0,255.0,255.0
538,26.900000000000002,17.55123043496232,-4.599344714045016,-8.262121786061336,0.4670969347777557,-0.20532101378934878,-0.5470386411658633,0.011952774009558189,-0.004682167735138962,-0.013686782686700991,0,70,255.0,255.0,255.0
539,26.950000000000003,17.574600236129953,-4.609616589161326,-8.289491566086568,0.46769538115215165,-0.20555342520640477,-0.5477673496150449,0.011985080966278707,-0.004614288947100583,-0.01546155528056793,0,70,255.0,255.0,255.0
540,27.0,17.598,-4.6199,-8.3169,0.4682954428743836,-0.20578244268405885,-0.54858479669392,0.01201738792299789,-0.004546410159062875,-0.01723632787444007,0,70,255.0,255.0,255.0
541,27.05,17.621429398645894,-4.630194903658994,-8.344350106569184,0.4688725983067625,-0.20601567391753883,-0.5494058925662546,0.01106882937215675,-0.004782839180135893,-0.015607507018941801,0,70,255.0,255.0,255.0
542,27.1,17.64488646936522,-4.640501764415939,-8.371839231905915,0.4694023258115993,-0.20626072660207243,-0.5501455473958142,0.010120270821315608,-0.005019268201208911,-0.01397868616344353,0,70,255.0,255.0,255.0
543,27.150000000000002,17.668368840761595,-4.650821173343386,-8.399363303958053,0.46988462538889403,-0.2065176007376597,-0.550803761182599,0.009171712270474468,-0.005255697222281929,-0.01234986530794526,0,70,255.0,255.0,255.0
544,27.200000000000003,17.691874141438646,-4.661153721513889,-8.42691825067346,0.4703194970386468,-0.20678629632430065,-0.5513805339266088,0.008223153719633326,-0.005492126243354947,-0.010721044452446989,0,70,255.0,255.0,255.0
545,27.25,17.7154,-4.6715,-8.4545,0.47070694076085734,-0.2070668133619952,-0.5518758656278437,0.007274595168789144,-0.005728555264428392,-0.009092223596951499,0,70,255.0,255.0,255.0
546,27.3,17.738945207751687,-4.68186013559664,-8.482105533773733,0.47111671870046307,-0.2073312951928107,-0.5523529895783963,0.009116522415440835,-0.004850717968191219,-0.00999273442514942,0,70,255.0,255.0,255.0
547,27.35,17.76251320680942,-4.692232397988201,-8.50973604938353,0.47161859300240144,-0.20755188515881431,-0.5528751390703587,0.010958449662092525,-0.003972880671954046,-0.010893245253347342,0,70,255.0,255.0,255.0
548,27.400000000000002,17.7861086019913,-4.702614592581442,-8.53739379810646,0.47221256366667236,-0.20772858326000612,-0.553442314103731,0.012800376908744217,-0.003095043375716873,-0.011793756081545264,0,70,255.0,255.0,255.0
549,27.450000000000003,17.809735998115457,-4.713004524783122,-8.565081031219593,0.47289863069327587,-0.20786138949638602,-0.5540545146785132,0.014642304155395906,-0.0022172060794797,-0.012694266909743186,0,70,255.0,255.0,255.0
550,27.5,17.8334,-4.7234,-8.5928,0.4736767940822119,-0.2079503038679541,-0.5547117407947053,0.016484231402047467,-0.0013393687832414791,-0.013594777737939268,0,70,255.0,255.0,255.0
551,27.55,17.85710337034735,-4.733799753954444,-8.620552558335884,0.47443652689141824,-0.2080511453112132,-0.5553901491201682,0.013905080966206337,-0.002694288947121867,-0.013541555280573192,0,70,255.0,255.0,255.0
552,27.6,17.880841503397114,-4.7442062436312575,-8.648338970559971,0.47506730217883253,-0.20821973276266628,-0.5560658963227627,0.011325930530365208,-0.004049209111002255,-0.013488332823207116,0,70,255.0,255.0,255.0
553,27.650000000000002,17.904607951273203,-4.754622856330848,-8.676159103616113,0.47556911994445483,-0.2084560662223134,-0.5567389824024889,0.008746780094524077,-0.005404129274882643,-0.013435110365841038,0,70,255.0,255.0,255.0
554,27.700000000000003,17.92839626609953,-4.7650529793536265,-8.704012824448172,0.475941980188285,-0.20876014569015455,-0.5574094073593469,0.006167629658682948,-0.006759049438763031,-0.013381887908474962,0,70,255.0,255.0,255.0
555,27.75,17.9522,-4.7755,-8.7319,0.4761858829103231,-0.2091319711661897,-0.5580771711933362,0.003588479222841112,-0.008113969602642879,-0.013328665451106225,0,70,255.0,255.0,255.0
556,27.8,17.97601491085892,-4.78596644858558,-8.759820232882733,0.47643317373388333,-0.20952012356233954,-0.558726413940925,0.0063031537195678165,-0.007412126243350671,-0.012641044452444019,0,70,255.0,255.0,255.0
557,27.85,17.999845579602137,-4.796451427486769,-8.787772068376594,0.4768161982822799,-0.20987318379052478,-0.5593412756385807,0.00901782821629452,-0.006710282884058463,-0.011953423453781812,0,70,255.0,255.0,255.0
558,27.900000000000002,18.023698792915894,-4.8069531820951665,-8.815753787429092,0.47733495655551283,-0.21019115185074538,-0.5599217562863033,0.011732502713021224,-0.006008439524766255,-0.011265802455119604,0,70,255.0,255.0,255.0
559,27.950000000000003,18.047581337486438,-4.817469957802377,-8.843763670987725,0.477989448553582,-0.21047402774300142,-0.5604678558840926,0.01444717720974793,-0.005306596165474047,-0.010578181456457397,0,70,255.0,255.0,255.0
560,28.0,18.0715,-4.828,-8.8718,0.47877967427648754,-0.21072181146729277,-0.5609795744319489,0.01716185170647444,-0.0046047528061803344,-0.009890560457795239,0,70,255.0,255.0,255.0
561,28.05,18.09545938621698,-4.8385416517032365,-8.899861710133191,0.479574778173036,-0.21094036043943373,-0.5614961951161375,0.014642304155464156,-0.004137206079457505,-0.010774266909747445,0,70,255.0,255.0,255.0
