idx,t,px,py,pz,vx,vy,vz,ax,ay,az,yaw,mode,ledr,ledg,ledb
0,0.0,-7.5,10.5,0.0,0.0013584474428032945,-0.00024500282676753315,0.0030261849402875747,-0.02990136931366468,-0.005859966078740671,-0.0731142192834509,0,70,255.0,255.0,255.0
1,0.05,-7.499969495892059,10.499979979898235,6.01426578503527e-05,-0.00013911417631154622,-0.0005647013003110171,-0.000615954927467716,-0.030001095450928945,-0.006927972862998686,-0.07257137542676072,0,70,255.0,255.0,255.0
2,0.1,-7.500013994522746,10.499942639864315,-6.114312286619642e-05,-0.0016416621022896,-0.0009378001130674017,-0.004230952602388498,-0.030100821588193206,-0.0079959796472567,-0.07202853157007054,0,70,255.0,255.0,255.0
3,0.15000000000000002,-7.500133745207402,10.499885309881275,-0.00036250023250792207,-0.0031491963351308674,-0.001364299265036687,-0.007818808084474771,-0.03020054772545747,-0.009063986431514714,-0.07148568771338036,0,70,255.0,255.0,255.0
4,0.2,-7.500328997261372,10.499805319932157,-0.0008425715614330983,-0.004661716874835347,-0.0018441987562188731,-0.011379521373726534,-0.03030027386272173,-0.010131993215772728,-0.07094284385669018,0,70,255.0,255.0,255.0
5,0.25,-7.5006,10.4997,-0.0015,-0.00617922372140304,-0.0023774985866139597,-0.014913092470143788,-0.030399999999985987,-0.011200000000030737,-0.07040000000000007,0,70,255.0,255.0,255.0
6,0.30000000000000004,-7.500947002738627,10.499566680067842,-0.0023334284385669027,-0.007701716874833947,-0.0029641987562219474,-0.018419521373726537,-0.030499726137250254,-0.012268006784288753,-0.06985715614330987,0,70,255.0,255.0,255.0
7,0.35000000000000003,-7.501370254792598,10.499402690118725,-0.00334149976749208,-0.009229196335128066,-0.0036042992650428354,-0.021898808084474777,-0.03059945227451452,-0.01333601356854677,-0.06931431228661965,0,70,255.0,255.0,255.0
8,0.4,-7.5018700054772545,10.499205360135687,-0.004522856877133805,-0.010761662102285399,-0.0042978001130766245,-0.025350952602388503,-0.030699178411778785,-0.014404020352804785,-0.06877146842992944,0,70,255.0,255.0,255.0
9,0.45,-7.50244650410794,10.498972020101762,-0.005876142657850353,-0.012299114176305944,-0.005044701300323314,-0.02877595492746772,-0.030798904549043053,-0.015472027137062801,-0.06822862457323922,0,70,255.0,255.0,255.0
10,0.5,-7.5031,10.4987,-0.0074,-0.013841552557189702,-0.005845002826782904,-0.032173815059712424,-0.03089863068630734,-0.016540033921320814,-0.06768578071654885,0,70,255.0,255.0,255.0
11,0.55,-7.503830493153432,10.498387699830394,-0.009093628903582748,-0.01537401832434789,-0.006634503674814764,-0.03557795957762615,-0.030400000000020112,-0.01503999999995358,-0.06847999999999992,0,70,255.0,255.0,255.0
12,0.6000000000000001,-7.5046369863068625,10.498037799660787,-0.010958457807165495,-0.016881552557191717,-0.007349002826778263,-0.03902181505971242,-0.029901369313732887,-0.013539966078586345,-0.06927421928345098,0,70,255.0,255.0,255.0
13,0.65,-7.505518232883579,10.497654049575981,-0.012996472258956863,-0.018364155255721177,-0.0079885002826734,-0.04250538150597124,-0.02940273862744566,-0.012039932157219114,-0.07006843856690206,0,70,255.0,255.0,255.0
14,0.7000000000000001,-7.506472986306863,10.497240199660785,-0.015209657807165494,-0.019821826419936284,-0.008552996042500174,-0.04602865891640263,-0.02890410794115843,-0.010539898235851879,-0.07086265785035313,0,70,255.0,255.0,255.0
15,0.75,-7.5075,10.4968,-0.0176,-0.021254566049837022,-0.009042490106258587,-0.049591647291006555,-0.028405477254871275,-0.009039864314484627,-0.0716568771338042,0,70,255.0,255.0,255.0
16,0.8,-7.508598224647648,10.496336120610586,-0.020168855947102122,-0.02267420982777696,-0.00952178654451502,-0.053156640315768916,-0.028380273862726218,-0.010131993215772715,-0.07094284385669018,0,70,255.0,255.0,255.0
17,0.8500000000000001,-7.509767399979951,10.49584691123813,-0.02291506900384597,-0.024092593436109647,-0.010055689427835858,-0.05668593167667558,-0.02835507047058116,-0.011224122117060802,-0.07022881057957617,0,70,255.0,255.0,255.0
18,0.9,-7.511007462988432,10.495329641560383,-0.025836854087038754,-0.025509716874835078,-0.0106441987562211,-0.060179521373726536,-0.028329867078436106,-0.012316251018348887,-0.06951477730246217,0,70,255.0,255.0,255.0
19,0.9500000000000001,-7.512318350664608,10.494781581255092,-0.028932426113487692,-0.026925580143953257,-0.011287314529670748,-0.0636374094069218,-0.02830466368629105,-0.013408379919636974,-0.06880074402534815,0,70,255.0,255.0,255.0
20,1.0,-7.5137,10.4942,-0.0322,-0.02834018324346418,-0.011985036748184798,-0.06705959577626135,-0.02827946029414599,-0.01450050882092506,-0.06808671074823403,0,70,255.0,255.0,255.0
21,1.05,-7.51515260825598,10.493583017727266,-0.03563814730800878,-0.02976914236454359,-0.012686350147134607,-0.07046747915929819,-0.028878904549030467,-0.013552027137067275,-0.06822862457323915,0,70,255.0,255.0,255.0
22,1.1,-7.516677413773333,10.492932155386688,-0.039246866177450664,-0.031228073698367227,-0.013340239461891525,-0.07388245823358527,-0.02947834880391494,-0.012603545453209493,-0.06837053839824428,0,70,255.0,255.0,255.0
23,1.1500000000000001,-7.518275915162697,10.492249784182478,-0.04302651139288815,-0.03271697724493509,-0.013946704692455557,-0.0773045329991226,-0.030077793058799415,-0.01165506376935171,-0.06851245222324939,0,70,255.0,255.0,255.0
24,1.2000000000000002,-7.519949611034707,10.491538275318845,-0.04697743773888377,-0.034235853004247176,-0.0145057458388267,-0.08073370345591022,-0.030677237313683887,-0.010706582085493925,-0.06865436604825452,0,70,255.0,255.0,255.0
25,1.25,-7.5217,10.4908,-0.0511,-0.03578470097630347,-0.01501736290100495,-0.08416996960394806,-0.03127668156856822,-0.009758100401636216,-0.06879627987325898,0,70,255.0,255.0,255.0
26,1.3,-7.5235281423284315,10.49003660848035,-0.055394554820862765,-0.03733722071404695,-0.0155248128669413,-0.08761344304703836,-0.03082410794117101,-0.010539898235817791,-0.06894265785035303,0,70,255.0,255.0,255.0
27,1.35,-7.525433344926715,10.489246867215112,-0.059861466286351424,-0.03886711177042058,-0.01607135272458673,-0.09106423538898337,-0.030371534313773794,-0.011321696069999367,-0.06908903582744708,0,70,255.0,255.0,255.0
28,1.4000000000000001,-7.527414476360784,10.488428821709697,-0.06450110034140868,-0.04037437414542434,-0.01665698247394124,-0.09452234662978308,-0.029918960686376582,-0.012103493904180942,-0.06923541380454112,0,70,255.0,255.0,255.0
29,1.4500000000000002,-7.529470405196568,10.487580517469521,-0.06931382293097732,-0.041859007839058236,-0.017281702115004828,-0.09798777676943748,-0.02946638705897937,-0.012885291738362517,-0.06938179178163517,0,70,255.0,255.0,255.0
30,1.5,-7.5316,10.4867,-0.0743,-0.04332101285132226,-0.01794551164777749,-0.10146052580794658,-0.029013813431582103,-0.013667089572544033,-0.069528169758729,0,70,255.0,255.0,255.0
31,1.55,-7.5338020224302955,10.485785748351335,-0.07945963340854018,-0.044753974779269096,-0.018622398385083717,-0.10491874865254851,-0.028304663686291087,-0.013408379919705149,-0.06880074402534794,0,70,255.0,255.0,255.0
32,1.6,-7.536074806519806,10.48483797575287,-0.0847912686771437,-0.04615147921995137,-0.019286349639748006,-0.10834060021048139,-0.02759551394100007,-0.013149670266866264,-0.0680733182919669,0,70,255.0,255.0,255.0
33,1.6500000000000001,-7.538416579394169,10.483857328978736,-0.09029308724147718,-0.047513526173369104,-0.019937365411770346,-0.11172608048174519,-0.026886364195709056,-0.01289096061402738,-0.06734589255858585,0,70,255.0,255.0,255.0
34,1.7000000000000002,-7.540825568179021,10.48284445480307,-0.09596327053720709,-0.04884011563952228,-0.020575445701150746,-0.11507518946633997,-0.026177214450418037,-0.012632250961188494,-0.0666184668252048,0,70,255.0,255.0,255.0
35,1.75,-7.5433,10.4818,-0.1018,-0.0501312476184109,-0.021200590507889194,-0.11838792716426567,-0.025468064705127025,-0.012373541308349667,-0.06589104109182331,0,70,255.0,255.0,255.0
36,1.8,-7.54583896795039,10.480724398114313,-0.10780211154497658,-0.05143888016888098,-0.021825593592734324,-0.12170356234276762,-0.026837237313675724,-0.012626582085455418,-0.0667343660482542,0,70,255.0,255.0,255.0
37,1.85,-7.548445028994062,10.479617229773412,-0.11397105900507379,-0.05281497134977848,-0.022463248716434736,-0.1250613637690911,-0.02820640992222442,-0.012879622862561169,-0.0675776910046851,0,70,255.0,255.0,255.0
38,1.9000000000000001,-7.551121606062541,10.478477862375355,-0.12030895069268273,-0.05425952116110342,-0.02311355587899044,-0.12846133144323613,-0.02957558253077312,-0.01313266363966692,-0.06842101596111598,0,70,255.0,255.0,255.0
39,1.9500000000000002,-7.553872122087347,10.477305663318198,-0.12681789492019443,-0.05577252960285579,-0.02377651508040143,-0.1319034653652027,-0.030944755139321815,-0.01338570441677267,-0.06926434091754688,0,70,255.0,255.0,255.0
40,2.0,-7.5567,10.4761,-0.1335,-0.057353996675035594,-0.024452126320667705,-0.1353877655349908,-0.03231392774787062,-0.013638745193878532,-0.07010766587397765,0,70,255.0,255.0,255.0
41,2.0500000000000003,-7.559607705768149,10.474860659191414,-0.1403567204115536,-0.058946504545206745,-0.025115227243973734,-0.13887500197638114,-0.03138638705897488,-0.01288529173836252,-0.06938179178163532,0,70,255.0,255.0,255.0
42,2.1,-7.5625938775039465,10.473589105153483,-0.14738689530256116,-0.06049263538093309,-0.025740655494503956,-0.14232594471315432,-0.03045884637007915,-0.012131838282846518,-0.068655917689293,0,70,255.0,255.0,255.0
43,2.15,-7.565656196355669,10.472287221519842,-0.154588709987792,-0.06199238918221464,-0.026328411072258383,-0.14574059374531043,-0.02953130568118342,-0.011378384827330513,-0.06793004359695068,0,70,255.0,255.0,255.0
44,2.2,-7.5687923434715945,10.470956891924137,-0.1619603497820153,-0.06344576594905142,-0.026878493977237013,-0.1491189490728494,-0.02860376499228768,-0.010624931371814503,-0.06720416950460835,0,70,255.0,255.0,255.0
45,2.25,-7.572,10.4696,-0.1695,-0.06485276568144342,-0.02739090420943983,-0.15246101069577125,-0.027676224303392005,-0.009871477916298527,-0.06647829541226602,0,70,255.0,255.0,255.0
46,2.3000000000000003,-7.575277408977012,10.46821776512003,-0.17720620680880933,-0.06624710165028899,-0.027905497431377123,-0.155788429751708,-0.028097214450430587,-0.010712250961193003,-0.06661846682520411,0,70,255.0,255.0,255.0
47,2.35,-7.578625060990151,10.466808749612659,-0.18507895978468158,-0.06766248712648648,-0.02846212930555913,-0.15912285737829168,-0.028518204597469166,-0.011553024006087471,-0.06675863823814221,0,70,255.0,255.0,255.0
48,2.4000000000000004,-7.582044008514784,10.46537085154527,-0.1931186093561493,-0.06909892211003592,-0.02906079983198587,-0.16246429357552225,-0.02893919474450775,-0.012393797050981948,-0.0668988096510803,0,70,255.0,255.0,255.0
49,2.45,-7.585535304026278,10.463901968985255,-0.20132550595174462,-0.07055640660093726,-0.02970150901065733,-0.1658127383433997,-0.029360184891546327,-0.013234570095876416,-0.0670389810640184,0,70,255.0,255.0,255.0
50,2.5,-7.5891,10.4624,-0.2097,-0.07203494059919054,-0.03038425684157351,-0.1691681916819241,-0.029781175038585128,-0.01407534314077069,-0.06717915247695849,0,70,255.0,255.0,255.0
51,2.5500000000000003,-7.5927386583238,10.460863480328465,-0.21824245235320935,-0.0735050888536379,-0.031070783030512097,-0.17253127901678678,-0.02902475513930935,-0.013385704416772611,-0.06734434091754764,0,70,255.0,255.0,255.0
52,2.6,-7.596449878535448,10.459293496395887,-0.22695326555871254,-0.07493741611312148,-0.03172282728325077,-0.17590262577367888,-0.028268335240033582,-0.012696065692774537,-0.06750952935813678,0,70,255.0,255.0,255.0
53,2.6500000000000004,-7.6002317695851955,10.457691772299075,-0.23583285258761108,-0.07633192237764128,-0.03234038959978955,-0.17928223195260046,-0.027511915340757802,-0.012006426968776457,-0.06767471779872594,0,70,255.0,255.0,255.0
54,2.7,-7.604082440423296,10.456060032134843,-0.2448816264110064,-0.07768860764719725,-0.03292346998012843,-0.18267009755355146,-0.026755495441482032,-0.011316788244778383,-0.06783990623931509,0,70,255.0,255.0,255.0
55,2.75,-7.608,10.4544,-0.2541,-0.07900747192178945,-0.03347206842426738,-0.1860662225765319,-0.025999075542206596,-0.010627149520780477,-0.06800509467990445,0,70,255.0,255.0,255.0
56,2.8000000000000003,-7.6119831577277886,10.452713113566114,-0.26348798377835353,-0.08032454293515193,-0.034003370446582255,-0.18944645418114478,-0.026683764992292372,-0.010624931371814639,-0.06720416950460922,0,70,255.0,255.0,255.0
57,2.85,-7.616033024868057,10.450999664803797,-0.27304397798046837,-0.08167584842101869,-0.034534561561448844,-0.19278663952699285,-0.027368454442378145,-0.0106227132228488,-0.06640324432931402,0,70,255.0,255.0,255.0
58,2.9000000000000004,-7.620151313144431,10.449259659258427,-0.28276598029340666,-0.08306138837938974,-0.035065641768867145,-0.1960867786140762,-0.02805314389246392,-0.010620495073882963,-0.06560231915401879,0,70,255.0,255.0,255.0
59,2.95,-7.624339734280537,10.447493102475372,-0.2926519884042299,-0.08448116281026508,-0.03559661106883714,-0.1993468714423947,-0.028737833342549694,-0.010618276924917125,-0.06480139397872357,0,70,255.0,255.0,255.0
60,3.0,-7.6286,10.4457,-0.3027,-0.0859351717136447,-0.036127469461358856,-0.20256691801194854,-0.029422522792635686,-0.010616058775951565,-0.06400046880342858,0,70,255.0,255.0,255.0
61,3.0500000000000003,-7.632933510765048,10.443880065407079,-0.312908812533377,-0.08740473940574969,-0.036675735183154666,-0.20579490425863473,-0.02936018489156349,-0.011314570095880876,-0.06511898106401787,0,70,255.0,255.0,255.0
62,3.1,-7.637340421992325,10.44203184438892,-0.323280422519414,-0.08887119020280106,-0.037258926470946946,-0.20907881611835033,-0.029297846990491296,-0.01201308141581018,-0.06623749332460714,0,70,255.0,255.0,255.0
63,3.1500000000000004,-7.641820577837077,10.440153590667219,-0.3338176262387626,-0.09033452410479882,-0.037877043324735696,-0.21241865359109544,-0.029235509089419097,-0.012711592735739491,-0.06735600558519642,0,70,255.0,255.0,255.0
64,3.2,-7.646373822454553,10.438243557963679,-0.3445232199720741,-0.09179474111174296,-0.038530085744520895,-0.21581441667686996,-0.029173171188346902,-0.013410104055668795,-0.06847451784578569,0,70,255.0,255.0,255.0
65,3.25,-7.651,10.4363,-0.3554,-0.0932518412236335,-0.039218053730302564,-0.21926610537567398,-0.02911083328727493,-0.01410861537559821,-0.06959303010637585,0,70,255.0,255.0,255.0
66,3.3000000000000003,-7.655698799212022,10.434321824805568,-0.3664495660881388,-0.09469649944185232,-0.039901688820811874,-0.22270192878431627,-0.02867549544147767,-0.01323678824477393,-0.06783990623931534,0,70,255.0,255.0,255.0
67,3.35,-7.6604692871626465,10.432310557640527,-0.3776687319418757,-0.09611939076778128,-0.04054173255477996,-0.22605009599960554,-0.028240157595680413,-0.012364961113949656,-0.06608678237225485,0,70,255.0,255.0,255.0
68,3.4000000000000004,-7.665310375507262,10.4302683780727,-0.3890531147515435,-0.09752051520142037,-0.04113818493220684,-0.22931060702154177,-0.027804819749883157,-0.011493133983125375,-0.06433365850519433,0,70,255.0,255.0,255.0
69,3.45,-7.67022097590125,10.428197465669914,-0.4005983317074741,-0.0988998727427696,-0.0416910459530925,-0.23248346185012495,-0.0273694819040859,-0.010621306852301102,-0.06258053463813384,0,70,255.0,255.0,255.0
70,3.5,-7.6752,10.4261,-0.4123,-0.10025746339182894,-0.042200315617436944,-0.23556866048535516,-0.026934144058288312,-0.009749479721476828,-0.06082741077107401,0,70,255.0,255.0,255.0
71,3.5500000000000003,-7.680246492386867,10.423977435370642,-0.42415532311406823,-0.10160126282684957,-0.042709509533595945,-0.23866138060410014,-0.026817833342537088,-0.010618276924883145,-0.06288139397872504,0,70,255.0,255.0,255.0
72,3.6,-7.685360029357089,10.421828325048972,-0.43616784971308303,-0.10293924672608265,-0.04326214330992526,-0.24185679988322767,-0.026701522626785868,-0.011487074128289455,-0.06493537718637606,0,70,255.0,255.0,255.0
73,3.6500000000000004,-7.690540320133879,10.41965049704198,-0.44834271475506404,-0.10427141508952817,-0.043858216946424895,-0.24515491832273775,-0.026585211911034645,-0.012355871331695772,-0.06698936039402709,0,70,255.0,255.0,255.0
74,3.7,-7.695787073940445,10.41744177935666,-0.46068505319802994,-0.10559776791718611,-0.04449773044309483,-0.2485557359226304,-0.02646890119528342,-0.013224668535102083,-0.0690433436016781,0,70,255.0,255.0,255.0
75,3.75,-7.7011,10.4152,-0.4732,-0.10691830520905649,-0.0451806837999351,-0.2520592526829055,-0.0263525904795312,-0.014093465738508282,-0.07109732680932801,0,70,255.0,255.0,255.0
76,3.8000000000000003,-7.706479231240514,10.412923633711864,-0.4858907414555889,-0.10825844925075313,-0.045868273044791234,-0.25554854879928335,-0.02725317118833415,-0.013410104055737001,-0.06847451784578452,0,70,255.0,255.0,255.0
77,3.85,-7.7119265954089995,10.41061374216359,-0.4987526692057921,-0.1096436223278899,-0.04652169420550879,-0.258906704467484,-0.02815375189713709,-0.012726742372965725,-0.06585170888224105,0,70,255.0,255.0,255.0
78,3.9000000000000004,-7.717444343957228,10.408272033759383,-0.5117792262282009,-0.11107382444046683,-0.0471409472820878,-0.2621337196875074,-0.029054332605940043,-0.012043380690194444,-0.06322889991869757,0,70,255.0,255.0,255.0
79,3.95,-7.7230347283369705,10.40590021690345,-0.5249638555004066,-0.11254905558848391,-0.04772603227452825,-0.2652295944593538,-0.029954913314742985,-0.011360019007423169,-0.060606090955154096,0,70,255.0,255.0,255.0
80,4.0,-7.7287,10.4035,-0.5383,-0.11406931577194111,-0.04827694918283012,-0.2681943287830229,-0.03085549402354515,-0.010676657324651895,-0.05798328199161196,0,70,255.0,255.0,255.0
81,4.05,-7.734441382651076,10.401072829781898,-0.5517833110635767,-0.1155729401701322,-0.048809398287253086,-0.2711604241987665,-0.02928948190409824,-0.010621306852267021,-0.06066053463813387,0,70,255.0,255.0,255.0
82,4.1000000000000005,-7.740255989006913,10.398619106296668,-0.5654182734637488,-0.11699826396235095,-0.04933907986805683,-0.2742603822468363,-0.027723469784651306,-0.010565956379882146,-0.06333778728465583,0,70,255.0,255.0,255.0
83,4.15,-7.7461399040372125,10.396138967920486,-0.5792115803321326,-0.11834528714859734,-0.049865993925241305,-0.2774942029272322,-0.026157457665204397,-0.010510605907497273,-0.06601503993117774,0,70,255.0,255.0,255.0
84,4.2,-7.752089212711674,10.393632553029539,-0.5931699248003441,-0.11961400972887139,-0.050390140458806555,-0.2808618862399541,-0.02459144554575749,-0.010455255435112398,-0.06869229257769965,0,70,255.0,255.0,255.0
85,4.25,-7.7581,10.3911,-0.6073,-0.12080443170317308,-0.050911519468752546,-0.28436343218500215,-0.02302543342631036,-0.010399904962727635,-0.07136954522422201,0,70,255.0,255.0,255.0
86,4.3,-7.764169638155178,10.388541047160537,-0.6216064142901043,-0.12199379006871344,-0.051454133806197545,-0.28787375440564966,-0.024548901195304545,-0.011304668535072445,-0.06904334360167931,0,70,255.0,255.0,255.0
87,4.3500000000000005,-7.770300648563345,10.385953832649736,-0.636085436939213,-0.12325932182270355,-0.0520419863222598,-0.2912677665451701,-0.026072368964298757,-0.012209432107417272,-0.06671714197913656,0,70,255.0,255.0,255.0
88,4.4,-7.776496839893923,10.383336094558668,-0.6507312524432692,-0.12460102696514334,-0.052675077016939284,-0.29454546860356334,-0.027595836733292946,-0.013114195679762082,-0.06439094035659386,0,70,255.0,255.0,255.0
89,4.45,-7.782762020816334,10.3806855709784,-0.665538045298217,-0.1260189054960328,-0.053353405890235996,-0.2977068605808295,-0.02911930450228713,-0.014018959252106892,-0.062064738734051154,0,70,255.0,255.0,255.0
90,4.5,-7.7891,10.378,-0.6805,-0.12751295741537202,-0.05407697294214996,-0.3007519424769684,-0.030642772271281205,-0.014923722824451258,-0.05973853711150712,0,70,255.0,255.0,255.0
91,4.55,-7.79551366472821,10.375278181575954,-0.695612631776006,-0.1290278995550222,-0.054782066487947555,-0.30376055817863495,-0.02995491331472562,-0.01328001900745261,-0.06060609095515561,0,70,255.0,255.0,255.0
92,4.6000000000000005,-7.802002216739706,10.372523163104386,-0.7108767787794,-0.13050844874684459,-0.05540497484289523,-0.306812551572484,-0.029267054358170022,-0.011636315190453932,-0.061473644798804114,0,70,255.0,255.0,255.0
93,4.65,-7.808563936387096,10.369739053844844,-0.7262946098947908,-0.13195460499083922,-0.05594569800699296,-0.3099079226585154,-0.028579195401614438,-0.009992611373455284,-0.062341198642452605,0,70,255.0,255.0,255.0
94,4.7,-7.815197104022992,10.366929963056867,-0.7418682940067879,-0.13336636828700604,-0.05640423598024076,-0.31304667143672926,-0.027891336445058854,-0.008348907556456637,-0.0632087524861011,0,70,255.0,255.0,255.0
95,4.75,-7.8219,10.3641,-0.7576,-0.13474373863534508,-0.05678058876263861,-0.3162287979071255,-0.027203477488503713,-0.006705203739457821,-0.06407630632974959,0,70,255.0,255.0,255.0
96,4.800000000000001,-7.828670902931986,10.361251826535655,-0.7734918586058721,-0.1360866117112011,-0.05716160024200299,-0.3194520128798117,-0.02651144554573607,-0.008535255435116998,-0.06485229257769652,0,70,255.0,255.0,255.0
97,4.8500000000000005,-7.835508084477835,10.35838231493272,-0.789545847943188,-0.13739488318991872,-0.057634114306150314,-0.32271402716489517,-0.02581941360296844,-0.010365307130776144,-0.06562827882564344,0,70,255.0,255.0,255.0
98,4.9,-7.8424098145576915,10.355486890061961,-0.8057639079775681,-0.13866855307149795,-0.0581981309550806,-0.326014840762376,-0.025127381660200804,-0.012195358826435288,-0.06640426507359037,0,70,255.0,255.0,255.0
99,4.95,-7.849374363091698,10.352560976794134,-0.8221479786746322,-0.13990762135593876,-0.058853650188793835,-0.3293544536722542,-0.02443534971743317,-0.014025410522094436,-0.0671802513215373,0,70,255.0,255.0,255.0
100,5.0,-7.8564,10.3496,-0.8387,-0.1411120880432412,-0.05960067200729004,-0.3327328658945297,-0.023743317774664874,-0.01585546221775369,-0.06795623756948421,0,70,255.0,255.0,255.0
101,5.050000000000001,-7.86348592354385,10.346600912281433,-0.8554207338005072,-0.14233765360016568,-0.06034753254403656,-0.3360793903021182,-0.025279304502312815,-0.014018959252106762,-0.06590473873405205,0,70,255.0,255.0,255.0
102,5.1000000000000005,-7.870635045348956,10.343566777164735,-0.8723062294478491,-0.1436400184934725,-0.06100256793250072,-0.339323339767935,-0.02681529122996073,-0.012182456286459867,-0.0638532398986199,0,70,255.0,255.0,255.0
103,5.15,-7.877851205382138,10.34050218590732,-0.8893513581949376,-0.14501918272316172,-0.06156577817268254,-0.3424647142919801,-0.028351277957608646,-0.010345953320812971,-0.061801741063187775,0,70,255.0,255.0,255.0
104,5.2,-7.885138243610212,10.337411729766604,-0.9065509912946841,-0.14647514628923336,-0.062037163264582015,-0.3455035138742537,-0.02988726468525656,-0.008509450355166075,-0.059750242227755636,0,70,255.0,255.0,255.0
105,5.25,-7.8925,10.3343,-0.9239,-0.14800790919168738,-0.06241672320819915,-0.34843973851475574,-0.03142325141290403,-0.006672947389518902,-0.05769874339232217,0,70,255.0,255.0,255.0
106,5.300000000000001,-7.899939002892614,10.331170124338618,-0.9413948061921009,-0.14953877388813636,-0.06279226958184854,-0.3513664259117163,-0.02981133644505449,-0.0083489075564564,-0.05936875248609861,0,70,255.0,255.0,255.0
107,5.3500000000000005,-7.90745253412634,10.328019376408342,-0.9590380342654167,-0.15098904283619285,-0.0632516139638448,-0.35437661376336566,-0.028199421477204983,-0.010024867723393867,-0.06103876157987502,0,70,255.0,255.0,255.0
108,5.4,-7.91503656391376,10.32484356630876,-0.9768338592426822,-0.15235871603585685,-0.06379475635418792,-0.35747030206970376,-0.026587506509355475,-0.011700827890331333,-0.06270877067365142,0,70,255.0,255.0,255.0
109,5.45,-7.922687062467454,10.321638504139454,-0.9947864561466316,-0.1536477934871284,-0.06442169675287791,-0.3606474908307308,-0.024975591541505963,-0.013376788057268801,-0.06437877976742784,0,70,255.0,255.0,255.0
110,5.5,-7.9304,10.3184,-1.0129,-0.15485627519000747,-0.06513243515991479,-0.36390818004644654,-0.023363676573656678,-0.015052748224205992,-0.06604878886120424,0,70,255.0,255.0,255.0
111,5.550000000000001,-7.938172464885693,10.3151249903641,-1.031177641431091,-0.15605125084728474,-0.06585938912857232,-0.36719090605101523,-0.024435349717432834,-0.014025410522094436,-0.06526025132154202,0,70,255.0,255.0,255.0
112,5.6000000000000005,-7.946006018145682,10.311814917201897,-1.0496184334904852,-0.15729981016175076,-0.06653497621212424,-0.37043420517860076,-0.025507022861208973,-0.012998072819982897,-0.06447171378187981,0,70,255.0,255.0,255.0
113,5.65,-7.953903338962822,10.30847234885764,-1.0682204048343342,-0.1586019531334056,-0.0671591964105706,-0.37363807742920324,-0.026578696004985112,-0.01197073511787136,-0.06368317624221759,0,70,255.0,255.0,255.0
114,5.7,-7.961867106519975,10.30509985367559,-1.086981584118789,-0.15995767976224926,-0.06773204972391136,-0.3768025228028225,-0.027650369148761247,-0.010943397415759823,-0.06289463870255538,0,70,255.0,255.0,255.0
115,5.75,-7.9699,10.3017,-1.1059,-0.16136699004828173,-0.06825353615214659,-0.37992754129945866,-0.028722042292537386,-0.009916059713648617,-0.062106101162891836,0,70,255.0,255.0,255.0
116,5.800000000000001,-7.97800393756461,10.298274714204984,-1.1249738280835373,-0.16278422272272713,-0.06876217390386685,-0.3830219498842249,-0.027967264685277847,-0.010429450355161659,-0.0616702422277549,0,70,255.0,255.0,255.0
117,5.8500000000000005,-7.986177793290933,10.294823354784079,-1.1442018317726435,-0.16416371651680953,-0.06929648118766277,-0.38609456552223415,-0.027212487078018325,-0.010942840996674691,-0.06123438329261796,0,70,255.0,255.0,255.0
118,5.9,-7.994419680234952,10.291344638260682,-1.1635829214199813,-0.16550547143052896,-0.06985645800353432,-0.38914538821348665,-0.0264577094707588,-0.011456231638187722,-0.06079852435748103,0,70,255.0,255.0,255.0
119,5.95,-8.002727711452646,10.287837281158192,-1.1831160073782128,-0.1668094874638854,-0.07044210435148153,-0.39217441795798225,-0.025702931863499277,-0.011969622279700755,-0.06036266542234409,0,70,255.0,255.0,255.0
120,6.0,-8.0111,10.2843,-1.2028,-0.16807576461687887,-0.0710534202315044,-0.39518165475572103,-0.024948154256241084,-0.012483012921213898,-0.05992680648720805,0,70,255.0,255.0,255.0
121,6.050000000000001,-8.019534984855868,10.280732152815967,-1.2226342462347621,-0.16932385826182172,-0.07165191525596659,-0.39819329441208684,-0.02497559154147262,-0.011456788057273022,-0.06053877976742249,0,70,255.0,255.0,255.0
122,6.1000000000000005,-8.028032408690585,10.27713566366179,-1.2426198394189423,-0.17057332377102616,-0.0721990990372317,-0.4012355327324633,-0.025003028826704153,-0.010430563193332165,-0.06115075304763692,0,70,255.0,255.0,255.0
123,6.15,-8.036592340097375,10.27351309809963,-1.262758309485742,-0.17182416114449214,-0.07269497157529979,-0.4043083697168505,-0.02503046611193569,-0.009404338329391308,-0.06176272632785134,0,70,255.0,255.0,255.0
124,6.2,-8.045214847669442,10.269867021691647,-1.2830511863683611,-0.1730763703822197,-0.07313953287017085,-0.4074118053652484,-0.025057903397167226,-0.00837811346545045,-0.06237469960806577,0,70,255.0,255.0,255.0
125,6.25,-8.0539,10.2662,-1.3035,-0.17432995148420888,-0.07353278292184483,-0.4105458396776571,-0.02508534068239987,-0.007351888601509482,-0.06298667288828241,0,70,255.0,255.0,255.0
126,6.300000000000001,-8.062648123011925,10.262513474531149,-1.3241059869774163,-0.1756003442299876,-0.07394216507227583,-0.4136928724674281,-0.02573036914874872,-0.009023397415730418,-0.06289463870255503,0,70,255.0,255.0,255.0
127,6.3500000000000005,-8.071460571946723,10.258804390568761,-1.3448692105515883,-0.17690298839908378,-0.07443512266341787,-0.41683530354791265,-0.026375397615097558,-0.010694906229951324,-0.06280260451682765,0,70,255.0,255.0,255.0
128,6.4,-8.080338959375554,10.255068569340796,-1.3657894406370525,-0.17823788399149737,-0.07501165569527096,-0.41997313291911087,-0.027020426081446395,-0.01236641504417223,-0.06271057033110025,0,70,255.0,255.0,255.0
129,6.45,-8.089284897869593,10.251301832075221,-1.3868664471483445,-0.17960503100722838,-0.0756717641678351,-0.42310636058102263,-0.027665454547795235,-0.014037923858393137,-0.06261853614537287,0,70,255.0,255.0,255.0
130,6.5,-8.0983,10.2475,-1.4081,-0.1810044294462769,-0.07641544808111027,-0.4262349865336481,-0.02831048301414474,-0.0157094326726136,-0.0625265019596446,0,70,255.0,255.0,255.0
131,6.550000000000001,-8.107385323096437,10.243660349059434,-1.4294898058555752,-0.18240276481821835,-0.07715542445491887,-0.42935521571819796,-0.027622931863512293,-0.013889622279730314,-0.0622826654223477,0,70,255.0,255.0,255.0
132,6.6000000000000005,-8.11653970352253,10.23978597406317,-1.4510353183747056,-0.18376672263262814,-0.0778044103090833,-0.4324632530758829,-0.026935380712879858,-0.012069811886847063,-0.06203882888505081,0,70,255.0,255.0,255.0
133,6.65,-8.125761422400405,10.235881424537189,-1.4727359279660488,-0.18509630288950632,-0.07836240564360357,-0.435559098606703,-0.026247829562247423,-0.010250001493963809,-0.061794992347753916,0,70,255.0,255.0,255.0
134,6.7,-8.13504876085219,10.231951250007471,-1.4945910250382615,-0.1863915055888529,-0.07882941045847969,-0.4386427523106583,-0.025560278411614987,-0.008430191101080557,-0.061551155810457024,0,70,255.0,255.0,255.0
135,6.75,-8.1444,10.228,-1.5166,-0.18765233073066784,-0.07920542475371163,-0.4417142141877487,-0.024872727260983662,-0.006610380708197527,-0.061307319273159244,0,70,255.0,255.0,255.0
136,6.800000000000001,-8.153813784602333,10.224030729231112,-1.5387619896002853,-0.18890059649712249,-0.07958013710805284,-0.4447582646597795,-0.02505790339720209,-0.008378113465450546,-0.060454699608071205,0,70,255.0,255.0,255.0
137,6.8500000000000005,-8.163290213963158,10.220040513178562,-1.5610751159495906,-0.19015812107038807,-0.08004323610025668,-0.4477596841485558,-0.02524307953342051,-0.010145846222703533,-0.05960207994298318,0,70,255.0,255.0,255.0
138,6.9,-8.17282975102282,10.216024932510457,-1.5835372474987532,-0.19142490445046453,-0.08059472173032318,-0.45071847265407783,-0.025428255669638935,-0.01191357897995652,-0.058749460277895155,0,70,255.0,255.0,255.0
139,6.95,-8.182432858721652,10.2119795678949,-1.6061462526986108,-0.19270094663735196,-0.08123459399825234,-0.4536346301763453,-0.025613431805857356,-0.013681311737209507,-0.05789684061280713,0,70,255.0,255.0,255.0
140,7.0,-8.1921,10.2079,-1.6289,-0.1939862476310503,-0.08196285290404413,-0.45650815671535844,-0.025798607942075558,-0.015449044494462716,-0.05704422094771955,0,70,255.0,255.0,255.0
141,7.050000000000001,-8.201831538494233,10.203783134016112,-1.6517974357432852,-0.19527484919329718,-0.08270002711286555,-0.4594037256426856,-0.02574545454779966,-0.014037923858392977,-0.05877853614536506,0,70,255.0,255.0,255.0
142,7.1000000000000005,-8.211627440624836,10.199631173222576,-1.6748418178269335,-0.19656079308583027,-0.08336664528988344,-0.462386010329895,-0.025692301153523767,-0.012626803222323265,-0.060512851343010536,0,70,255.0,255.0,255.0
143,7.15,-8.22148757350832,10.195447645420987,-1.6980374820389394,-0.19784407930864956,-0.08396270743509786,-0.4654550107769866,-0.02563914775924787,-0.01121568258625355,-0.06224716654065602,0,70,255.0,255.0,255.0
144,7.2,-8.231411804261205,10.191236078412931,-1.7213887641672967,-0.19912470786175507,-0.08448821354850879,-0.46861072698396056,-0.025585994364971977,-0.009804561950183838,-0.0639814817383015,0,70,255.0,255.0,255.0
145,7.25,-8.2414,10.187,-1.7449,-0.20040267874514678,-0.08494316363011625,-0.4718531589508168,-0.025532840970696302,-0.008393441314113792,-0.06571579693594654,0,70,255.0,255.0,255.0
146,7.300000000000001,-8.251452061420737,10.18274233470444,-1.7685738674265754,-0.2016800067297029,-0.08536375444049613,-0.47508283276947705,-0.025560278411547354,-0.00843019110108041,-0.06347115581046016,0,70,255.0,255.0,255.0
147,7.3500000000000005,-8.261568023537505,10.178463593931127,-1.7924064127426764,-0.20295870658630152,-0.0857861827402243,-0.47820027453186287,-0.025587715852398406,-0.008466940888047026,-0.061226514684973816,0,70,255.0,255.0,255.0
148,7.4,-8.271747954943903,10.174163685805595,-1.81639202434549,-0.20423877831494272,-0.08621044852930082,-0.4812054842379744,-0.02561515329324946,-0.008503690675013642,-0.05898187355948748,0,70,255.0,255.0,255.0
149,7.45,-8.281991924233532,10.169842518453375,-1.8405250906322026,-0.20552022191562647,-0.08663655180772566,-0.4840984618878116,-0.025642590734100513,-0.00854044046198026,-0.05673723243400114,0,70,255.0,255.0,255.0
150,7.5,-8.2923,10.1655,-1.8648,-0.2068030373883528,-0.08706449257549882,-0.4868792074813745,-0.025670028174950454,-0.008577190248946542,-0.054492591308513916,0,70,255.0,255.0,255.0
151,7.550000000000001,-8.302672215822815,10.161135527166127,-1.8892126945504149,-0.20808512388787384,-0.08752495512515211,-0.48964094327940755,-0.025613431805890884,-0.00984131173718445,-0.055976840612807006,0,70,255.0,255.0,255.0
152,7.6000000000000005,-8.313108465225145,10.15674645105291,-1.913765331202361,-0.20936438056894188,-0.08804862374921728,-0.4924768915426552,-0.025556835436831314,-0.011105433225422337,-0.057461089917100076,0,70,255.0,255.0,255.0
153,7.65,-8.32360860671607,10.152329611356633,-1.9384616205791005,-0.21064080743155697,-0.08863549844769433,-0.4953870522711175,-0.025500239067771744,-0.012369554713660223,-0.058945339221393146,0,70,255.0,255.0,255.0
154,7.7,-8.33417249880466,10.147881847773569,-1.9633052733038934,-0.21191440447571905,-0.08928557922058329,-0.4983714254647945,-0.025443642698712177,-0.013633676201898108,-0.06042958852568621,0,70,255.0,255.0,255.0
155,7.75,-8.3448,10.1434,-1.9883,-0.21318517170142814,-0.08999886606788415,-0.5014300111236861,-0.025387046329652385,-0.014897797690135661,-0.06191383782997928,0,70,255.0,255.0,255.0
156,7.800000000000001,-8.355491075287999,10.138881956631051,-2.0134489543717677,-0.21445949771879463,-0.09071242505889278,-0.5045293941128932,-0.025585994365006574,-0.013644561950208783,-0.06206148173830198,0,70,255.0,255.0,255.0
157,7.8500000000000005,-8.366246115561907,10.134329801857225,-2.0387530624478796,-0.2157437711379288,-0.09136332226290504,-0.5076361592975164,-0.025784942400360757,-0.012391326210281925,-0.06220912564662467,0,70,255.0,255.0,255.0
158,7.9,-8.37706561819182,10.129746668767877,-2.0642126933381086,-0.2170379919588307,-0.09195155767992097,-0.5107503066775557,-0.025983890435714942,-0.011138090470355069,-0.06235676955494736,0,70,255.0,255.0,255.0
159,7.95,-8.387950080547823,10.125135690452352,-2.0898282161522252,-0.2183421601815003,-0.09247713130994054,-0.513871836253011,-0.026182838471069125,-0.009884854730428213,-0.06250441346327004,0,70,255.0,255.0,255.0
160,8.0,-8.3989,10.1205,-2.1156,-0.21965627580593758,-0.09294004315296378,-0.5170007480238825,-0.026381786506422644,-0.008631618990500911,-0.06265205737159185,0,70,255.0,255.0,255.0
161,8.05,-8.409915483025191,10.115842246309667,-2.141527487962518,-0.2209568852369498,-0.09336934463927582,-0.5200814802690223,-0.025642590734065995,-0.008540440461979947,-0.06057723243400052,0,70,255.0,255.0,255.0
162,8.1,-8.420995072527218,10.11116314151818,-2.167606419006121,-0.22222053487934418,-0.09379408719916177,-0.5230584712672826,-0.024903394961709374,-0.008449261933458985,-0.05850240749640926,0,70,255.0,255.0,255.0
163,8.15,-8.43213692051665,10.106462913571859,-2.193831606068465,-0.22344722473312073,-0.09421427083262171,-0.5259317210186633,-0.024164199189352725,-0.008358083404938021,-0.05642758255881793,0,70,255.0,255.0,255.0
164,8.200000000000001,-8.443339179004052,10.101741790417025,-2.2201978620872067,-0.22463695479827947,-0.09462989553965558,-0.5287012295231645,-0.023425003416996076,-0.008266904876417056,-0.0543527576212266,0,70,255.0,255.0,255.0
165,8.25,-8.4546,10.097,-2.2467,-0.2257897250748203,-0.09504096132026342,-0.5313669967807859,-0.022685807644638345,-0.008175726347895984,-0.052277932683633566,0,70,255.0,255.0,255.0
166,8.3,-8.465918192611236,10.09223705813028,-2.2733346937781618,-0.2269449613334042,-0.09549019638400764,-0.5340406848110187,-0.023523642698716263,-0.00979367620187288,-0.05466958852567781,0,70,255.0,255.0,255.0
167,8.35,-8.477295194329217,10.087449632070053,-2.3001060615276367,-0.22814208934469193,-0.0960203289404507,-0.5368339556333537,-0.024361477752794153,-0.011411626055849722,-0.05706124436772198,0,70,255.0,255.0,255.0
168,8.4,-8.488733099741584,10.082633676944688,-2.3270200823880325,-0.22938110910868362,-0.09663135898959262,-0.539746809247791,-0.02519931280687207,-0.013029575909826618,-0.05945290020976623,0,70,255.0,255.0,255.0
169,8.450000000000001,-8.500234003435963,10.077785147879549,-2.3540827354989515,-0.23066202062537916,-0.09732328653143339,-0.5427792456543303,-0.02603714786094999,-0.014647525763803515,-0.06184455605181048,0,70,255.0,255.0,255.0
170,8.5,-8.5118,10.0729,-2.3813,-0.23198482389477862,-0.09809611156597296,-0.5459312648529719,-0.02687498291502677,-0.016265475617780134,-0.06423621189385287,0,70,255.0,255.0,255.0
171,8.55,-8.523432546529863,10.067975921169216,-2.408676136924837,-0.23331126942943187,-0.09884586982467881,-0.5490997804869001,-0.026182838471102466,-0.013724854730453092,-0.06250441346327304,0,70,255.0,255.0,255.0
172,8.6,-8.535130550155905,10.063017530201606,-2.436208534883331,-0.23460310774188886,-0.09946859703901827,-0.5521817061992992,-0.025490694027178188,-0.011184233843126142,-0.06077261503269328,0,70,255.0,255.0,255.0
173,8.65,-8.546892280517016,10.058031178649388,-2.463892864379408,-0.23586033883214969,-0.09996429320899142,-0.5551770419901695,-0.02479854958325389,-0.0086436129557991,-0.05904081660211345,0,70,255.0,255.0,255.0
174,8.700000000000001,-8.558716007252086,10.05302321806478,-2.49172479591699,-0.23708296270021428,-0.10033295833459818,-0.5580857878595107,-0.024106405139329587,-0.006102992068472059,-0.05730901817153363,0,70,255.0,255.0,255.0
175,8.75,-8.5706,10.048,-2.5197,-0.2382709793460826,-0.10057459241583863,-0.5609079438073228,-0.023414260695403755,-0.0035623711811452186,-0.055577219740953865,0,70,255.0,255.0,255.0
176,8.8,-8.582542821269307,10.042965657192859,-2.5478151585224924,-0.23944196094889175,-0.1008223243172778,-0.5637041932413777,-0.023425003416961142,-0.006346904876421617,-0.05627275762123888,0,70,255.0,255.0,255.0
177,8.85,-8.594544205047157,10.037915447123527,-2.5760709989390373,-0.2406134796877787,-0.10120928290348079,-0.5665352195694466,-0.02343574613851853,-0.009131438571697917,-0.056968295501523866,0,70,255.0,255.0,255.0
178,8.9,-8.606604178190354,10.032842408457764,-2.6044692600943375,-0.2417855355627436,-0.10173546817444759,-0.56940102279153,-0.02344648886007592,-0.011915972266974315,-0.057663833381808874,0,70,255.0,255.0,255.0
179,8.950000000000001,-8.6187227675557,10.027739579861334,-2.633011680833092,-0.24295812857378632,-0.10240088013017823,-0.5723016029076277,-0.02345723158163331,-0.014700505962250714,-0.05835937126209389,0,70,255.0,255.0,255.0
180,9.0,-8.6309,10.0226,-2.6617,-0.2441312587209069,-0.10320551877067266,-0.5752369599177394,-0.02346797430319114,-0.017485039657527013,-0.05905490914237532,0,70,255.0,255.0,255.0
181,9.05,-8.643136168392907,10.01741905005935,-2.6905352289851945,-0.2453208867750097,-0.10400883290620593,-0.5781634465475938,-0.024117147860920528,-0.014647525763803331,-0.05800455605180018,0,70,255.0,255.0,255.0
182,9.1,-8.655432629655465,10.012201481304292,-2.719515469360517,-0.24654297350699894,-0.10467027134705299,-0.5810374155229194,-0.02476632141864989,-0.011810011870079748,-0.056954202961225074,0,70,255.0,255.0,255.0
183,9.15,-8.667791006721572,10.006954387519556,-2.748638095243244,-0.2477975189168747,-0.10518983409321389,-0.5838588668437162,-0.025415494976379276,-0.008972497976356067,-0.055903849870649926,0,70,255.0,255.0,255.0
184,9.200000000000001,-8.680212922525117,10.001684862489881,-2.7779004807506475,-0.2490845230046369,-0.10556752114468862,-0.5866278005099845,-0.026064668534108663,-0.006134984082632383,-0.054853496780074784,0,70,255.0,255.0,255.0
185,9.25,-8.6927,9.9964,-2.8073,-0.25040398577028555,-0.10580333250147715,-0.5893442165217239,-0.026713842091837137,-0.003297470188908913,-0.053803143689500565,0,70,255.0,255.0,255.0
186,9.3,-8.705253305159067,9.99110454256974,-2.8368351255367332,-0.25172249195106544,-0.1060383440579117,-0.5920740205682494,-0.026026405139358024,-0.0061029920684722416,-0.05538901817152164,0,70,255.0,255.0,255.0
187,9.35,-8.71787167633098,9.98579382765931,-2.866508723618893,-0.2530066262842214,-0.10641363170832437,-0.594883118338876,-0.025338968186878936,-0.00890851394803547,-0.056974892653542664,0,70,255.0,255.0,255.0
188,9.4,-8.730553394923362,9.980460841464007,-2.8963247589326886,-0.2542563887697533,-0.10692919545271523,-0.5977715098336037,-0.02465153123439982,-0.011714035827598798,-0.05856076713556374,0,70,255.0,255.0,255.0
189,9.450000000000001,-8.743296742343828,9.975098570179139,-2.926287196164323,-0.25547177940766136,-0.10758503529108426,-0.6007391950524325,-0.023964094281920707,-0.014519557707162126,-0.06014664161758482,0,70,255.0,255.0,255.0
190,9.5,-8.7561,9.9697,-2.9564,-0.25665279819794534,-0.10838115122343144,-0.6037861739953622,-0.023276657329440287,-0.0173250795867258,-0.06173251609960584,0,70,255.0,255.0,255.0
191,9.55,-8.768961810970831,9.964260379661688,-2.986665868867877,-0.2578211454207222,-0.10918179086215501,-0.606836471179405,-0.0234572315816334,-0.014700505962216667,-0.06027937126210483,0,70,255.0,255.0,255.0
192,9.600000000000001,-8.781882265020615,9.95878400805847,-3.0170824361639097,-0.25899852135610874,-0.10985120181965313,-0.6098141111215727,-0.023637805833826513,-0.012075932337707533,-0.05882622642460383,0,70,255.0,255.0,255.0
193,9.65,-8.794861813584983,9.953277446624408,-3.047646069026003,-0.26018492600410487,-0.11038938409592576,-0.6127190938218654,-0.023818380086019622,-0.009451358713198492,-0.05737308158710287,0,70,255.0,255.0,255.0
194,9.700000000000001,-8.80790090809957,9.947747256793566,-3.0783531345920654,-0.26138035936471066,-0.11079633769097295,-0.615551419280283,-0.023998954338212735,-0.006826785088689358,-0.05591993674960186,0,70,255.0,255.0,255.0
195,9.75,-8.821,9.9422,-3.1092,-0.26258482143792616,-0.11107206260479469,-0.6183110874968255,-0.02417952859040806,-0.0042022114641797614,-0.05446679191209913,0,70,255.0,255.0,255.0
196,9.8,-8.83415945095761,9.936640338783505,-3.1401837989917603,-0.26379292636603924,-0.11133049249346584,-0.6210440947141299,-0.024144668534113654,-0.0061349840826664444,-0.05485349678007499,0,70,255.0,255.0,255.0
197,9.850000000000001,-8.847379263586559,9.931065340106803,-3.1713047317254706,-0.26499928829133756,-0.11168556101306135,-0.6237964371748331,-0.02410980847781925,-0.008067756701153127,-0.055240201648050845,0,70,255.0,255.0,255.0
198,9.9,-8.860659350736697,9.92547017203835,-3.2025637649633003,-0.26620390721382114,-0.11213726816358115,-0.6265681148789349,-0.024074948421524845,-0.010000529319639743,-0.05562690651602669,0,70,255.0,255.0,255.0
199,9.950000000000001,-8.873999625257891,9.919850002646596,-3.2339618654674203,-0.26740678313349003,-0.11268561394502531,-0.6293591278264358,-0.024040088365230437,-0.011933301938126424,-0.05601361138400254,0,70,255.0,255.0,255.0
200,10.0,-8.8874,9.9142,-3.2655,-0.26860791605034423,-0.1133305983573938,-0.6321694760173353,-0.024005228308936477,-0.013866074556613373,-0.056400316251975724,0,70,255.0,255.0,255.0
201,10.05,-8.900860385198726,9.908516665204289,-3.2971789351650846,-0.2698071491151156,-0.11399223916398746,-0.6349871499640743,-0.02396409428191939,-0.012599557707132773,-0.05630664161758396,0,70,255.0,255.0,255.0
202,10.100000000000001,-8.914380680633156,9.902801831514306,-3.328998636934213,-0.2710043254785362,-0.11459055412810709,-0.6378001401790938,-0.0239229602549023,-0.011333040857652174,-0.0562129669831922,0,70,255.0,255.0,255.0
203,10.15,-8.927960783468224,9.897058665222184,-3.3609588711207983,-0.27219944514060584,-0.11512554324975269,-0.6406084466623936,-0.023881826227885216,-0.01006652400817162,-0.05611929234880044,0,70,255.0,255.0,255.0
204,10.200000000000001,-8.941600590868862,9.89129033262004,-3.3930594035382566,-0.2733925081013247,-0.11559720652892426,-0.6434120694139738,-0.023840692200868128,-0.00880000715869102,-0.05602561771440868,0,70,255.0,255.0,255.0
205,10.25,-8.9553,9.8855,-3.4253,-0.27458351436069267,-0.11600554396562178,-0.6462110084338343,-0.023799558173850155,-0.0075334903092102445,-0.05593194308001426,0,70,255.0,255.0,255.0
206,10.3,-8.969059008247488,9.879689800399342,-3.457680460347904,-0.2757784771734943,-0.11641255085057,-0.6490073054295746,-0.023998954338213443,-0.008746785088718617,-0.05591993674960118,0,70,255.0,255.0,255.0
207,10.350000000000001,-8.982878013880818,9.873857733835962,-3.4902007205376826,-0.276983409794514,-0.11688022247449364,-0.6518030021087945,-0.02419835050257673,-0.00996007986822699,-0.05590793041918811,0,70,255.0,255.0,255.0
208,10.4,-8.996757515390408,9.868000767072909,-3.5228607505535083,-0.27819831222375196,-0.1174085588373927,-0.6545980984714935,-0.024397746666940015,-0.01117337464773532,-0.05589592408877504,0,70,255.0,255.0,255.0
209,10.450000000000001,-9.010698011266665,9.86211586687324,-3.555660520379557,-0.27942318446120806,-0.1179975599392672,-0.657392594517672,-0.024597142831303303,-0.012386669427243695,-0.05588391775836197,0,70,255.0,255.0,255.0
210,10.5,-9.0247,9.8562,-3.5886,-0.28065802650688226,-0.11864722578011706,-0.6601864902473298,-0.024796538995667472,-0.013599964206752024,-0.05587191142794623,0,70,255.0,255.0,255.0
211,10.55,-9.038763581811326,9.850251333198347,-3.6216792234433006,-0.28187894219090476,-0.11928555743373903,-0.6629836283176282,-0.024040088365231405,-0.011933301938126605,-0.05601361138399241,0,70,255.0,255.0,255.0
212,10.600000000000001,-9.052887263843564,9.844272833141847,-3.6548984809150604,-0.28306203534340546,-0.11984055597392974,-0.6657878513857292,-0.02328363773479534,-0.010266639669501185,-0.0561553113400386,0,70,255.0,255.0,255.0
213,10.65,-9.06706915497014,9.838268666486178,-3.6882581266651697,-0.2842073059643843,-0.12031222140068916,-0.6685991594516322,-0.022527187104359296,-0.008599977400875824,-0.056297011296084776,0,70,255.0,255.0,255.0
214,10.700000000000001,-9.081307364064477,9.832242999887004,-3.7217585149435206,-0.2853147540538413,-0.12070055371401732,-0.6714175525153375,-0.02177073647392323,-0.006933315132250404,-0.05643871125213096,0,70,255.0,255.0,255.0
215,10.75,-9.0956,9.8262,-3.7554,-0.2863843796117766,-0.1210055529139142,-0.6742430305768451,-0.021014285843486302,-0.005266652863624821,-0.056580411208174475,0,70,255.0,255.0,255.0
216,10.8,-9.109945864507209,9.820142466807269,-3.7891826458788973,-0.2874577540628856,-0.12130921941447136,-0.6770581812999099,-0.021920692200871728,-0.006880007158661262,-0.0560256177144156,0,70,255.0,255.0,255.0
217,10.850000000000001,-9.12434653074492,9.81406773359664,-3.82310535580208,-0.2885764488318638,-0.12169355362978032,-0.6798455923482868,-0.022827098558257156,-0.008493361453697702,-0.05547082422065673,0,70,255.0,255.0,255.0
218,10.9,-9.138804264729027,9.807971766982378,-3.857166742785814,-0.2897404639187112,-0.1221585555598411,-0.6826052637219755,-0.02373350491564255,-0.010106715748734086,-0.05491603072689787,0,70,255.0,255.0,255.0
219,10.950000000000001,-9.15332133247542,9.801850533578744,-3.891365419846366,-0.29094979932342807,-0.12270422520465374,-0.6853371954209765,-0.02463991127302798,-0.011720070043770526,-0.054361237233139,0,70,255.0,255.0,255.0
220,11.0,-9.1679,9.7957,-3.9257,-0.29220445504601406,-0.12333056256421816,-0.6880413874452893,-0.025546317630411597,-0.013333424338807354,-0.053806443739377485,0,70,255.0,255.0,255.0
221,11.05,-9.18254176015984,9.789517199572579,-3.9601693930411135,-0.29345804155755695,-0.1239735649083703,-0.690735646482733,-0.024597142831303105,-0.012386669427277983,-0.05396391775836591,0,70,255.0,255.0,255.0
222,11.100000000000001,-9.197245013176758,9.78330343247159,-3.9947736958766233,-0.2946641693291444,-0.12456922950694597,-0.6934377792211259,-0.023647968032194617,-0.011439914515748613,-0.05412139177735434,0,70,255.0,255.0,255.0
223,11.15,-9.212007386113752,9.77706106558431,-4.0295133021915746,-0.2958228383607764,-0.12511755635994515,-0.6961477856604684,-0.02269879323308616,-0.010493159604219275,-0.05427886579634276,0,70,255.0,255.0,255.0
224,11.200000000000001,-9.226826506033836,9.77079246579802,-4.064388605671019,-0.296934048652453,-0.1256185454673679,-0.6988656658007601,-0.02174961843397767,-0.009546404692689905,-0.054436339815331185,0,70,255.0,255.0,255.0
225,11.25,-9.2417,9.7645,-4.0994,-0.29799780020417416,-0.12607219682921417,-0.7015914196420014,-0.020800443634869215,-0.008599649781161123,-0.05459381383432138,0,70,255.0,255.0,255.0
226,11.3,-9.256626294853435,9.758185534902417,-4.134547781956651,-0.29906207970689397,-0.12650852095204934,-0.7043192327691628,-0.02177073647392326,-0.008853315132245946,-0.054518711252126546,0,70,255.0,255.0,255.0
227,11.350000000000001,-9.271607016548057,9.751848936517002,-4.169831860691432,-0.30017487385156655,-0.12695752834243879,-0.7070432907672143,-0.022741029312977307,-0.00910698048333077,-0.05444360866993172,0,70,255.0,255.0,255.0
228,11.4,-9.286644590815957,9.74548957068038,-4.205252048447886,-0.30133618263819173,-0.12741921900038242,-0.7097635936361558,-0.023711322152031318,-0.009360645834415584,-0.05436850608773689,0,70,255.0,255.0,255.0
229,11.450000000000001,-9.301741443389242,9.739106803229172,-4.240808157469563,-0.3025460060667696,-0.12789359292588035,-0.7124801413759878,-0.024681614991085364,-0.009614311185500407,-0.05429340350554206,0,70,255.0,255.0,255.0
230,11.5,-9.3169,9.7327,-4.2765,-0.30380434413730023,-0.1283806501189325,-0.71519293398671,-0.025651907830141152,-0.009867976536585887,-0.054218300923343676,0,70,255.0,255.0,255.0
231,11.55,-9.33212186042642,9.726268660817752,-4.3123274791322865,-0.30506163961487864,-0.12887235128344068,-0.7179074224406217,-0.02463991127299384,-0.009800070043741059,-0.05436123723311859,0,70,255.0,255.0,255.0
232,11.600000000000001,-9.347405320631026,9.7198128214604,-4.348290861357655,-0.3062683352645996,-0.1293606571233066,-0.720629057710022,-0.023627914715846524,-0.009732163550896232,-0.054504173542893504,0,70,255.0,255.0,255.0
233,11.65,-9.362747850622418,9.713332651694166,-4.38439050401688,-0.3074244310864633,-0.12984556763853028,-0.723357839794911,-0.022615918158699247,-0.009664257058051406,-0.05464710985266841,0,70,255.0,255.0,255.0
234,11.700000000000001,-9.378146920409206,9.70682832128529,-4.420626764450738,-0.30852992708046956,-0.13032708282911176,-0.7260937686952887,-0.021603921601551935,-0.009596350565206578,-0.05479004616244332,0,70,255.0,255.0,255.0
235,11.75,-9.3936,9.7003,-4.457,-0.3095848232466185,-0.13080520269505094,-0.7288368444111553,-0.0205919250444051,-0.009528444072360864,-0.054932982472214675,0,70,255.0,255.0,255.0
236,11.8,-9.409105463440882,9.693747821826566,-4.493510301514208,-0.31064336183357893,-0.13128207391417807,-0.7315710774683444,-0.02174961843401137,-0.009546404692723831,-0.05443633981534823,0,70,255.0,255.0,255.0
237,11.850000000000001,-9.424665300927849,9.687171777641398,-4.530156693877954,-0.31175978509001967,-0.13175984316432332,-0.7342804783926902,-0.02290731182361764,-0.009564365313086798,-0.05393969715848178,0,70,255.0,255.0,255.0
238,11.9,-9.440282406694374,9.680571822542948,-4.566937935484597,-0.3129340930159407,-0.13223851044548673,-0.7369650471841925,-0.024065005213223863,-0.009582325933449765,-0.05344305450161535,0,70,255.0,255.0,255.0
239,11.950000000000001,-9.455959674973935,9.673947911629666,-4.603852784727493,-0.3141662856113421,-0.1327180757576683,-0.7396247838428517,-0.02522269860283013,-0.009600286553812731,-0.052946411844748895,0,70,255.0,255.0,255.0
240,12.0,-9.4717,9.6673,-4.6409,-0.3154563628762237,-0.133198539100868,-0.7422596883686674,-0.02638039199243636,-0.009618247174175698,-0.052449769187878914,0,70,255.0,255.0,255.0
241,12.05,-9.487505085810051,9.660628051875984,-4.678078514810884,-0.31673291305081175,-0.13367935305985992,-0.744880267686003,-0.02468161499108594,-0.00961431118550098,-0.052373403505544404,0,70,255.0,255.0,255.0
242,12.100000000000001,-9.503371875657582,9.653932067974004,-4.715387963130533,-0.3179245243753323,-0.1341599702194181,-0.747497028719222,-0.02298283798973552,-0.00961037519682626,-0.05229703782320989,0,70,255.0,255.0,255.0
243,12.15,-9.519296122600084,9.647212058134032,-4.752828154044738,-0.3190311968497853,-0.13464039057954255,-0.7501099714683239,-0.021284060988385166,-0.00960643920815154,-0.05222067214087538,0,70,255.0,255.0,255.0
244,12.200000000000001,-9.53527357969506,9.64046803219604,-4.790398896639296,-0.3200529304741708,-0.13512061414023327,-0.7527190959333094,-0.019585283987034748,-0.00960250321947682,-0.052144306458540866,0,70,255.0,255.0,255.0
245,12.25,-9.5513,9.6337,-4.8281,-0.32098972524848873,-0.13560064090149027,-0.755324402114178,-0.01788650698568306,-0.009598567230803212,-0.05206794077620369,0,70,255.0,255.0,255.0
246,12.3,-9.567372593318913,9.626907970669498,-4.865931639242257,-0.32192898596316893,-0.13608051384638883,-0.7579478517876438,-0.01968392160152253,-0.009596350565138323,-0.052870046162429504,0,70,255.0,255.0,255.0
247,12.350000000000001,-9.58349439644183,9.620091950462582,-4.903895453599921,-0.322958117408641,-0.1365602759580041,-0.760611406730421,-0.021481336217361997,-0.009594133899473434,-0.053672151548655324,0,70,255.0,255.0,255.0
248,12.4,-9.59966990290529,9.613251944920918,-4.941993448336454,-0.32407711958490504,-0.13703992723633615,-0.7633150669425093,-0.0232787508332014,-0.009591917233808544,-0.05447425693488111,0,70,255.0,255.0,255.0
249,12.450000000000001,-9.615903606245832,9.606387959586169,-4.980227628715326,-0.32528599249196116,-0.13751946768138495,-0.7660588324239092,-0.02507616544904087,-0.009589700568143655,-0.05527636232110693,0,70,255.0,255.0,255.0
250,12.5,-9.6322,9.5995,-5.0186,-0.3265847361298092,-0.1379988972931505,-0.7688427031746201,-0.026873580064882496,-0.00958748390247921,-0.05607846770733538,0,70,255.0,255.0,255.0
251,12.55,-9.648562140914295,9.592588065446026,-5.0571117282200895,-0.3278871430965038,-0.13847859155455952,-0.7716163251634226,-0.025222698602899184,-0.009600286553880899,-0.05486641184476111,0,70,255.0,255.0,255.0
252,12.600000000000001,-9.664987338575099,9.585652130175669,-5.095760622469792,-0.3291070059900992,-0.13895892594853862,-0.7743293443590964,-0.02357181714091587,-0.009613089205282588,-0.053654355982186853,0,70,255.0,255.0,255.0
253,12.65,-9.681471465778753,9.578692162182296,-5.134543652609447,-0.33024432481059535,-0.13943990047508778,-0.7769817607616412,-0.021920935678932617,-0.009625891856684277,-0.05244230011961263,0,70,255.0,255.0,255.0
254,12.700000000000001,-9.698010395321607,9.571708129459283,-5.173457788499403,-0.3312990995579924,-0.13992151513420703,-0.7795735743710576,-0.020270054216949305,-0.009638694508085965,-0.05123024425703837,0,70,255.0,255.0,255.0
255,12.75,-9.7146,9.5647,-5.2125,-0.3322713302322903,-0.14040376992589637,-0.782104785187345,-0.018619172754964275,-0.00965149715948721,-0.050018188394460594,0,70,255.0,255.0,255.0
256,12.8,-9.731237243023905,9.557667767546398,-5.251667847877388,-0.33322644165083853,-0.14088511993537134,-0.7846108475586697,-0.019585283986964633,-0.009602503219511237,-0.05022430645852474,0,70,255.0,255.0,255.0
257,12.850000000000001,-9.74792344925778,9.550611528834747,-5.290961256520921,-0.33422985863098675,-0.14136402024784753,-0.7871272158331977,-0.020551395218964992,-0.009553509279535265,-0.05043042452258888,0,70,255.0,255.0,255.0
258,12.9,-9.764661033979698,9.543531406349897,-5.3303807412257616,-0.33528158117273504,-0.14184047086332485,-0.7896538900109286,-0.021517506450965312,-0.009504515339559294,-0.050636542586653024,0,70,255.0,255.0,255.0
259,12.950000000000001,-9.781452412467745,9.536427522576696,-5.369926817287067,-0.3363816092760833,-0.14231447178180345,-0.7921908700918628,-0.02248361768296567,-0.009455521399583321,-0.050842660650717166,0,70,255.0,255.0,255.0
260,13.0,-9.7983,9.5293,-5.4096,-0.33752994294103156,-0.14278602300328316,-0.7947381560760003,-0.023449728914965995,-0.00940652745960624,-0.05104877871477953,0,70,255.0,255.0,255.0
261,13.05,-9.815205686990085,9.522148864368381,-5.449400880270363,-0.3386950903001319,-0.1432609287039752,-0.7973002846018973,-0.023156165449046813,-0.009589700568075402,-0.05143636232110041,0,70,255.0,255.0,255.0
262,13.100000000000001,-9.83216926439379,9.514973754485345,-5.4893303514465295,-0.3398455594859363,-0.14374499306009073,-0.7998817923081104,-0.02286260198312763,-0.009772873676544563,-0.05182394592742129,0,70,255.0,255.0,255.0
263,13.15,-9.849189998302457,9.507774212418116,-5.529389382487512,-0.34098135049844464,-0.14423821607162968,-0.8024826791946394,-0.02256903851720846,-0.009956046785013719,-0.052211529533742154,0,70,255.0,255.0,255.0
264,13.200000000000001,-9.866267154807414,9.500549780233923,-5.569578942352331,-0.3421024633376571,-0.14474059773859208,-0.8051029452614845,-0.022275475051289278,-0.01013921989348288,-0.052599113140063034,0,70,255.0,255.0,255.0
265,13.25,-9.8834,9.4933,-5.6099,-0.3432088980035736,-0.14525213806097795,-0.8077425905086456,-0.02198191158537055,-0.010322393001952035,-0.052986696746381234,0,70,255.0,255.0,255.0
266,13.3,-9.900588009015758,9.48602477498007,-5.650353431041162,-0.3443131971486332,-0.1457511652487289,-0.8103960140337318,-0.02219005421701228,-0.009638694508086,-0.05315024425706643,0,70,255.0,255.0,255.0
267,13.350000000000001,-9.917831493167055,9.478725453223873,-5.6909397376929665,-0.3454279034252749,-0.14621600751178657,-0.8130576149343524,-0.02239819684865401,-0.008954996014219965,-0.05331379176775162,0,70,255.0,255.0,255.0
268,13.4,-9.935130972810478,9.471403743977637,-5.731659328824189,-0.3465530168334986,-0.1466466648501509,-0.815727393210507,-0.022606339480295737,-0.008271297520353955,-0.05347733927843681,0,70,255.0,255.0,255.0
269,13.450000000000001,-9.952486968302601,9.464061356487601,-5.7725126133036095,-0.34768853737330446,-0.14704313726382195,-0.818405348862196,-0.022814482111937467,-0.00758759902648792,-0.053640886789122,0,70,255.0,255.0,255.0
270,13.5,-9.9699,9.4567,-5.8135,-0.34883446504469234,-0.14740542475279972,-0.8210914818894193,-0.023022624743577413,-0.006903900532621687,-0.0538044342998063,0,70,255.0,255.0,255.0
271,13.55,-9.98737027694689,9.449320835711333,-5.854621395564992,-0.3499721211053542,-0.14776641030110493,-0.8237556592631823,-0.022483617682896632,-0.007535521399587007,-0.052762660650711606,0,70,255.0,255.0,255.0
272,13.600000000000001,-10.004896762937985,9.441922832619166,-5.895874697781611,-0.35108282681298203,-0.14815897689275845,-0.8263677479544905,-0.02194461062221585,-0.008167142266552326,-0.051720887001616915,0,70,255.0,255.0,255.0
273,13.65,-10.022478110455637,9.434504411671334,-5.937257302215734,-0.3521665821675758,-0.14858312452776018,-0.828927747963344,-0.021405603561535088,-0.008798763133517622,-0.05067911335252226,0,70,255.0,255.0,255.0
274,13.700000000000001,-10.040112971982195,9.427063993815668,-5.978766604433239,-0.35322338716913554,-0.14903885320611018,-0.8314356592897427,-0.020866596500854307,-0.00943038400048294,-0.04963733970342756,0,70,255.0,255.0,255.0
275,13.75,-10.0578,9.4196,-6.0204,-0.35425324181766116,-0.14952616292780846,-0.8338914819336867,-0.020327589440171323,-0.010062004867447794,-0.048595566054332906,0,70,255.0,255.0,255.0
276,13.8,-10.075538083196689,9.412111082174599,-6.062155386698872,-0.3552703184299478,-0.15003119354683256,-0.836325348913546,-0.020355475051293936,-0.01013921989351685,-0.04875911314003645,0,70,255.0,255.0,255.0
277,13.850000000000001,-10.093327055081005,9.404596816299463,-6.104032671180595,-0.35628878932279057,-0.15054008491716017,-0.8387673932476903,-0.020383360662416552,-0.010216434919585906,-0.048922660225739996,0,70,255.0,255.0,255.0
278,13.9,-10.111166985366976,9.397057009337027,-6.146032262312879,-0.3573086544961895,-0.1510528370387912,-0.8412176149361199,-0.020411246273539164,-0.010293649945654959,-0.04908620731144353,0,70,255.0,255.0,255.0
279,13.950000000000001,-10.129057943768633,9.389491468249728,-6.188154568963444,-0.35832991395014446,-0.15156944991172563,-0.8436760139788347,-0.020439131884661777,-0.010370864971724016,-0.04924975439714707,0,70,255.0,255.0,255.0
280,14.0,-10.147,9.3819,-6.2304,-0.35935256768465557,-0.15208992353596354,-0.8461425903758346,-0.02046701749578217,-0.010448079997792403,-0.04941330148285594,0,70,255.0,255.0,255.0
281,14.05,-10.164993390266359,9.374282835590277,-6.272769057639524,-0.3603866051748495,-0.15258881551157044,-0.8486229450826344,-0.02089448211197516,-0.009507599026483446,-0.04980088678913326,0,70,255.0,255.0,255.0
282,14.100000000000001,-10.183039016738,9.366641902182987,-6.31526261749602,-0.3614420158958531,-0.1530406834386119,-0.851122679054748,-0.021321946728168152,-0.00856711805517449,-0.05018847209541059,0,70,255.0,255.0,255.0
283,14.15,-10.20113794807646,9.358979550980559,-6.3578816485327545,-0.36251879984766633,-0.15344552731708788,-0.8536417922921754,-0.021749411344361126,-0.007626637083865566,-0.05057605740168789,0,70,255.0,255.0,255.0
284,14.200000000000001,-10.219291252943277,9.35129813318542,-6.400627119712993,-0.3636169570302892,-0.15380334714699845,-0.8561802847949168,-0.022176875960554118,-0.006686156112556609,-0.05096364270796522,0,70,255.0,255.0,255.0
285,14.25,-10.2375,9.3436,-6.4435,-0.3647364874437217,-0.15411414292834355,-0.8587381565629719,-0.02260434057674532,-0.005745675141247242,-0.05135122801424252,0,70,255.0,255.0,255.0
286,14.3,-10.255765155737876,9.335886375464298,-6.486501182743038,-0.3658712608706607,-0.15444554440688604,-0.8613108707559135,-0.02278659650081432,-0.0075103840004530995,-0.05155733970342205,0,70,255.0,255.0,255.0
287,14.350000000000001,-10.274087277967004,9.328153974968595,-6.529631258835333,-0.3670151470938032,-0.1548651813283889,-0.8638938905333142,-0.022968852424883317,-0.009275092859658957,-0.05176345139260157,0,70,255.0,255.0,255.0
288,14.4,-10.292466822327192,9.320398386740743,-6.57289074355611,-0.3681681461131491,-0.15537305369285195,-0.8664872158951737,-0.02315110834895231,-0.01103980171886475,-0.05196956308178109,0,70,255.0,255.0,255.0
289,14.450000000000001,-10.310904244458255,9.312615199008595,-6.616280152184592,-0.3693302579286984,-0.15596916150027534,-0.8690908468414922,-0.02333336427302131,-0.01280451057807061,-0.05217567477096061,0,70,255.0,255.0,255.0
290,14.5,-10.3294,9.3048,-6.6598,-0.37050148254045123,-0.15665350475065898,-0.8717047833722698,-0.023515620197092524,-0.014569219437275294,-0.052381786460140134,0,70,255.0,255.0,255.0
291,14.55,-10.347953986782139,9.296950062552531,-6.70345021138833,-0.37164835134249585,-0.1573250068608847,-0.8742935718937023,-0.022359131884691213,-0.012290864971752991,-0.05116975439716177,0,70,255.0,255.0,255.0
292,14.600000000000001,-10.36656387139399,9.289069397942633,-6.747228347162652,-0.37273739572892034,-0.1578825912478343,-0.876821758811986,-0.021202643572289903,-0.010012510506230688,-0.04995772233418339,0,70,255.0,255.0,255.0
293,14.65,-10.38522676261477,9.281163702056471,-6.7911313772428095,-0.3737686156997248,-0.15832625791150778,-0.8792893441271207,-0.020046155259888634,-0.007734156040708468,-0.04874569027120507,0,70,255.0,255.0,255.0
294,14.700000000000001,-10.403939769223703,9.273238670780202,-6.8351562715486445,-0.37474201125490925,-0.15865600685190515,-0.8816963278391066,-0.018889666947487324,-0.005455801575186166,-0.0475336582082267,0,70,255.0,255.0,255.0
295,14.75,-10.4227,9.2653,-6.8793,-0.3756575823944736,-0.15887183806902636,-0.8840427099479434,-0.01773317863508561,-0.00317744710966239,-0.04632162614525104,0,70,255.0,255.0,255.0
296,14.8,-10.44150529713357,9.257351774325576,-6.923560371703647,-0.3765593337593648,-0.15907042814958108,-0.886378841669274,-0.01833687596056147,-0.004766156112526576,-0.0471236427079747,0,70,255.0,255.0,255.0
297,14.850000000000001,-10.460356436457042,9.249391633260872,-6.967938552514064,-0.3774912699905298,-0.15934845368027903,-0.8887550742187409,-0.018940573286037328,-0.006354865115390762,-0.04792565927069836,0,70,255.0,255.0,255.0
298,14.9,-10.479254927213729,9.241415605033378,-7.012436547472657,-0.37845339108796855,-0.15970591466112016,-0.891171407596344,-0.019544270611513162,-0.007943574118254894,-0.048727675833421996,0,70,255.0,255.0,255.0
299,14.950000000000001,-10.498202278646945,9.233419717870591,-7.057056361620834,-0.3794456970516811,-0.16014281109210451,-0.8936278418020832,-0.02014796793698902,-0.009532283121119079,-0.04952969239614566,0,70,255.0,255.0,255.0
300,15.0,-10.5172,9.2254,-7.1018,-0.38046818788166736,-0.16065914297323208,-0.8961243768359586,-0.020751665262462637,-0.011120992123982543,-0.05033170895886663,0,70,255.0,255.0,255.0
301,15.05,-10.536249624683583,9.21735324014516,-7.146669101797086,-0.3815223136200529,-0.1612092805407835,-0.898639061429204,-0.021413364272958202,-0.010884510578074377,-0.0502556747709459,0,70,255.0,255.0,255.0
302,15.100000000000001,-10.555352782777849,9.209279269013877,-7.1916638427810975,-0.3826095243089632,-0.16174759403103953,-0.9011499443130533,-0.022075063283453763,-0.01064802903216621,-0.050179640583025174,0,70,255.0,255.0,255.0
303,15.15,-10.57451112853032,9.201178677810013,-7.236784032866567,-0.3837298199483983,-0.16227408344400013,-0.9036570254875065,-0.022736762293949303,-0.010411547486258053,-0.05010360639510445,0,70,255.0,255.0,255.0
304,15.200000000000001,-10.59372631618853,9.19305205773743,-7.282029481968025,-0.3848832005383582,-0.16278874877966534,-0.9061603049525636,-0.023398461304444864,-0.010175065940349887,-0.05002757220718372,0,70,255.0,255.0,255.0
305,15.25,-10.613,9.1849,-7.3274,-0.38606966607884274,-0.1632915900380351,-0.9086597827082248,-0.024060160314940404,-0.009938584394441952,-0.049951538019259445,0,70,255.0,255.0,255.0
306,15.3,-10.632333004132098,9.176723265093782,-7.372895221108014,-0.38723941176040494,-0.16377244968727642,-0.9111449126139118,-0.022729666947547127,-0.009295801575210962,-0.04945365820822296,0,70,255.0,255.0,255.0
307,15.350000000000001,-10.651722832431568,9.16852329068362,-7.41851407636155,-0.3883426327735975,-0.1642211701955562,-0.9136051485290472,-0.02139917358015385,-0.008653018755979973,-0.04895577839718646,0,70,255.0,255.0,255.0
308,15.4,-10.671166158664986,9.160301683726573,-7.464255321061076,-0.3893793291184203,-0.1646377515628744,-0.9160404904536305,-0.020068680212760617,-0.008010235936749006,-0.04845789858614999,0,70,255.0,255.0,255.0
309,15.450000000000001,-10.690659656598935,9.152060051179685,-7.51011771050707,-0.3903495007948735,-0.1650221937892311,-0.9184509383876621,-0.01873818684536734,-0.0073674531175180165,-0.0479600187751135,0,70,255.0,255.0,255.0
310,15.5,-10.7102,9.1438,-7.5561,-0.39125314780295706,-0.16537449687462624,-0.9208364923311418,-0.017407693477974107,-0.006724670298287272,-0.047462138964073475,0,70,255.0,255.0,255.0
311,15.55,-10.729784758788021,9.13552249947972,-7.60220121377086,-0.39214403933833125,-0.16573292071011153,-0.9232132881151475,-0.01822796793699234,-0.00761228312112331,-0.04760969239614887,0,70,255.0,255.0,255.0
312,15.600000000000001,-10.749415087495883,9.127225968251636,-7.64842145177271,-0.3930759445966563,-0.16613572518673858,-0.9255974615707567,-0.019048242396010575,-0.008499895943959349,-0.04775724582822428,0,70,255.0,255.0,255.0
313,15.65,-10.769093036809737,9.118908187283694,-7.694761082889129,-0.3940488635779323,-0.16658291030450745,-0.9279890126979699,-0.01986851685502878,-0.009387508766795356,-0.04790479926029967,0,70,255.0,255.0,255.0
314,15.700000000000001,-10.788820657415727,9.110566937543833,-7.741220476003699,-0.39506279628215923,-0.16707447606341813,-0.9303879414967868,-0.020688791314047012,-0.010275121589631394,-0.04805235269237507,0,70,255.0,255.0,255.0
315,15.75,-10.8086,9.1022,-7.7878,-0.3961177427093369,-0.1676104224634706,-0.9327942479672073,-0.021509065773063885,-0.011162734412466735,-0.048199906124445135,0,70,255.0,255.0,255.0
316,15.8,-10.828432760715822,9.09380593698734,-7.834499923808551,-0.39719243088627393,-0.16814386747229018,-0.9352019349254986,-0.021478461304414952,-0.010175065940315284,-0.04810757220720241,0,70,255.0,255.0,255.0
317,15.850000000000001,-10.848319217584903,9.08538643630983,-7.88132011654762,-0.3982655888397785,-0.16862792905750212,-0.9376050051879276,-0.02144785683576602,-0.009187397468163832,-0.04801523828995968,0,70,255.0,255.0,255.0
318,15.9,-10.868259294096077,9.07694396713865,-7.928260347382413,-0.3993372165698505,-0.16906260721910654,-0.9400034587544944,-0.02141725236711709,-0.008199728996012417,-0.04792290437271696,0,70,255.0,255.0,255.0
319,15.950000000000001,-10.888252913738167,9.06848099864498,-7.975320385478138,-0.40040731407649016,-0.16944790195710338,-0.9423972956251994,-0.02138664789846816,-0.007212060523860965,-0.04783057045547423,0,70,255.0,255.0,255.0
320,16.0,-10.9083,9.06,-8.0225,-0.40147588135969725,-0.16978381327149264,-0.9447865158000419,-0.021356043429817895,-0.006224392051709549,-0.04773823653822973,0,70,255.0,255.0,255.0
321,16.05,-10.928400198348696,9.051502552570918,-8.069799090994943,-0.40252623711657676,-0.17012360940072335,-0.9471789721828743,-0.020658186845362882,-0.007367453117518402,-0.047960018775061286,0,70,255.0,255.0,255.0
322,16.1,-10.948552042164504,9.042986686509039,-8.11721808203682,-0.40354170004423356,-0.1705205585832445,-0.9495825176775481,-0.01996033026090787,-0.008510514183327255,-0.04818180101189285,0,70,255.0,255.0,255.0
323,16.150000000000002,-10.968753786805966,9.034449544161705,-8.16475752758123,-0.40452227014266756,-0.17097466081905607,-0.9519971522840636,-0.019262473676452854,-0.009653575249136109,-0.04840358324872441,0,70,255.0,255.0,255.0
324,16.2,-10.989003687631618,9.025888267876246,-8.212417982083755,-0.40546794741187886,-0.17148591610815808,-0.9544228760024205,-0.01856461709199789,-0.010796636314944881,-0.04862536548555596,0,70,255.0,255.0,255.0
325,16.25,-11.0093,9.0173,-8.2602,-0.40637873185186735,-0.17205432445055052,-0.9568596888326191,-0.017866760507543766,-0.011939697380752623,-0.04884714772238752,0,70,255.0,255.0,255.0
326,16.3,-11.029641645889397,9.008683052728994,-8.308103712211688,-0.40729462064740724,-0.17260969492481099,-0.9592821763429885,-0.018768791314051306,-0.010275121589665013,-0.04805235269239033,0,70,255.0,255.0,255.0
327,16.35,-11.05003021375708,9.000040417654013,-8.356127555305108,-0.4082556109832725,-0.17308183660951704,-0.9616649241018582,-0.01967082212055884,-0.008610545798577405,-0.047257557662393146,0,70,255.0,255.0,255.0
328,16.400000000000002,-11.070467958680066,8.991376256214535,-8.404269542292683,-0.4092617028594632,-0.17347074950466873,-0.964007932109228,-0.02057285292706638,-0.0069459700074897945,-0.04646276263239596,0,70,255.0,255.0,255.0
329,16.45,-11.090957135735364,8.982694729850039,-8.452527686186837,-0.41031289627597906,-0.173776433610266,-0.9663112003650977,-0.021474883733573855,-0.005281394216402303,-0.04566796760239883,0,70,255.0,255.0,255.0
330,16.5,-11.1115,8.974,-8.5009,-0.4114091912328205,-0.1739988889263089,-0.9685747288694677,-0.022376914540082282,-0.003616818425314028,-0.04487317257240164,0,70,255.0,255.0,255.0
331,16.55,-11.132098018093716,8.965294836513113,-8.549385260158308,-0.4125032802937851,-0.17422161090003754,-0.9708443224451659,-0.02138664789850163,-0.005292060523831467,-0.04591057045552917,0,70,255.0,255.0,255.0
332,16.6,-11.152749502807177,8.956576442874914,-8.597985296742754,-0.4135478560226707,-0.17452809497869207,-0.9731657859150208,-0.020396381256920976,-0.006967302622348907,-0.04694796833865669,0,70,255.0,255.0,255.0
333,16.650000000000002,-11.173451978473782,8.94784063098016,-8.646702703248046,-0.4145429184194772,-0.17491834116227245,-0.9755391192790318,-0.019406114615340322,-0.008642544720866346,-0.04798536622178422,0,70,255.0,255.0,255.0
334,16.7,-11.194202969426923,8.939083212723606,-8.69554007316889,-0.4154884674842047,-0.1753923494507787,-0.977964322537199,-0.01841584797375974,-0.010317786819383666,-0.04902276410491167,0,70,255.0,255.0,255.0
335,16.75,-11.215,8.9303,-8.7445,-0.41638450321685316,-0.17595011984421077,-0.9804413956895228,-0.01742558133218086,-0.011993028917900883,-0.05006016198804275,0,70,255.0,255.0,255.0
336,16.8,-11.23584148173574,8.921488001218561,-8.793584047155086,-0.4172842581774568,-0.17651986147503276,-0.9829085338763611,-0.01856461709196468,-0.010796636314978585,-0.048625365485489146,0,70,255.0,255.0,255.0
337,16.85,-11.256729375014212,8.912649010846334,-8.842789657723886,-0.4182409649260497,-0.17702978347570864,-0.9853039322380718,-0.019703652851748497,-0.009600243712056289,-0.04719056898293555,0,70,255.0,255.0,255.0
338,16.900000000000002,-11.277666527424813,8.903786019864825,-8.892113244715144,-0.4192546234626317,-0.1774798858462384,-0.9876275907746548,-0.020842688611532316,-0.00840385110913399,-0.04575577248038194,0,70,255.0,255.0,255.0
339,16.95,-11.298655786556942,8.894902019255547,-8.941551221137598,-0.4203252337872028,-0.17787016858662202,-0.9898795094861099,-0.021981724371316052,-0.007207458506211778,-0.04432097597782844,0,70,255.0,255.0,255.0
340,17.0,-11.3197,8.886,-8.9911,-0.42145279589976326,-0.1782006316968596,-0.9920596883724375,-0.023120760131098983,-0.006011065903289259,-0.04288617947527662,0,70,255.0,255.0,255.0
341,17.05,-11.34080085496332,8.877081958612646,-9.040756951221354,-0.4225676869963809,-0.1785309431998509,-0.9942255420493804,-0.021474883733607595,-0.007201394216363139,-0.04374796760243741,0,70,255.0,255.0,255.0
342,17.1,-11.361955397135974,8.868145913739752,-9.090523272361711,-0.4236002842731241,-0.17892077111849594,-0.9964344851326814,-0.019829007336116207,-0.00839172252943702,-0.0446097557295982,0,70,255.0,255.0,255.0
343,17.150000000000002,-11.383159511826968,8.859188889560533,-9.140401117891395,-0.4245505877299926,-0.17937011545279463,-0.9986865176223403,-0.018183130938624822,-0.009582050842510898,-0.04547154385675899,0,70,255.0,255.0,255.0
344,17.2,-11.404409084345307,8.850207910254214,-9.190392642280717,-0.4254185973669865,-0.17987897620274698,-1.000981639518357,-0.016537254541133552,-0.010772379155584693,-0.04633333198391972,0,70,255.0,255.0,255.0
345,17.25,-11.4257,8.8412,-9.2405,-0.4262043131841059,-0.1804473533683531,-1.0033198508207322,-0.014891378143643053,-0.011962707468659683,-0.04719512011107874,0,70,255.0,255.0,255.0
346,17.3,-11.44702949841098,8.832163364330851,-9.290724947959507,-0.42698899383704025,-0.1810043657255542,-1.0056772979261321,-0.01649584797373136,-0.0103177868193838,-0.04710276410491652,0,70,255.0,255.0,255.0
347,17.35,-11.468400236441898,8.823100934194654,-9.341067652829278,-0.42785389798147905,-0.1814791320502915,-1.0080301272312238,-0.018100317803819668,-0.008672866170107915,-0.04701040809875429,0,70,255.0,255.0,255.0
348,17.400000000000002,-11.489816225267322,8.81401682189303,-9.391527883719295,-0.4287990256174223,-0.18187165234256503,-1.0103783387360075,-0.019704787633907973,-0.007027945520832032,-0.046918052092592075,0,70,255.0,255.0,255.0
349,17.45,-11.51128147606183,8.804915139727605,-9.442105409739536,-0.4298243767448698,-0.18218192660237467,-1.012721932440483,-0.021309257463996166,-0.005383024871556265,-0.046825696086429856,0,70,255.0,255.0,255.0
350,17.5,-11.5328,8.7958,-9.4928,-0.43092995136382184,-0.18240995482972064,-1.0150609083446502,-0.022913727294083586,-0.003738104222281491,-0.046733340080258756,0,70,255.0,255.0,255.0
351,17.55,-11.554374751392759,8.786674184063951,-9.543611256940626,-0.432052337655456,-0.18263559389793396,-1.0173852662461007,-0.021981724371281063,-0.005287458506250497,-0.04624097597775431,0,70,255.0,255.0,255.0
352,17.6,-11.576004457096445,8.777535149481636,-9.594538116321193,-0.43312812380094995,-0.18293870068034568,-1.0196850059424258,-0.02104972144847854,-0.006836812790219504,-0.04574861187524987,0,70,255.0,255.0,255.0
353,17.650000000000002,-11.59768678710375,8.768379022867348,-9.645579347231452,-0.4341573098003038,-0.1833192751769559,-1.0219601274336256,-0.020117718525676013,-0.00838616707418851,-0.045256247772745416,0,70,255.0,255.0,255.0
354,17.7,-11.619419411407371,8.759201930835372,-9.696733718761136,-0.4351398956535175,-0.1837773173877645,-1.0242106307197,-0.019185715602873556,-0.009935521358157406,-0.044763883670241006,0,70,255.0,255.0,255.0
355,17.75,-11.6412,8.75,-9.748,-0.4360758813605911,-0.18431282731277163,-1.0264365158006499,-0.018253712680072365,-0.011484875642126413,-0.04427151956773834,0,70,255.0,255.0,255.0
356,17.8,-11.663026696017988,8.740770299413343,-9.799377224277999,-0.4369936555411229,-0.18486925868271356,-1.0286536370894432,-0.0184572545411986,-0.01077237915555095,-0.04441333198399313,0,70,255.0,255.0,255.0
357,17.85,-11.684899535172331,8.731513667878799,-9.85086548188596,-0.437921606814711,-0.18539006522832674,-1.030877848999049,-0.018660796402324837,-0.010059882668975485,-0.04455514440024793,0,70,255.0,255.0,255.0
358,17.900000000000002,-11.706819026317678,8.722231886637584,-9.90246512735492,-0.4388597351813554,-0.18587524694961113,-1.033109151529468,-0.01886433826345107,-0.009347386182400021,-0.04469695681650272,0,70,255.0,255.0,255.0
359,17.95,-11.72878567830868,8.71292673693091,-9.954176515215918,-0.43980804064105605,-0.18632480384656672,-1.0353475446806994,-0.019067880124577295,-0.00863488969582461,-0.044838769232757515,0,70,255.0,255.0,255.0
360,18.0,-11.7508,8.7036,-10.006,-0.4407665231938131,-0.18673873591919357,-1.0375930284527437,-0.019271421985699977,-0.00792239320924959,-0.044980581649008755,0,70,255.0,255.0,255.0
361,18.05,-11.77286246453529,8.69425341828267,-10.057935845947382,-0.4417330401800547,-0.18711937137121362,-1.0398401853961297,-0.019389257463964516,-0.007303024871552512,-0.044905696086427936,0,70,255.0,255.0,255.0
362,18.1,-11.794973402214238,8.68488857900316,-10.109983956134979,-0.4427054489402096,-0.18746903840634885,-1.0420835980613867,-0.01950709294222906,-0.006683656533855435,-0.04483081052384712,0,70,255.0,255.0,255.0
363,18.150000000000002,-11.817133107625542,8.675507030582317,-10.162144143348886,-0.4436837494742777,-0.18778773702459917,-1.0443232664485145,-0.019624928420493598,-0.006064288196158359,-0.0447559249612663,0,70,255.0,255.0,255.0
364,18.2,-11.839341875357896,8.66611032144098,-10.214416220375194,-0.4446679417822589,-0.18807546722596466,-1.0465591905575131,-0.01974276389875813,-0.005444919858461326,-0.044681039398685486,0,70,255.0,255.0,255.0
365,18.25,-11.8616,8.6567,-10.2668,-0.44565802586415343,-0.18833222901044527,-1.0487913703883829,-0.019860599377020005,-0.004825551520763138,-0.04460615383610467,0,70,255.0,255.0,255.0
366,18.3,-11.883907445840856,8.647276827455979,-10.319295391932478,-0.4466341837386508,-0.18860525583241852,-1.0510256213260407,-0.019185715602873445,-0.0060955213581659964,-0.044763883670209385,0,70,255.0,255.0,255.0
367,18.35,-11.90626285597072,8.637838416108561,-10.371902693574134,-0.4475765974244408,-0.18894178114626187,-1.0532677587554038,-0.018510831828726884,-0.0073654911955688546,-0.0449216135043141,0,70,255.0,255.0,255.0
368,18.400000000000002,-11.928664543180155,8.628381591033154,-10.424622299249549,-0.4484852669215235,-0.18934180495197542,-1.0555177826764721,-0.017835948054580324,-0.008635461032971713,-0.045079343338418815,0,70,255.0,255.0,255.0
369,18.45,-11.951110820259727,8.618903177305166,-10.477454603283308,-0.44936019222989876,-0.189805327249559,-1.0577756930892457,-0.017161064280433812,-0.00990543087037448,-0.04523707317252352,0,70,255.0,255.0,255.0
370,18.5,-11.9736,8.6094,-10.5304,-0.4502013733495668,-0.1903323480390128,-1.0600414899937247,-0.016486180506286807,-0.011175400707775784,-0.04539480300663001,0,70,255.0,255.0,255.0
371,18.55,-11.996130952101286,8.599869671893419,-10.583458586322708,-0.4510422248653393,-0.19087560529910355,-1.0622973292997093,-0.017147880124615086,-0.010554889695854133,-0.04483876923275573,0,70,255.0,255.0,255.0
372,18.6,-12.018704773902883,8.5903129565626,-10.636629269568495,-0.45191616136202833,-0.19138783700859824,-1.0645253669170003,-0.01780957974294337,-0.00993437868393248,-0.04428273545888144,0,70,255.0,255.0,255.0
373,18.650000000000002,-12.041323119653837,8.58073140528507,-10.689910659652929,-0.4528231828396337,-0.19186904316749684,-1.0667256028455976,-0.018471279361271648,-0.009313867672010829,-0.04372670168500716,0,70,255.0,255.0,255.0
374,18.7,-12.063987643603193,8.571126569338361,-10.743301366491574,-0.45376328929815546,-0.1923192237757993,-1.068898037085501,-0.019132978979599882,-0.008693356660089222,-0.043170667911132915,0,70,255.0,255.0,255.0
375,18.75,-12.0867,8.5615,-10.7968,-0.4547364807375936,-0.1927383788335057,-1.0710426696367108,-0.01979467859792683,-0.008072845648165572,-0.042614634137258633,0,70,255.0,255.0,255.0
376,18.8,-12.109461545754002,8.551853284970344,-10.850405462776699,-0.45572491680000987,-0.19312432297117124,-1.0731770614751097,-0.01974276389872278,-0.007364919858455899,-0.04276103939868961,0,70,255.0,255.0,255.0
377,18.85,-12.132272448417751,8.542188157641041,-10.904117828151895,-0.4567107571274659,-0.1934748708193513,-1.07531877357658,-0.01969084919951873,-0.006656994068746227,-0.04290744466012058,0,70,255.0,255.0,255.0
378,18.900000000000002,-12.1551325782045,8.532506387826567,-10.957937462138744,-0.4576940017199618,-0.19379002237804588,-1.0774678059411218,-0.019638934500314686,-0.005949068279036554,-0.04305384992155155,0,70,255.0,255.0,255.0
379,18.95,-12.1780418053275,8.522809745341396,-11.011864730750391,-0.4586746505774973,-0.19406977764725494,-1.0796241585687347,-0.01958701980111064,-0.005241142489326932,-0.04320025518298251,0,70,255.0,255.0,255.0
380,19.0,-12.201,8.5131,-11.0659,-0.45965270370007283,-0.19431413662697855,-1.08178783145942,-0.01953510510190526,-0.004533216699616371,-0.043346660444418816,0,70,255.0,255.0,255.0
381,19.05,-12.224006864882707,8.503377988225205,-11.120043562570498,-0.4606181079346303,-0.19457910281622767,-1.0839544247998447,-0.019081064280394237,-0.0060654308703486535,-0.043317073172564946,0,70,255.0,255.0,255.0
382,19.1,-12.247061432426113,8.493640812873236,-11.174295417823926,-0.4615608101281123,-0.19492067971401342,-1.0861195387766764,-0.018627023458883216,-0.007597645041080936,-0.043287485900711076,0,70,255.0,255.0,255.0
383,19.150000000000002,-12.270162567528168,8.483884643408661,-11.228655491792106,-0.4624808102805187,-0.19533886732033579,-1.0882831733899156,-0.018172982637372194,-0.009129859211813217,-0.043257898628857205,0,70,255.0,255.0,255.0
384,19.200000000000003,-12.293309135086814,8.474105649296058,-11.283123710506858,-0.4633781083918495,-0.19583366563519478,-1.0904453286395626,-0.017718941815861176,-0.0106620733825455,-0.043228311357003335,0,70,255.0,255.0,255.0
385,19.25,-12.3165,8.4643,-11.3377,-0.4642527044621048,-0.1964050746585903,-1.0926060045256158,-0.017264900994351517,-0.012194287553276784,-0.04319872408514769,0,70,255.0,255.0,255.0
386,19.3,-12.339734194715174,8.454465162128834,-11.392384286941313,-0.46511465146145453,-0.19697526576392432,-1.094765239325522,-0.017212978979638204,-0.010613356660083607,-0.043170667911098096,0,70,255.0,255.0,255.0
387,19.35,-12.363011421877799,8.444603790866019,-11.447176500552409,-0.46597400236006864,-0.19746641032459866,-1.0969230713167255,-0.01716105696492489,-0.009032425766890428,-0.043142611737048496,0,70,255.0,255.0,255.0
388,19.400000000000002,-12.386331551682838,8.434719838538784,-11.502076570692845,-0.4668307571579471,-0.19787850834061338,-1.0990795004992269,-0.017109134950211578,-0.00745149487369725,-0.0431145555629989,0,70,255.0,255.0,255.0
389,19.450000000000003,-12.409694454325251,8.424817257474368,-11.557084427222188,-0.46768491585508987,-0.19821155981196842,-1.1012345268730257,-0.017057212935498264,-0.0058705639805040725,-0.043086499388949304,0,70,255.0,255.0,255.0
390,19.5,-12.4331,8.4149,-11.6122,-0.46853647845149693,-0.19846556473866375,-1.103388150438122,-0.0170052909207854,-0.0042896330873103405,-0.04305844321490149,0,70,255.0,255.0,255.0
391,19.55,-12.456548356256594,8.404970963259457,-11.667423289664246,-0.46940328621954525,-0.19870383412807968,-1.1055446178980692,-0.01766701980114861,-0.005241142489326625,-0.04320025518298572,0,70,255.0,255.0,255.0
392,19.6,-12.480040880062688,8.39502882366269,-11.722754579966448,-0.47030318043161184,-0.19898967898759642,-1.1077081759564207,-0.018328748681511815,-0.006192651891342909,-0.043342067151069946,0,70,255.0,255.0,255.0
393,19.650000000000002,-12.503579225740488,8.385071202436196,-11.778194225436529,-0.4712361610876965,-0.19932309931721398,-1.1098788246131763,-0.018990477561875024,-0.007144161293359193,-0.043483879119154176,0,70,255.0,255.0,255.0
394,19.700000000000003,-12.527165047612192,8.375095720806467,-11.833742580604406,-0.4722022281877994,-0.19970409511693235,-1.112056563868336,-0.019652206442238234,-0.008095670695375477,-0.043625691087238405,0,70,255.0,255.0,255.0
395,19.75,-12.5508,8.3651,-11.8894,-0.47320138173192033,-0.2001326663867515,-1.1142413937219,-0.020313935322602727,-0.00904718009739125,-0.04376750305531907,0,70,255.0,255.0,255.0
396,19.8,-12.574485180258456,8.35508218483334,-11.945166554401709,-0.474200203660381,-0.20057739772375002,-1.116416289082208,-0.019638941815823586,-0.008742073382549483,-0.043228311356999775,0,70,255.0,255.0,255.0
397,19.85,-12.59821945787145,8.34504251448322,-12.001041179581808,-0.4751652759135027,-0.20100687372500645,-1.1185642248576,-0.018963948309044444,-0.008436966667707714,-0.04268911965868048,0,70,255.0,255.0,255.0
398,19.900000000000002,-12.622001145355217,8.334981751716434,-12.057022527561056,-0.4760965984912855,-0.20142109439052083,-1.1206852010480761,-0.018288954802265306,-0.008131859952865948,-0.04214992796036119,0,70,255.0,255.0,255.0
399,19.950000000000003,-12.645828555225991,8.324900659299765,-12.113109250360202,-0.4769941713937293,-0.20182005972029307,-1.1227792176536362,-0.017613961295486164,-0.00782675323802418,-0.0416107362620419,0,70,255.0,255.0,255.0
400,20.0,-12.6697,8.3148,-12.1693,-0.4778579946208341,-0.2022037697143232,-1.1248462746742802,-0.01693896778870929,-0.0075216465231813245,-0.04107154456372264,0,70,255.0,255.0,255.0
401,20.05,-12.69361412270959,8.304680297407188,-12.22559369272893,-0.4787078991389385,-0.20258657497691607,-1.1269022257730972,-0.01705721293546496,-0.007790563980533176,-0.04116649938895627,0,70,255.0,255.0,255.0
402,20.1,-12.717570888451517,8.294541118404428,-12.281990301706331,-0.47956371591438063,-0.20298282611237653,-1.1289629246131758,-0.017175458082220634,-0.008059481437885027,-0.0412614542141899,0,70,255.0,255.0,255.0
403,20.150000000000002,-12.74157059283865,8.284381790698069,-12.33849006431927,-0.48042544494716055,-0.20339252312070458,-1.1310283711945162,-0.017293703228976304,-0.008328398895236877,-0.04135640903942353,0,70,255.0,255.0,255.0
404,20.200000000000003,-12.765613531483856,8.274201641994473,-12.395093217954805,-0.4812930862372783,-0.2038156660019002,-1.1330985655171184,-0.017411948375731973,-0.008597316352588728,-0.041451363864657156,0,70,255.0,255.0,255.0
405,20.25,-12.7897,8.264,-12.4518,-0.4821666397847338,-0.20425225475596345,-1.1351735075809821,-0.017530193522488968,-0.008866233809939894,-0.04154631868988545,0,70,255.0,255.0,255.0
406,20.3,-12.813830328903192,8.253776625537904,-12.50861067468258,-0.48304819978385294,-0.20467630236859546,-1.13725480782541,-0.017732206442277403,-0.00809567069534095,-0.041705691087238254,0,70,255.0,255.0,255.0
407,20.35,-12.838004988322487,8.243533011899068,-12.565525613592873,-0.48393986042896153,-0.20506182182549754,-1.139344076689706,-0.017934219362065833,-0.007325107580742007,-0.04186506348459105,0,70,255.0,255.0,255.0
408,20.400000000000002,-12.862224483290188,8.233271085491284,-12.622545215161882,-0.48484162172005957,-0.2054088131266697,-1.1414413141738695,-0.018136232281854268,-0.006554544466143064,-0.04202443588194385,0,70,255.0,255.0,255.0
409,20.450000000000003,-12.886489318838592,8.222992772722328,-12.679669877820594,-0.485753483657147,-0.20571727627211187,-1.1435465202779003,-0.0183382452016427,-0.005783981351544121,-0.04218380827929665,0,70,255.0,255.0,255.0
410,20.5,-12.9108,8.2127,-12.7369,-0.4866754462402238,-0.2059872112618241,-1.1456596950017988,-0.018540258121432895,-0.005013418236944345,-0.04234318067664056,0,70,255.0,255.0,255.0
411,20.55,-12.935156561677653,8.202394000441194,-12.794235608540763,-0.48757930172564684,-0.2062602155486984,-1.147758542925265,-0.017613961295487788,-0.005906753238027885,-0.041610736262006384,0,70,255.0,255.0,255.0
412,20.6,-12.959557158258542,8.192073233999295,-12.851675243922184,-0.48843684236977264,-0.2065778865856269,-1.1498207686279993,-0.01668766446954268,-0.006800088239111427,-0.04087829184737222,0,70,255.0,255.0,255.0
413,20.650000000000002,-12.983999474000608,8.181735467336798,-12.90921707503322,-0.48924806817260114,-0.20694022437260953,-1.151846372110002,-0.015761367643597573,-0.007693423240194968,-0.04014584743273805,0,70,255.0,255.0,255.0
414,20.700000000000003,-13.008481193161783,8.1713784671162,-12.96685927076284,-0.4900129791341324,-0.2073472289096464,-1.1538353533712735,-0.014835070817652465,-0.00858675824127851,-0.03941340301810388,0,70,255.0,255.0,255.0
415,20.75,-13.033,8.161,-13.0246,-0.49073157525436634,-0.20779890019673736,-1.1557877124118126,-0.013908773991707424,-0.00948009324236132,-0.03868095860346976,0,70,255.0,255.0,255.0
416,20.8,-13.057554624386201,8.150598572697312,-13.082438091154371,-0.49146659331355247,-0.20825083543661113,-1.1577430204735166,-0.015491948375736909,-0.008597316352588612,-0.03953136386469646,0,70,255.0,255.0,255.0
417,20.85,-13.082147978643343,8.140175652103748,-13.140375010718405,-0.49228077009194005,-0.20865863183199623,-1.159740848798282,-0.017075122759766394,-0.007714539462815903,-0.04038176912592315,0,70,255.0,255.0,255.0
418,20.900000000000002,-13.106784020707382,8.129733445161522,-13.198412884705252,-0.4931741055895291,-0.20902228938289272,-1.161781197386109,-0.01865829714379588,-0.006831762573043194,-0.04123217438714985,0,70,255.0,255.0,255.0
419,20.950000000000003,-13.131466708514283,8.119274158812866,-13.256553839128067,-0.49414659980631964,-0.20934180808930059,-1.1638640662369972,-0.020241471527825364,-0.005948985683270486,-0.04208257964837654,0,70,255.0,255.0,255.0
420,21.0,-13.1562,8.1088,-13.3148,-0.49519825274231155,-0.20961718795121975,-1.165989455350947,-0.02182464591185429,-0.005066208793497395,-0.0429329849096014,0,70,255.0,255.0,255.0
421,21.05,-13.180986540777543,8.098312508769549,-13.373152826841755,-0.4962503250201489,-0.2098884427048458,-1.168117375180669,-0.02025824520163899,-0.0057839813515437755,-0.04218380827929023,0,70,255.0,255.0,255.0
422,21.1,-13.20582372716809,8.087810557585716,-13.43161111320421,-0.49722407726247553,-0.21019558608637415,-1.1702078361788761,-0.018691844491423693,-0.006501753909590156,-0.04143463164897907,0,70,255.0,255.0,255.0
423,21.150000000000002,-13.230707643169868,8.077292352017112,-13.490172986145787,-0.4981195094692913,-0.21053861809580482,-1.1722608383455673,-0.017125443781208394,-0.007219526467636536,-0.0406854550186679,0,70,255.0,255.0,255.0
424,21.200000000000003,-13.255634372781095,8.06675609763234,-13.548836572724909,-0.4989366216405963,-0.2109175387331378,-1.1742763816807427,-0.015559043070993095,-0.007937299025682916,-0.03993627838835674,0,70,255.0,255.0,255.0
425,21.25,-13.2806,8.0562,-13.6076,-0.4996754137763905,-0.2113323479983731,-1.1762544661844028,-0.013992642360776575,-0.008655071583729912,-0.03918710175804918,0,70,255.0,255.0,255.0
426,21.3,-13.30560161250363,8.045622592224495,-13.66646180147861,-0.5003961066058513,-0.2117633937439992,-1.1782194788038067,-0.014835070817652353,-0.008586758241312385,-0.0394134030181057,0,70,255.0,255.0,255.0
427,21.35,-13.3306403126843,8.035023717553385,-13.725422136464765,-0.5011589208581557,-0.21219102382250435,-1.1801958064862133,-0.01567749927452813,-0.00851844489889486,-0.03963970427816222,0,70,255.0,255.0,255.0
428,21.400000000000002,-13.355718206613158,8.02440354677003,-13.784481570711616,-0.501963856533304,-0.21261523823388867,-1.1821834492316228,-0.016519927731403906,-0.008450131556477333,-0.039866005538218736,0,70,255.0,255.0,255.0
429,21.450000000000003,-13.380837400361346,8.013762250657784,-13.843640669972313,-0.5028109136312963,-0.2130360369781521,-1.1841824070400353,-0.017362356188279686,-0.008381818214059807,-0.04009230679827526,0,70,255.0,255.0,255.0
430,21.5,-13.406,8.0031,-13.9029,-0.5037000921521321,-0.2134534200552946,-1.1861926799114506,-0.018204784645155847,-0.008313504871641175,-0.040318608058329986,0,70,255.0,255.0,255.0
431,21.55,-13.43120780920795,7.992417122332474,-13.96225996724381,-0.5046132485564567,-0.21385798231916686,-1.1882047096041175,-0.01832147152782948,-0.00786898568324838,-0.04016257964834473,0,70,255.0,255.0,255.0
432,21.6,-13.456461422094716,7.981714572200739,-14.021720340936739,-0.5055322393049151,-0.21424031862361945,-1.190208937876285,-0.018438158410503117,-0.007424466494855585,-0.04000655123835947,0,70,255.0,255.0,255.0
433,21.650000000000002,-13.48176113037751,7.970993460902768,-14.081280731007764,-0.5064570643975072,-0.21460042896865242,-1.1922053647279536,-0.01855484529317675,-0.006979947306462789,-0.039850522828374216,0,70,255.0,255.0,255.0
434,21.700000000000003,-13.507107225773536,7.960254899736531,-14.14094074738586,-0.5073877238342327,-0.21493831335426572,-1.1941939901591225,-0.018671532175850387,-0.006535428118069994,-0.03969449441838896,0,70,255.0,255.0,255.0
435,21.75,-13.5325,7.9495,-14.2007,-0.5083242176150922,-0.21525397178045938,-1.196174814169792,-0.018788219058523126,-0.006090908929676564,-0.03953846600840194,0,70,255.0,255.0,255.0
436,21.8,-13.557939150664584,7.938729718445607,-14.260558329546159,-0.5092308991683291,-0.21555667697934264,-1.198161682779711,-0.01747904307095281,-0.006017299025653732,-0.03993627838835892,0,70,255.0,255.0,255.0
437,21.85,-13.583421998936846,7.927944393643651,-14.320516499788289,-0.5100721219221874,-0.2158557016830248,-1.200168442008628,-0.01616986708338249,-0.0059436891216309,-0.0403340907683159,0,70,255.0,255.0,255.0
438,21.900000000000002,-13.608945271876813,7.9171442096188915,-14.38057550525734,-0.5108478858766673,-0.21615104589150574,-1.2021950918565427,-0.014860691095812173,-0.005870079217608067,-0.04073190314827288,0,70,255.0,255.0,255.0
439,21.950000000000003,-13.634505696544522,7.9063293503960885,-14.440736340484262,-0.5115581910317687,-0.21644270960478557,-1.2042416323234555,-0.013551515108241855,-0.005796469313585235,-0.04112971552822986,0,70,255.0,255.0,255.0
440,22.0,-13.6601,7.8955,-14.501,-0.5122030373874915,-0.21673069282286428,-1.2063080634093657,-0.01224233912067163,-0.005722859409562631,-0.04152752790818681,0,70,255.0,255.0,255.0
441,22.05,-13.68572598813372,7.884656003885094,-14.561366714571557,-0.5128471547702164,-0.21703530976345536,-1.208348559277029,-0.013522356188323332,-0.00646181821408086,-0.04009230679834415,0,70,255.0,255.0,255.0
442,22.1,-13.711385782157913,7.87379585322465,-14.621833659910113,-0.5135552730063239,-0.21737687464427236,-1.2103172940892002,-0.014802373255975035,-0.00720077701859909,-0.038657085688501486,0,70,255.0,255.0,255.0
443,22.150000000000002,-13.737082582115244,7.8629177006216615,-14.682397247962887,-0.5143273920958139,-0.21775538746531528,-1.2122142678458794,-0.01608239032362674,-0.00793973582311732,-0.03722186457865882,0,70,255.0,255.0,255.0
444,22.200000000000003,-13.762819588048384,7.852019698679115,-14.74305389067711,-0.5151635120386865,-0.21817084822658414,-1.214039480547066,-0.01736240739127844,-0.00867869462763555,-0.03578664346881616,0,70,255.0,255.0,255.0
445,22.25,-13.7886,7.8411,-14.8038,-0.5160636328349417,-0.21862325692807882,-1.2157929321927607,-0.018642424458931828,-0.009417653432153283,-0.03435142235897359,0,70,255.0,255.0,255.0
446,22.3,-13.814426496800536,7.83015746601402,-14.864633212167613,-0.5169964817508114,-0.2190700839668347,-1.2175480801121932,-0.01867153217585127,-0.008455428118081962,-0.03585449441832795,0,70,255.0,255.0,255.0
447,22.35,-13.840299672431513,7.819193793457744,-14.925556060571271,-0.5179307860525268,-0.21946879973988703,-1.2193783816345936,-0.01870063989277071,-0.00749320280401064,-0.03735756647768231,0,70,255.0,255.0,255.0
448,22.400000000000002,-13.866219599662221,7.808211387894459,-14.986572302891124,-0.5188665457400884,-0.21981940424723578,-1.2212838367599614,-0.01872974760969015,-0.006530977489939319,-0.03886063853703667,0,70,255.0,255.0,255.0
449,22.450000000000003,-13.892186351261953,7.797212654887448,-15.047685696807319,-0.519803760813496,-0.22012189748888097,-1.2232644454882973,-0.01875885532660959,-0.005568752175867998,-0.04036371059639103,0,70,255.0,255.0,255.0
450,22.5,-13.9182,7.7862,-15.1089,-0.5207424312727493,-0.22037627946482258,-1.2253202078196004,-0.018787963043529032,-0.004606526861796301,-0.041866782655743506,0,70,255.0,255.0,255.0
451,22.55,-13.944260024664135,7.775174932058826,-15.170218036757996,-0.5216469182265425,-0.2206363543692067,-1.227395120274199,-0.0173915151081985,-0.0057964693135683365,-0.041129715528196074,0,70,255.0,255.0,255.0
452,22.6,-13.970363528116042,7.764135372944369,-15.231638897804817,-0.5224815827835693,-0.22095592639617942,-1.22943317937242,-0.015995067172867965,-0.006986411765340372,-0.04039264840064865,0,70,255.0,255.0,255.0
453,22.650000000000002,-13.996507019235882,7.753078347800499,-15.293160740472635,-0.5232464249438293,-0.22133499554574074,-1.231434385114264,-0.014598619237537431,-0.008176354217112408,-0.03965558127310122,0,70,255.0,255.0,255.0
454,22.700000000000003,-14.022687006903814,7.7420008817710855,-15.354781722093637,-0.523941444707323,-0.22177356181789065,-1.2333987374997302,-0.013202171302206897,-0.009366296668884444,-0.038918514145553786,0,70,255.0,255.0,255.0
455,22.75,-14.0489,7.7309,-15.4165,-0.5245666420740501,-0.2222716252126292,-1.2353262365288191,-0.011805723366879128,-0.010556239120657951,-0.038181447017999304,0,70,255.0,255.0,255.0
456,22.8,-14.07514380454292,7.719774005750673,-15.478313840800402,-0.5251998453430052,-0.22275249855633697,-1.2372234387909913,-0.01352240739132269,-0.008678694627652934,-0.037706643468877483,0,70,255.0,255.0,255.0
457,22.85,-14.10142141510432,7.708626314764777,-15.540221948209476,-0.5259188828131823,-0.2231394946753945,-1.239096900875707,-0.015239091415766253,-0.0068011501346479175,-0.037231839919755656,0,70,255.0,255.0,255.0
458,22.900000000000002,-14.12773712339426,7.697461620903544,-15.60222313521835,-0.5267237544845819,-0.2234326135698018,-1.2409466227829669,-0.016955775440209816,-0.0049236056416429004,-0.036757036370633836,0,70,255.0,255.0,255.0
459,22.950000000000003,-14.154095221122802,7.686284618028208,-15.66431621481815,-0.5276144603572035,-0.22363185523955878,-1.2427726045127703,-0.018672459464653377,-0.003046061148637884,-0.03628223282151201,0,70,255.0,255.0,255.0
460,23.0,-14.1805,7.6751,-15.7265,-0.5285910004310471,-0.2237372196846656,-1.2445748460651176,-0.02038914348909504,-0.0011685166556336668,-0.03580742927238134,0,70,255.0,255.0,255.0
461,23.05,-14.20695435716418,7.66391064493848,-15.788773800040397,-0.5295697004014397,-0.2238576514054528,-1.2463831245618362,-0.018758855326608325,-0.003648752175855154,-0.03652371059636295,0,70,255.0,255.0,255.0
462,23.1,-14.233455611466676,7.65271216799652,-15.851138909357287,-0.5304668859637081,-0.2241020949022511,-1.248227217124754,-0.01712856716412161,-0.0061289876960766414,-0.03723999192034457,0,70,255.0,255.0,255.0
463,23.150000000000002,-14.259999687187083,7.641498368585322,-15.91359711865398,-0.5312825571178519,-0.22447055017506048,-1.2501071237538708,-0.015498279001634894,-0.008609223216298128,-0.03795627324432618,0,70,255.0,255.0,255.0
464,23.200000000000003,-14.286582508604994,7.630263046116081,-15.97615021863378,-0.5320167138638715,-0.22496301722388093,-1.2520228444491865,-0.013867990839148178,-0.011089458736519616,-0.0386725545683078,0,70,255.0,255.0,255.0
465,23.25,-14.3132,7.619,-16.0388,-0.5326693562017666,-0.2255794960487124,-1.2539743792107017,-0.012237702676657136,-0.013569694256740927,-0.039388835892294694,0,70,255.0,255.0,255.0
466,23.3,-14.339849166800361,7.607705014495405,-16.101547759038006,-0.5333053530512373,-0.22620089582185296,-1.2559320629616488,-0.013202171302173596,-0.011286296668880492,-0.038918514145587925,0,70,255.0,255.0,255.0
467,23.35,-14.36653133902898,7.5963818132491365,-16.164392814361378,-0.5339895733319839,-0.22670812571560048,-1.2578662306252606,-0.014166639927690055,-0.009002899081020057,-0.03844819239888116,0,70,255.0,255.0,255.0
468,23.400000000000002,-14.393248927857416,7.585036104755168,-16.227333990165743,-0.5347220170440063,-0.22710118572995497,-1.259776882201537,-0.015131108553206514,-0.006719501493159621,-0.037977870652174395,0,70,255.0,255.0,255.0
469,23.450000000000003,-14.420004344457235,7.573673597507465,-16.29037011064674,-0.5355026841873046,-0.22738007586491643,-1.261664017690478,-0.016095577178722974,-0.004436103905299187,-0.03750754890546763,0,70,255.0,255.0,255.0
470,23.5,-14.4468,7.5623,-16.3535,-0.5363315747618785,-0.2275447961204849,-1.2635276370920834,-0.0170600458042367,-0.0021527063174384686,-0.03703722715875912,0,70,255.0,255.0,255.0
471,23.55,-14.473637775634375,7.550919697079898,-16.41672236380758,-0.5371768873936018,-0.22767476530713682,-1.26536062359159,-0.0167524594646915,-0.0030460611486382255,-0.0362822328215067,0,70,255.0,255.0,255.0
472,23.6,-14.50051743241741,7.539531779006927,-16.480035433197216,-0.5380068207083477,-0.22784940223534872,-1.267155860374234,-0.0164448731251463,-0.003939415979837982,-0.03552723848425428,0,70,255.0,255.0,255.0
473,23.650000000000002,-14.527438201383259,7.528134012394005,-16.543437320683054,-0.5388213747061165,-0.22806870690512063,-1.2689133474400156,-0.0161372867856011,-0.004832770811037739,-0.034772244147001856,0,70,255.0,255.0,255.0
474,23.700000000000003,-14.554399313566075,7.516724163854055,-16.60692613877927,-0.5396205493869078,-0.2283326793164525,-1.2706330847889342,-0.0158297004460559,-0.005726125642237496,-0.03401724980974943,0,70,255.0,255.0,255.0
475,23.75,-14.5814,7.5053,-16.6705,-0.540404344750722,-0.22864131946934435,-1.2723150724209906,-0.015522114106512497,-0.006619480473436301,-0.033262255472495283,0,70,255.0,255.0,255.0
476,23.8,-14.608439730662143,7.493859397184998,-16.734157985731684,-0.5411870973743633,-0.22898804294959346,-1.2740174426720086,-0.015787990839142733,-0.007249458736528167,-0.03483255456821619,0,70,255.0,255.0,255.0
477,23.85,-14.635518931301382,7.4824006707231545,-16.797903052849783,-0.5419831438346363,-0.2293662653429972,-1.2757983278778122,-0.01605386757177297,-0.007879436999620033,-0.0364028536639371,0,70,255.0,255.0,255.0
478,23.900000000000002,-14.66263826660955,7.470922245668812,-16.861739127102044,-0.5427924841315407,-0.22977598664955548,-1.2776577280384023,-0.016319744304403205,-0.0085094152627119,-0.037973152759658,0,70,255.0,255.0,255.0
479,23.950000000000003,-14.68979840127848,7.459422547076312,-16.925670134236203,-0.5436151182650766,-0.2302172068692684,-1.2795956431537783,-0.01658562103703344,-0.009139393525803766,-0.03954345185537891,0,70,255.0,255.0,255.0
480,24.0,-14.717,7.4479,-16.9897,-0.5444510462352439,-0.23068992600213584,-1.2816120732239398,-0.016851497769660995,-0.009769371788896475,-0.04111375095109082,0,70,255.0,255.0,255.0
481,24.05,-14.744243301717063,7.436353914180108,-17.0538312932657,-0.5452747231089525,-0.23114106289449093,-1.2836256057203552,-0.016095577178686316,-0.008276103905307754,-0.039427548905527465,0,70,255.0,255.0,255.0
482,24.1,-14.771526842377071,7.424787138100453,-17.118061155403666,-0.5460606039531125,-0.23151753639266662,-1.2855548281144926,-0.015339656587711636,-0.0067828360217190315,-0.03774134685996411,0,70,255.0,255.0,255.0
483,24.150000000000002,-14.798848732178548,7.413203404930744,-17.18238537090878,-0.5468086887677237,-0.23181934649666286,-1.2873997404063517,-0.014583735996736957,-0.00528956813813031,-0.036055144814400746,0,70,255.0,255.0,255.0
484,24.200000000000003,-14.826207081320018,7.401606447840689,-17.24679972427593,-0.5475189775527862,-0.23204649320647966,-1.2891603425959328,-0.01382781540576228,-0.003796300254541589,-0.03436894276883739,0,70,255.0,255.0,255.0
485,24.25,-14.8536,7.39,-17.3113,-0.5481914703083,-0.23219897652211705,-1.2908366346832352,-0.013071894814789431,-0.0023030323709536393,-0.032682740723272374,0,70,255.0,255.0,255.0
486,24.3,-14.881026262469613,7.378386546094567,-17.37588324120552,-0.5488660101898212,-0.23235170547244607,-1.2925041344465624,-0.013909700446062358,-0.0038061256422074353,-0.03401724980982019,0,70,255.0,255.0,255.0
487,24.35,-14.908487299190343,7.366763576875028,-17.440551525535565,-0.5495824403529063,-0.23257958908633777,-1.2942383596642173,-0.014747506077335283,-0.005309218913461231,-0.035351758896368005,0,70,255.0,255.0,255.0
488,24.400000000000002,-14.935985204676264,7.355127334608207,-17.50530818926285,-0.5503407607975548,-0.2328826273637922,-1.2960393103361993,-0.01558531170860821,-0.006812312184715028,-0.03668626798291582,0,70,255.0,255.0,255.0
489,24.450000000000003,-14.963522073441457,7.343474061560923,-17.57015656866009,-0.5511409715237671,-0.23326082030480932,-1.297906986462509,-0.016423117339881135,-0.008315405455968823,-0.038020777069463635,0,70,255.0,255.0,255.0
490,24.5,-14.9911,7.3318,-17.6351,-0.551983072531543,-0.23371416790938906,-1.2998413880431456,-0.017260922971156667,-0.00981849872722207,-0.03935528615601136,0,70,255.0,255.0,255.0
491,24.55,-15.018720448404483,7.320102301441622,-17.70014054191223,-0.5528292361317485,-0.23418811521571514,-1.3017658564934287,-0.016585621037066102,-0.009139393525820817,-0.0376234518553108,0,70,255.0,255.0,255.0
492,24.6,-15.046382360861564,7.308381754399429,-17.765275142454097,-0.5536416346352496,-0.23462810726197117,-1.3036037332286767,-0.015910319102975537,-0.008460288324419566,-0.035891617554610226,0,70,255.0,255.0,255.0
493,24.650000000000002,-15.074084049116397,7.296640056636426,-17.830499472039847,-0.5544202680420461,-0.23503414404815712,-1.3053550182488898,-0.015235017168884972,-0.007781183123018313,-0.03415978325390966,0,70,255.0,255.0,255.0
494,24.700000000000003,-15.101823824914156,7.284878905915615,-17.895809201083733,-0.5551651363521382,-0.23540622557427301,-1.3070197115540678,-0.014559715234794407,-0.007102077921617062,-0.0324279489532091,0,70,255.0,255.0,255.0
495,24.75,-15.1296,7.2731,-17.9612,-0.5558762395655257,-0.23574435184031883,-1.3085978131442109,-0.013884413300704779,-0.00642297272021608,-0.030696114652503326,0,70,255.0,255.0,255.0
496,24.8,-15.157411143912446,7.2613050481389445,-18.026668991145577,-0.5565690452831873,-0.23604783366468812,-1.3101764395797426,-0.013827815405762322,-0.005716300254554686,-0.0324489427687688,0,70,255.0,255.0,255.0
497,24.85,-15.185256857363408,7.2494958055272525,-18.092219104648077,-0.5572590211061019,-0.2363159818657743,-1.3118427074210879,-0.013771217510819864,-0.005009627788893292,-0.034201770885034274,0,70,255.0,255.0,255.0
498,24.900000000000002,-15.213136998858145,7.237674038846088,-18.157854722577785,-0.5579461670342694,-0.23654879644357746,-1.3135966166682462,-0.013714619615877407,-0.004302955323231897,-0.03595459900129974,0,70,255.0,255.0,255.0
499,24.950000000000003,-15.24105142690192,7.225841514776616,-18.223580227004994,-0.5586304830676897,-0.2367462773980975,-1.3154381673212179,-0.013658021720934952,-0.003596282857570503,-0.037707427117565216,0,70,255.0,255.0,255.0
500,25.0,-15.269,7.214,-18.2894,-0.559311969206363,-0.23690842472933446,-1.3173673593800024,-0.013601423825989833,-0.0028896103919076044,-0.039460255233821684,0,70,255.0,255.0,255.0
501,25.05,-15.296982975945731,7.2021503060026,-18.355317093505477,-0.560014582735509,-0.23709255012553113,-1.319304385187586,-0.014503117339851292,-0.004475405455959947,-0.03802077706953033,0,70,255.0,255.0,255.0
502,25.1,-15.325002209684815,7.190289423491561,-18.421329238953625,-0.5607622809403481,-0.23735596527493047,-1.3211694370869556,-0.015404810853712751,-0.006061200520012289,-0.03658129890523898,0,70,255.0,255.0,255.0
503,25.150000000000002,-15.353059955451029,7.178413387979221,-18.487432837649035,-0.5615550638208803,-0.23769867017753238,-1.3229625150781101,-0.01630650436757421,-0.007646995584064632,-0.035141820740947634,0,70,255.0,255.0,255.0
504,25.200000000000003,-15.381158467478164,7.16651823497792,-18.553624290896302,-0.5623929313771056,-0.23812066483333694,-1.3246836191610503,-0.01720819788143567,-0.009232790648116974,-0.03370234257665628,0,70,255.0,255.0,255.0
505,25.25,-15.4093,7.1546,-18.6199,-0.5632758836090238,-0.23862194924234406,-1.3263327493357757,-0.018109891395297062,-0.01081858571216876,-0.03226286441235793,0,70,255.0,255.0,255.0
506,25.3,-15.43748575230463,7.142656127850656,-18.686257034832533,-0.564140623774776,-0.23911796583318903,-1.3279500196699148,-0.01647971523479137,-0.009022077921630008,-0.03242794895320707,0,70,255.0,255.0,255.0
507,25.35,-15.465712703897344,7.130689700506506,-18.752695139537444,-0.564923855132503,-0.23952415703450708,-1.3295755442310964,-0.014849539074285677,-0.0072255701310912565,-0.032593033494056206,0,70,255.0,255.0,255.0
508,25.400000000000002,-15.493976779337746,7.11870520923703,-18.819214726826093,-0.5656255776822046,-0.23984052284629817,-1.3312093230193205,-0.013219362913779984,-0.005429062340552505,-0.032758118034905345,0,70,255.0,255.0,255.0
509,25.450000000000003,-15.522273903185432,7.1067071453117014,-18.885816209409832,-0.566245791423881,-0.24006706326856234,-1.332851356034587,-0.011589186753274291,-0.003632554550013754,-0.032923202575754484,0,70,255.0,255.0,255.0
510,25.5,-15.5506,7.0947,-18.9525,-0.566784496357532,-0.24020377830129952,-1.3345016432768957,-0.009959010592768713,-0.0018360467594749075,-0.03308828711660183,0,70,255.0,255.0,255.0
511,25.55,-15.578952414835754,7.082686782594778,-19.01926676716441,-0.5673269221653755,-0.24033958654172477,-1.3361755361327483,-0.011738021720973027,-0.00359628285753584,-0.03386742711750303,0,70,255.0,255.0,255.0
512,25.6,-15.607334174725812,7.070664574482413,-19.08611820289661,-0.5679582985296294,-0.2405634065870531,-1.3378883859886461,-0.013517032849177341,-0.005356518955596773,-0.03464656711840421,0,70,255.0,255.0,255.0
513,25.650000000000002,-15.635749727197991,7.058628975072657,-19.153056255046607,-0.5686786254502934,-0.24087523843728448,-1.339640192844589,-0.015296043977381655,-0.007116755053657706,-0.03542570711930541,0,70,255.0,255.0,255.0
514,25.700000000000003,-15.664203519780115,7.046575583775268,-19.220082871464406,-0.5694879029273675,-0.2412750820924189,-1.3414309567005767,-0.01707505510558597,-0.008876991151718638,-0.03620484712020659,0,70,255.0,255.0,255.0
515,25.75,-15.6927,7.0345,-19.2872,-0.5703861309608519,-0.24176293755245631,-1.3432606775566096,-0.018854066233790157,-0.010637227249780334,-0.03698398712110951,0,70,255.0,255.0,255.0
516,25.8,-15.721242188352356,7.022399141770232,-19.35440869650984,-0.5712876875637326,-0.2422596879999042,-1.3450758357990553,-0.017208197881435593,-0.00923279064813414,-0.03562234257671724,0,70,255.0,255.0,255.0
517,25.85,-15.749827397199414,7.010275201563845,-19.42170644887612,-0.5721069507489954,-0.24268621661726972,-1.3468229118142814,-0.015562329529081029,-0.007828354046487945,-0.03426069803232497,0,70,255.0,255.0,255.0
518,25.900000000000002,-15.778451511870296,6.99813169047234,-19.489089852987483,-0.5728439205166407,-0.24304252340455298,-1.3485019056022878,-0.013916461176726465,-0.006423917444841749,-0.032899053487932706,0,70,255.0,255.0,255.0
519,25.950000000000003,-15.807110417694119,6.985972119587223,-19.55655550473256,-0.5734985968666682,-0.24332860836175393,-1.3501128171630747,-0.012270592824371901,-0.005019480843195554,-0.031537408943540436,0,70,255.0,255.0,255.0
520,26.0,-15.8358,6.9738,-19.6241,-0.5740709797990777,-0.24354447148887254,-1.3516556464966418,-0.010624724472016567,-0.003615044241549903,-0.030175764399148264,0,70,255.0,255.0,255.0
521,26.05,-15.864517231754828,6.9616182503242925,-19.69172084679624,-0.5746263275797083,-0.24372566145866206,-1.3531851206710162,-0.011589186753206363,-0.003632554550030687,-0.03100320257582504,0,70,255.0,255.0,255.0
522,26.1,-15.89326343647654,6.94942741926221,-19.759419201598913,-0.5752298984743984,-0.2439077269438756,-1.3547559667542244,-0.012553649034396158,-0.003650064858511471,-0.03183064075250182,0,70,255.0,255.0,255.0
523,26.150000000000002,-15.922041025320837,6.937227463037981,-19.827197133003477,-0.575881692483148,-0.24409066794451323,-1.3563681847462665,-0.013518111315585953,-0.003667575166992255,-0.032658078929178595,0,70,255.0,255.0,255.0
524,26.200000000000003,-15.950852409443423,6.9250183378758345,-19.89505670960536,-0.5765817096059569,-0.24427448446057484,-1.3580217746471421,-0.014482573596775749,-0.003685085475473039,-0.03348551710585537,0,70,255.0,255.0,255.0
525,26.25,-15.9797,6.9128,-19.963,-0.5773299498428255,-0.2444591764920605,-1.3597167364568519,-0.015447035877965476,-0.0037025957839533774,-0.03431295528253564,0,70,255.0,255.0,255.0
526,26.3,-16.008585684628333,6.900571856932597,-20.03102871630521,-0.578095002117416,-0.24467766616545167,-1.3614316815169174,-0.015155055105658729,-0.00503699115169349,-0.0342848471200778,0,70,255.0,255.0,255.0
527,26.35,-16.03750925689443,6.888331121387314,-20.099143144728227,-0.5788454553533914,-0.24496287560722985,-1.3631452211688597,-0.01486307433335198,-0.006371386519433602,-0.03425673895761996,0,70,255.0,255.0,255.0
528,26.400000000000002,-16.066469986846364,6.876074457375733,-20.167343214998635,-0.5795813095507513,-0.24531480481739504,-1.3648573554126793,-0.014571093561045233,-0.007705781887173714,-0.03422863079516212,0,70,255.0,255.0,255.0
529,26.450000000000003,-16.095467144532197,6.8637985289094345,-20.235628856846027,-0.5803025647094959,-0.24573345379594724,-1.366568084248376,-0.014279112788738484,-0.009040177254913826,-0.034200522632704275,0,70,255.0,255.0,255.0
530,26.5,-16.1245,6.8515,-20.304,-0.581009220829625,-0.2462188225428864,-1.3682774076759494,-0.013987132016429094,-0.010374572622652956,-0.03417241447024111,0,70,255.0,255.0,255.0
531,26.55,-16.15356802973184,6.839176721945318,-20.372456287982917,-0.581713663950644,-0.24669967387953282,-1.369968153261294,-0.014190592824331997,-0.008859480843203628,-0.03345740894353425,0,70,255.0,255.0,255.0
532,26.6,-16.18267153594574,6.826831295188529,-20.44099621948819,-0.5824282801120583,-0.2471047706272068,-1.371623148570303,-0.014394053632234899,-0.0073443890637542985,-0.032742403416827395,0,70,255.0,255.0,255.0
533,26.650000000000002,-16.21181102729372,6.814467507459081,-20.50961800700201,-0.5831530693138676,-0.24743411278590827,-1.3732423936029767,-0.014597514440137802,-0.005829297284304971,-0.03202739789012054,0,70,255.0,255.0,255.0
534,26.700000000000003,-16.240987012427798,6.80208914648642,-20.578319863010552,-0.583888031556072,-0.24768770035563728,-1.374825888359315,-0.014800975248040705,-0.004314205504855642,-0.03131239236341368,0,70,255.0,255.0,255.0
535,26.75,-16.2702,6.7897,-20.6471,-0.5846331668386716,-0.24786553333639383,-1.376373632839318,-0.015004436055943593,-0.0027991137254064213,-0.030597386836706875,0,70,255.0,255.0,255.0
536,26.8,-16.299450196444315,6.777302855286128,-20.715957331763125,-0.5853703420799887,-0.2480276383164158,-1.3779277054378856,-0.014482573596742113,-0.0036850854754730505,-0.031565517105998725,0,70,255.0,255.0,255.0
537,26.85,-16.328736599322614,6.764896497858566,-20.78489357731901,-0.5860814241983459,-0.24823404188394116,-1.379530184549918,-0.013960711137540634,-0.00457105722553968,-0.03253364737529057,0,70,255.0,255.0,255.0
538,26.900000000000002,-16.358057903978764,6.7524787127879415,-20.85391115699334,-0.5867664131937429,-0.2484847440389698,-1.3811810701754148,-0.013438848678339155,-0.0054570289756063085,-0.03350177764458242,0,70,255.0,255.0,255.0
539,26.950000000000003,-16.387412805756608,6.740047285144877,-20.92301249111178,-0.5874253090661797,-0.24877974478150178,-1.3828803623143762,-0.012916986219137675,-0.006343000725672938,-0.03446990791387426,0,70,255.0,255.0,255.0
540,27.0,-16.4168,6.7276,-20.9922,-0.5880581118156566,-0.24911904411153704,-1.384628060966802,-0.012395123759936233,-0.007228972475738837,-0.03543803818316249,0,70,255.0,255.0,255.0
541,27.05,-16.446218384490912,6.715135056910171,-21.06147518496459,-0.588676967729376,-0.24947777285480346,-1.386369024987197,-0.012359112788843695,-0.0071201772549177355,-0.03420052263263143,0,70,255.0,255.0,255.0
542,27.1,-16.475667666763794,6.702652313377203,-21.130835871235764,-0.5892940230945409,-0.24983106183702883,-1.388048113230065,-0.012323101817751158,-0.007011382034096633,-0.03296300708210037,0,70,255.0,255.0,255.0
543,27.150000000000002,-16.50514775679122,6.690152041389151,-21.20027896502464,-0.5899092779111512,-0.2501789110582131,-1.389665325695407,-0.01228709084665862,-0.006902586813275531,-0.03172549153156931,0,70,255.0,255.0,255.0
544,27.200000000000003,-16.534658564545765,6.677634512934066,-21.269801372542346,-0.5905227321792068,-0.2505213205183564,-1.3912206623832222,-0.012251079875566083,-0.006793791592454428,-0.030487975981038248,0,70,255.0,255.0,255.0
545,27.25,-16.5642,6.6651,-21.3394,-0.5911343858987078,-0.2508582902174586,-1.3927141232935105,-0.01221506890447177,-0.006684996371633556,-0.029250460430498393,0,70,255.0,255.0,255.0
546,27.3,-16.59377226559204,6.65254891707319,-21.40907232837852,-0.591761787002519,-0.2511812702643707,-1.3941801946133565,-0.012880975247976255,-0.006234205504851336,-0.02939239236334821,0,70,255.0,255.0,255.0
547,27.35,-16.623376733622205,6.639982248632618,-21.47881813773795,-0.5924224834235055,-0.25148171076794373,-1.3956533625298453,-0.013546881591480738,-0.0057834146380691155,-0.029534324296198025,0,70,255.0,255.0,255.0
548,27.400000000000002,-16.653015068856345,6.627401121655451,-21.548637782908116,-0.5931164751616671,-0.2517596117281776,-1.3971336270429764,-0.014212787934985222,-0.005332623771286896,-0.029676256229047845,0,70,255.0,255.0,255.0
549,27.450000000000003,-16.682688936060327,6.614806663118856,-21.618531618718862,-0.593843762217004,-0.25201497314507243,-1.3986209881527503,-0.014878694278489705,-0.004881832904504676,-0.02981818816189766,0,70,255.0,255.0,255.0
550,27.5,-16.7124,6.6022,-21.6885,-0.594604344589516,-0.2522477950186281,-1.4001154458591663,-0.015544600621992366,-0.004431042037722488,-0.029960120094747467,0,70,255.0,255.0,255.0
551,27.55,-16.74214935314092,6.589582074797067,-21.758543501521334,-0.5953638842605442,-0.2524691460877131,-1.401630196559382,-0.014836986219132865,-0.004423000725676918,-0.030629907913883522,0,70,255.0,255.0,255.0
552,27.6,-16.771935798747382,6.576953092092323,-21.828663577812456,-0.5960880432114294,-0.2526900950911958,-1.4031784366505546,-0.014129371816273363,-0.0044149594136313475,-0.03129969573301958,0,70,255.0,255.0,255.0
553,27.650000000000002,-16.801757567783394,6.564313071989041,-21.89886190334291,-0.5967768214421716,-0.2529106420290762,-1.404760166132684,-0.013421757413413862,-0.004406918101585777,-0.031969483552155634,0,70,255.0,255.0,255.0
554,27.700000000000003,-16.831612891212934,6.551662034590507,-21.96914015258224,-0.5974302189527708,-0.2531307869013544,-1.40637538500577,-0.012714143010554362,-0.004398876789540206,-0.032639271371291696,0,70,255.0,255.0,255.0
555,27.75,-16.8615,6.539,-22.0395,-0.5980482357432269,-0.25335052970803024,-1.4080240932698131,-0.01200652860769047,-0.004390835477494637,-0.03330905919042415,0,70,255.0,255.0,255.0
556,27.8,-16.891417521844282,6.526326783738536,-22.109942465536143,-0.5986546759553083,-0.25358214538477863,-1.4096670191490994,-0.012251079875564489,-0.0048737915924420856,-0.03240797598102779,0,70,255.0,255.0,255.0
557,27.85,-16.921365671388255,6.5136413829980935,-22.180465951012238,-0.5992733437307833,-0.2538379088672744,-1.411264890867916,-0.012495631143438508,-0.0053567477073895335,-0.031506892771631434,0,70,255.0,255.0,255.0
558,27.900000000000002,-16.951345060010084,6.500942590388379,-22.251068203720262,-0.5999042390696522,-0.2541178201555176,-1.4128177084262628,-0.012740182411312528,-0.005839703822336981,-0.03060580956223507,0,70,255.0,255.0,255.0
559,27.950000000000003,-16.981356299087945,6.488229198519112,-22.321746970952194,-0.6005473619719146,-0.25442187924950815,-1.4143254718241396,-0.012984733679186547,-0.00632265993728443,-0.02970472635283871,0,70,255.0,255.0,255.0
560,28.0,-17.0114,6.4755,-22.3925,-0.6012027124375707,-0.2547500861492461,-1.4157881810615462,-0.013229284947058773,-0.006805616052232288,-0.028803643143433533,0,70,255.0,255.0,255.0
