idx,t,px,py,pz,vx,vy,vz,ax,ay,az,yaw,mode,ledr,ledg,ledb
0,0.0,4.5,-1.5,0.0,7.182333856673794e-05,0.00034927734520111796,0.0008933048094075611,-0.0008618800628008552,-0.008991328142412887,-0.03151965771289073,0,70,255.0,255.0,255.0
1,0.05,4.500002585640188,-1.4999938260155727,4.958973138672198e-06,3.3038735740699455e-05,-0.00010333242120745668,-0.000701079787672522,-0.0006895040502406842,-0.009113062513930098,-0.03225572617031258,0,70,255.0,255.0,255.0
2,0.1,4.5000034475202515,-1.5000104346874303,-7.072136914843708e-05,2.872933542669521e-06,-0.0005620289061918919,-0.002332267807623698,-0.0005171280376805132,-0.00923479688544731,-0.03299179462773444,0,70,255.0,255.0,255.0
3,0.15000000000000002,4.500003016580219,-1.5000501303515015,-0.0002288811980048825,-1.8674068027351856e-05,-0.0010268121097521878,-0.004000259250445967,-0.00034475202512034204,-0.00935653125696452,-0.03372786308515629,0,70,255.0,255.0,255.0
4,0.2,4.500001723760126,-1.5001132173437153,-0.0004713606845742186,-3.1602268969364684e-05,-0.001497682031888344,-0.005705054116139327,-0.00017237601256017102,-0.009478265628481732,-0.034463931542578145,0,70,255.0,255.0,255.0
5,0.25,4.5,-1.5002,-0.0008,-3.591166928336897e-05,-0.0019746386726003607,-0.007446652404703781,0.0,-0.009599999999998943,-0.035199999999999995,0,70,255.0,255.0,255.0
6,0.30000000000000004,4.499998276239874,-1.5003107826562847,-0.001216639315425782,-3.1602268969364684e-05,-0.0024576820318882387,-0.009225054116139329,0.00017237601256017118,-0.009721734371516154,-0.03593606845742185,0,70,255.0,255.0,255.0
7,0.35000000000000003,4.499996983419781,-1.5004458696484984,-0.0017231188019951181,-1.8674068027351853e-05,-0.002946812109751976,-0.011040259250445966,0.0003447520251203422,-0.009843468743033365,-0.03667213691484371,0,70,255.0,255.0,255.0
8,0.4,4.4999965524797485,-1.5006055653125696,-0.0023212786308515632,2.872933542669528e-06,-0.0034420289061915747,-0.012892267807623698,0.0005171280376805132,-0.009965203114550576,-0.037408205372265566,0,70,255.0,255.0,255.0
9,0.45,4.499997414359812,-1.5007901739844272,-0.003012958973138673,3.3038735740699455e-05,-0.003943332421207034,-0.014781079787672523,0.0006895040502406842,-0.010086937486067787,-0.03814427382968742,0,70,255.0,255.0,255.0
10,0.5,4.5,-1.501,-0.0038,7.182333856673794e-05,-0.004450722654798353,-0.01670669519059244,0.0008618800628008551,-0.01020867185758502,-0.03888034228710921,0,70,255.0,255.0,255.0
11,0.55,4.500004309400314,-1.5012350433592878,-0.004683201711435547,9.337034013675932e-05,-0.004945939451238059,-0.018606703747770174,-7.589415207398531e-19,-0.009600000000003214,-0.03711999999999998,0,70,255.0,255.0,255.0
12,0.6000000000000001,4.500008618800628,-1.5014940867185758,-0.005659203422871095,7.182333856673786e-05,-0.005410722654798676,-0.02041869519059244,-0.0008618800628008566,-0.008991328142421408,-0.03535965771289075,0,70,255.0,255.0,255.0
13,0.65,4.500010773500785,-1.5017756083982197,-0.006723604278588866,7.182333856673806e-06,-0.005845072265480201,-0.022142669519059247,-0.0017237601256017104,-0.008382656284839604,-0.033599315425781526,0,70,255.0,255.0,255.0
14,0.7000000000000001,4.500008618800628,-1.5020780867185757,-0.007872003422871095,-0.00010055267399343323,-0.006248988283282636,-0.023778626733170594,-0.0025856401884025663,-0.007773984427257798,-0.03183897313867229,0,70,255.0,255.0,255.0
15,0.75,4.5,-1.5024,-0.0091,-0.0002513816849835828,-0.006622470708205981,-0.025326566832926476,-0.0034475202512034204,-0.007165312569676015,-0.03007863085156323,0,70,255.0,255.0,255.0
16,0.8,4.49998368615887,-1.5027402439065634,-0.010404953838832035,-0.0003898790915775608,-0.006990560163159931,-0.026892130892780013,-0.002092376012555695,-0.007558265628481943,-0.03254393154257822,0,70,255.0,255.0,255.0
17,0.8500000000000001,4.499962141377709,-1.5030993834771984,-0.011791267506520518,-0.0004606192862391524,-0.0073782972710541754,-0.0285809599871843,-0.0007372317739079695,-0.007951218687287872,-0.0350092322335932,0,70,255.0,255.0,255.0
18,0.9,4.499938753517111,-1.5034784010945512,-0.013265104254792976,-0.00046360226896835797,-0.007785682031888718,-0.030393054116139333,0.0006179124647397532,-0.008344171746093799,-0.03747453292460818,0,70,255.0,255.0,255.0
19,0.9500000000000001,4.499916910437677,-1.5038782791412697,-0.014832627335376962,-0.000398828039765177,-0.008212714445663556,-0.03232841327964512,0.001973056703387479,-0.008737124804899729,-0.039939833615623165,0,70,255.0,255.0,255.0
20,1.0,4.4999,-1.5043,-0.0165,-0.0002662965986296102,-0.008659394512378689,-0.03438703747770165,0.003328200942035201,-0.009130077863705621,-0.04240513430663806,0,70,255.0,255.0,255.0
21,1.05,4.499890545964209,-1.5047447810144579,-0.01827138293323632,-0.00011785397382282481,-0.009139819896122918,-0.03644877268110979,0.0026095040502362088,-0.01008693748606352,-0.04006427382968729,0,70,255.0,255.0,255.0
22,1.1,4.499887615688541,-1.5052147793726307,-0.020142926551046856,-5.346193605989069e-06,-0.009668088260985041,-0.038393464860670384,0.0018908071584372165,-0.011043797108421417,-0.03772341335273652,0,70,255.0,255.0,255.0
23,1.1500000000000001,4.499889412430771,-1.505712387223575,-0.022108778702239235,7.122674202089693e-05,-0.01024419960696506,-0.040221114016383445,0.0011721102666382242,-0.012000656730779316,-0.03538255287578575,0,70,255.0,255.0,255.0
24,1.2000000000000002,4.499894139448667,-1.5062399967163462,-0.024163087235621078,0.00011186483305783348,-0.010868153934062975,-0.04193172014824897,0.00045341337483923187,-0.012957516353137214,-0.033041692398834976,0,70,255.0,255.0,255.0
25,1.25,4.4999,-1.5068,-0.0263,0.00011656807950482025,-0.01153995124227878,-0.04352528325626693,-0.0002652835169597578,-0.013914375975495108,-0.030700831921884275,0,70,255.0,255.0,255.0
26,1.3,4.4999053299842995,-1.5073934320356048,-0.028515114428222698,9.329498687065027e-05,-0.0121781602523477,-0.04508877838278085,-0.0006656401884070407,-0.011613984427261657,-0.0318389731386724,0,70,255.0,255.0,255.0
27,1.35,4.499908995868128,-1.5080158990322778,-0.03080982628929208,5.000406066411612e-05,-0.012701349685004948,-0.04670918057013417,-0.0010659968598543236,-0.009313592879028205,-0.032977114355460524,0,70,255.0,255.0,255.0
28,1.4000000000000001,4.499909996759806,-1.5086616500111483,-0.03318698093625011,-1.3304699114782186e-05,-0.013109519540250521,-0.0483864898183269,-0.0014663535313016063,-0.007013201330794755,-0.03411525557224865,0,70,255.0,255.0,255.0
29,1.4500000000000002,4.499907331767656,-1.509324933993346,-0.03564942372213876,-9.663129246604462e-05,-0.013402669818084424,-0.05012070612735904,-0.0018667102027488892,-0.004712809782561302,-0.03525339678903678,0,70,255.0,255.0,255.0
30,1.5,4.4999,-1.51,-0.0382,-0.00019997571938967077,-0.013580800518506653,-0.051911829497230576,-0.0022670668741961693,-0.002412418234327904,-0.03639153800582512,0,70,255.0,255.0,255.0
31,1.55,4.499887334098595,-1.5106830908431226,-0.04084095935387289,-0.0003033259736600907,-0.013763539094487354,-0.053724113787766786,-0.0018669432966206259,-0.004897124804900143,-0.036099833615623314,0,70,255.0,255.0,255.0
32,1.6,4.499870000838949,-1.5113784244982575,-0.04357216829178485,-0.0003866700490517335,-0.014070512998996667,-0.05552181285879291,-0.0014668197190450824,-0.0073818313754723825,-0.0358081292254215,0,70,255.0,255.0,255.0
33,1.6500000000000001,4.499849000530005,-1.512092212731831,-0.046392897552760354,-0.00045000794556459905,-0.014501722232034593,-0.05730492671030894,-0.001066696141469539,-0.009866537946044623,-0.0355164248352197,0,70,255.0,255.0,255.0
34,1.7000000000000002,4.4998253334807075,-1.5128306673102698,-0.049302417875823915,-0.0004933396631986876,-0.01505716679360113,-0.05907345534231488,-0.0006665725638939956,-0.012351244516616861,-0.035224720445017885,0,70,255.0,255.0,255.0
35,1.75,4.4998,-1.5136,-0.0523,-0.0005166652019539987,-0.015736846683696275,-0.06082739875481073,-0.000266448986318453,-0.014835951087188964,-0.03493301605481658,0,70,255.0,255.0,255.0
36,1.8,4.49977413362132,-1.5144046045919046,-0.055385048156285734,-0.0005119910922405528,-0.01643168336970432,-0.06257476646615202,0.0004534133748562879,-0.012957516353132897,-0.03496169239883502,0,70,255.0,255.0,255.0
37,1.85,4.499749400776077,-1.5152416029746922,-0.05855750054356856,-0.0004713238644683698,-0.017032598319009568,-0.06432356799469423,0.0011732757360310288,-0.011079081619076827,-0.03499036874285346,0,70,255.0,255.0,255.0
38,1.9000000000000001,4.499727601120174,-1.516106299061527,-0.061817428852708516,-0.0003946635186374498,-0.017539591531612005,-0.06607380334043737,0.0018931380972057694,-0.009200646885020758,-0.035019045086871904,0,70,255.0,255.0,255.0
39,1.9500000000000002,4.499710534309514,-1.5169939967655748,-0.06516490477456566,-0.0002820100547477927,-0.01795266300751164,-0.06782547250338143,0.0026130004583805105,-0.00732221215096469,-0.03504772143089034,0,70,255.0,255.0,255.0
40,2.0,4.4997,-1.5179,-0.0686,-0.0001333634727993993,-0.018271812746708475,-0.0695785754835264,0.003332862819555249,-0.005443777416908685,-0.035076397774908785,0,70,255.0,255.0,255.0
41,2.0500000000000003,4.499696931416126,-1.518820890789259,-0.07212284802098419,-7.096573790371473e-07,-0.018573727426695223,-0.07133682034762505,0.0019732897972592088,-0.006632809782561178,-0.03525339678903683,0,70,255.0,255.0,255.0
42,2.1,4.499698796056744,-1.5197583636029741,-0.07573382953394095,6.396550692652238e-05,-0.018935093724964595,-0.07310391516243009,0.0006137167749631811,-0.00782184214821366,-0.03543039580316487,0,70,255.0,255.0,255.0
43,2.15,4.4997021949892995,-1.52071539102206,-0.07943338703640561,6.066202011728068e-05,-0.019355911641516586,-0.07487985992794152,-0.0007458562473328465,-0.009010874513866144,-0.035607394817292914,0,70,255.0,255.0,255.0
44,2.2,4.4997037292812365,-1.5216949456274307,-0.08322196302591355,-1.0620117806762965e-05,-0.01983618117635121,-0.07666465464415939,-0.0021054292696288867,-0.010199906879518637,-0.03578439383142096,0,70,255.0,255.0,255.0
45,2.25,4.4997,-1.5227,-0.0871,-0.00014988090684560753,-0.020375902329468454,-0.07845829931108363,-0.003465002291924915,-0.011388939245171148,-0.035961392845548557,0,70,255.0,255.0,255.0
46,2.3000000000000003,4.499688540714179,-1.5237326322510598,-0.0910675597597776,-0.0003011702782413955,-0.020921406923513266,-0.08023795214334781,-0.0025865725639065704,-0.010431244516621247,-0.035224720445018204,0,70,255.0,255.0,255.0
47,2.35,4.499670614996949,-1.5247913426134108,-0.09512318132066767,-0.00040853816323626523,-0.02141902678113058,-0.08198077135558546,-0.0017081428358882338,-0.009473549788071354,-0.03448804804448786,0,70,255.0,255.0,255.0
48,2.4000000000000004,4.49964841892263,-1.5258737368502322,-0.09926502300166903,-0.0004719845618302187,-0.021868761902320403,-0.0836867569477966,-0.0008297131078698894,-0.008515855059521453,-0.03375137564395751,0,70,255.0,255.0,255.0
49,2.45,4.499624148565539,-1.5269774207247022,-0.10349124312178024,-0.0004915094740232546,-0.022270612287082728,-0.0853559089199812,4.8716620148447215e-05,-0.0075581603309715605,-0.03301470324342717,0,70,255.0,255.0,255.0
50,2.5,4.4996,-1.5281,-0.1078,-0.0004671128998153739,-0.02262457793541756,-0.0869882272721393,0.0009271463481667838,-0.00660046560242164,-0.03227803084289638,0,70,255.0,255.0,255.0
51,2.5500000000000003,4.499577705727158,-1.5292397802065023,-0.1121901129399056,-0.00042660922965157954,-0.02297264487925222,-0.08862337107898396,0.0006930004583849817,-0.007322212150964689,-0.03312772143088967,0,70,255.0,255.0,255.0
52,2.6,4.499557143955459,-1.5303978659433823,-0.11666304518338841,-0.00039781285397687553,-0.02335679915051403,-0.09030099941522828,0.0004588545686031817,-0.008043958699507732,-0.033977412018882956,0,70,255.0,255.0,255.0
53,2.6500000000000004,4.499537729320185,-1.531576061577011,-0.12122092095691844,-0.00038072377279126145,-0.023777040749202994,-0.09202111228087226,0.00022470867882137954,-0.00876570524805078,-0.034827102606876256,0,70,255.0,255.0,255.0
54,2.7,4.499518876456607,-1.5327761714737598,-0.12586586448696563,-0.00037534198609473745,-0.024233369675319107,-0.0937837096759159,-9.437210960420409e-06,-0.009487451796593823,-0.03567679319486954,0,70,255.0,255.0,255.0
55,2.75,4.4995,-1.534,-0.1306,-0.0003816674938873035,-0.02472578592886237,-0.0955887916003592,-0.00024358310074221873,-0.010209198345136783,-0.03652648378286261,0,70,255.0,255.0,255.0
56,2.8000000000000003,4.499480636377193,-1.5352490469229305,-0.13542478848060013,-0.0003923928031471192,-0.02523601355947865,-0.09739656354071628,-0.00018542926965040878,-0.010199906879514387,-0.03578439383142078,0,70,255.0,255.0,255.0
57,2.85,4.499460809181212,-1.5365235936130601,-0.14033903794577876,-0.00040021042085234437,-0.02574577661681381,-0.09916723098350128,-0.00012727543855859937,-0.01019061541389199,-0.035042303879978955,0,70,255.0,255.0,255.0
58,2.9000000000000004,4.4994406637966335,-1.5378236168417239,-0.1453408931706574,-0.00040512034700297916,-0.02625507510086785,-0.10090079392871419,-6.912160746678941e-05,-0.010181323948269594,-0.03430021392853712,0,70,255.0,255.0,255.0
59,2.95,4.499420345608036,-1.5391490933802585,-0.1504284989303573,-0.0004071225815990234,-0.026763909011640767,-0.102597252376355,-1.0967776374980003e-05,-0.010172032482647198,-0.033558123977095296,0,70,255.0,255.0,255.0
60,3.0,4.4994,-1.5405,-0.1556,-0.00040621712464047714,-0.027272278349132567,-0.10425660632642371,4.7186054716829434e-05,-0.010162741017024746,-0.03281603402565325,0,70,255.0,255.0,255.0
61,3.0500000000000003,4.4993797487640705,-1.5418760321017755,-0.160853933137694,-0.00040381955776841894,-0.02776330088283258,-0.10590237475815074,4.871662016549678e-05,-0.009478160330975613,-0.03301470324342775,0,70,255.0,255.0,255.0
62,3.1,4.499359619319694,-1.5432757596043782,-0.16619040303349655,-0.00040134546262392745,-0.028220094382230127,-0.10755807665076648,5.024718561416411e-05,-0.008793579644926485,-0.03321337246120224,0,70,255.0,255.0,255.0
63,3.1500000000000004,4.499339615493279,-1.5446974710560935,-0.17160990636045217,-0.0003987948392070025,-0.02864265884732523,-0.10922371200427097,5.177775106283146e-05,-0.008108998958877352,-0.03341204167897673,0,70,255.0,255.0,255.0
64,3.2,4.499319741111244,-1.5461394550052059,-0.17711293979160517,-0.0003961676875176443,-0.029030994278117866,-0.11089928081866417,5.3308316511498785e-05,-0.007424418272828224,-0.03361071089675123,0,70,255.0,255.0,255.0
65,3.25,4.4993,-1.5476,-0.1827,-0.0003934640075558527,-0.029385100674608044,-0.11258478309394607,5.483888196016612e-05,-0.006739837586779013,-0.03380938011452561,0,70,255.0,255.0,255.0
66,3.3000000000000003,4.499280368566518,-1.5490780246699678,-0.18837147896862397,-0.0003923289657804327,-0.029742782909192265,-0.11427393742668095,-9.437210943366234e-06,-0.007567451796589718,-0.0337567931948692,0,70,255.0,255.0,255.0
67,3.35,4.499260713540011,-1.5505749679694276,-0.19412734992023503,-0.00039440772865018933,-0.030141845854267015,-0.11596046241343298,-7.371330384689802e-05,-0.008395066006400416,-0.03370420627521278,0,70,255.0,255.0,255.0
68,3.4000000000000004,4.499240874230243,-1.552092898933903,-0.19996748138753426,-0.00039970029616512255,-0.030582289509832307,-0.11764435805420223,-0.00013798939675043034,-0.009222680216211122,-0.03365161935555636,0,70,255.0,255.0,255.0
69,3.45,4.499220689946983,-1.553633886598919,-0.20589174190322226,-0.0004082066683252323,-0.031064113875888127,-0.11932562434898862,-0.00020226548965396215,-0.01005029442602182,-0.03359903243589994,0,70,255.0,255.0,255.0
70,3.5,4.4992,-1.5552,-0.2119,-0.0004199268451305187,-0.03158731895243448,-0.1210042612977922,-0.0002665415825574935,-0.01087790863583249,-0.03354644551624364,0,70,255.0,255.0,255.0
71,3.5500000000000003,4.499178776969851,-1.5567926692183527,-0.21799215098781033,-0.0004268645791042569,-0.032113567480396475,-0.12268187553512566,-1.0967776392031413e-05,-0.010172032482647194,-0.03355812397709481,0,70,255.0,255.0,255.0
72,3.6,4.4991575265202615,-1.558410768517912,-0.22416819728556328,-0.000421023622769722,-0.032604522200699204,-0.12436007369550167,0.0002446060297734284,-0.009466156329461904,-0.03356980243794598,0,70,255.0,255.0,255.0
73,3.6500000000000004,4.499136887585746,-1.560052533208295,-0.23042816808941116,-0.0004024039761269139,-0.03306018311334267,-0.12603885577892027,0.0005001798359388904,-0.008760280176276608,-0.03358148089879716,0,70,255.0,255.0,255.0
74,3.7,4.49911749910082,-1.5617161985991184,-0.23677209259550605,-0.000371005639175833,-0.03348055021832687,-0.1277182217853814,0.0007557536421043502,-0.008054404023091318,-0.03359315935964833,0,70,255.0,255.0,255.0
75,3.75,4.4991,-1.5634,-0.2432,-0.0003268286119164791,-0.0338656235156518,-0.1293981717148851,0.0010113274482698121,-0.007348527869906196,-0.03360483782049961,0,70,255.0,255.0,255.0
76,3.8000000000000003,4.499084523554076,-1.565102498456621,-0.249711917080135,-0.00030021271779737265,-0.034234947169220376,-0.1310785604328164,5.330831649444118e-05,-0.007424418272836741,-0.033610710896751606,0,70,255.0,255.0,255.0
77,3.85,4.499069180378944,-1.5668235579589245,-0.2563078609375119,-0.00032149778026703454,-0.03460806534293548,-0.13275924280456025,-0.0009047108152809213,-0.0075003086757672865,-0.0336165839730036,0,70,255.0,255.0,255.0
78,3.9000000000000004,4.4990515754267735,-1.5685633682329172,-0.26298784625482124,-0.00039068379932546526,-0.03498497803679711,-0.13444021883011675,-0.0018627299470562924,-0.007576199078697833,-0.033622457049255594,0,70,255.0,255.0,255.0
79,3.95,4.499029313649735,-1.5703221190046066,-0.2697518877147538,-0.0005077707749726635,-0.03536568525080526,-0.13612148850948583,-0.0028207490788316547,-0.007652089481628377,-0.03362833012550759,0,70,255.0,255.0,255.0
80,4.0,4.499,-1.5721,-0.2766,-0.0006727587072086296,-0.03575018698495995,-0.13780305184266753,-0.0037787682106070163,-0.0077279798845589776,-0.03363420320176025,0,70,255.0,255.0,255.0
81,4.05,4.498962328813843,-1.573897336955163,-0.28353218069164976,-0.0008202845497146156,-0.03614664384272426,-0.139483882733609,-0.002122265489632441,-0.008130294426013427,-0.0335990324358995,0,70,255.0,255.0,255.0
82,4.1000000000000005,4.498919351963962,-1.5757149996463904,-0.2905483589643894,-0.0008849852561718735,-0.036563216427561294,-0.14116295508625748,-0.00046576276865783594,-0.008532608967467884,-0.033563861670038754,0,70,255.0,255.0,255.0
83,4.15,4.49887521070716,-1.577553993860037,-0.2976484468913041,-0.0008668608265804007,-0.036999904739471054,-0.1428402689006129,0.00119073995231674,-0.008934923508922336,-0.033528690904178,0,70,255.0,255.0,255.0
84,4.2,4.498834046300238,-1.5794153253824554,-0.30483235654547913,-0.0007659112609401998,-0.03745670877845353,-0.1445158241766753,0.002847242673291315,-0.009337238050376786,-0.03349352013831726,0,70,255.0,255.0,255.0
85,4.25,4.4988,-1.5813,-0.3121,-0.0005821365592512703,-0.03793362854450872,-0.14618962091444462,0.004503745394265891,-0.009739552591831069,-0.03345834937245695,0,70,255.0,255.0,255.0
86,4.3,4.49877576119055,-1.583208953722728,-0.31945136015326575,-0.0004026490833417003,-0.03842647745988177,-0.14786590863274726,0.002675753642116935,-0.009974404023091165,-0.033593159359649016,0,70,255.0,255.0,255.0
87,4.3500000000000005,4.498758211765206,-1.5851428434555142,-0.3268867032049308,-0.00031456119503957703,-0.03893106894681784,-0.14954893685040954,0.0008477618899679468,-0.010209255454351265,-0.03372796934684108,0,70,255.0,255.0,255.0
88,4.4,4.4987427817445855,-1.587102256326936,-0.3344063661799628,-0.0003178728943449036,-0.039447403005316906,-0.15123870556743138,-0.0009802298621810089,-0.010444106885611362,-0.033862779334033144,0,70,255.0,255.0,255.0
89,4.45,4.498724901149312,-1.589087779465572,-0.34201068610332985,-0.0004125841812576775,-0.03997547963537897,-0.15293521478381286,-0.002808221614329964,-0.010678958316871457,-0.03399758932122521,0,70,255.0,255.0,255.0
90,4.5,4.4987,-1.5911,-0.3497,-0.0005986950557778991,-0.040515298837004055,-0.15463846449955393,-0.004636213366478919,-0.010913809748131609,-0.03413239930841705,0,70,255.0,255.0,255.0
91,4.55,4.498665026423956,-1.5931388481539244,-0.357474378695287,-0.0007851191169115155,-0.041027446317748156,-0.15633248273540207,-0.002820749078865762,-0.00957208948163251,-0.03362833012550821,0,70,255.0,255.0,255.0
92,4.6000000000000005,4.498623000975216,-1.5952016265315527,-0.36533282821588786,-0.0008807699636644751,-0.041472507785167305,-0.15800129751210476,-0.0010052847912525725,-0.00823036921513339,-0.03312426094259936,0,70,255.0,255.0,255.0
93,4.65,4.498578462314496,-1.5972849808322187,-0.3732740883888451,-0.0008856475960367747,-0.0418504832392615,-0.159644908829662,0.0008101794963605849,-0.0068886489486342925,-0.032620191759690526,0,70,255.0,255.0,255.0
94,4.7,4.498535949102519,-1.5993855567552568,-0.3812968990412016,-0.000799752014028417,-0.04216137268003074,-0.1612633166880738,0.0026256437839737422,-0.005546928682135194,-0.03211612257678169,0,70,255.0,255.0,255.0
95,4.75,4.4985,-1.6015,-0.3894,-0.0006230832176394016,-0.042405176107475025,-0.16285652108734017,0.004441108071586901,-0.0042052084156362635,-0.03161205339387241,0,70,255.0,255.0,255.0
96,4.800000000000001,4.498473733113625,-1.6036260536615743,-0.39758232506558633,-0.00044087444901701797,-0.042647737269125366,-0.16443616042564488,0.0028472426733083403,-0.0054972380503771475,-0.03157352013831538,0,70,255.0,255.0,255.0
97,4.8500000000000005,4.498454584333932,-1.6057658504182748,-0.4058435839315183,-0.00033835895030856467,-0.042954899912512744,-0.16601387310117174,0.0012533772750298075,-0.006789267685118008,-0.031534986882758353,0,70,255.0,255.0,255.0
98,4.9,4.498438568997429,-1.607922620344188,-0.41418368026465713,-0.0003155367215140377,-0.043326664037637165,-0.1675896591139207,-0.00034048812324872536,-0.00808129731985887,-0.031496453627201326,0,70,255.0,255.0,255.0
99,4.95,4.498421702440617,-1.6100995935134006,-0.422602517731864,-0.00037240776263343703,-0.04376302964449863,-0.16916351846389183,-0.0019343535215272586,-0.00937332695459973,-0.0314579203716443,0,70,255.0,255.0,255.0
100,5.0,4.4984,-1.6123,-0.4311,-0.0005089720736667628,-0.044263996733097125,-0.1707354511510851,-0.003528218919805791,-0.010665356589340425,-0.031419387116086606,0,70,255.0,255.0,255.0
101,5.050000000000001,4.498370441121545,-1.6145265371997781,-0.43967632104236826,-0.0006673830870201586,-0.04479760460575232,-0.17232287556201795,-0.0028082216143299485,-0.010678958316867182,-0.03207758932122649,0,70,255.0,255.0,255.0
102,5.1000000000000005,4.498333861689052,-1.6167797717953485,-0.4483328360580395,-0.0007897942350997598,-0.04533189256478385,-0.17394321008320776,-0.002088224308854118,-0.01069256004439394,-0.032735791526366374,0,70,255.0,255.0,255.0
103,5.15,4.498292061695789,-1.6190597377910294,-0.4570711905525266,-0.0008762055179055695,-0.04586686061019171,-0.17559645471465457,-0.0013682270033782886,-0.010706161771920696,-0.03339399373150625,0,70,255.0,255.0,255.0
104,5.2,4.498246841135017,-1.6213664691911405,-0.46589303003134247,-0.0009266169354375882,-0.04640250874197591,-0.17728260945635838,-0.0006482296979024586,-0.010719763499447454,-0.03405219593664613,0,70,255.0,255.0,255.0
105,5.25,4.4982,-1.6237,-0.4748,-0.0009410284876958153,-0.046938836960136454,-0.17900167430831915,7.176760757337305e-05,-0.01073336522697399,-0.03471039814178578,0,70,255.0,255.0,255.0
106,5.300000000000001,4.498153302400198,-1.6260597975393136,-0.4837931907649412,-0.0009215932029070251,-0.04744184430786418,-0.18072033732628334,0.0007056437839782209,-0.009386928682134801,-0.03403612257678147,0,70,255.0,255.0,255.0
107,5.3500000000000005,4.498108368909856,-1.6284430624003323,-0.4928714718363243,-0.0008704641092979933,-0.047877529828349946,-0.1824052865659973,0.0013395199603830575,-0.008040492137295636,-0.03336184701177717,0,70,255.0,255.0,255.0
108,5.4,4.498066784219415,-1.6308464284916944,-0.5020331575252368,-0.0007876412068687198,-0.048245893521593745,-0.18405652202746106,0.001973396136787894,-0.006694055592456473,-0.032687571446772874,0,70,255.0,255.0,255.0
109,5.45,4.498030133019316,-1.6332665297220377,-0.5112765621427662,-0.0006731244956192047,-0.04854693538759559,-0.18567404371067459,0.0026072723131927308,-0.005347619047617309,-0.03201329588176857,0,70,255.0,255.0,255.0
110,5.5,4.498,-1.6357,-0.5206,-0.0005269139755494477,-0.04878065542635547,-0.18725785161563788,0.003241148489597571,-0.0040011825027782555,-0.031339020316764055,0,70,255.0,255.0,255.0
111,5.550000000000001,4.497977149277664,-1.6381446726429678,-0.5300021158978675,-0.00039824410134791207,-0.04901901816279004,-0.18882777513284812,0.00190564647846378,-0.005533326954604422,-0.031457920371645055,0,70,255.0,255.0,255.0
112,5.6000000000000005,4.497959062671523,-1.6406031786033222,-0.5394828765966638,-0.0003363493277030675,-0.04933398812181592,-0.1904036436528024,0.0005701444673300131,-0.007065471406430562,-0.031576820426526056,0,70,255.0,255.0,255.0
113,5.65,4.49794240142655,-1.6430793482421926,-0.5490425793465267,-0.000341229654614911,-0.0497255653034331,-0.19198545717550072,-0.0007653575438037541,-0.008597615858256701,-0.03169572048140706,0,70,255.0,255.0,255.0
114,5.7,4.497923826787718,-1.6455770119207087,-0.558681521397593,-0.0004128850820834427,-0.05019374970764158,-0.19357321570094307,-0.0021008595549375213,-0.010129760310082841,-0.03181462053628805,0,70,255.0,255.0,255.0
115,5.75,4.4979,-1.6481,-0.5684,-0.0005513156101086623,-0.05073854133444138,-0.19516691922912952,-0.0034363615660712808,-0.011661904761908926,-0.03193352059116905,0,70,255.0,255.0,255.0
116,5.800000000000001,4.497868500489148,-1.650651111888815,-0.5781983456435896,-0.0007014303917078957,-0.051298083040975294,-0.1967685621423249,-0.0025682296978979716,-0.010719763499447275,-0.0321321959366451,0,70,255.0,255.0,255.0
117,5.8500000000000005,4.497830580404052,-1.6532290231863787,-0.5880770217770205,-0.0008081385798984615,-0.05181051768438612,-0.19838013882279404,-0.0017000978297246777,-0.009777622236985641,-0.032330871282121136,0,70,255.0,255.0,255.0
118,5.9,4.497788410074382,-1.6558313785395349,-0.5980365250886568,-0.000871440174680363,-0.052275845264673854,-0.20000164927053699,-0.0008319659615513837,-0.008835480974524006,-0.032529546627597175,0,70,255.0,255.0,255.0
119,5.95,4.497744159829808,-1.6584558225951274,-0.608077352266862,-0.0008913351760535998,-0.052694065781838516,-0.20163309348555375,3.616590662190982e-05,-0.007893339712062372,-0.032728221973073214,0,70,255.0,255.0,255.0
120,6.0,4.4977,-1.6611,-0.6182,-0.0008678235840181718,-0.05306517923588009,-0.20327447146784433,0.0009042977747952098,-0.006951198449600848,-0.03292689731854859,0,70,255.0,255.0,255.0
121,6.050000000000001,4.497657648765742,-1.6637620798017718,-0.6284045015277752,-0.0008280343318183609,-0.05342064967331055,-0.20489797629785228,0.000687272313197202,-0.0072676190476172065,-0.03201329588176794,0,70,255.0,255.0,255.0
122,6.1000000000000005,4.497617015712267,-1.6664423286511627,-0.6386890362952548,-0.0007990963526984511,-0.053791941140641814,-0.20647580105602115,0.0004702468515991979,-0.0075840396456335595,-0.031099694444987315,0,70,255.0,255.0,255.0
123,6.15,4.49757755827592,-1.6691415375996677,-0.6490513202988465,-0.0007810096466584414,-0.0541790536378739,-0.20800794574235099,0.00025322139000119386,-0.00790046024364991,-0.030186093008206686,0,70,255.0,255.0,255.0
124,6.2,4.49753873389305,-1.6718604976987819,-0.659489069534959,-0.0007737742136983317,-0.054581987165006805,-0.2094944103568418,3.619592840318976e-05,-0.008216880841666264,-0.02927249157142606,0,70,255.0,255.0,255.0
125,6.25,4.4975,-1.6746,-0.67,-0.0007773900538181224,-0.05500074172204052,-0.21093519489949358,-0.00018082953319480902,-0.008533301439682728,-0.028358890134645875,0,70,255.0,255.0,255.0
126,6.300000000000001,4.497460904447883,-1.6773605689040978,-0.6805828482453106,-0.0007864322810215423,-0.05541931826578456,-0.21239153266626698,-0.00018085955494198685,-0.008209760310078813,-0.029894620536288597,0,70,255.0,255.0,255.0
127,6.3500000000000005,4.497421356746879,-1.6801416622089704,-0.6912404330419615,-0.0007954760093123211,-0.05582171775304841,-0.21392465695312246,-0.0001808895766891647,-0.007886219180474904,-0.03143035093793129,0,70,255.0,255.0,255.0
128,6.4,4.497381356821934,-1.6829424710617944,-0.7019765937159573,-0.0008045212386904588,-0.05620794018383206,-0.21553456776006008,-0.00018091959843634253,-0.007562678050870995,-0.03296608133957398,0,70,255.0,255.0,255.0
129,6.45,4.4973409045979915,-1.6857621866097459,-0.7127951695933021,-0.0008135679691559553,-0.05657798555813551,-0.21722126508707984,-0.0001809496201835204,-0.007239136921267085,-0.03450181174121668,0,70,255.0,255.0,255.0
130,6.5,4.4973,-1.6886,-0.7237,-0.0008226162007088109,-0.056931853875958754,-0.21898474893418174,-0.00018097964193069908,-0.0069155957916628985,-0.036037542142858925,0,70,255.0,255.0,255.0
131,6.550000000000001,4.497258733442725,-1.6914556445818378,-0.7346937054909838,-0.0008262365440915306,-0.057302077263551895,-0.22075189303707998,3.616590662191204e-05,-0.007893339712062334,-0.03464822197307045,0,70,255.0,255.0,255.0
132,6.6000000000000005,4.497217557300214,-1.6943310225129558,-0.7457740315369,-0.0008189996100466198,-0.05772118784716499,-0.2224495711314888,0.0002533114551745193,-0.008871083632461751,-0.033258901803282,0,70,255.0,255.0,255.0
133,6.65,4.497177014436343,-1.6972285781531546,-0.7569375048373242,-0.0008009053985740788,-0.05818918562679806,-0.22407778321740818,0.00047045700372712654,-0.009848827552861168,-0.03186958163349355,0,70,255.0,255.0,255.0
134,6.7,4.497137647714981,-1.700150755862236,-0.7681806520918325,-0.0007719539096739073,-0.0587060706024511,-0.22563652929483816,0.0006876025522797338,-0.010826571473260585,-0.0304802614637051,0,70,255.0,255.0,255.0
135,6.75,4.4971,-1.7031,-0.7795,-0.0007321451433461057,-0.05927184277412412,-0.22712580936377866,0.000904748100832342,-0.011804315393659781,-0.029090941293915984,0,70,255.0,255.0,255.0
136,6.800000000000001,4.49706416178122,-1.7060776527685517,-0.7908927297907554,-0.0007086215426152174,-0.05982037268000727,-0.22858489518541236,3.6195928403181415e-05,-0.01013688084166604,-0.029272491571430463,0,70,255.0,255.0,255.0
137,6.8500000000000005,4.497028414052261,-1.7090806477392075,-0.8023586408104392,-0.0007285255505057868,-0.06028553085829073,-0.23005305852092173,-0.0008323562440259637,-0.008469446289672326,-0.029454041848944935,0,70,255.0,255.0,255.0
138,6.9,4.496990585432692,-1.7121048163255874,-0.8138981869347455,-0.0007918571670178134,-0.060667317308974504,-0.23153029937030684,-0.0017009084164551088,-0.0068020117376786145,-0.02963559212645941,0,70,255.0,255.0,255.0
139,6.95,4.4969485045420825,-1.7151459899413117,-0.8255118220393678,-0.0008986163921512971,-0.06096573203205859,-0.23301661773356763,-0.0025694605888842543,-0.005134577185684902,-0.029817142403973883,0,70,255.0,255.0,255.0
140,7.0,4.4969,-1.7182,-0.8372,-0.0010488032259062378,-0.06118077502754298,-0.23451201361070417,-0.003438012761313395,-0.0034671426336908007,-0.029998692681488137,0,70,255.0,255.0,255.0
141,7.050000000000001,4.496843819432395,-1.7212641443439556,-0.8489633753459955,-0.0011872772854435503,-0.06140043201641704,-0.2360285262212718,-0.0021009496201790266,-0.005319136921271365,-0.030661811741214972,0,70,255.0,255.0,255.0
142,7.1000000000000005,4.49678238649074,-1.7243415865302147,-0.8608034052213439,-0.0012588981879241427,-0.06171268871967012,-0.23757819478482567,-0.0007638864790446816,-0.0071711312088518974,-0.03132493080094179,0,70,255.0,255.0,255.0
143,7.15,4.496719043832887,-1.7274369565444958,-0.8727217474236943,-0.0012636659333480182,-0.06211754513730222,-0.23916101930136593,0.0005731766620896634,-0.00902312549643243,-0.03198804986066862,0,70,255.0,255.0,255.0
144,7.2,4.496657134116689,-1.7305548843725178,-0.8847200597506967,-0.0012015805217151768,-0.06261500126931337,-0.24077699977089254,0.0019102398032240075,-0.010875119784012961,-0.032651168920395435,0,70,255.0,255.0,255.0
145,7.25,4.4966,-1.7337,-0.8968,-0.0010726419530256183,-0.06320505711570351,-0.24242613619340544,0.003247302944358354,-0.012727114071592993,-0.033314287980120705,0,70,255.0,255.0,255.0
146,7.300000000000001,4.496550160489199,-1.7368753698556254,-0.9089625688252638,-0.0009262693156097762,-0.06379389925432485,-0.24406899992950104,0.00260760255227525,-0.010826571473260377,-0.0324002614637019,0,70,255.0,255.0,255.0
147,7.3500000000000005,4.496506839984779,-1.7400778061399338,-0.9212061383041866,-0.0008118816977980914,-0.06428771426302955,-0.24566616233977567,0.001967902160192157,-0.008926028874927796,-0.03148623494728312,0,70,255.0,255.0,255.0
148,7.4,4.49646843923576,-1.7433025574964296,-0.9335284233704776,-0.0007294790995905612,-0.06468650214181763,-0.24721762342422932,0.0013282017681090642,-0.007025486276595214,-0.030572208430864337,0,70,255.0,255.0,255.0
149,7.45,4.49643335899116,-1.7465448725686172,-0.9459271389578456,-0.0006790615209871854,-0.06499026289068909,-0.24872338318286208,0.0006885013760259714,-0.0051249436782626326,-0.029658181914445556,0,70,255.0,255.0,255.0
150,7.5,4.4964,-1.7498,-0.9584,-0.0006606289619879642,-0.06519899650964389,-0.25018344161567385,4.880098394288018e-05,-0.0032244010799302725,-0.028744155398024773,0,70,255.0,255.0,255.0
151,7.550000000000001,4.496366738610809,-1.753064776233543,-0.9709455493529505,-0.0006756454521116108,-0.06540797096628417,-0.25164747406072385,-0.0006494605888887331,-0.005134577185680672,-0.029817142403975455,0,70,255.0,255.0,255.0
152,7.6000000000000005,4.496331853570145,-1.7563423889100498,-0.9835656415619108,-0.0007255750208768373,-0.06571245422821195,-0.2531651558560714,-0.001347722161720334,-0.007044753291431036,-0.030890129409926116,0,70,255.0,255.0,255.0
153,7.65,4.496293599224077,-1.7596376134697853,-0.996262959094396,-0.0008104176682836437,-0.06611244629542727,-0.2547364870017165,-0.002045983734551935,-0.008954929397181403,-0.03196311641587678,0,70,255.0,255.0,255.0
154,7.7,4.496250229918673,-1.762955225353014,-1.0090401844179206,-0.00093017339433203,-0.06660794716793009,-0.25636146749765903,-0.002744245307383536,-0.010865105502931766,-0.03303610342182744,0,70,255.0,255.0,255.0
155,7.75,4.4962,-1.7663,-1.0219,-0.0010848421990219963,-0.06719895684572044,-0.25804009734389916,-0.0034425068802151314,-0.01277528160868191,-0.03410909042777677,0,70,255.0,255.0,255.0
156,7.800000000000001,4.496142085067566,-1.7696751252102034,-1.0348440337629352,-0.0012191488759469786,-0.06779021688053792,-0.2597091038276034,-0.0019297601967840777,-0.010875119784016824,-0.03265116892039266,0,70,255.0,255.0,255.0
157,7.8500000000000005,4.496079345734641,-1.7730774382198664,-1.047869695448171,-0.0012778182187004063,-0.06828646882412213,-0.26130521423593844,-0.00041701351335305097,-0.008974957959351772,-0.03119324741300858,0,70,255.0,255.0,255.0
158,7.9,4.496015563867933,-1.7765021886244283,-1.0609733402519392,-0.0012608502272822835,-0.0686877126764731,-0.26282842856890426,0.0010957331700779758,-0.0070747961346867205,-0.0297353259056245,0,70,255.0,255.0,255.0
159,7.95,4.4959545213341485,-1.7799446260193268,-1.0741513233704718,-0.0011682449016926092,-0.06899394843759081,-0.2642787468265009,0.0026084798535090025,-0.005174634310021668,-0.02827740439824042,0,70,255.0,255.0,255.0
160,8.0,4.4959,-1.7834,-1.0874,-0.0010000022419313838,-0.06920517610747526,-0.26565616900872824,0.004121226536940038,-0.0032744724853568385,-0.02681948289085412,0,70,255.0,255.0,255.0
161,8.05,4.4958545211189245,-1.7868651229256443,-1.10071671559531,-0.0008317590441064909,-0.06941516151156565,-0.26702011062886083,0.0026085013760555856,-0.0051249436782586245,-0.027738181914448757,0,70,255.0,255.0,255.0
162,8.1,4.495815563491289,-1.7903430582104838,-1.1141027766454057,-0.0007391521043258235,-0.06971767047530111,-0.26842998720017314,0.001095776215171187,-0.006975414871160344,-0.028656880938043364,0,70,255.0,255.0,255.0
163,8.15,4.495779345304191,-1.7938384320325018,-1.127560479897847,-0.0007221814225893753,-0.07011270299868168,-0.26988579872266516,-0.00041694894571326583,-0.008825886064062129,-0.029575579961638006,0,70,255.0,255.0,255.0
164,8.200000000000001,4.4957420847447285,-1.7973558705696797,-1.1410921221001922,-0.0007808469988971506,-0.07060025908170735,-0.27138754519633695,-0.0019296741065977178,-0.010676357256963915,-0.030494278985232645,0,70,255.0,255.0,255.0
165,8.25,4.4957,-1.8009,-1.1547,-0.0009151488332491438,-0.07118033872437807,-0.2729352266211884,-0.0034423992674821125,-0.012526828449865857,-0.03141297800882725,0,70,255.0,255.0,255.0
166,8.3,4.495650230456737,-1.80447398308722,-1.1683859038558262,-0.0010698149476212131,-0.07176513707319802,-0.27449845365695474,-0.002744245307400574,-0.010865105502931693,-0.031116103421825154,0,70,255.0,255.0,255.0
167,8.35,4.495593600300205,-1.8080751289381973,-1.1821495979702064,-0.0011895733639892014,-0.07226684927467124,-0.27604683696337096,-0.0020460913473190597,-0.009203382555997586,-0.030819228834823065,0,70,255.0,255.0,255.0
168,8.4,4.4955318549153045,-1.8116992832455645,-1.1959903401566738,-0.001274424082353117,-0.07268547532879777,-0.277580376540437,-0.0013479373872375211,-0.007541659609063422,-0.03052235424782097,0,70,255.0,255.0,255.0
169,8.450000000000001,4.495466739686937,-1.8153422917019546,-1.209907388228761,-0.0013243671027129555,-0.0730210152355776,-0.27909907238815307,-0.0006497834271559822,-0.005879936662129257,-0.03022547966081887,0,70,255.0,255.0,255.0
170,8.5,4.4954,-1.819,-1.2239,-0.0013394024250687163,-0.0732734689950107,-0.28060292450651897,4.8370532925536e-05,-0.0042182137151951515,-0.029928605073818115,0,70,255.0,255.0,255.0
171,8.55,4.49533335705413,-1.8226693447254758,-1.237967668981387,-0.0013209811654081667,-0.07350829019564123,-0.28210607474332033,0.0006884798534964328,-0.005174634310025996,-0.030197404398235067,0,70,255.0,255.0,255.0
172,8.6,4.495268435307893,-1.8263516260367265,-1.252110831473769,-0.0012705544397190742,-0.07379093242601328,-0.2836226649463425,0.0013285891740673068,-0.006131054904856807,-0.030466203722652005,0,70,255.0,255.0,255.0
173,8.65,4.495206835034591,-1.8300492349852393,-1.266330159475458,-0.0011881222480014356,-0.07412139568612691,-0.2851526951155855,0.0019686984946382037,-0.007087475499687652,-0.030735003047068957,0,70,255.0,255.0,255.0
174,8.700000000000001,4.495150156507527,-1.8337645626225014,-1.2806263249847647,-0.0010736845902552515,-0.07449967997598207,-0.2866961652510494,0.0026088078152091006,-0.008043896094518497,-0.031003802371485905,0,70,255.0,255.0,255.0
175,8.75,4.4951,-1.8375,-1.295,-0.0009272414664805274,-0.07492578529557875,-0.2882530753527341,0.003248917135779977,-0.009000316689349308,-0.03127260169590196,0,70,255.0,255.0,255.0
176,8.8,4.495057141326744,-1.841257438010877,-1.3094514202186274,-0.0007982603907503398,-0.07536970214423659,-0.28979724736976264,0.0019103258934274525,-0.008756357256964171,-0.03049427898524052,0,70,255.0,255.0,255.0
177,8.85,4.495019058468223,-1.8450367669148966,-1.3239790761347172,-0.0007362088771377803,-0.07580142102127517,-0.2913025032512581,0.0005717346510749756,-0.008512397824579045,-0.029715956274579108,0,70,255.0,255.0,255.0
178,8.9,4.494982404946329,-1.8488373768134776,-1.338581021941494,-0.0007410869256428448,-0.07622094192669449,-0.29276884299722056,-0.0007668565912775493,-0.008268438392193909,-0.02893763356391767,0,70,255.0,255.0,255.0
179,8.950000000000001,4.494943834282957,-1.8526586578080388,-1.3532553118321806,-0.0008128945362655364,-0.07662826486049457,-0.29419626660764997,-0.0021054478336300737,-0.008024478959808774,-0.02815931085325623,0,70,255.0,255.0,255.0
180,9.0,4.4949,-1.8565,-1.368,-0.000951631709005849,-0.07702338982267536,-0.29558477408254613,-0.0034440390759825556,-0.007780519527423535,-0.02738098814259171,0,70,255.0,255.0,255.0
181,9.05,4.494848477638891,-1.860360903231016,-1.382813850144105,-0.001101977271584629,-0.07741290122741407,-0.29697693577763135,-0.0025697834271685635,-0.007799936662124841,-0.02830547966081484,0,70,255.0,255.0,255.0
182,9.1,4.494790530819216,-1.864241306303687,-1.3976984639873615,-0.001208610051722706,-0.07780338348888784,-0.29841532204862764,-0.0016955277783546022,-0.007819353796826144,-0.02922997117903793,0,70,255.0,255.0,255.0
183,9.15,4.494728345180094,-1.8681412577608503,-1.4126561527585664,-0.0012715300494200873,-0.07819483660709668,-0.29989993289553507,-0.0008212721295406101,-0.00783877093152745,-0.03015446269726106,0,70,255.0,255.0,255.0
184,9.200000000000001,4.494664106360648,-1.8720608061453423,-1.427689227686514,-0.0012907372646767683,-0.0785872605820406,-0.30143076831835375,5.298351927338204e-05,-0.007858188066228755,-0.031078954215484185,0,70,255.0,255.0,255.0
185,9.25,4.4946,-1.876,-1.4428,-0.0012662316974927507,-0.07898065541371956,-0.3030078283170835,0.000927239168087346,-0.007877605200930282,-0.032003445733705504,0,70,255.0,255.0,255.0
186,9.3,4.494537748117689,-1.8799589490650594,-1.457989979204954,-0.0012258305229106536,-0.07937869294610579,-0.3045830095197132,0.0006888078151965093,-0.008043896094518591,-0.03100380237148118,0,70,255.0,255.0,255.0
187,9.35,4.494477218254915,-1.883938007870355,-1.4732574679158361,-0.0011973509159730995,-0.07978504502317141,-0.3061082085542316,0.0004503764623056811,-0.008210186988106893,-0.03000415900925689,0,70,255.0,255.0,255.0
188,9.4,4.494417814333297,-1.8879375921431212,-1.488599967024242,-0.0011807928766800861,-0.08019971164491647,-0.3075834254206389,0.00021194510941484443,-0.0083764778816952,-0.02900451564703256,0,70,255.0,255.0,255.0
189,9.450000000000001,4.494358940274452,-1.8919581176105915,-1.5040149774217655,-0.0011761564050316148,-0.08062269281134093,-0.3090086601189349,-2.6486243475992233e-05,-0.008542768775283508,-0.028004872284808236,0,70,255.0,255.0,255.0
190,9.5,4.4943,-1.896,-1.5195,-0.0011834415010276848,-0.08105398852244482,-0.3103839126491197,-0.0002649175963668187,-0.00870905966887181,-0.027005228922584834,0,70,255.0,255.0,255.0
191,9.55,4.494240529890354,-1.9000633005087462,-1.5350534330360808,-0.001194700636777292,-0.08147232698816205,-0.3117630261435158,-0.0001854478336174684,-0.00802447895981714,-0.028159310853259727,0,70,255.0,255.0,255.0
192,9.600000000000001,4.494180596161125,-1.904146662214892,-1.5506772643492943,-0.0012019862843894319,-0.08185643641842653,-0.3131998437344457,-0.0001059780708681181,-0.007339898250762469,-0.029313392783934623,0,70,255.0,255.0,255.0
193,9.65,4.494120397486718,-1.9082483736666644,-1.5663743791444673,-0.0012052984438641042,-0.0822063168132383,-0.31469436542190926,-2.6508308118770635e-05,-0.006655317541707824,-0.030467474714609474,0,70,255.0,255.0,255.0
194,9.700000000000001,4.494060132541541,-1.9123667234122916,-1.5821476626264273,-0.0012046371152013087,-0.08252196817259733,-0.31624659120590665,5.2961454630579626e-05,-0.005970736832653153,-0.03162155664528437,0,70,255.0,255.0,255.0
195,9.75,4.494,-1.9165,-1.598,-0.0012000022984010462,-0.08280339049650359,-0.31785652108643775,0.00013243121737993406,-0.005286156123598396,-0.032775638575958776,0,70,255.0,255.0,255.0
196,9.8,4.493940132320894,-1.920647048899956,-1.6139330886507253,-0.0011953669299847138,-0.08308399910124907,-0.3194528859062237,5.2983519273365386e-05,-0.005938188066220561,-0.031078954215478547,0,70,255.0,255.0,255.0
197,9.850000000000001,4.493880397100587,-1.9248089432700772,-1.6299438746869892,-0.0011947039464737096,-0.08339720930312566,-0.32096441650798563,-2.6464178833203287e-05,-0.006590220008842725,-0.029382269854998318,0,70,255.0,255.0,255.0
198,9.9,4.493820595719831,-1.9289873131902207,-1.64602811639789,-0.0011980133478680338,-0.08374302110213334,-0.3223911128917235,-0.00010591187693976913,-0.007242251951464867,-0.027685585494518147,0,70,255.0,255.0,255.0
199,9.950000000000001,4.493760529559384,-1.9331837887402428,-1.6621815720725275,-0.0012052951341676866,-0.08412143449827214,-0.3237329750574374,-0.00018535957504633782,-0.007894283894087032,-0.02598890113403792,0,70,255.0,255.0,255.0
200,10.0,4.4937,-1.9374,-1.6784,-0.0012165493053726672,-0.08453244949154204,-0.32499000300512726,-0.000264807273152895,-0.008546315836709173,-0.02429221677355553,0,70,255.0,255.0,255.0
201,10.05,4.493638940826069,-1.9416373038914307,-1.6946806123610199,-0.0012238316432879627,-0.08495967660684187,-0.3262494302315865,-2.6486243458927975e-05,-0.008542768775283528,-0.026084872284812582,0,70,255.0,255.0,255.0
202,10.100000000000001,4.493577815436528,-1.9458959647047998,-1.7110264369027517,-0.0012191979297185602,-0.0853867263690704,-0.32759849023360854,0.00021183478623503903,-0.00853922171385788,-0.02787752779606963,0,70,255.0,255.0,255.0
203,10.15,4.493517219633955,-1.9501759735724533,-1.7274419552639735,-0.0012026481646644595,-0.08581359877822765,-0.32903718301119345,0.0004501558159289976,-0.008535674652432235,-0.029670183307326615,0,70,255.0,255.0,255.0
204,10.200000000000001,4.49345774922092,-1.954477321626738,-1.7439316490834638,-0.00117418234812566,-0.08624029383431361,-0.3305655085643412,0.0006884768456229646,-0.008532127591006588,-0.031462838818583666,0,70,255.0,255.0,255.0
205,10.25,4.4934,-1.9588,-1.7605,-0.0011338004801021637,-0.08666681153732829,-0.3321834668930517,0.0009267978753169301,-0.00852858052958061,-0.033255494329841095,0,70,255.0,255.0,255.0
206,10.3,4.493344104374831,-1.9631437355343215,-1.7771500619051965,-0.0011093064968539022,-0.08707729447138413,-0.33380539316743,5.2961454613516343e-05,-0.007890736832652769,-0.03162155664528956,0,70,255.0,255.0,255.0
207,10.350000000000001,4.4932883411532965,-1.9675071979107246,-1.7938791777020062,-0.0011285043346408118,-0.08745588522059357,-0.3353456225575807,-0.0008208749660898974,-0.007252893135724929,-0.029987618960738024,0,70,255.0,255.0,255.0
208,10.4,4.49323052574435,-1.9718887925199666,-1.8106832625462175,-0.00119139399346289,-0.08780258378495663,-0.3368041550635038,-0.0016947113867932804,-0.006615049438797111,-0.028353681276186548,0,70,255.0,255.0,255.0
209,10.450000000000001,4.493168473556935,-1.976286924752806,-1.8275582315936194,-0.0012979754733201407,-0.08811739016447329,-0.33818099068519936,-0.002568547807496694,-0.005977205741869271,-0.026719743591635012,0,70,255.0,255.0,255.0
210,10.5,4.4931,-1.9807,-1.8445,-0.0014482487742125568,-0.08840030435914355,-0.3394761294226673,-0.0034423842282000714,-0.005339362044941676,-0.025085805907084424,0,70,255.0,255.0,255.0
211,10.55,4.49302384167461,-1.9851269539712837,-1.8615055400181952,-0.001586942369294033,-0.0886831455076194,-0.34075299709869517,-0.0021053595750588914,-0.005974283894091657,-0.025988901134028554,0,70,255.0,255.0,255.0
212,10.600000000000001,4.492942419950282,-1.989568843652303,-1.8785760522892256,-0.0016587847317184488,-0.08899773274855272,-0.34207501953607017,-0.0007683349219177113,-0.0066092057432416374,-0.026891996360972684,0,70,255.0,255.0,255.0
213,10.65,4.4928590773886485,-1.99402725634768,-1.8957137945511582,-0.001663775861485806,-0.08934406608194354,-0.3434421967347924,0.0005686897312234219,-0.007244127592391596,-0.027795091587916782,0,70,255.0,255.0,255.0
214,10.700000000000001,4.492777156551344,-1.9985037793620382,-1.9129210245420607,-0.0016019157585961045,-0.08972214550779188,-0.3448545286948619,0.001905714384364602,-0.007879049441541577,-0.028698186814860912,0,70,255.0,255.0,255.0
215,10.75,4.4927,-2.003,-1.9302,-0.001473204423049349,-0.0901319710260977,-0.34631201541627854,0.003242739037505738,-0.008513971290691313,-0.02960128204180723,0,70,255.0,255.0,255.0
216,10.8,4.492630128926731,-2.0075172485805437,-1.9475525780220233,-0.001326924025970815,-0.09055812349814003,-0.34779061843778847,0.002608476845635532,-0.008532127591001993,-0.029542838818588456,0,70,255.0,255.0,255.0
217,10.850000000000001,4.4925667790455766,-2.0120558274800646,-1.9649790131410934,-0.001212356738485792,-0.09098518378519792,-0.34926629929813746,0.001974214653765326,-0.008550283891312672,-0.02948439559536968,0,70,255.0,255.0,255.0
218,10.9,4.492508364701056,-2.016615782089314,-1.9824791592491509,-0.001129502560594282,-0.0914131518872713,-0.3507390579973254,0.0013399524618951427,-0.00856844019162335,-0.02942595237215091,0,70,255.0,255.0,255.0
219,10.950000000000001,4.492453300237691,-2.0211971577990417,-2.00005287023814,-0.0010783614922962794,-0.09184202780436024,-0.3522088945353525,0.000705690270024937,-0.008586596491934028,-0.029367509148932134,0,70,255.0,255.0,255.0
220,11.0,4.4924,-2.0258,-2.0177,-0.0010589335335917873,-0.0922718115364647,-0.35367580891221867,7.142807815476229e-05,-0.008604752792244486,-0.02930906592571647,0,70,255.0,255.0,255.0
221,11.05,4.492346842618466,-2.0304240517065426,-2.0354201478937126,-0.0010733615268254473,-0.09268436049981765,-0.3551245291501526,-0.0006485478075011553,-0.007897205741873371,-0.02863974359163998,0,70,255.0,255.0,255.0
222,11.100000000000001,4.4922920638674135,-2.0350678464274394,-2.053211895146404,-0.0011237883143419038,-0.09306153211065205,-0.3565397832713827,-0.001368523693157073,-0.007189658691502256,-0.027970421257563487,0,70,255.0,255.0,255.0
223,11.15,4.492233863807127,-2.039729615295066,-2.0710735684522388,-0.0012102138961411527,-0.09340332636896788,-0.35792157127590896,-0.002088499578812965,-0.006482111641131167,-0.027301098923487015,0,70,255.0,255.0,255.0
224,11.200000000000001,4.492170442497894,-2.044407589441795,-2.0890034945053833,-0.0013326382722232007,-0.09370974327476517,-0.3592698931637314,-0.0028084754644688826,-0.005774564590760052,-0.026631776589410523,0,70,255.0,255.0,255.0
225,11.25,4.4921,-2.0491,-2.107,-0.0014910614425880386,-0.0939807828280439,-0.36058474893485004,-0.003528451350124766,-0.005067017540389074,-0.025962454255332723,0,70,255.0,255.0,255.0
226,11.3,4.492021700599405,-2.0538057445932867,-2.1250620304031287,-0.001627629866731821,-0.09425643450259216,-0.3619032649616046,-0.0019342856156264526,-0.005959049441541721,-0.02677818681484806,0,70,255.0,255.0,255.0
227,11.350000000000001,4.491938565484772,-2.0585263868101773,-2.143191006273294,-0.0016844900041506866,-0.09457668777219808,-0.3632625676163349,-0.00034011988112813904,-0.006851081342694368,-0.027593919374363396,0,70,255.0,255.0,255.0
228,11.4,4.491854580070436,-2.0632641567304244,-2.1613889669418946,-0.0016616418548446375,-0.09494154263686161,-0.36466265689904087,0.0012540458533701173,-0.007743113243846984,-0.028409651933878705,0,70,255.0,255.0,255.0
229,11.450000000000001,4.491773729770733,-2.068021284433781,-2.1796579517403307,-0.0015590854188136725,-0.09535099909658278,-0.36610353280972274,0.002848211587868431,-0.00863514514499963,-0.02922538449339404,0,70,255.0,255.0,255.0
230,11.5,4.4917,-2.0728,-2.198,-0.0013768206960577984,-0.09580505715136155,-0.36758519534838024,0.004442377322366688,-0.00952717704615147,-0.030041117052908017,0,70,255.0,255.0,255.0
231,11.55,4.491635954983911,-2.0776017699203115,-2.216416530493775,-0.0012001190062481174,-0.09625790148981347,-0.3690704110034264,0.002625690270020453,-0.008586596491925134,-0.0293675091489379,0,70,255.0,255.0,255.0
232,11.600000000000001,4.491578474193498,-2.0824250063318526,-2.234906479760423,-0.0011142516690557495,-0.09666371680055408,-0.3705219462632741,0.0008090032176742176,-0.007646015937698798,-0.028693901244967783,0,70,255.0,255.0,255.0
233,11.65,4.491523015911128,-2.0872673577832384,-2.253468163780183,-0.0011192186844806926,-0.09702250308358334,-0.3719398011279232,-0.0010076838346719536,-0.006705435383472496,-0.028020293340997687,0,70,255.0,255.0,255.0
234,11.700000000000001,4.4914650384191726,-2.0921264728230824,-2.2720998985332956,-0.0012150200525229476,-0.09733426033890132,-0.37332397559737385,-0.0028243708870181886,-0.005764854829246159,-0.02734668543702757,0,70,255.0,255.0,255.0
235,11.75,4.4914,-2.097,-2.2908,-0.0014016557731825075,-0.09759898856650796,-0.374674469671626,-0.004641057939364365,-0.0048242742750196355,-0.02667307753305792,0,70,255.0,255.0,255.0
236,11.8,4.491324879464947,-2.1018863757254675,-2.3095670476217713,-0.0015878941082783401,-0.09786395953815268,-0.37600709102468793,-0.002808475464468838,-0.005774564590768785,-0.026631776589418975,0,70,255.0,255.0,255.0
237,11.850000000000001,4.491242737741234,-2.1067871878624116,-2.3284006746850165,-0.0016825033196293953,-0.09817644502558485,-0.3773376473305679,-0.0009758929895733112,-0.006724854906517934,-0.02659047564578003,0,70,255.0,255.0,255.0
238,11.9,4.491158156285047,-2.1117048121366224,-2.347300777937375,-0.001685483407235674,-0.09853644502880447,-0.37866613858926595,0.0008566894853221504,-0.00767514522226705,-0.026549174702141087,0,70,255.0,255.0,255.0
239,11.950000000000001,4.491075716552573,-2.1166416242738886,-2.3662672541264897,-0.0015968343710971774,-0.09894395954781156,-0.37999256480078203,0.002689271960217677,-0.0086254355380162,-0.02650787375850214,0,70,255.0,255.0,255.0
240,12.0,4.491,-2.1216,-2.3853,-0.0014165562112139107,-0.09939898858260608,-0.3813169259651161,0.004521854435113146,-0.009575725853765538,-0.02646657281486231,0,70,255.0,255.0,255.0
241,12.05,4.490934127156296,-2.126581527177819,-2.404399279019141,-0.0012323045606389437,-0.0998542603575752,-0.38266122489782245,0.0028482115878854302,-0.008635145144999355,-0.02730538449338874,0,70,255.0,255.0,255.0
242,12.100000000000001,4.490875374841563,-2.1315846422185003,-2.4235668214995147,-0.0011317350524253636,-0.10026250309710603,-0.38404746441445503,0.0011745687406577148,-0.007694564436233171,-0.028144196171915173,0,70,255.0,255.0,255.0
243,12.15,4.490819558948682,-2.136606993670272,-2.442804724470318,-0.0011148476865731698,-0.10062371680119853,-0.3854756445150139,-0.0004990741065699416,-0.0067539837274670205,-0.028983007850441573,0,70,255.0,255.0,255.0
244,12.200000000000001,4.490762495370532,-2.1416462300813626,-2.4621150849607485,-0.0011816424630823605,-0.10093790146985272,-0.3869457651994992,-0.002172716953797657,-0.005813403018700838,-0.029821819528968004,0,70,255.0,255.0,255.0
245,12.25,4.4907,-2.1467,-2.4815,-0.0013321193819529316,-0.10120505710306862,-0.3884578264679107,-0.003846359801025309,-0.004872822309934355,-0.030660631207493516,0,70,255.0,255.0,255.0
246,12.3,4.490629011909866,-2.1517667155632574,-2.500960636301668,-0.0014988876491544465,-0.10147099903154813,-0.3899560093840237,-0.0028243708870351915,-0.005764854829245859,-0.029266685437023356,0,70,255.0,255.0,255.0
247,12.350000000000001,4.490550962892514,-2.156847843263588,-2.520494439316928,-0.0016145564706564548,-0.10178154258599321,-0.3913844950116131,-0.0018023819730450738,-0.006656887348557364,-0.0278727396665532,0,70,255.0,255.0,255.0
248,12.4,4.490468407920227,-2.161945613182289,-2.5400979241813535,-0.001679125846458955,-0.10213668776640386,-0.39274328335067893,-0.0007803930590549926,-0.007548919867868837,-0.026478793896083087,0,70,255.0,255.0,255.0
249,12.450000000000001,4.490383901965296,-2.167062255400661,-2.5597676060305194,-0.0016925957765619518,-0.1025364345727801,-0.39403237440122135,0.00024159585493512513,-0.008440952387180341,-0.02508484812561293,0,70,255.0,255.0,255.0
250,12.5,4.4903,-2.1722,-2.5795,-0.0016549662609654445,-0.10298078300512188,-0.3952517681632402,0.0012635847689252064,-0.009332984906491482,-0.023690902355141485,0,70,255.0,255.0,255.0
251,12.55,4.4902186252042435,-2.1773604105691526,-2.599292575774191,-0.0016041448427376135,-0.10342974351623437,-0.39645873756608146,0.0007692719601880018,-0.008625435538007731,-0.024587873758506185,0,70,255.0,255.0,255.0
252,12.600000000000001,4.4901391735883855,-2.1825423847271503,-2.6191466212327783,-0.0015780390649466432,-0.10384332655892266,-0.39771055553909085,0.0002749591514507972,-0.007917886169523982,-0.025484845161870887,0,70,255.0,255.0,255.0
253,12.65,4.4900604093704075,-2.1877441536005713,-2.639064378804269,-0.001576648927592533,-0.10422153213318676,-0.3990072220822685,-0.00021935365728638985,-0.007210336801040258,-0.026381816565235555,0,70,255.0,255.0,255.0
254,12.700000000000001,4.489981096768285,-2.192963948315995,-2.6590480909171745,-0.0015999744306752829,-0.10456436023902668,-0.40034873719561437,-0.0007136664660235942,-0.006502787432556507,-0.027278787968600258,0,70,255.0,255.0,255.0
255,12.75,4.4899,-2.1982,-2.6791,-0.0016480155741948911,-0.10487181087644243,-0.40173510087912845,-0.0012079792747607763,-0.00579523806407245,-0.02817575937196448,0,70,255.0,255.0,255.0
256,12.8,4.489816487273163,-2.2034508421601333,-2.6992218606015705,-0.0016845329799081103,-0.10516202690351197,-0.4031370403516519,-0.0002527169537679736,-0.005813403018709184,-0.027901819528972457,0,70,255.0,255.0,255.0
257,12.850000000000001,4.489732342753943,-2.2087162178278135,-2.7194134757519635,-0.0016732872695716888,-0.10545315117831336,-0.40452528283202577,0.000702545367224829,-0.00583156797334592,-0.02762787968598043,0,70,255.0,255.0,255.0
258,12.9,4.489649954598141,-2.2139961724154267,-2.7396741606015707,-0.0016142784431856295,-0.10574518370084657,-0.4058998283202499,0.0016578076882175978,-0.005849732927982654,-0.027353939842988416,0,70,255.0,255.0,255.0
259,12.950000000000001,4.489571710961559,-2.2192907513353606,-2.7600032303007858,-0.0015075065007499279,-0.1060381244711116,-0.4072606768163246,0.0026130700092104006,-0.0058678978826193886,-0.02707999999999639,0,70,255.0,255.0,255.0
260,13.0,4.4895,-2.2246,-2.7804,-0.0013529714422645918,-0.10633197348910849,-0.4086078283202496,0.0035683323302031812,-0.00588606283725579,-0.02680606015700393,0,70,255.0,255.0,255.0
261,13.05,4.489436225703102,-2.2299242207903145,-2.8008639818195293,-0.0012097232376353925,-0.10664214886971929,-0.4099531010273147,0.0021615958549647176,-0.00652095238717608,-0.027004848125598804,0,70,255.0,255.0,255.0
262,13.100000000000001,4.48937785539584,-2.2352647439615967,-2.8213954757593727,-0.0011368118567681171,-0.1069840687278261,-0.4113083131328095,0.0007548593797262536,-0.007155841937096371,-0.027203636094193677,0,70,255.0,255.0,255.0
263,13.15,4.489321372237028,-2.240623156737722,-2.841994978789451,-0.0011342372996627648,-0.10735773306342893,-0.4126734646367341,-0.0006518770955121602,-0.0077907314870166375,-0.027402424062788547,0,70,255.0,255.0,255.0
264,13.200000000000001,4.489263259385478,-2.2460010463425646,-2.8626629878796868,-0.0012019995663193352,-0.10776314187652777,-0.41404855553908837,-0.0020586135707506238,-0.008425621036936927,-0.02760121203138342,0,70,255.0,255.0,255.0
265,13.25,4.4892,-2.2514,-2.8834,-0.001340098656737824,-0.10820029516712262,-0.4154335858398724,-0.0034653500459890414,-0.009060510586857307,-0.0277999999999774,0,70,255.0,255.0,255.0
266,13.3,4.489129009914431,-2.2568210746786086,-2.9042062121203145,-0.0014925740695388822,-0.10863737761760807,-0.416810555539087,-0.002633666466053204,-0.008422787432560544,-0.027278787968608047,0,70,255.0,255.0,255.0
267,13.350000000000001,4.489051435662696,-2.262263206325799,-2.9250806212105496,-0.0016034653033431482,-0.10904257391037869,-0.41816146463673326,-0.001801982886117367,-0.00778506427826378,-0.026757575937238695,0,70,255.0,255.0,255.0
268,13.4,4.4889693564537465,-2.2677248006336845,-2.9460219242406276,-0.0016727723581506197,-0.10941588404543445,-0.41948631313281093,-0.0009702993061815593,-0.0071473411239670395,-0.02623636390586936,0,70,255.0,255.0,255.0
269,13.450000000000001,4.488884851496532,-2.2732042632943803,-2.9670288181804714,-0.001700495233961302,-0.10975730802277539,-0.42078510102732014,-0.0001386157262457219,-0.006509617969670275,-0.02571515187450001,0,70,255.0,255.0,255.0
270,13.5,4.4888,-2.2787,-2.9881,-0.0016866339307751936,-0.11006684584240148,-0.42205782832026084,0.0006930678536900738,-0.005871894815373091,-0.02519393984313023,0,70,255.0,255.0,255.0
271,13.55,4.488716534639177,-2.2842106804952507,-3.0092343696992163,-0.001651980484202996,-0.11036034065985129,-0.42331667681633894,0.0006930700091978045,-0.005867897882618989,-0.0251599999999927,0,70,255.0,255.0,255.0
272,13.600000000000001,4.488634801953377,-2.289736030735208,-3.030431639398432,-0.0016173269298554122,-0.11065363563066338,-0.42457382832026014,0.0006930721647055351,-0.005863900949864886,-0.025126060156855166,0,70,255.0,255.0,255.0
273,13.65,4.488554801947987,-2.2952760407275394,-3.0516917242480397,-0.001582673267732443,-0.11094673075483777,-0.4258292828320245,0.0006930743202132657,-0.005859904017110784,-0.025092120313717638,0,70,255.0,255.0,255.0
274,13.700000000000001,4.4884765346284,-2.300830700479915,-3.073014539398432,-0.0015480194978340857,-0.11123962603237446,-0.42708304035163186,0.0006930764757209964,-0.005855907084356682,-0.025058180470580105,0,70,255.0,255.0,255.0
275,13.75,4.4884,-2.3064,-3.0944,-0.0015133656201603437,-0.11153232146327342,-0.4283351008790825,0.0006930786312287184,-0.0058519101516022465,-0.02502424062744213,0,70,255.0,255.0,255.0
276,13.8,4.488324851528864,-2.3119842033403883,-3.1158483090828235,-0.0014995039936480763,-0.11184125974298659,-0.42960273719555325,-0.000138613570738029,-0.006505621036924479,-0.02568121203138719,0,70,255.0,255.0,255.0
277,13.850000000000001,4.4882493565238,-2.31758467073337,-3.1373608211957253,-0.0015272269772341467,-0.11218288356696587,-0.43090322208222126,-0.0009703057727047763,-0.007159331922246711,-0.026338183435332247,0,70,255.0,255.0,255.0
278,13.9,4.488171435754305,-2.3232030364561562,-3.1589391787672154,-0.0015965345709185522,-0.11255719293521127,-0.43223655553908646,-0.0018019979746714942,-0.00781304280756892,-0.026995154839277283,0,70,255.0,255.0,255.0
279,13.950000000000001,4.488089009989874,-2.3288409347859624,-3.1805850242258042,-0.001707426774701297,-0.11296418784772276,-0.433602737566149,-0.0026336901766382415,-0.008466753692891151,-0.027652126243222344,0,70,255.0,255.0,255.0
280,14.0,4.488,-2.3345,-3.2023,-0.0018599035885823738,-0.11340386830450039,-0.43500176816340863,-0.0034653823786049733,-0.009120464578213694,-0.02830909764716516,0,70,255.0,255.0,255.0
281,14.05,4.487903259245369,-2.3401813061431938,-3.2240851939694912,-0.001998003541203958,-0.11384262036819802,-0.43640037440145035,-0.0020586157262583076,-0.00842961796969134,-0.027635151874503085,0,70,255.0,255.0,255.0
282,14.100000000000001,4.487801371951424,-2.3458836863313124,-3.2459394758186684,-0.002065765161208207,-0.11424683010146953,-0.43776528335085896,-0.0006518490739116419,-0.0077387713611689855,-0.02696120610184101,0,70,255.0,255.0,255.0
283,14.15,4.487697855034793,-2.351605413447834,-3.2678611606830996,-0.0020631884485951242,-0.11461649750431492,-0.43909649501163445,0.0007549175784349743,-0.0070479247526466565,-0.026287260329178958,0,70,255.0,255.0,255.0
284,14.200000000000001,4.487596225412108,-2.357344760376237,-3.2898485636983548,-0.0019902734033647083,-0.1149516225767342,-0.4403940093837769,0.00216168423078164,-0.006357078144124303,-0.025613314556516883,0,70,255.0,255.0,255.0
285,14.25,4.4875,-2.3631,-3.3119,-0.0018470200255169638,-0.11525220531872735,-0.4416578264672862,0.0035684508831282536,-0.005666231535602195,-0.024939368783854388,0,70,255.0,255.0,255.0
286,14.3,4.487411711489658,-2.3688697720868346,-3.334014115039214,-0.0016924818415454163,-0.11554025878422611,-0.44290776519864666,0.00261307647573356,-0.0058559070843479805,-0.025058180470563143,0,70,255.0,255.0,255.0
287,14.350000000000001,4.487329955670505,-2.3746541839413804,-3.3561908755296046,-0.001585712377943604,-0.11583779602716215,-0.44416364451434254,0.0016577020683388659,-0.006045582633093766,-0.025176992157271896,0,70,255.0,255.0,255.0
288,14.4,4.487252344106524,-2.3804537097525085,-3.3784305785003865,-0.0015267116347115284,-0.11614481704753547,-0.4454254644143738,0.000702327660944206,-0.006235258181839544,-0.025295803843980648,0,70,255.0,255.0,255.0
289,14.450000000000001,4.487176488361696,-2.386268823709091,-3.40073352098078,-0.0015154796118491854,-0.1164613218453461,-0.4466932248987406,-0.00025304674645048805,-0.006424933730585329,-0.025414615530689404,0,70,255.0,255.0,255.0
290,14.5,4.4871,-2.3921,-3.4231,-0.0015520163093565755,-0.11678731042059402,-0.4479669259674428,-0.0012084211538451479,-0.0066146092793321065,-0.025533427217398597,0,70,255.0,255.0,255.0
291,14.55,4.487021094795996,-2.397947605509468,-3.4455303458736553,-0.0016000690926183461,-0.11711634449489931,-0.44924856480395864,-0.0007136901766256437,-0.006546753692879047,-0.02573212624323418,0,70,255.0,255.0,255.0
292,14.600000000000001,4.4869404053665525,-2.403811577903168,-3.468025022062918,-0.001623385327019141,-0.11744198578988194,-0.4505401385917663,-0.0002189591994061395,-0.006478898106425988,-0.025930825269069764,0,70,255.0,255.0,255.0
293,14.65,4.48685916853911,-2.4096917475421344,-3.4905845253153522,-0.0016219650125589608,-0.1177642343055419,-0.4518416473308656,0.0002757717778133471,-0.006411042519972931,-0.026129524294905337,0,70,255.0,255.0,255.0
294,14.700000000000001,4.48677862114111,-2.4155879447874002,-3.5132093523785257,-0.0015958081492378055,-0.11808309004187922,-0.4531530910212568,0.0007705027550328515,-0.0063431869335198714,-0.02632822332074092,0,70,255.0,255.0,255.0
295,14.75,4.4867,-2.4215,-3.5359,-0.0015449147370556768,-0.11839855299889389,-0.45447446966293964,0.0012652337322523414,-0.006275331347066371,-0.02652692234657339,0,70,255.0,255.0,255.0
296,14.8,4.486623909326354,-2.4274278058752943,-3.5586565014661677,-0.0015072417879801424,-0.11871436323617386,-0.4557779755855171,0.00024168423076901635,-0.006357078144132556,-0.025613314556524432,0,70,255.0,255.0,255.0
297,14.850000000000001,4.486548422863284,-2.4333715044459487,-3.5814770362187267,-0.0015207463139787747,-0.11903426081330716,-0.4570358011185921,-0.0007818652707143087,-0.006438824941198742,-0.02469970676647548,0,70,255.0,255.0,255.0
298,14.9,4.486470981737037,-2.4393313000789556,-3.6043593202382023,-0.001585428315051571,-0.11935824573029374,-0.4582479462621647,-0.001805414772197597,-0.006520571738264925,-0.023786098976426556,0,70,255.0,255.0,255.0
299,14.950000000000001,4.486389027073861,-2.445307397141309,-3.627301069505118,-0.0017012877911985356,-0.11968631798713364,-0.45941441101623476,-0.0028289642736809223,-0.00660231853533111,-0.0228724911863776,0,70,255.0,255.0,255.0
300,15.0,4.4863,-2.4513,-3.6503,-0.0018683247424196607,-0.12001847758382683,-0.46053519538080245,-0.0038525137751642125,-0.006684065332397182,-0.021958883396327344,0,70,255.0,255.0,255.0
301,15.05,4.486202467898589,-2.4573091709893564,-3.6733548482616754,-0.002018963755459917,-0.12034620256040163,-0.4616715328539776,-0.0021730467464459694,-0.006424933730594425,-0.02349461553067711,0,70,255.0,255.0,255.0
302,15.100000000000001,4.486099503180311,-2.4633344043130387,-3.6964684330621775,-0.0020856294170642606,-0.12066097095688628,-0.46288465693387015,-0.0004935797177277263,-0.006165802128791668,-0.025030347665026875,0,70,255.0,255.0,255.0
303,15.15,4.48599530451274,-2.469375052142043,-3.7196445937318408,-0.002068321727232693,-0.12096278277328079,-0.46417456762048026,0.0011858873109904574,-0.0059066705269889205,-0.026566079799376585,0,70,255.0,255.0,255.0
304,15.200000000000001,4.485894070563446,-2.475430466647365,-3.7428871696010035,-0.0019670406859652123,-0.12125163800958517,-0.4655412649138079,0.0028653543397087,-0.005647538925186163,-0.02810181193372635,0,70,255.0,255.0,255.0
305,15.25,4.4858,-2.4815,-3.7662,-0.0017817862932618268,-0.12152753666579942,-0.4669847488138528,0.004544821368426884,-0.005388407323382638,-0.029637544068074728,0,70,255.0,255.0,255.0
306,15.3,4.485715819079291,-2.487583510167282,-3.7895857054871334,-0.0016009031901754436,-0.12182082652222197,-0.4684318929985731,0.0026905027550283415,-0.006343186933519354,-0.028248223320734914,0,70,255.0,255.0,255.0
307,15.350000000000001,4.485638364415472,-2.4936828783018976,-3.8130420315325684,-0.001512736017758989,-0.12216185535915136,-0.46980957114592636,0.0008361841416297993,-0.007297966543656069,-0.0268589025733951,0,70,255.0,255.0,255.0
308,15.4,4.485563000212005,-2.4998004913528717,-3.8365655048344363,-0.0015172847760124607,-0.12255062317658758,-0.4711177832559126,-0.0010181344717686775,-0.008252746153792751,-0.025469581826055333,0,70,255.0,255.0,255.0
309,15.450000000000001,4.48548509067236,-2.5059387362692314,-3.86015265209087,-0.0016145494649358594,-0.12298712997453064,-0.4723565293285319,-0.0028724530851672193,-0.009207525763929468,-0.02408026107871552,0,70,255.0,255.0,255.0
310,15.5,4.4854,-2.5121,-3.8838,-0.0018045300845291783,-0.12347137575298052,-0.47352580936378413,-0.0047267716985656995,-0.01016230537406615,-0.022690940331378417,0,70,255.0,255.0,255.0
311,15.55,4.485304655784245,-2.5182855883415174,-3.9075047297897934,-0.001993423483835772,-0.12393849135071514,-0.4746648951517285,-0.0028289642736979296,-0.00852231853531813,-0.02287249118639574,0,70,255.0,255.0,255.0
312,15.600000000000001,4.485202239157804,-2.5244924824793733,-3.9312666408075527,-0.0020874265118989753,-0.12432360760651234,-0.4758130584824237,-0.0009311568488301596,-0.006882331696570107,-0.023054042041413064,0,70,255.0,255.0,255.0
313,15.65,4.485097494639241,-2.5307165824464697,-3.955086186930415,-0.0020865391687187908,-0.12462672452037214,-0.47697029935586976,0.0009666505760375435,-0.005242344857822145,-0.02323559289643038,0,70,255.0,255.0,255.0
314,15.700000000000001,4.48499516674712,-2.5369537882757114,-3.9789638220355186,-0.001990761454295218,-0.12484784209229455,-0.4781366177720668,0.0028644580009053134,-0.003602358019074124,-0.023417143751447704,0,70,255.0,255.0,255.0
315,15.75,4.4849,-2.5432,-4.0029,-0.0018000933686282638,-0.12498696032227957,-0.4793120137310146,0.004762265425773009,-0.0019623711803267163,-0.023598694606463688,0,70,255.0,255.0,255.0
316,15.8,4.484815157783731,-2.5494525364666503,-4.026895375353695,-0.0016094028744907938,-0.1251292080749175,-0.4805085263945189,0.002865354339725688,-0.0037275389251905794,-0.024261811933707564,0,70,255.0,255.0,255.0
317,15.850000000000001,4.484737478953312,-2.555714391780613,-4.0509514052372255,-0.0015135579346556907,-0.12535971421479863,-0.4817381949243854,0.0009684432536783681,-0.0054927066700544425,-0.024924929260951443,0,70,255.0,255.0,255.0
318,15.9,4.4846622212310265,-2.5619899788612503,-4.075069747443907,-0.001512558549122954,-0.12567847874192292,-0.48300101932061407,-0.0009284678323688844,-0.007257874414918243,-0.025588046588195294,0,70,255.0,255.0,255.0
319,15.950000000000001,4.484584642339162,-2.568283710627926,-4.0992520597670605,-0.0016064047178925823,-0.12608550165629046,-0.4842969995832049,-0.002825378918416205,-0.009023042159782106,-0.02625116391543917,0,70,255.0,255.0,255.0
320,16.0,4.4845,-2.5746,-4.1235,-0.00179509644096457,-0.12658078295790115,-0.4856261357121579,-0.004722290004463461,-0.010788209904645907,-0.026914281242679916,0,70,255.0,255.0,255.0
321,16.05,4.484405113080829,-2.5809418657918846,-4.147814568795426,-0.001984965018204912,-0.12708067634961553,-0.4869489992701929,-0.002872453085150102,-0.009207525763929313,-0.02600026107871994,0,70,255.0,255.0,255.0
322,16.1,4.484303045028945,-2.5873067503981777,-4.172194138243549,-0.002082341749479584,-0.1275015355342941,-0.4882261618200299,-0.0010226161658367428,-0.007626841623212721,-0.02508624091475997,0,70,255.0,255.0,255.0
323,16.150000000000002,4.484198420436647,-2.5936907021085296,-4.196636423293961,-0.0020872266347885878,-0.12784336051193682,-0.489457623361669,0.0008272207534766162,-0.006046157482496128,-0.024172220750799993,0,70,255.0,255.0,255.0
324,16.2,4.484095863896233,-2.600089769212588,-4.221139138896246,-0.001999619674131931,-0.1281061512825437,-0.49064338389510986,0.002677057672789844,-0.0044654733417796464,-0.023258200586840083,0,70,255.0,255.0,255.0
325,16.25,4.484,-2.6065,-4.2457,-0.0018195208675096024,-0.12828990784611477,-0.49178344342035285,0.004526894592103198,-0.0028847892010621656,-0.02234418042287789,0,70,255.0,255.0,255.0
326,16.3,4.483913989892952,-2.612918400365815,-4.2703175494646,-0.001634737052684815,-0.12845208652661816,-0.49292747652471103,0.0028644580008881926,-0.0036023580190741025,-0.023417143751447447,0,70,255.0,255.0,255.0
327,16.35,4.483835140930905,-2.6193458066266766,-4.2949936417885795,-0.001533075067420779,-0.12865014364802219,-0.4941251577954976,0.0012020214096731875,-0.004319926837086039,-0.024490107080017007,0,70,255.0,255.0,255.0
328,16.400000000000002,4.483759297022384,-2.625784012704632,-4.319730959380258,-0.0015145349117174946,-0.12888407921032677,-0.4953764872327127,-0.00046041518154181765,-0.005037495655097976,-0.025563070408586564,0,70,255.0,255.0,255.0
329,16.45,4.483682302075908,-2.6322348125217245,-4.344532184647957,-0.001579116585574954,-0.129153893213532,-0.4966814648363562,-0.0021228517727567044,-0.005755064473109862,-0.026636033737156048,0,70,255.0,255.0,255.0
330,16.5,4.4836,-2.6387,-4.3694,-0.0017268200889931666,-0.12945958565763774,-0.49804009060642823,-0.003785288363971708,-0.0064726332911206885,-0.02770899706572072,0,70,255.0,255.0,255.0
331,16.55,4.483509327347364,-2.645181332744858,-4.394336033346175,-0.0018920867710528655,-0.12979897754391043,-0.49938909463095715,-0.0028253789184161495,-0.007103042159786419,-0.026251163915436384,0,70,255.0,255.0,255.0
332,16.6,4.483411591247433,-2.651680423095115,-4.419337694602138,-0.0020093579808347856,-0.13016988987361638,-0.5006652069979719,-0.001865469472860591,-0.00773345102845215,-0.024793330765152048,0,70,255.0,255.0,255.0
333,16.650000000000002,4.483309191473818,-2.6581988470729434,-4.444401339185014,-0.002078633718338927,-0.13057232264675564,-0.5018684277074724,-0.0009055600273050321,-0.008363859897117881,-0.02333549761486771,0,70,255.0,255.0,255.0
334,16.7,4.483204527800138,-2.6647381807005144,-4.469523322511925,-0.00209991398356529,-0.13100627586332816,-0.5029987567594586,5.4349418250458116e-05,-0.008994268765783566,-0.021877664464583477,0,70,255.0,255.0,255.0
335,16.75,4.4831,-2.6713,-4.4947,-0.002073198776513878,-0.13147174952333399,-0.5040561941539307,0.0010142588638060203,-0.009624677634449297,-0.020419831314295145,0,70,255.0,255.0,255.0
336,16.8,4.482997500717591,-2.6778850686547546,-4.5199287171507025,-0.002028915863099295,-0.1319200032977397,-0.5051001449514596,0.0007570576727772864,-0.00830547334177905,-0.021338200586860104,0,70,255.0,255.0,255.0
337,16.85,4.4828968940793645,-2.6844909009928637,-4.545210779802875,-0.0019974930092361482,-0.1323022968575119,-0.5061900142126167,0.0004998564817485524,-0.006986269049108802,-0.022256569859425063,0,70,255.0,255.0,255.0
338,16.900000000000002,4.482797537082343,-2.691114199003595,-4.570548483879692,-0.0019789302149244388,-0.13261863020265058,-0.5073258019374021,0.00024265529071981849,-0.005667064756438555,-0.023174939131990018,0,70,255.0,255.0,255.0
339,16.95,4.482698786723545,-2.697751664676218,-4.59594412530434,-0.001973227480164166,-0.13286900333315574,-0.5085075081258157,-1.4545900308897235e-05,-0.0043478604637684016,-0.02409330840455491,0,70,255.0,255.0,255.0
340,17.0,4.4826,-2.7044,-4.6214,-0.0019803848049553294,-0.13305341624902745,-0.5097351327778574,-0.00027174709133762423,-0.003028656171098376,-0.025011677677118982,0,70,255.0,255.0,255.0
341,17.05,4.4825006697822705,-2.7110567926361244,-4.646917898051015,-0.0019922497765573737,-0.13322500926513253,-0.5109783255632135,-0.00020285177274414728,-0.00383506447310521,-0.024716033737125182,0,70,255.0,255.0,255.0
342,17.1,4.4824008324351095,-2.717723172933432,-4.672497586186372,-0.002000669982229744,-0.13343692269633797,-0.51220673615157,-0.00013395645415067032,-0.004641472775112044,-0.024420389797131382,0,70,255.0,255.0,255.0
343,17.150000000000002,4.482300660196813,-2.724401156912677,-4.698138325296223,-0.0020056454219724413,-0.13368915654264377,-0.5134203645429267,-6.506113555719337e-05,-0.005447881077118878,-0.024124745857137586,0,70,255.0,255.0,255.0
344,17.2,4.482200325305678,-2.7310927605946143,-4.723839376270714,-0.002007176095785464,-0.13398171080404983,-0.5146192107372837,3.834183036278711e-06,-0.006254289379125654,-0.023829101917143807,0,70,255.0,255.0,255.0
345,17.25,4.4821,-2.7378,-4.7496,-0.0020052620036688125,-0.1343145854805563,-0.5158032747346412,7.272950162976605e-05,-0.0070606976811329325,-0.02353345797714912,0,70,255.0,255.0,255.0
346,17.3,4.481999820153326,-2.7445245608007482,-4.77541969064524,-0.00200208503067138,-0.13466795964172915,-0.5169865527956843,5.434941826752667e-05,-0.007074268765779657,-0.02379766446457641,0,70,255.0,255.0,255.0
347,17.35,4.481899776180197,-2.75126680727341,-4.801298875451642,-0.00199982706184206,-0.13502201235713426,-0.5181830411810988,3.596933490528729e-05,-0.007087839850426381,-0.0240618709520037,0,70,255.0,255.0,255.0
348,17.400000000000002,4.481799822130405,-2.7580267733456987,-4.827238214935424,-0.0019984880971808516,-0.13537674362677177,-0.5193927398908847,1.7589251543047903e-05,-0.007101410935073106,-0.024326077439430993,0,70,255.0,255.0,255.0
349,17.45,4.481699912053743,-2.764804492945324,-4.853238369612802,-0.001998068136687755,-0.13573215345064157,-0.5206156489250419,-7.908318191901721e-07,-0.007114982019719829,-0.024590283926858265,0,70,255.0,255.0,255.0
350,17.5,4.4816,-2.7716,-4.8793,-0.0019985671803627704,-0.13608824182874374,-0.5218517682835705,-1.917091518142261e-05,-0.007128553104366553,-0.02485449041428378,0,70,255.0,255.0,255.0
351,17.55,4.481500049604428,-2.778412964160884,-4.905423339368026,-0.0019994101007508812,-0.13642315216794745,-0.5230754632540423,-1.4545900343003394e-05,-0.006267860463781082,-0.0240933084045876,0,70,255.0,255.0,255.0
352,17.6,4.481400062844104,-2.7852415979729273,-4.931606912007063,-0.0020000217703970706,-0.13671502787512185,-0.5242610991240293,-9.920885504584178e-06,-0.0054071678231956116,-0.023332126394891416,0,70,255.0,255.0,255.0
353,17.650000000000002,4.481300051281567,-2.792083749704529,-4.957848814962088,-0.0020004021893013394,-0.13696386895026702,-0.5254086758935315,-5.295870666164961e-06,-0.00454647518261014,-0.022570944385195236,0,70,255.0,255.0,255.0
354,17.7,4.481200026479353,-2.7989372676240865,-4.984147145278074,-0.0020005513574636873,-0.13716967539338284,-0.5265181935625488,-6.708558277460757e-07,-0.0036857825420247305,-0.021809762375499107,0,70,255.0,255.0,255.0
355,17.75,4.4811,-2.8058,-5.0105,-0.002000469274884114,-0.13733244720446947,-0.5275896521310813,3.9541590106870195e-06,-0.0028250899014397035,-0.02104858036580115,0,70,255.0,255.0,255.0
356,17.8,4.480999981428964,-2.812670782555716,-5.036906151882658,-0.0020002745663325132,-0.13751143168648353,-0.5286635941881542,3.834183053343097e-06,-0.004334289379121991,-0.021909101917114007,0,70,255.0,255.0,255.0
357,17.85,4.480899972443386,-2.8195524008348802,-5.06336707652011,-0.00200008585657878,-0.13776587614238167,-0.5297805623227927,3.7142070959991744e-06,-0.005843488856804278,-0.02276962346842686,0,70,255.0,255.0,255.0
358,17.900000000000002,4.480799972743327,-2.826448627836186,-5.089884925216232,-0.0019999031456229134,-0.13809578057216396,-0.5309405565349969,3.5942311386552523e-06,-0.007352688334486566,-0.023630145019739715,0,70,255.0,255.0,255.0
359,17.95,4.480699982028844,-2.8333632365583274,-5.1164618492749,-0.0019997264334649144,-0.1385011449758303,-0.5321435768247667,3.4742551813113383e-06,-0.008861887812168746,-0.02449066657105251,0,70,255.0,255.0,255.0
360,18.0,4.4806,-2.8403,-5.1431,-0.001999555720104782,-0.1389819693533808,-0.533389623192102,3.3542792239639463e-06,-0.010371087289851033,-0.0253511881223627,0,70,255.0,255.0,255.0
361,18.05,4.4805000246797135,-2.8472615056162525,-5.169800853101344,-0.0019994916339192365,-0.13946712108611997,-0.5346381599933325,-7.90831802140932e-07,-0.009034982019715247,-0.02459028392685737,0,70,255.0,255.0,255.0
362,18.1,4.480400047382349,-2.854245598687554,-5.196563181912505,-0.001999634803284996,-0.13988546755535236,-0.5358486515847879,-4.93594282824581e-06,-0.00769887674957946,-0.023829379731352043,0,70,255.0,255.0,255.0
363,18.150000000000002,4.480300057745127,-2.861248938950729,-5.223385084172993,-0.001999985228202061,-0.14023700876107795,-0.5370210979664678,-9.08105385435069e-06,-0.006362771479443673,-0.023068475535846712,0,70,255.0,255.0,255.0
364,18.2,4.480200045405269,-2.8682681861426027,-5.25026465762232,-0.0020005429086704307,-0.1405217447032967,-0.5381554991383725,-1.3226164880455272e-05,-0.005026666209307981,-0.022307571340341437,0,70,255.0,255.0,255.0
365,18.25,4.4801,-2.8753,-5.2772,-0.0020013078446901064,-0.1407396753820087,-0.5392518551005019,-1.7371275906560152e-05,-0.003690560939172194,-0.021546667144837883,0,70,255.0,255.0,255.0
366,18.3,4.47999991985218,-2.882341594979276,-5.304189635711969,-0.0020017588979843164,-0.14092408396903866,-0.5403357658385112,-6.708558618455791e-07,-0.0036857825420248957,-0.02180976237553374,0,70,255.0,255.0,255.0
367,18.35,4.479899838027218,-2.8893924044149064,-5.331233795829878,-0.0020013749302762907,-0.14110825363621118,-0.5414328313380553,1.6029564182868994e-05,-0.0036810041448775976,-0.0220728576062296,0,70,255.0,255.0,255.0
368,18.400000000000002,4.4797997962761675,-2.8964524163608996,-5.3583331380918,-0.0020001559415660296,-0.1412921843835264,-0.5425430515991342,3.272998422758357e-05,-0.0036762257477302995,-0.022335952836925455,0,70,255.0,255.0,255.0
369,18.45,4.479699836350079,-2.9035216188712614,-5.385488320235815,-0.0019981019318535327,-0.14147587621098423,-0.5436664266217478,4.943040427229696e-05,-0.0036714473505830014,-0.022599048067621294,0,70,255.0,255.0,255.0
370,18.5,4.4796,-2.9106,-5.4127,-0.0019952129011388,-0.14165932911858467,-0.5448029564058964,6.61308243170046e-05,-0.003666668953435037,-0.022862143298319815,0,70,255.0,255.0,255.0
371,18.55,4.479500295911569,-2.917688114466646,-5.439968604050782,-0.001993472774150916,-0.14187654303772476,-0.54593877665263,3.474255198361386e-06,-0.005021887812169076,-0.022570666571021466,0,70,255.0,255.0,255.0
372,18.6,4.479400600508778,-2.9247887836528217,-5.467293634767991,-0.0019948654756189637,-0.14216151789980158,-0.5470600230629985,-5.918231392028182e-05,-0.006377106670903115,-0.022279189843723117,0,70,255.0,255.0,255.0
373,18.650000000000002,4.4793007571502,-2.9319053956056753,-5.49467436345981,-0.0019993910055429442,-0.14251425370481507,-0.5481666956370023,-0.00012183888303892503,-0.007732325529637154,-0.021987713116424765,0,70,255.0,255.0,255.0
374,18.7,4.4792006091944145,-2.939041338372352,-5.522110061434418,-0.0020070493639228557,-0.1429347504527653,-0.549258794374641,-0.0001844954521575638,-0.009087544388371097,-0.021696236389126437,0,70,255.0,255.0,255.0
375,18.75,4.4791,-2.9462,-5.5496,-0.0020178405507587003,-0.14342300814365216,-0.5503363192759149,-0.00024715202127620003,-0.010442763247104914,-0.021404759661829864,0,70,255.0,255.0,255.0
376,18.8,4.478998896501542,-2.953383547154143,-5.577143948084907,-0.00202435000541219,-0.14390574388006247,-0.5514291275509692,-1.3226164863394826e-05,-0.008866666209307695,-0.022307571340342325,0,70,255.0,255.0,255.0
377,18.85,4.478897759937672,-2.9605892609738085,-5.604743665098162,-0.00201916316724504,-0.14430967476458295,-0.5525670764099492,0.00022069969154941038,-0.0072905691715104744,-0.02321038301885479,0,70,255.0,255.0,255.0
378,18.900000000000002,4.478797175123032,-2.967813201216403,-5.632401408068967,-0.002002280036257249,-0.14463480079721355,-0.5537501658528547,0.0004546255479622156,-0.005714472133713255,-0.024113194697367252,0,70,255.0,255.0,255.0
379,18.95,4.4786977268722605,-2.9750514276393316,-5.660119434026513,-0.00197370061244882,-0.14488112197795427,-0.5549783958796858,0.0006885514043750042,-0.004138375095916147,-0.02501600637587965,0,70,255.0,255.0,255.0
380,19.0,4.4786,-2.9823,-5.6879,-0.001933424895819749,-0.14504863830680514,-0.5562517664904426,0.0009224772607878094,-0.0025622780581189275,-0.025918818054390336,0,70,255.0,255.0,255.0
381,19.05,4.4785041180822605,-2.9895560969167847,-5.7157444036095955,-0.0019091272041936729,-0.1452044814420227,-0.5575127131434933,4.943040425522765e-05,-0.003671447350582662,-0.02451904806763439,0,70,255.0,255.0,255.0
382,19.1,4.478408359740534,-2.996821372451946,-5.743650104839361,-0.0019284818553942263,-0.1454157830418634,-0.5587036712972061,-0.0008236164522773541,-0.004780616643046396,-0.02311927808087844,0,70,255.0,255.0,255.0
383,19.150000000000002,4.478310542357675,-3.004098599528715,-5.771613604264328,-0.0019914888494214095,-0.14568254310632733,-0.5598246409515811,-0.0016966633088099361,-0.005889785935510131,-0.021719508094122493,0,70,255.0,255.0,255.0
384,19.200000000000003,4.4782084833165445,-3.0113905510703227,-5.799631402459531,-0.0020981481862752224,-0.14600476163541445,-0.5608756221066183,-0.0025697101653425177,-0.006998955227973865,-0.020319738107366547,0,70,255.0,255.0,255.0
385,19.25,4.4781,-3.0187,-5.8277,-0.0022484598659556526,-0.1463824386291247,-0.5618566147623176,-0.0034427570218750446,-0.00810812452043752,-0.01891996812060981,0,70,255.0,255.0,255.0
386,19.3,4.4779838311694125,-3.0260288651787186,-5.855816837476713,-0.002387141177806784,-0.14676433035184505,-0.5628240198750607,-0.002104495452170124,-0.007167544388375355,-0.01977623638911511,0,70,255.0,255.0,255.0
387,19.35,4.477862401100195,-3.033375649218408,-5.883983115544397,-0.002458909411172668,-0.14709919306796224,-0.5638342384012291,-0.0007662338824652032,-0.00622696425631319,-0.020632504657620412,0,70,255.0,255.0,255.0
388,19.400000000000002,4.4777390554462695,-3.040738000668738,-5.912200974873726,-0.002463764566053305,-0.14738702677747637,-0.5648872703408228,0.0005720276872397175,-0.005286384124251024,-0.021488772926125714,0,70,255.0,255.0,255.0
389,19.450000000000003,4.477617139861564,-3.048113568079379,-5.94047255613537,-0.0024017066424486954,-0.14762783148038736,-0.5659831156938417,0.0019102892569446382,-0.004345803992188859,-0.022345041194631016,0,70,255.0,255.0,255.0
390,19.5,4.4775,-3.0555,-5.9688,-0.0022727356403588503,-0.14782160717669524,-0.5671217744602859,0.0032485508266494635,-0.0034052238601267604,-0.023201309463136255,0,70,255.0,255.0,255.0
391,19.55,4.477390157240089,-3.0628956423683413,-5.9971850464835565,-0.002126308084582922,-0.1480101971505963,-0.5682792073562614,0.0026085514043875783,-0.004138375095916135,-0.023096006375883604,0,70,255.0,255.0,255.0
392,19.6,4.477286835858689,-3.070301630674423,-6.025627832983054,-0.0020118804999200886,-0.14823544468628685,-0.5694313750978743,0.001968551982125693,-0.00487152633170551,-0.02299070328863095,0,70,255.0,255.0,255.0
393,19.650000000000002,4.477188435857245,-3.0777197977963335,-6.054128096240773,-0.00192945288637035,-0.14849734978376686,-0.5705782776851246,0.0013285525598638074,-0.005604677567494885,-0.0228854002013783,0,70,255.0,255.0,255.0
394,19.700000000000003,4.477093357237201,-3.085151976612163,-6.082685572998995,-0.001879025243933706,-0.14879591244303633,-0.5717199151180121,0.0006885531376019222,-0.00633782880328426,-0.022780097114125646,0,70,255.0,255.0,255.0
395,19.75,4.477,-3.0926,-6.1113,-0.001860597572610157,-0.14913113266409528,-0.5728562873965369,4.85537153400821e-05,-0.007070980039073582,-0.022674794026866785,0,70,255.0,255.0,255.0
396,19.8,4.47690673987023,-3.1000653653479158,-6.139970976589061,-0.0018756264838603292,-0.14948288104577148,-0.573979150699893,-0.0006497101653469557,-0.006998955227973801,-0.022239738107376356,0,70,255.0,255.0,255.0
397,19.85,4.476811855465048,-3.1075482280839015,-6.1686975525233905,-0.0019255685891448537,-0.14983102818689267,-0.5750802612072746,-0.0013479740460339935,-0.00692693041687402,-0.021804682187885924,0,70,255.0,255.0,255.0
398,19.900000000000002,4.476713601124748,-3.1150484081459298,-6.197478640163189,-0.0020104238884637304,-0.15017557408745888,-0.5761596189186816,-0.0020462379267210313,-0.006854905605774239,-0.021369626268395496,0,70,255.0,255.0,255.0
399,19.950000000000003,4.476610231189634,-3.1225657254719716,-6.22631315186866,-0.0021301923818169595,-0.1505165187474701,-0.5772172238341142,-0.002744501807408069,-0.006782880794674458,-0.020934570348905064,0,70,255.0,255.0,255.0
400,20.0,4.4765,-3.1301,-6.2552,-0.0022848740692045294,-0.15085386216692634,-0.5782530759535721,-0.0034427656880950605,-0.00671085598357446,-0.02049951442941289,0,70,255.0,255.0,255.0
401,20.05,4.47638208327899,-3.1376508962399963,-6.284138247160202,-0.0024191859799830694,-0.1511782786663203,-0.579276189844173,-0.0019297107430464664,-0.006265803992184209,-0.02042504119461892,0,70,255.0,255.0,255.0
402,20.1,4.476259342281122,-3.1452174569899727,-6.31312755692339,-0.0024778451435091787,-0.15148044256614476,-0.5802955800730341,-0.00041665579799787236,-0.005820752000793959,-0.02035056795982495,0,70,255.0,255.0,255.0
403,20.150000000000002,4.47613555964376,-3.1527985696199514,-6.342167743106478,-0.0024608515597828572,-0.15176035386639972,-0.5813112466401554,0.001096399147050722,-0.0053757000094037085,-0.020276094725030978,0,70,255.0,255.0,255.0
404,20.200000000000003,4.4760145180042645,-3.1603931214999537,-6.371258619526377,-0.002368205228804105,-0.15201801256708514,-0.5823231895455372,0.002609454092099316,-0.004930648018013458,-0.020201621490237007,0,70,255.0,255.0,255.0
405,20.25,4.4759,-3.168,-6.4004,-0.002199906150572937,-0.15225341866820102,-0.583331408789179,0.0041225090371478056,-0.0044855960266221295,-0.0201271482554386,0,70,255.0,255.0,255.0
406,20.3,4.475794527013809,-3.1756182496921004,-6.4295920347701365,-0.002031629596204303,-0.15247600428894859,-0.5843560899234178,0.0026085531375974664,-0.004417828803279899,-0.020860097114109178,0,70,255.0,255.0,255.0
407,20.35,4.475695575410463,-3.183247543956209,-6.458836219783058,-0.0019390508368131868,-0.152695201548529,-0.5854174185005899,0.0010945972380471273,-0.004350061579937668,-0.021593045972779754,0,70,255.0,255.0,255.0
408,20.400000000000002,4.475599360300212,-3.1908877133742672,-6.488134387410912,-0.0019221698723995886,-0.15291101044694233,-0.5865153945206958,-0.00041935866150321233,-0.004282294356595437,-0.022325994831450334,0,70,255.0,255.0,255.0
409,20.450000000000003,4.475502096793307,-3.198538588528217,-6.517488370025845,-0.0019809867029635083,-0.15312343098418857,-0.587650017983735,-0.001933314561053551,-0.004214527133253206,-0.02305894369012091,0,70,255.0,255.0,255.0
410,20.5,4.4754,-3.2062,-6.5469,-0.0021155013285049347,-0.15333246316026763,-0.5888212888897076,-0.0034472704606037866,-0.0041467599099094254,-0.023791892548792326,0,70,255.0,255.0,255.0
411,20.55,4.475290208665771,-3.2138721049916033,-6.576370413759254,-0.002270295635205232,-0.15355770417788234,-0.5899874504621504,-0.0027445018074080227,-0.004862880794678725,-0.02285457034891872,0,70,255.0,255.0,255.0
412,20.6,4.475173556077023,-3.2215563671851926,-6.605897963944383,-0.0023899515092457406,-0.1538187512397355,-0.5911067459245996,-0.002041733154212259,-0.005579001679448024,-0.021917248149045117,0,70,255.0,255.0,255.0
413,20.650000000000002,4.47505179915539,-3.2292545768829806,-6.635480307249883,-0.002474468950626461,-0.15411560434582716,-0.5921791752770549,-0.001338964501016495,-0.006295122564217323,-0.020979925949171512,0,70,255.0,255.0,255.0
414,20.700000000000003,4.474926694822505,-3.2369685243871795,-6.665115100370255,-0.0025238479593473924,-0.15444826349615726,-0.5932047385195167,-0.0006361958478207311,-0.0070112434489866225,-0.020042603749297908,0,70,255.0,255.0,255.0
415,20.75,4.4748,-3.2447,-6.6948,-0.0025380885354085348,-0.15481672869072577,-0.5941834356519848,6.657280537499324e-05,-0.007727364333753872,-0.019105281549425257,0,70,255.0,255.0,255.0
416,20.8,4.474673438323105,-3.2524501303414888,-6.7245335101928445,-0.0025191878629715666,-0.15518117899952003,-0.5951661082279768,0.0006894540921037152,-0.006850648018016591,-0.020201621490251412,0,70,255.0,255.0,255.0
417,20.85,4.474548600281443,-3.2602173873030225,-6.754317524439416,-0.0024691431261981626,-0.15550179349252743,-0.59620359780101,0.0013123353788324372,-0.0059739317022793085,-0.02129796143107757,0,70,255.0,255.0,255.0
418,20.900000000000002,4.474427043078225,-3.2679995790938117,-6.784154783589564,-0.002387954325088321,-0.155778572169748,-0.5972959043710845,0.0019352166655611592,-0.005097215386542027,-0.02239430137190373,0,70,255.0,255.0,255.0
419,20.950000000000003,4.474310323916671,-3.2757945139230675,-6.814048028493143,-0.0022756214596420434,-0.15601151503118166,-0.5984430279382004,0.002558097952289881,-0.004220499070804745,-0.023490641312729883,0,70,255.0,255.0,255.0
420,21.0,4.4742,-3.2836,-6.844,-0.0021321445298593407,-0.15620062207682844,-0.5996449685023576,0.003180979239018559,-0.003343782755067526,-0.024586981253553297,0,70,255.0,255.0,255.0
421,21.05,4.474096838041805,-3.2914145736424425,-6.874012345469367,-0.002004952912910436,-0.15638957982403645,-0.600836116625949,0.0019066854389375616,-0.004214527133252867,-0.023058943690101842,0,70,255.0,255.0,255.0
422,21.1,4.473998442797209,-3.299239683602719,-6.90408233829796,-0.0019414759859655818,-0.15662207479015372,-0.6019508628713678,0.0006323916388565644,-0.0050852715114382075,-0.021530906126650387,0,70,255.0,255.0,255.0
423,21.150000000000002,4.473901628531708,-3.3070775067417735,-6.934206158391869,-0.0019417137490247787,-0.15689810697518028,-0.602989207238614,-0.0006419021612244329,-0.005956015889623549,-0.02000286856319893,0,70,255.0,255.0,255.0
424,21.200000000000003,4.473803209510806,-3.314930219920552,-6.964379985657185,-0.002005666202088026,-0.1572176763791161,-0.6039511497276877,-0.00191619596130543,-0.006826760267808889,-0.018474830999747473,0,70,255.0,255.0,255.0
425,21.25,4.4737,-3.3228,-6.9946,-0.002133333345155313,-0.15758078300196116,-0.6048366903385888,-0.003190489761386351,-0.007697504645993725,-0.016946793436296126,0,70,255.0,255.0,255.0
426,21.3,4.473589609509672,-3.3306883750887404,-7.024863507929688,-0.0022770004853853807,-0.15794850170433564,-0.6057134252682284,-0.0025561958478162866,-0.007011243448985462,-0.01812260374928682,0,70,255.0,255.0,255.0
427,21.35,4.473472828529723,-3.3385942782861027,-7.055172322368752,-0.0023889529299369453,-0.1582819073468597,-0.6066489507135175,-0.0019219019342462222,-0.0063249822519771985,-0.019298414062277513,0,70,255.0,255.0,255.0
428,21.400000000000002,4.473351242794939,-3.346515993939096,-7.085529382842969,-0.002469190678810006,-0.15858099992953337,-0.6076432666744562,-0.0012876080206761578,-0.005638721054968935,-0.020474224375268208,0,70,255.0,255.0,255.0
429,21.450000000000003,4.473226438040102,-3.3544518063947257,-7.115937628878125,-0.0025177137320045633,-0.15884577945235662,-0.6086963731510444,-0.0006533141071060934,-0.004952459857960672,-0.0216500346882589,0,70,255.0,255.0,255.0
430,21.5,4.4731,-3.3624,-7.1464,-0.0025345220895206166,-0.15907624591532943,-0.609808270143282,-1.902019353607759e-05,-0.004266198660952014,-0.022825845001247735,0,70,255.0,255.0,255.0
431,21.55,4.472973523919509,-3.370359126002597,-7.176918422811879,-0.0025190451455516603,-0.15928841335862315,-0.6109181823011319,0.0006380979522943332,-0.004220499070796179,-0.021570641312750088,0,70,255.0,255.0,255.0
432,21.6,4.472848643083899,-3.3783288032528707,-7.2074907722270405,-0.0024707122942911825,-0.15949829582240907,-0.611965334274557,0.001295216098124744,-0.004174799480640344,-0.02031543762425244,0,70,255.0,255.0,255.0
433,21.650000000000002,4.472727000288535,-3.386308917501846,-7.238113910236263,-0.0023895235357391837,-0.1597058933066872,-0.6129497260635572,0.0019523342439551551,-0.004129099890484509,-0.019060233935754792,0,70,255.0,255.0,255.0
434,21.700000000000003,4.47261023832878,-3.394299354500548,-7.2687846988303235,-0.002275478869895664,-0.1599112058114575,-0.6138713576681325,0.0026094523897855658,-0.004083400300328674,-0.017805030247257145,0,70,255.0,255.0,255.0
435,21.75,4.4725,-3.4023,-7.2995,-0.0021285782967606346,-0.16011423333672,-0.6147302290882829,0.0032665705356159334,-0.004037700710172176,-0.016549826558759584,0,70,255.0,255.0,255.0
436,21.8,4.47239709481229,-3.4103111209008725,-7.3302580008227975,-0.0019988189324026662,-0.16033784486116964,-0.6156058455272456,0.001923804038702721,-0.0049067602678131055,-0.018474830999747942,0,70,255.0,255.0,255.0
437,21.85,4.472298999134679,-3.418334508702415,-7.361062188723093,-0.0019361978928903597,-0.16060490936350133,-0.6165777121882576,0.0005810375417895086,-0.005775819825454034,-0.020399835440736303,0,70,255.0,255.0,255.0
438,21.900000000000002,4.472202356050921,-3.4263723360535208,-7.391917376211992,-0.0019407151782237146,-0.16091542684371504,-0.6176458290713193,-0.0007617289551237038,-0.006644879383094963,-0.02232483988172466,0,70,255.0,255.0,255.0
439,21.950000000000003,4.472103808644776,-3.434426775603085,-7.422828375800592,-0.0020123707884027314,-0.1612693973018108,-0.6188101961764302,-0.002104495452036916,-0.0075139389407358915,-0.02424984432271302,0,70,255.0,255.0,255.0
440,22.0,4.472,-3.4425,-7.4538,-0.002151164723427397,-0.16166682073778862,-0.6200708135035905,-0.003447261948950033,-0.00838299849837676,-0.026174848763699465,0,70,255.0,255.0,255.0
441,22.05,4.471888496831326,-3.450593190393912,-7.484835173896937,-0.002301679124829544,-0.16204820719669716,-0.621314435589889,-0.0025733141071357527,-0.006872459857964698,-0.023570034688235847,0,70,255.0,255.0,255.0
442,22.1,4.471770560377386,-3.4587035619374693,-7.5159292728805935,-0.002408496134140976,-0.1623540667235851,-0.6224278169724141,-0.001699366265321472,-0.005361921217552636,-0.020965220612772232,0,70,255.0,255.0,255.0
443,22.150000000000002,4.4716483755077805,-3.466827338284071,-7.5470757849157835,-0.0024716157513616933,-0.16258439931845245,-0.6234109576511662,-0.0008254184235071912,-0.0038513825771405745,-0.018360406537308617,0,70,255.0,255.0,255.0
444,22.200000000000003,4.471524127092118,-3.4749607430871143,-7.578268197967315,-0.0024910379764916963,-0.16273920498129918,-0.624263857626145,4.8529418307089334e-05,-0.002340843936728512,-0.015755592461845,0,70,255.0,255.0,255.0
445,22.25,4.4714,-3.4831,-7.6095,-0.0024667628095309873,-0.1628184837121253,-0.6249865168973506,0.0009224772601213113,-0.000830305296316558,-0.013150778386378015,0,70,255.0,255.0,255.0
446,22.3,4.471277717862403,-3.491242517523478,-7.640766903589459,-0.002426464568283204,-0.16289332635204132,-0.625712412113192,0.0006894523897900027,-0.002163400300324244,-0.015885030247277714,0,70,255.0,255.0,255.0
447,22.35,4.47115715935578,-3.4993904435477075,-7.672073519754537,-0.002397817570551986,-0.16303482374215772,-0.6265750199220784,0.00045642751945869397,-0.0034964953043319304,-0.018619282108177416,0,70,255.0,255.0,255.0
448,22.400000000000002,4.471037741917955,-3.507547110810198,-7.703426684124885,-0.0023808218163373336,-0.1632429758824745,-0.6275743403240097,0.00022340264912738524,-0.004829590308339617,-0.021353533969077115,0,70,255.0,255.0,255.0
449,22.450000000000003,4.470918882986754,-3.5157158520484586,-7.734833232330157,-0.002375477305639247,-0.16351778277299167,-0.6287103733189862,-9.62222120392338e-06,-0.006162685312347303,-0.024087785829976817,0,70,255.0,255.0,255.0
450,22.5,4.4708,-3.5239,-7.7663,-0.002381784038457726,-0.16385924441370922,-0.6299831189070073,-0.00024264709153522593,-0.00749578031635445,-0.02682203769087188,0,70,255.0,255.0,255.0
451,22.55,4.470680631719063,-3.5321023395121744,-7.797831611745228,-0.0023924626020462867,-0.16423448739513669,-0.6312599159573469,-0.00018449545200721048,-0.007513938940744191,-0.02424984432271163,0,70,255.0,255.0,255.0
452,22.6,4.470560802199494,-3.5403234638717005,-7.829423848101262,-0.002400233583658447,-0.16461063830778364,-0.6324081033392785,-0.00012634381247919504,-0.007532097565133933,-0.02167765095455138,0,70,255.0,255.0,255.0
453,22.650000000000002,4.470440656820395,-3.54856341847514,-7.861070278584683,-0.0024050969832942067,-0.1649876971516501,-0.6334276810528021,-6.819217295117962e-05,-0.0075502561895236745,-0.01910545758639113,0,70,255.0,255.0,255.0
454,22.700000000000003,4.470320340960865,-3.556822248719053,-7.89276447271207,-0.0024070528009535654,-0.16536566392673605,-0.6343186490979177,-1.004053342316418e-05,-0.007568414813913417,-0.016533264218230877,0,70,255.0,255.0,255.0
455,22.75,4.4702,-3.5651,-7.9245,-0.0024061010366365236,-0.1657445386330414,-0.635081007474625,4.811110610482977e-05,-0.007586573438302491,-0.01396107085006637,0,70,255.0,255.0,255.0
456,22.8,4.470079755261348,-3.5733961244278247,-7.956272249429633,-0.0024036850235266533,-0.16608872406741693,-0.6358239240574224,4.8529418289987305e-05,-0.006180843936719584,-0.015755592461826343,0,70,255.0,255.0,255.0
457,22.85,4.469959631846241,-3.5817077009654907,-7.98808388784042,-0.002401248094807525,-0.16636262302671337,-0.6366565667208077,4.894773047514485e-05,-0.004775114435136678,-0.017550114073586316,0,70,255.0,255.0,255.0
458,22.900000000000002,4.469839630800461,-3.5900312152892444,-8.019939401536393,-0.0023987902504791388,-0.1665662355109306,-0.6375789354647811,4.936604266030238e-05,-0.003369384933553772,-0.01934463568534629,0,70,255.0,255.0,255.0
459,22.950000000000003,4.4697197531697865,-3.598363153075333,-8.051843276821575,-0.0023963114905414945,-0.16669956152006876,-0.6385910302893424,4.9784354845459924e-05,-0.0019636554319708652,-0.021139157297106262,0,70,255.0,255.0,255.0
460,23.0,4.4696,-3.6067,-8.0838,-0.002393811814994593,-0.1667626010541277,-0.6396928511944916,5.0202667030600084e-05,-0.0005579259303885031,-0.022933678908866106,0,70,255.0,255.0,255.0
461,23.05,4.469480347235548,-3.615039562776529,-8.115812990536247,-0.002392797303848926,-0.1668346163351959,-0.6408203878129632,-9.622221203918637e-06,-0.0023226853123392817,-0.022167785829996754,0,70,255.0,255.0,255.0
462,23.1,4.469360670415542,-3.623384932266338,-8.147881400537065,-0.0023947740371149853,-0.16699486958536164,-0.6419096297774913,-6.944710943843736e-05,-0.00408744469429006,-0.021401892751127406,0,70,255.0,255.0,255.0
463,23.150000000000002,4.469240819977762,-3.6317405203678836,-8.180003315269763,-0.0023997420147927697,-0.16724336080462493,-0.642960577088076,-0.00012927199767295608,-0.005852204076240839,-0.020635999672258053,0,70,255.0,255.0,255.0
464,23.200000000000003,4.469120646359989,-3.6401107389796192,-8.212176820001641,-0.0024077012368822807,-0.16758008999298574,-0.6439732297447172,-0.0001890968859074748,-0.0076169634581916175,-0.019870106593388705,0,70,255.0,255.0,255.0
465,23.25,4.469,-3.6485,-8.2444,-0.0024186517033835168,-0.1680050571504441,-0.6449475877474148,-0.0002489217741419962,-0.009381722840142936,-0.019104213514519408,0,70,255.0,255.0,255.0
466,23.3,4.468878855796464,-3.6569112244660613,-8.27667098842539,-0.002425125761072646,-0.16842881059179593,-0.645886524690733,-1.0040533423172419e-05,-0.007568414813930087,-0.01845326421820718,0,70,255.0,255.0,255.0
467,23.35,4.468757686491593,-3.6653413699691573,-8.30898811001133,-0.002419655756725834,-0.1687618986318371,-0.6467929141692355,0.00022884070729565137,-0.005755106787717238,-0.01780231492189495,0,70,255.0,255.0,255.0
468,23.400000000000002,4.4686370892884915,-3.6737859032392235,-8.34134973738457,-0.0024022416903430807,-0.16900432127056766,-0.6476667561829225,0.0004677219480144751,-0.00394179876150439,-0.01715136562558272,0,70,255.0,255.0,255.0
469,23.450000000000003,4.46851766139026,-3.682240291006193,-8.373754243171874,-0.0023728835619243856,-0.16915607850798756,-0.6485080507317939,0.0007066031887332989,-0.0021284907352915406,-0.01650041632927049,0,70,255.0,255.0,255.0
470,23.5,4.4684,-3.6907,-8.4062,-0.002331581371469753,-0.16921717034409678,-0.6493167978158495,0.0009454844294521057,-0.0003151827090785986,-0.015849467032956532,0,70,255.0,255.0,255.0
471,23.55,4.4682842295785985,-3.6991619393592257,-8.438686255762194,-0.0023066996518623143,-0.1692741412976228,-0.6501455134241013,4.978435484543958e-05,-0.001963655431962531,-0.01729915729711442,0,70,255.0,255.0,255.0
472,23.6,4.468168583618085,-3.7076287878570318,-8.471215759417632,-0.0023266029359852087,-0.16941353588729302,-0.651046713545561,-0.0008459157197612266,-0.003612128154846464,-0.018748847561272305,0,70,255.0,255.0,255.0
473,23.650000000000002,4.468050822868271,-3.7161046666752244,-8.503792135191972,-0.002391291223838438,-0.16963535411310746,-0.6520203981802286,-0.0017416157943678928,-0.005260600877730396,-0.020198537825430192,0,70,255.0,255.0,255.0
474,23.700000000000003,4.467928708078972,-3.7245936969956115,-8.536419007310876,-0.002500764515422001,-0.16993959597506608,-0.653066567328104,-0.002637315868974559,-0.006909073600614329,-0.02164822808958808,0,70,255.0,255.0,255.0
475,23.75,4.4678,-3.7331,-8.5691,-0.002655022810735885,-0.1703262614731689,-0.6541852209891873,-0.0035330159435811685,-0.00855754632349881,-0.02309791835374231,0,70,255.0,255.0,255.0
476,23.8,4.467663425889142,-3.741626618097036,-8.601837588525836,-0.002796075631472991,-0.17073062421771118,-0.6553074216128655,-0.002109096885902982,-0.007616963458192081,-0.02179010659338319,0,70,255.0,255.0,255.0
477,23.85,4.467521579036068,-3.7501722786027165,-8.634629652318155,-0.0028659324993261866,-0.1710879578189881,-0.6563642316485256,-0.0006851778282247955,-0.006676380592885351,-0.020482294833024068,0,70,255.0,255.0,255.0
478,23.900000000000002,4.467378019238423,-3.7587346300598803,-8.667472921847555,-0.002864593414295471,-0.17139826227699972,-0.6573556510961679,0.0007387412294533914,-0.005735797727578621,-0.01917448307266495,0,70,255.0,255.0,255.0
479,23.950000000000003,4.467236306293852,-3.7673113210113622,-8.700364127584638,-0.002792058376380846,-0.171661537591746,-0.6582816799557922,0.0021626602871315775,-0.004795214862271893,-0.017866671312305828,0,70,255.0,255.0,255.0
480,24.0,4.4671,-3.7759,-8.7333,-0.0026483273855823237,-0.1718777837632269,-0.6591423182273985,0.0035865793448096595,-0.0038546319969647858,-0.016558859551945915,0,70,255.0,255.0,255.0
481,24.05,4.466971666864837,-3.784498788252632,-8.766277790134469,-0.0024929978222442864,-0.17207536183153338,-0.659968800124429,0.002626603188711746,-0.004048490735295165,-0.01650041632926964,0,70,255.0,255.0,255.0
482,24.1,4.466849900237645,-3.7931076977321023,-8.799296831309757,-0.0023856670667111455,-0.17228263283675643,-0.6607923598603256,0.0016666270326138326,-0.004242349473625545,-0.016441973106593365,0,70,255.0,255.0,255.0
483,24.150000000000002,4.466732300178037,-3.8017272130852566,-8.832356977417815,-0.002326335118982901,-0.17249959677889595,-0.6616129974350884,0.0007066508765159194,-0.004436208211955925,-0.01638352988391709,0,70,255.0,255.0,255.0
484,24.200000000000003,4.466616466745617,-3.810357818958941,-8.865458082350584,-0.0023150019790595527,-0.17272625365795202,-0.6624307128487172,-0.00025332527958199427,-0.004630066950286305,-0.016325086661240815,0,70,255.0,255.0,255.0
485,24.25,4.4665,-3.819,-8.8986,-0.002351667646941096,-0.17296260347392456,-0.6632455061012124,-0.0012133014356798394,-0.00482392568861556,-0.016266643438562767,0,70,255.0,255.0,255.0
486,24.3,4.466381106651511,-3.8276542288924373,-8.931783250936299,-0.002399933079556715,-0.1732079284561552,-0.6640973778894163,-0.0007173158689448718,-0.004989073600610364,-0.017808228089595014,0,70,255.0,255.0,255.0
487,24.35,4.4662604200133496,-3.8363209304688755,-8.965011022442818,-0.0024233992338355847,-0.17346151083398562,-0.6650263289101719,-0.0002213303022099043,-0.005154221512605166,-0.01934981274062726,0,70,255.0,255.0,255.0
488,24.400000000000002,4.466139180049433,-3.845000517599096,-8.998287168481191,-0.0024220661097777052,-0.17372335060741573,-0.666032359163479,0.00027465526452506326,-0.005319369424599969,-0.020891397391659502,0,70,255.0,255.0,255.0
489,24.450000000000003,4.466018626723678,-3.8536934031528776,-9.031615543013041,-0.0023959337073830777,-0.17399344777644563,-0.6671154686493378,0.0007706408312600308,-0.005484517336594772,-0.02243298204269175,0,70,255.0,255.0,255.0
490,24.5,4.4659,-3.8624,-9.065,-0.0023450020266517057,-0.1742718023410752,-0.6682756573677482,0.0012666263979949702,-0.0056496652485882315,-0.023974566693723887,0,70,255.0,255.0,255.0
491,24.55,4.4657839065291185,-3.8711202961776205,-9.098442806120346,-0.0023072698595238586,-0.17453292434384668,-0.6694176883178988,0.0002426602871189031,-0.004795214862271445,-0.021706671312297456,0,70,255.0,255.0,255.0
492,24.6,4.4656684197089564,-3.8798525803923964,-9.131939878918974,-0.002320735997939815,-0.17475132382730235,-0.670446324498978,-0.000781305823757164,-0.003940764475954659,-0.019438775930871025,0,70,255.0,255.0,255.0
493,24.650000000000002,4.465550979624232,-3.8885947165183623,-9.165485548657426,-0.0023854004418995757,-0.17492700079144216,-0.671361565910986,-0.0018052719346332313,-0.003086314089637873,-0.017170880549444593,0,70,255.0,255.0,255.0
494,24.700000000000003,4.465429026359673,-3.8973445684295522,-9.199074145597255,-0.002501263191403141,-0.17505995523626616,-0.6721634125539224,-0.002829238045509298,-0.002231863703321087,-0.01490298516801816,0,70,255.0,255.0,255.0
495,24.75,4.4653,-3.9061,-9.2327,-0.002668324246450496,-0.17515018716177427,-0.6728518644277878,-0.0038532041563852926,-0.0013774133170039171,-0.012635089786591003,0,70,255.0,255.0,255.0
496,24.8,4.465162467232014,-3.914859786397082,-9.266359124582323,-0.0028189874823499926,-0.17525237416845665,-0.6735278688389844,-0.0021733252795944954,-0.0027100669502902984,-0.014405086661277825,0,70,255.0,255.0,255.0
497,24.85,4.465019501150829,-3.9236263479615405,-9.300054261881295,-0.0028856567744099484,-0.1754211938568033,-0.6742923730939155,-0.0004934464028036982,-0.00404272058357668,-0.016175083535964647,0,70,255.0,255.0,255.0
498,24.900000000000002,4.464875301453636,-3.932403016327457,-9.333789836889109,-0.0028683321226303632,-0.17565664622681432,-0.6751453771925809,0.001186432473987099,-0.005375374216863062,-0.017945080410651466,0,70,255.0,255.0,255.0
499,24.950000000000003,4.464734067837631,-3.941193123128916,-9.367570274597949,-0.0027670135270112368,-0.17595873127848963,-0.6760868811349807,0.002866311350777896,-0.006708027850149443,-0.019715077285338292,0,70,255.0,255.0,255.0
500,25.0,4.4646,-3.95,-9.4014,-0.002581700987552586,-0.17632744901182926,-0.6771168849211147,0.004546190227568574,-0.008040681483435952,-0.021485074160020545,0,70,255.0,255.0,255.0
501,25.05,4.464475824542824,-3.958826158234052,-9.435282295550376,-0.0024007802110811286,-0.1767135789823299,-0.6781668363261817,0.0026906408312896103,-0.007404517336589791,-0.02051298204266095,0,70,255.0,255.0,255.0
502,25.1,4.464358375687729,-3.9676708277614448,-9.469215873555855,-0.002312636904423621,-0.17706790074548825,-0.6791681831253807,0.0008350914350106473,-0.00676835318974363,-0.01954088992530136,0,70,255.0,255.0,255.0
503,25.150000000000002,4.464243014561219,-3.9765324181718116,-9.50319830378615,-0.0023172710675800627,-0.17739041430130428,-0.6801209253187118,-0.0010204579612683156,-0.006132189042897468,-0.018568797807941764,0,70,255.0,255.0,255.0
504,25.200000000000003,4.464125102289807,-3.9854093390547862,-9.537227156010964,-0.002414682700550454,-0.177681119649778,-0.681025062906175,-0.002876007357547279,-0.005496024896051307,-0.017596705690582172,0,70,255.0,255.0,255.0
505,25.25,4.464,-3.9943,-9.5713,-0.002604871803334778,-0.1779400167909094,-0.68188059588777,-0.004731556753826104,-0.004859860749204303,-0.016624613573219982,0,70,255.0,255.0,255.0
506,25.3,4.463864634596686,-4.0032027806667125,-9.605414893216187,-0.00279389167331859,-0.17816530990222243,-0.6827167858562999,-0.0028292380455262633,-0.004151863703316073,-0.016822985167980246,0,70,255.0,255.0,255.0
507,25.35,4.463722196098259,-4.012115940992684,-9.639571843895293,-0.0028877956078874087,-0.178355203161241,-0.6835628944045681,-0.000926919337226423,-0.003443866657427843,-0.017021356762740508,0,70,255.0,255.0,255.0
508,25.400000000000002,4.463577440301488,-4.021037710985299,-9.673771347966307,-0.002886583607041233,-0.1785096965679652,-0.684418921532574,0.0009753993710734177,-0.002735869611539613,-0.017219728357500772,0,70,255.0,255.0,255.0
509,25.450000000000003,4.463435123003145,-4.029966320651943,-9.708013901358214,-0.0027902556707800653,-0.178628790122395,-0.6852848672403181,0.0028777180793732576,-0.0020278725656513825,-0.017418099952261033,0,70,255.0,255.0,255.0
510,25.5,4.4633,-4.0389,-9.7423,-0.0025988117991039205,-0.17871248382453034,-0.6861607315278002,0.00478003678767297,-0.0013198755197627587,-0.017616471547022172,0,70,255.0,255.0,255.0
511,25.55,4.4631752370704305,-4.047837919099098,-9.776630131584882,-0.0024076530956430755,-0.17881718140877859,-0.6870460202486102,0.0028663113507607215,-0.0028680278501670873,-0.01779507728537482,0,70,255.0,255.0,255.0
512,25.6,4.463057639919239,-4.0567830082678205,-9.811004750862976,-0.002312180664027844,-0.17899928660954703,-0.6879402392563377,0.0009525859138484732,-0.004416180180571416,-0.017973683023727465,0,70,255.0,255.0,255.0
513,25.650000000000002,4.462942424232831,-4.065739137886994,-9.845424304348631,-0.002312394504258227,-0.17925879942683573,-0.6888433885509829,-0.0009611395230637752,-0.0059643325109757445,-0.018152288762080113,0,70,255.0,255.0,255.0
514,25.700000000000003,4.462824805697615,-4.074710178337446,-9.879889238556192,-0.0024082946163342233,-0.17959571986064465,-0.6897554681325457,-0.0028748649599760236,-0.007512484841380073,-0.018330894500432758,0,70,255.0,255.0,255.0
515,25.75,4.4627,-4.0837,-9.9144,-0.0025998810002558163,-0.18001004791097375,-0.6906764780010262,-0.004788590396888129,-0.009060637171784514,-0.01850950023878717,0,70,255.0,255.0,255.0
516,25.8,4.462564817121591,-4.092711142936899,-9.94895658044429,-0.0027914959441162745,-0.1804219644626691,-0.6915791331492604,-0.0028760073575300896,-0.007416024896029482,-0.01759670569058115,0,70,255.0,255.0,255.0
517,25.85,4.462422444224788,-4.101740825936037,-9.983557152652804,-0.0028874817360088293,-0.1807516504005767,-0.6924361485700843,-0.00096342431817205,-0.00577141262027445,-0.016683911142375125,0,70,255.0,255.0,255.0
518,25.900000000000002,4.46227766276719,-4.110784937466727,-10.018199434639175,-0.0028878383759334807,-0.18099910572469655,-0.6932475242634979,0.0009491587211859897,-0.004126800344519418,-0.015771116594169104,0,70,255.0,255.0,255.0
519,25.950000000000003,4.462135254206394,-4.119839365998278,-10.052881144417032,-0.002792565863890229,-0.18116433043502866,-0.6940132602295013,0.002861741760544029,-0.0024821880687643854,-0.014858322045963082,0,70,255.0,255.0,255.0
520,26.0,4.462,-4.1289,-10.0876,-0.0026016641998790908,-0.181247324531573,-0.6947333564680942,0.004774324799901933,-0.0008375757930099148,-0.013945527497758903,0,70,255.0,255.0,255.0
521,26.05,4.461875094443205,-4.137963909153308,-10.122354746637967,-0.002410363127896785,-0.18131896074053955,-0.695469447154344,0.002877718079390177,-0.0020278725656513955,-0.015498099952232659,0,70,255.0,255.0,255.0
522,26.1,4.4617573831816095,-4.147032887988032,-10.157148238525814,-0.0023138923919400686,-0.18145011178813814,-0.6962831664633176,0.0009811113588784216,-0.0032181693382928762,-0.017050672406706414,0,70,255.0,255.0,255.0
523,26.150000000000002,4.461642124698411,-4.156109912246099,-10.191984357094679,-0.0023122519920089415,-0.18164077767436881,-0.6971745143950147,-0.0009154953616333341,-0.004408466110934357,-0.018603244861180167,0,70,255.0,255.0,255.0
524,26.200000000000003,4.461524577476808,-4.165197957669445,-10.226866983775695,-0.002405441928103404,-0.18189095839923156,-0.6981434909494355,-0.0028121020821450897,-0.005598762883575838,-0.020155817315653923,0,70,255.0,255.0,255.0
525,26.25,4.4614,-4.1743,-10.2618,-0.0025934622002234376,-0.1822006539627264,-0.69919009612658,-0.0047087088026567005,-0.0067890596562176775,-0.02170838977013112,0,70,255.0,255.0,255.0
526,26.3,4.461265205105587,-4.183418020449866,-10.296786033003844,-0.0027830515442896814,-0.18251019257516687,-0.7002390782333457,-0.0028748649599929367,-0.005592484841401807,-0.020250894500498242,0,70,255.0,255.0,255.0
527,26.35,4.461123223048774,-4.1925500221118375,-10.331822693243945,-0.002880948696222735,-0.18275990244686657,-0.7012151855766298,-0.001041021117329173,-0.004395910026585936,-0.018793399230865364,0,70,255.0,255.0,255.0
528,26.400000000000002,4.460978638439167,-4.201693013548875,-10.366906336982119,-0.0028871536560226,-0.1829497835778255,-0.7021184181564323,0.0007928227253345905,-0.003199335211770065,-0.017335903961232482,0,70,255.0,255.0,255.0
529,26.450000000000003,4.460836035886374,-4.210844003323941,-10.402033320480196,-0.002801666423689275,-0.18307983596804359,-0.7029487759727532,0.0026266665679983547,-0.0020027603969541936,-0.015878408691599604,0,70,255.0,255.0,255.0
530,26.5,4.4607,-4.22,-10.4372,-0.0026244869992227762,-0.1831500596175209,-0.7037062590255924,0.004460510410661991,-0.0008061855821375197,-0.014420913421969495,0,70,255.0,255.0,255.0
531,26.55,4.460573685134448,-4.229159209047223,-10.472403521346651,-0.002441430694943053,-0.18323226895879344,-0.7044382399122898,0.002861741760526842,-0.0024821880687642367,-0.014858322045929568,0,70,255.0,255.0,255.0
532,26.6,4.460454524623297,-4.238324623564618,-10.507644188498418,-0.002338312823170088,-0.18339827842439732,-0.7051920912301853,0.0012629731103916924,-0.004158190555390954,-0.01529573066988964,0,70,255.0,255.0,255.0
533,26.650000000000002,4.460338521544923,-4.247500433558402,-10.542923094976857,-0.002315133383903882,-0.18364808801433255,-0.7059678129792788,-0.00033579553974345724,-0.00583419304201767,-0.015733139293849716,0,70,255.0,255.0,255.0
534,26.700000000000003,4.460221678977699,-4.256690829034791,-10.578241334303534,-0.002371892377144434,-0.1839816977285991,-0.7067654051595703,-0.0019345641898786065,-0.007510195528644388,-0.016170547917809787,0,70,255.0,255.0,255.0
535,26.75,4.4601,-4.2659,-10.6136,-0.002508589802891732,-0.18439910756719693,-0.7075848677710599,-0.0035333328400136317,-0.00918619801527032,-0.01660795654177072,0,70,255.0,255.0,255.0
536,26.8,4.459970454356621,-4.275130743361242,-10.648999881609551,-0.002667225675945273,-0.18481673158966755,-0.7084079621174949,-0.002812102082127911,-0.0075187628835544406,-0.016315817315629384,0,70,255.0,255.0,255.0
537,26.85,4.459833878458037,-4.28438028362969,-10.684440552762396,-0.0027898000111045273,-0.1851509838555524,-0.7092164495026229,-0.0020908713242421906,-0.005851327751838562,-0.01602367808948805,0,70,255.0,255.0,255.0
538,26.900000000000002,4.459692075381143,-4.29364445221752,-10.71992128311046,-0.002876312808369495,-0.18540186436485143,-0.7100103299264438,-0.0013696405663564705,-0.004183892620122682,-0.015731538863346717,0,70,255.0,255.0,255.0
539,26.950000000000003,4.459546848202832,-4.302919080536901,-10.755441342305685,-0.002926764067740176,-0.18556937311756466,-0.7107896033889576,-0.00064840980847075,-0.0025164574884068034,-0.015439399637205382,0,70,255.0,255.0,255.0
540,27.0,4.4594,-4.3122,-10.791,-0.002941153789216571,-0.1856535101136921,-0.7115542698901642,7.28209494149333e-05,-0.0008490223566905986,-0.015147260411064067,0,70,255.0,255.0,255.0
541,27.05,4.459253297439067,-4.321484217507813,-10.826596952215139,-0.0029216666012807026,-0.18572480468253322,-0.7123299116177317,0.000706666568019794,-0.0020027603969538788,-0.015878408691635225,0,70,255.0,255.0,255.0
542,27.1,4.459108361544554,-4.330773441916621,-10.862233600452008,-0.0028704871324145907,-0.1858537861533875,-0.7131421107593279,0.0013405121866246546,-0.0031564984372171585,-0.016609556972206382,0,70,255.0,255.0,255.0
543,27.150000000000002,4.458966776930508,-4.3400705575715195,-10.897911772581306,-0.002787615382618235,-0.18604045452625492,-0.7139908673149524,0.0019743578052295154,-0.004310236477480438,-0.017340705252777543,0,70,255.0,255.0,255.0
544,27.200000000000003,4.458830128210973,-4.349378448817613,-10.933633296473738,-0.0026730513518916366,-0.18628480980113554,-0.7148761812846055,0.002608203423834376,-0.0054639745177437185,-0.0180718535333487,0,70,255.0,255.0,255.0
545,27.25,4.4587,-4.3587,-10.9694,-0.0025267950402348056,-0.18658685197802927,-0.7157980526682873,0.0032420490424391983,-0.006617712558005806,-0.018803001813918918,0,70,255.0,255.0,255.0
546,27.3,4.458577155887111,-4.368037186607503,-11.005213109529892,-0.0023981079189214372,-0.18689204968019604,-0.7167203914115796,0.0019054358100954695,-0.005590195528665184,-0.018090547917771174,0,70,255.0,255.0,255.0
547,27.35,4.458459075363748,-4.377388348703828,-11.041071445429578,-0.002336251459225256,-0.1871458715308958,-0.7176071074600645,0.0005688225777517406,-0.004562678499324561,-0.017378094021623425,0,70,255.0,255.0,255.0
548,27.400000000000002,4.458342416896828,-4.386750917496402,-11.07697322656432,-0.0023412256611462625,-0.1873483175301285,-0.718458200813742,-0.0007677906545919882,-0.003535161469983939,-0.01666564012547568,0,70,255.0,255.0,255.0
549,27.450000000000003,4.458223838953273,-4.396122324192651,-11.112916671799375,-0.0024130305246844556,-0.1874993876778942,-0.719273671472612,-0.002104403886935717,-0.002507644440643317,-0.015953186229327936,0,70,255.0,255.0,255.0
550,27.5,4.4581,-4.4055,-11.1489,-0.0025516660498398247,-0.18759908197419284,-0.7200535194366746,-0.0034410171192793444,-0.0014801274113027674,-0.015240732333179352,0,70,255.0,255.0,255.0
551,27.55,4.4579684790124885,-4.414882236062172,-11.184921809665294,-0.0027019017230338945,-0.18769899659668518,-0.7208205227359351,-0.0025684098084833495,-0.002516457488389904,-0.015439399637239861,0,70,255.0,255.0,255.0
