idx,t,px,py,pz,vx,vy,vz,ax,ay,az,yaw,mode,ledr,ledg,ledb
0,0.0,7.5,7.5,0.0,2.983662778037379e-05,0.00010731485797936622,0.0030162449231115607,0.005241960466665096,-0.006087778295776735,-0.07859493907733874,0,70,255.0,255.0,255.0
1,0.05,7.5000082741186,7.499997463334887,5.258481723201618e-05,0.0003057248487802099,-0.00021463516533054604,-0.0009125273353686829,0.005793568373328348,-0.0067902226366197554,-0.07855595126187098,0,70,255.0,255.0,255.0
2,0.1,7.500031032158133,7.499977951113183,-9.122024369064515e-05,0.0006091934651132086,-0.0005717074056826093,-0.004839350203075539,0.0063451762799915995,-0.007492666977462776,-0.07851696344640324,0,70,255.0,255.0,255.0
3,0.15000000000000002,7.500069653138367,7.499939707224034,-0.0004313177132293147,0.0009402424767793699,-0.0009639018630768238,-0.008764223680009009,0.006896784186654852,-0.008195111318305796,-0.07847797563093549,0,70,255.0,255.0,255.0
4,0.2,7.500125516079067,7.499880975556591,-0.0009676101218453228,0.001298871883778694,-0.001391218537513189,-0.01268714776616909,0.007448392093318103,-0.008897555659148817,-0.07843898781546775,0,70,255.0,255.0,255.0
5,0.25,7.5002,7.4998,-0.0017,0.0016850816861111802,-0.0018536574289917053,-0.01660812246155578,0.007999999999981352,-0.009599999999991834,-0.07840000000000011,0,70,255.0,255.0,255.0
6,0.30000000000000004,7.500294483920934,7.499695024443408,-0.0026283898781546784,0.0020988718837768295,-0.002351218537512373,-0.020527147766169096,0.008551607906644606,-0.010302444340834858,-0.0783610121845323,0,70,255.0,255.0,255.0
7,0.35000000000000003,7.500410346861633,7.499564292775965,-0.0037526822867706864,0.002540242476775641,-0.0028839018630751915,-0.024444223680009012,0.00910321581330786,-0.01100488868167788,-0.07832202436906449,0,70,255.0,255.0,255.0
8,0.4,7.500548967841867,7.499406048886816,-0.005072779756309356,0.003009193465107615,-0.0034517074056801605,-0.02835935020307554,0.009654823719971114,-0.011707333022520902,-0.0782830365535967,0,70,255.0,255.0,255.0
9,0.45,7.500711725881399,7.499218536665112,-0.006588584817232017,0.0035057248487727526,-0.004054635165327281,-0.03227252733536868,0.010206431626634368,-0.012409777363363924,-0.07824404873812889,0,70,255.0,255.0,255.0
10,0.5,7.5009,7.499,-0.0083,0.0040298366277710515,-0.004692685142016552,-0.03618375507688843,0.010758039533297632,-0.013112221704206943,-0.07820506092266133,0,70,255.0,255.0,255.0
11,0.55,7.501114590197665,7.4987496388914785,-0.010207025304613308,0.004546787616104194,-0.005308490684621837,-0.04009888159995497,0.009920000000028045,-0.011520000000004416,-0.0784000000000001,0,70,255.0,255.0,255.0
12,0.6000000000000001,7.501353980395333,7.498470477782957,-0.012310050609226615,0.005021836627773857,-0.005844685142016995,-0.044023755076888445,0.00908196046675846,-0.009927778295801888,-0.07859493907733886,0,70,255.0,255.0,255.0
13,0.65,7.501616075494166,7.498166497228697,-0.014609563261533266,0.005454983662780039,-0.006301268514202026,-0.047958375507688854,0.008243920933488875,-0.008335556591599364,-0.07878987815467761,0,70,255.0,255.0,255.0
14,0.7000000000000001,7.501898780395333,7.497841677782958,-0.017106050609226618,0.005846228721122745,-0.0066782408011769314,-0.051902742892356205,0.007405881400219289,-0.006743334887396837,-0.07898481723201638,0,70,255.0,255.0,255.0
15,0.75,7.5022,7.4975,-0.0198,0.006195571802801969,-0.006975602002941709,-0.05585685723089049,0.006567841866949739,-0.005151113183194313,-0.07917975630935575,0,70,255.0,255.0,255.0
16,0.8,7.5025183552884025,7.497144019990675,-0.022691508903392103,0.006545977651808666,-0.0072788187240004,-0.05979732583401109,0.00744839209331811,-0.006977555659153293,-0.07843898781546797,0,70,255.0,255.0,255.0
17,0.8500000000000001,7.502855331557036,7.496770596092204,-0.025779115276322876,0.006940411012133781,-0.007673357568857039,-0.0637007560124373,0.008328942319686481,-0.008803998135112272,-0.07769821932158019,0,70,255.0,255.0,255.0
18,0.9,7.503213130181471,7.496375162198394,-0.029060967197557595,0.007378871883777313,-0.008159218537511627,-0.06756714776616911,0.009209492546054852,-0.010630440611071247,-0.07695745082769243,0,70,255.0,255.0,255.0
19,0.9500000000000001,7.503593952537269,7.495953152203055,-0.03253521274586155,0.007861360266739266,-0.008736401629964164,-0.07139650109520654,0.010090042772423223,-0.012456883087030229,-0.07621668233380464,0,70,255.0,255.0,255.0
20,1.0,7.504,7.4955,-0.0362,0.008387876161019636,-0.009404906846214648,-0.07518881599954957,0.01097059299879162,-0.014283325562989252,-0.07547591383991747,0,70,255.0,255.0,255.0
21,1.05,7.504432788648727,7.495012681145818,-0.040054139081818305,0.008917301776655286,-0.01007223441937348,-0.07898381506400073,0.010206431626634373,-0.012409777363363943,-0.07632404873812897,0,70,255.0,255.0,255.0
22,1.1,7.504891093376522,7.494494337848228,-0.044099088285481924,0.009408519323683074,-0.010645884582551043,-0.08282122087336247,0.009442270254477126,-0.010536229163738633,-0.07717218363634047,0,70,255.0,255.0,255.0
23,1.1500000000000001,7.505373003779953,7.49394965397773,-0.0483369679482364,0.009861528802103,-0.011125857335747343,-0.0867010334276348,0.00867810888231988,-0.008662680964113323,-0.07802031853455196,0,70,255.0,255.0,255.0
24,1.2000000000000002,7.505876609455589,7.493383313404821,-0.05276989840732725,0.010276330211915064,-0.011512152678962375,-0.09062325272681768,0.007913947510162634,-0.006789132764488014,-0.07886845343276346,0,70,255.0,255.0,255.0
25,1.25,7.5064,7.4928,-0.0574,0.010652923553119264,-0.011804770612196145,-0.09458787877091114,0.007149786138005404,-0.004915584564862782,-0.0797165883309755,0,70,255.0,255.0,255.0
26,1.3,7.506941690116688,7.492202855426049,-0.06222873476933471,0.011016815241574881,-0.012096243598502636,-0.09855541390998596,0.0074058814002193,-0.006743334887396851,-0.07898481723201682,0,70,255.0,255.0,255.0
27,1.35,7.507501894936877,7.491588852514881,-0.06725493158174947,0.011393511693141196,-0.01247910410093583,-0.10248636049411283,0.007661976662433196,-0.008571085209930919,-0.07825304613305814,0,70,255.0,255.0,255.0
28,1.4000000000000001,7.5080812546987215,7.490953421890687,-0.07247676100949688,0.011783012907818202,-0.012953352119495729,-0.10638071852329177,0.007918071924647092,-0.010398835532464986,-0.07752127503409946,0,70,255.0,255.0,255.0
29,1.4500000000000002,7.508680409640377,7.490291994177663,-0.07789239362482953,0.012185318885605905,-0.013518987654182331,-0.11023848799752278,0.008174167186860988,-0.012226585854999054,-0.0767895039351408,0,70,255.0,255.0,255.0
30,1.5,7.5093,7.4896,-0.0835,0.012600429626504298,-0.014176010704995632,-0.11405966891680586,0.008430262449074868,-0.014054336177533058,-0.076057732836182,0,70,255.0,255.0,255.0
31,1.55,7.509940450884521,7.488874297149983,-0.08929812184084288,0.013015437257041436,-0.014838791186610141,-0.11786652929605552,0.008170042772410653,-0.012456883087047257,-0.07621668233380463,0,70,255.0,255.0,255.0
32,1.6,7.510601326875973,7.488117452092249,-0.09528678538752025,0.013417433903745363,-0.015421699013700357,-0.12168133715018632,0.00790982309574644,-0.010859429996561453,-0.07637563183142726,0,70,255.0,255.0,255.0
33,1.6500000000000001,7.511281977425165,7.487333458459522,-0.10146638801377621,0.01380641956661608,-0.01592473418626629,-0.12550409247919825,0.007649603419082226,-0.00926197690607565,-0.07653458132904989,0,70,255.0,255.0,255.0
34,1.7000000000000002,7.511981751982904,7.48652630988453,-0.10783732709335478,0.014182394245653587,-0.016347896704307925,-0.12933479528309133,0.007389383742418012,-0.0076645238155898495,-0.07669353082667252,0,70,255.0,255.0,255.0
35,1.75,7.5127,7.4857,-0.1144,0.014545357940857881,-0.01669118656782527,-0.1331734455618655,0.007129164065753799,-0.00606707072510404,-0.07685248032429559,0,70,255.0,255.0,255.0
36,1.8,7.513436506345227,7.48485755597402,-0.12115477786729384,0.014921435730256647,-0.017012591655064645,-0.137018468905792,0.00791394751019676,-0.006789132764471018,-0.07694845343276402,0,70,255.0,255.0,255.0
37,1.85,7.514192797559228,7.483998139116126,-0.1281019268681696,0.015336752691877557,-0.017370099844272374,-0.1408682909051419,0.00869873095463972,-0.007511194803837997,-0.07704442654123245,0,70,255.0,255.0,255.0
38,1.9000000000000001,7.514970835600619,7.483119944271226,-0.13524168693539845,0.015791308825720617,-0.01776371113544845,-0.14472291155991526,0.009483514399082682,-0.008233256843204974,-0.07714039964970087,0,70,255.0,255.0,255.0
39,1.9500000000000002,7.515772582428005,7.482221166284217,-0.14257429800175153,0.016285104131785827,-0.018193425528592874,-0.148582330870112,0.010268297843525643,-0.008955318882571953,-0.0772363727581693,0,70,255.0,255.0,255.0
40,2.0,7.5166,7.4813,-0.1501,0.01681813861007318,-0.018659243023705637,-0.1524465488357322,0.011053081287968586,-0.009677380921938955,-0.07733234586663795,0,70,255.0,255.0,255.0
41,2.0500000000000003,7.517454323734572,7.48035467895394,-0.15781876668998185,0.017346819821942954,-0.019158842193128776,-0.15629959508077668,0.01009416718682239,-0.010306585854986481,-0.07678950393514028,0,70,255.0,255.0,255.0
42,2.1,7.51833388288711,7.479383591443244,-0.16572950713980145,0.017827555328755417,-0.019689901609204287,-0.16012549922924624,0.009135253085676202,-0.010935790788034002,-0.0762466620036426,0,70,255.0,255.0,255.0
43,2.15,7.519236280172363,7.478385164455576,-0.17383086424463018,0.018260345130510575,-0.02025242127193217,-0.1639242612811409,0.008176338984530015,-0.01156499572108152,-0.07570382007214493,0,70,255.0,255.0,255.0
44,2.2,7.520159118305077,7.477357824978605,-0.1821214808996393,0.01864518922720842,-0.020846401181312438,-0.16769588123646073,0.007217424883383818,-0.012194200654129047,-0.07516097814064726,0,70,255.0,255.0,255.0
45,2.25,7.5211,7.4763,-0.1906,0.018982087618848956,-0.021471841337345077,-0.17144035909520564,0.006258510782237686,-0.012823405587176623,-0.07461813620914914,0,70,255.0,255.0,255.0
46,2.3000000000000003,7.522057398716487,7.47521092821022,-0.19926535537277903,0.019323284981965352,-0.02208003957241487,-0.1751751507711012,0.007389383742418043,-0.011504523815615007,-0.07477353082667296,0,70,255.0,255.0,255.0
47,2.35,7.523033270892329,7.474093095110901,-0.20811764457262472,0.01972102599309076,-0.02262229371890658,-0.17891771217787292,0.008520256702598391,-0.010185642044053403,-0.07492892544419676,0,70,255.0,255.0,255.0
48,2.4000000000000004,7.524030443709929,7.472949797906473,-0.217157256086081,0.02017531065222519,-0.02309860377682021,-0.1826680433155209,0.009651129662778748,-0.008866760272491787,-0.07508432006172057,0,70,255.0,255.0,255.0
49,2.45,7.525051744351686,7.471784333801363,-0.22638457839969142,0.020686138959368636,-0.02350896974615576,-0.18642614418404502,0.010782002622959096,-0.007547878500930184,-0.07523971467924437,0,70,255.0,255.0,255.0
50,2.5,7.5261,7.4706,-0.2358,0.0212535109145211,-0.02385339162691323,-0.1901920147834453,0.01191287558313947,-0.006228996729368608,-0.07539510929676818,0,70,255.0,255.0,255.0
51,2.5500000000000003,7.52717688139948,7.4693992082051786,-0.2454038118189022,0.021808040250188582,-0.024184999517211432,-0.19395980183481878,0.010268297843559706,-0.007035318882559353,-0.07531637275816983,0,70,255.0,255.0,255.0
52,2.6,7.5282794335435685,7.468180828113151,-0.25519591456969976,0.022280340698877073,-0.02455692351516917,-0.1977236520592623,0.008623720103979956,-0.007841641035750092,-0.07523763621957147,0,70,255.0,255.0,255.0
53,2.6500000000000004,7.529403544987917,7.466942843918535,-0.2651761114110463,0.022670412260586578,-0.024969163620786442,-0.20148356545677593,0.006979142364400192,-0.008647963188940838,-0.07515889968097311,0,70,255.0,255.0,255.0
54,2.7,7.530545104288178,7.465683239815946,-0.2753442055015952,0.022978254935317095,-0.02542171983406325,-0.2052395420273596,0.005334564624820442,-0.009454285342131576,-0.07508016314237476,0,70,255.0,255.0,255.0
55,2.75,7.5317,7.4644,-0.2857,0.02320386872306862,-0.025914592154999597,-0.2089915817710134,0.003689986885240637,-0.010260607495322316,-0.07500142660377662,0,70,255.0,255.0,255.0
56,2.8000000000000003,7.532865475685592,7.463091438969065,-0.2962433973516125,0.02342855401728392,-0.026427962358735995,-0.21274564188962397,0.005297424883371246,-0.010274200654133536,-0.07516097814064597,0,70,255.0,255.0,255.0
57,2.85,7.534044194933394,7.461757192436494,-0.30697469714857645,0.023733611211405745,-0.026942012220412953,-0.216507679585078,0.0069048628815018415,-0.010287793812944757,-0.07532052967751532,0,70,255.0,255.0,255.0
58,2.9000000000000004,7.535240176338398,7.460397226419391,-0.31789429826973437,0.024119040305434103,-0.027456741740030474,-0.22027769485737553,0.00851230087963245,-0.010301386971755977,-0.07548008121438468,0,70,255.0,255.0,255.0
59,2.95,7.536457438495602,7.459011506934859,-0.32900259959392814,0.02458484129936899,-0.027972150917588548,-0.2240556877065165,0.010119738877763046,-0.010314980130567197,-0.07563963275125403,0,70,255.0,255.0,255.0
60,3.0,7.5377,7.4576,-0.3403,0.025131014193210406,-0.02848823975308719,-0.22784165813250087,0.011727176875893586,-0.010328573289378473,-0.07579918428812271,0,70,255.0,255.0,255.0
61,3.0500000000000003,7.53897081585815,7.456163035918562,-0.3517865987746482,0.0256937436806813,-0.028983151047845223,-0.2316176306066851,0.010782002622942051,-0.009467878500942812,-0.07523971467924526,0,70,255.0,255.0,255.0
62,3.1,7.540268586722857,7.454702402140873,-0.3634612968359945,0.026209214455504615,-0.02943502760318147,-0.23536562960042542,0.009836828369990523,-0.008607183712507158,-0.07468024507036782,0,70,255.0,255.0,255.0
63,3.1500000000000004,7.541590949658489,7.453220250403901,-0.37532269551001674,0.026677426517680354,-0.02984386941909594,-0.23908565511372187,0.008891654117038987,-0.007746488924071497,-0.07412077546149036,0,70,255.0,255.0,255.0
64,3.2,7.542935541729414,7.45171873244462,-0.38736939612269256,0.027098379867208512,-0.03020967649558862,-0.24277770714657446,0.00794647986408746,-0.006885794135635845,-0.0735613058526129,0,70,255.0,255.0,255.0
65,3.25,7.5443,7.4502,-0.3996,0.027472074504089096,-0.03053244883265952,-0.24644178569898312,0.007001305611135933,-0.006025099347200358,-0.07300183624373524,0,70,255.0,255.0,255.0
66,3.3000000000000003,7.545682460881807,7.448665217356686,-0.412013407549795,0.027828471259988323,-0.030871433449892082,-0.2500958356836359,0.007254564624833017,-0.007534285342102006,-0.07316016314237536,0,70,255.0,255.0,255.0
67,3.35,7.547083058175177,7.4471115990000145,-0.4246097155074458,0.028197530966572397,-0.03128587736686972,-0.2537578020132206,0.007507823638530098,-0.009043471337003641,-0.0733184900410155,0,70,255.0,255.0,255.0
68,3.4000000000000004,7.5485024250276425,7.445535371965002,-0.4373893196901993,0.02857925362384133,-0.03177578058359245,-0.25742768468773747,0.007761082652227182,-0.010552657331905291,-0.07347681693965562,0,70,255.0,255.0,255.0
69,3.45,7.549941194586739,7.443932763286659,-0.4503526159153018,0.028973639231795117,-0.03234114310006025,-0.2611054837071862,0.008014341665924263,-0.012061843326806924,-0.07363514383829575,0,70,255.0,255.0,255.0
70,3.5,7.5514,7.4423,-0.4635,0.02938068779043376,-0.032981964916273136,-0.26479119907156695,0.00826760067962154,-0.013571029321708783,-0.07379347073693543,0,70,255.0,255.0,255.0
71,3.5500000000000003,7.552879340614621,7.440634494654698,-0.4768317710261722,0.029792371279368488,-0.03362711515258035,-0.26847902665877166,0.008199738877767553,-0.012234980130579847,-0.0737196327512529,0,70,255.0,255.0,255.0
72,3.6,7.5543791805764355,7.438938401859068,-0.49034784113422253,0.030200661678210516,-0.034205462929331125,-0.27216316234669224,0.008131877075913568,-0.010898930939450921,-0.07364579476557039,0,70,255.0,255.0,255.0
73,3.6500000000000004,7.55589935023094,7.43721506173609,-0.5040480257291868,0.030605558986959845,-0.034717008246525446,-0.2758436061353287,0.008064015274059583,-0.009562881748321985,-0.07357195677988786,0,70,255.0,255.0,255.0
74,3.7,7.55743967992363,7.435467814408741,-0.5179321402161007,0.031007063205616473,-0.03516175110416333,-0.27952035802468106,0.007996153472205596,-0.008226832557193059,-0.07349811879420534,0,70,255.0,255.0,255.0
75,3.75,7.559,7.4337,-0.532,0.03140517433418041,-0.03553969150224475,-0.28319341801474923,0.00792829167035164,-0.006890783366064246,-0.07342428080852192,0,70,255.0,255.0,255.0
76,3.8000000000000003,7.560580176659712,7.431914404024527,-0.5462515083455166,0.03180204362254096,-0.035884105939787685,-0.2868680576812776,0.007946479864070367,-0.006885794135652967,-0.07356130585261136,0,70,255.0,255.0,255.0
77,3.85,7.562180219519082,7.430111593563713,-0.5606869199556646,0.03219982232058744,-0.036228270915810046,-0.2905495486000104,0.007964668057789092,-0.006880804905241689,-0.07369833089670079,0,70,255.0,255.0,255.0
78,3.9000000000000004,7.563800174048598,7.428291581090637,-0.5753065773930544,0.03259851042831987,-0.036572186430311855,-0.29423789077094764,0.00798285625150782,-0.00687581567483041,-0.07383535594079023,0,70,255.0,255.0,255.0
79,3.95,7.565440085718742,7.426454379078374,-0.5901108232202961,0.03299810794573823,-0.03691585248329309,-0.2979330841940894,0.008001044445226545,-0.006870826444419132,-0.07397238098487965,0,70,255.0,255.0,255.0
80,4.0,7.5671,7.4246,-0.6051,0.033398614872842514,-0.03725926907475376,-0.3016351288694356,0.008019232638945217,-0.006865837214007853,-0.0741094060289691,0,70,255.0,255.0,255.0
81,4.05,7.568779952746534,7.422727889247198,-0.6202741955917619,0.033799454230464675,-0.0376364610882735,-0.30532874261611725,0.008014341665941416,-0.008221843326781825,-0.07363514383829654,0,70,255.0,255.0,255.0
82,4.1000000000000005,7.570479941347236,7.420835223886079,-0.6356324790431196,0.03420004903943666,-0.03808145340743195,-0.30899864325326526,0.008009450692937615,-0.009577849439555822,-0.073160881647624,0,70,255.0,255.0,255.0
83,4.15,7.5721999535746685,7.4189186139013605,-0.6511736646985963,0.034600399299758444,-0.038594246032229086,-0.3126448307808797,0.008004559719933812,-0.010933855552329796,-0.07268661945695144,0,70,255.0,255.0,255.0
84,4.2,7.573939977201401,7.416974669277762,-0.6668965669027153,0.03500050501143004,-0.03917483896266493,-0.3162673051989604,0.00799966874693001,-0.012289861665103768,-0.0722123572662789,0,70,255.0,255.0,255.0
85,4.25,7.5757,7.415,-0.6828,0.03540036617445144,-0.03982323219873947,-0.31986606650750754,0.00799477777392621,-0.013645867777878018,-0.07173809507560636,0,70,255.0,255.0,255.0
86,4.3,7.5774800123541475,7.412992438986683,-0.6988829092874359,0.035800139455604736,-0.040466049707116446,-0.32344897185425286,0.007996153472205636,-0.012066832557201295,-0.07157811879420732,0,70,255.0,255.0,255.0
87,4.3500000000000005,7.5792800150919755,7.410954710891973,-0.7151447638718577,0.03619998152167201,-0.0410299154544596,-0.3270238783869283,0.007997529170485063,-0.010487797336524546,-0.07141814251280829,0,70,255.0,255.0,255.0
88,4.4,7.5811000116527305,7.40889076330392,-0.731585163812561,0.03659989237265325,-0.04151482944076892,-0.3305907861055337,0.007998904868764489,-0.008908762115847823,-0.07125816623140926,0,70,255.0,255.0,255.0
89,4.45,7.582940005475657,7.406804543810579,-0.748203709168843,0.03699987200854846,-0.041920791666044385,-0.3341496950100692,0.008000280567043916,-0.007329726895171101,-0.07109818995001023,0,70,255.0,255.0,255.0
90,4.5,7.5848,7.4047,-0.765,0.03739992042935764,-0.04224780213028602,-0.33770060510053473,0.008001656265323509,-0.005750691674494379,-0.0709382136686103,0,70,255.0,255.0,255.0
91,4.55,7.5866799978368755,7.402579954806072,-0.7819741672584942,0.037799987947120965,-0.042563340083258856,-0.3412753699668719,0.00800104444520947,-0.006870826444419072,-0.07205238098487739,0,70,255.0,255.0,255.0
92,4.6000000000000005,7.588579998284863,7.400442732546033,-0.7991284654694509,0.038200024873878594,-0.04293488477472793,-0.3449058431990225,0.008000432625095432,-0.007990961214343784,-0.07316654830114447,0,70,255.0,255.0,255.0
93,4.65,7.590499999814413,7.398285532882958,-0.8164656800511602,0.038600031209630514,-0.04336243620469324,-0.3485920247969864,0.007999820804981395,-0.009111095984268477,-0.07428071561741155,0,70,255.0,255.0,255.0
94,4.7,7.592440000895975,7.396105555479921,-0.8339885964219129,0.039000006954376734,-0.04384599437315477,-0.35233391476076364,0.007999208984867357,-0.01023123075419317,-0.07539488293367863,0,70,255.0,255.0,255.0
95,4.75,7.5944,7.3939,-0.8517,0.03939995210811725,-0.044385559280112556,-0.35613151309035423,0.007998597164753374,-0.011351365524118029,-0.0765090502499457,0,70,255.0,255.0,255.0
96,4.800000000000001,7.596379996298355,7.391666941789031,-0.8696012216785871,0.039799908755909344,-0.044928589959843224,-0.3598975482782598,0.007999668746929967,-0.010369861665108402,-0.0741323572662767,0,70,255.0,255.0,255.0
97,4.8500000000000005,7.598379991768576,7.389407958923898,-0.8876877742503397,0.04019991898281026,-0.0454225454466234,-0.36354474881698196,0.008000740329106559,-0.009388357806098792,-0.07175566428260775,0,70,255.0,255.0,255.0
98,4.9,7.600399989089621,7.387125505164252,-0.9059537159827988,0.040599982788819995,-0.0458674257404531,-0.3670731147065206,0.008001811911283152,-0.00840685394708918,-0.0693789712989388,0,70,255.0,255.0,255.0
99,4.95,7.602439990940444,7.384822034269736,-0.9243931051435054,0.04100010017393856,-0.04626323084133231,-0.3704826459468758,0.008002883493459744,-0.00742535008807957,-0.06700227831526985,0,70,255.0,255.0,255.0
100,5.0,7.6045,7.3825,-0.943,0.04140027113816596,-0.04660996074926105,-0.37377334253804756,0.008003955075636282,-0.006443846229069683,-0.06462558533160001,0,70,255.0,255.0,255.0
101,5.050000000000001,7.6065800169697075,7.380161078037807,-0.9617705460271581,0.0418003770292334,-0.04695430007736749,-0.3770704369200879,0.008000280567061068,-0.007329726895188062,-0.0672581899500121,0,70,255.0,255.0,255.0
102,5.1000000000000005,7.608680034640832,7.377803831758375,-0.9807092375291909,0.042200299194872073,-0.047342933438779856,-0.3804991615330488,0.007996606058485855,-0.008215607561306425,-0.06989079456842416,0,70,255.0,255.0,255.0
103,5.15,7.610800043827104,7.37542604646004,-0.9998226560176449,0.04260003763508198,-0.047775860833498135,-0.3840595163769303,0.007992931549910643,-0.009101488227424787,-0.0725233991868362,0,70,255.0,255.0,255.0
104,5.2,7.612940035342251,7.373025507441137,-1.0191173830040658,0.042999592349863135,-0.048253082261522334,-0.38775150145173237,0.00798925704133543,-0.00998736889354315,-0.07515600380524826,0,70,255.0,255.0,255.0
105,5.25,7.6151,7.3706,-1.0386,0.04339896333921552,-0.04877459772285244,-0.3915751167574551,0.007985582532760327,-0.010873249559661124,-0.0777886084236612,0,70,255.0,255.0,255.0
106,5.300000000000001,7.617279935822815,7.368147946059743,-1.0582749942127818,0.043798583127156225,-0.04930220973069795,-0.3954047040413887,0.007999208984867468,-0.010231230754159083,-0.07539488293368125,0,70,255.0,255.0,255.0
107,5.3500000000000005,7.619479869668093,7.365670314042601,-1.0781384756328973,0.044198884237702275,-0.04979772079826836,-0.3991146050508233,0.008012835436974609,-0.009589211948657054,-0.07300115744370135,0,70,255.0,255.0,255.0
108,5.4,7.621699835601961,7.3631687089955875,-1.0981844599466224,0.04459986667085368,-0.05026113092556366,-0.40270481978575884,0.008026461889081748,-0.008947193143155025,-0.07060743195372143,0,70,255.0,255.0,255.0
109,5.45,7.623939867690554,7.360644735965716,-1.1184069628402313,0.045001530426610446,-0.05069244011258385,-0.4061753482461954,0.008040088341188889,-0.008305174337652996,-0.06821370646374153,0,70,255.0,255.0,255.0
110,5.5,7.6262,7.3581,-1.1388,0.04540387550497257,-0.051091648359328945,-0.40952619043213295,0.00805371479329603,-0.007663155532150578,-0.06581998097376074,0,70,255.0,255.0,255.0
111,5.550000000000001,7.628480239739031,7.355535937723221,-1.1593590771217166,0.04580529046214147,-0.0514688609998347,-0.4128467469143587,0.008002883493459666,-0.007425350088079382,-0.06700227831526685,0,70,255.0,255.0,255.0
112,5.6000000000000005,7.630780486686797,7.352953312071221,-1.1800856599392207,0.04620416385431854,-0.05183418336813689,-0.41622641826365964,0.007952052193623304,-0.00718754464400819,-0.06818457565677295,0,70,255.0,255.0,255.0
113,5.65,7.633100613765047,7.35035271755761,-1.200982704195867,0.04660049568150379,-0.05218761546423552,-0.41966520448003597,0.007901220893786942,-0.006949739199936997,-0.06936687299827905,0,70,255.0,255.0,255.0
114,5.7,7.635440493895532,7.347734748696,-1.2220531656350087,0.04699428594369723,-0.05252915728813058,-0.4231631055634876,0.007850389593950579,-0.0067119337558658055,-0.07054917033978514,0,70,255.0,255.0,255.0
115,5.75,7.6378,7.3451,-1.2433,0.04738553464089885,-0.052858808839822094,-0.42672012151401445,0.007799558294114328,-0.0064741283117945025,-0.07173146768129124,0,70,255.0,255.0,255.0
116,5.800000000000001,7.6401791052210575,7.3424483030473775,-1.2647254973003543,0.04778025502428467,-0.0532223462699565,-0.43029630830117793,0.007989257041318467,-0.008067368893581596,-0.07131600380524707,0,70,255.0,255.0,255.0
117,5.8500000000000005,7.642578183584718,7.339776437672519,-1.2863292846102214,0.0481844603450307,-0.05366554572918025,-0.4338517218945392,0.008178955788522603,-0.009660609475368658,-0.07090053992920291,0,70,255.0,255.0,255.0
118,5.9,7.64499770933785,7.337080420773975,-1.3081103232699114,0.048598150603136936,-0.054188407217493365,-0.4373863622940982,0.00836865453572674,-0.011253850057155724,-0.07048507605315875,0,70,255.0,255.0,255.0
119,5.95,7.647438156727321,7.334356269250285,-1.3300675746197343,0.04902132579860337,-0.054790930734895826,-0.4409002294998551,0.008558353282930876,-0.012847090638942788,-0.07006961217711458,0,70,255.0,255.0,255.0
120,6.0,7.6499,7.3316,-1.3522,0.049453985931430015,-0.055473116281387645,-0.44439332351180966,0.0087480520301349,-0.014440331220729574,-0.0696541483010722,0,70,255.0,255.0,255.0
121,6.050000000000001,7.652383339376739,7.328809250087273,-1.3745069336768685,0.04987368944071311,-0.05613775392034656,-0.44788801988093,0.008040088341188812,-0.012145174337626652,-0.07013370646374169,0,70,255.0,255.0,255.0
122,6.1000000000000005,7.65488677897433,7.325988137238702,-1.3969892016198955,0.0502579947655489,-0.05668763371515032,-0.45140669415818385,0.007332124652242736,-0.009850017454523772,-0.07061326462641118,0,70,255.0,255.0,255.0
123,6.15,7.657408548883552,7.3231423993464935,-1.4196480027244887,0.05060690190593738,-0.057122755665798934,-0.45494934634357115,0.006624160963296661,-0.007554860571420891,-0.07109282278908068,0,70,255.0,255.0,255.0
124,6.2,7.659946879195184,7.320277774302857,-1.4424845358860547,0.05092041086187857,-0.05744311977229241,-0.4585159764370919,0.005916197274350585,-0.0052597036883180095,-0.07157238095175016,0,70,255.0,255.0,255.0
125,6.25,7.6625,7.3174,-1.4655,0.051198521633372435,-0.05764872603463074,-0.46210658443874614,0.005208233585404343,-0.0029645468052150736,-0.07205193911441965,0,70,255.0,255.0,255.0
126,6.300000000000001,7.665066737271987,7.314513096603533,-1.4886947679921747,0.051476987212857275,-0.057842638048657455,-0.4656716121751013,0.005930389593989204,-0.00479193375585321,-0.07054917033978476,0,70,255.0,255.0,255.0
127,6.3500000000000005,7.667648300517959,7.311614213372676,-1.5120659089101982,0.05179156059277136,-0.05812791941021606,-0.4691615014727246,0.0066525456025740524,-0.006619320706491313,-0.0690464015651499,0,70,255.0,255.0,255.0
128,6.4,7.670246495127937,7.308698781840052,-1.5356096658321345,0.05214224177311468,-0.05850457011930658,-0.47257625233161626,0.0073747016111589,-0.008446707657129418,-0.06754363279051503,0,70,255.0,255.0,255.0
129,6.45,7.6728631264919445,7.305762233538287,-1.5593222818360473,0.05252903075388724,-0.058972590175929006,-0.47591586475177616,0.00809685761974375,-0.010274094607767521,-0.06604086401588018,0,70,255.0,255.0,255.0
130,6.5,7.6755,7.3028,-1.5832,0.05295192753508905,-0.05953197958008333,-0.47918033873320426,0.008819013628328487,-0.012101481558405736,-0.0645380952412471,0,70,255.0,255.0,255.0
131,6.550000000000001,7.6781585115353135,7.299808763498597,-1.6072403943544356,0.053386361707869694,-0.060107693885017584,-0.4824495314186635,0.008558353282896709,-0.01092709063896427,-0.06622961217712071,0,70,255.0,255.0,255.0
132,6.6000000000000005,7.680838418953833,7.296790209270599,-1.631446362739313,0.053807762863378725,-0.06062468864397976,-0.48580329995091637,0.008297692937464938,-0.009752699719522827,-0.0679211291129943,0,70,255.0,255.0,255.0
133,6.65,7.683539070604696,7.293747273293299,-1.6558221339469734,0.05421613100161618,-0.06108296385696986,-0.4892416443299629,0.008037032592033165,-0.008578308800081383,-0.06961264604886788,0,70,255.0,255.0,255.0
134,6.7,7.68625981483704,7.290682891544001,-1.6803719367697558,0.05461146612258204,-0.061482519523987894,-0.49276456455580314,0.007776372246601392,-0.007403917880639939,-0.07130416298474147,0,70,255.0,255.0,255.0
135,6.75,7.689,7.2876,-1.7051,0.05499376822627632,-0.06182335564503386,-0.49637206062843703,0.007515711901170008,-0.0062295269611986614,-0.07299567992061595,0,70,255.0,255.0,255.0
136,6.800000000000001,7.691759216586763,7.284500649402077,-1.730009254590086,0.05537756595566423,-0.0621585864112721,-0.4999862621502461,0.007836197274346162,-0.007179703688330632,-0.07157238095174588,0,70,255.0,255.0,255.0
137,6.8500000000000005,7.694538023666711,7.281383349544934,-1.755097440132551,0.05577738795371094,-0.06254132601386693,-0.5035292987236116,0.00815668264752231,-0.008129880415462587,-0.07014908198287582,0,70,255.0,255.0,255.0
138,6.9,7.697337222453278,7.2782457249867525,-1.7803609983799729,0.05619323422041646,-0.06297157445281835,-0.5070011703485336,0.008477168020698457,-0.00908005714259454,-0.06872578301400577,0,70,255.0,255.0,255.0
139,6.95,7.700157614159897,7.275085400285713,-1.80579637108493,0.05662510475578079,-0.06344933172812639,-0.5104018770250122,0.008797653393874606,-0.010030233869726493,-0.06730248404513572,0,70,255.0,255.0,255.0
140,7.0,7.703,7.2719,-1.8314,0.057072999559803925,-0.06397459783979101,-0.5137314187530473,0.009118138767051032,-0.010980410596858947,-0.06587918507626611,0,70,255.0,255.0,255.0
141,7.050000000000001,7.705864622117638,7.268687838893093,-1.8571689872852228,0.057503374469474226,-0.06450596046990584,-0.517029419980351,0.008096857619760742,-0.010274094607733576,-0.06604086401588063,0,70,255.0,255.0,255.0
142,7.1000000000000005,7.7087494863793244,7.265449992549667,-1.883103076730485,0.05788268532178,-0.06500200730056438,-0.5203355051546353,0.007075576472470469,-0.009567778618608217,-0.06620254295549514,0,70,255.0,255.0,255.0
143,7.15,7.7116520395821935,7.262188226759695,-1.909202672533136,0.058210932116721265,-0.06546273833176665,-0.5236496742759005,0.0060542953251801965,-0.008861462629482859,-0.06636422189510967,0,70,255.0,255.0,255.0
144,7.2,7.714569728523374,7.258904307313148,-1.9354681788905244,0.05848811485429802,-0.06588815356351266,-0.5269719273441463,0.005033014177889924,-0.0081551466403575,-0.06652590083472418,0,70,255.0,255.0,255.0
145,7.25,7.7175,7.2556,-1.9619,0.05871423353451027,-0.06627825299580241,-0.5303022643593729,0.004011733030599818,-0.00744883065123203,-0.0666875797743387,0,70,255.0,255.0,255.0
146,7.300000000000001,7.720441494942688,7.252276795025551,-1.9884987962690246,0.05896093616643999,-0.06664957170909921,-0.5336560579283501,0.005856372246589007,-0.007403917880639831,-0.06746416298474643,0,70,255.0,255.0,255.0
147,7.3500000000000005,7.723397630815991,7.248935080256398,-2.0152662529455108,0.05929987075916917,-0.06701864478386639,-0.5370486806578476,0.007701011462578164,-0.007359005110047633,-0.06824074619515415,0,70,255.0,255.0,255.0
148,7.4,7.7263730192179505,7.245574967974473,-2.0422043114874846,0.059731037312697806,-0.06738547222010396,-0.5404801325478654,0.009545650678567321,-0.0073140923394554355,-0.06901732940556188,0,70,255.0,255.0,255.0
149,7.45,7.729372271746607,7.242196570461698,-2.0693149133529722,0.060254435827025894,-0.06775005401781195,-0.5439504135984038,0.011390289894556479,-0.0072691795688632375,-0.0697939126159696,0,70,255.0,255.0,255.0
150,7.5,7.7324,7.2388,-2.0966,0.06087006630215345,-0.0681123901769903,-0.5474595238094625,0.013234929110545746,-0.007224266798271151,-0.07057049582637998,0,70,255.0,255.0,255.0
151,7.550000000000001,7.735458998111614,7.235384981004707,-2.124060627638681,0.061468880864763854,-0.06849575269369122,-0.5509543483062502,0.01071765339387025,-0.008110233869765317,-0.06922248404512794,0,70,255.0,255.0,255.0
152,7.6000000000000005,7.738544790356713,7.231949686424739,-2.1516943114874745,0.06194183164154048,-0.06892341356396685,-0.5543817722139753,0.008200377677194799,-0.008996200941259467,-0.06787447226387594,0,70,255.0,255.0,255.0
153,7.65,7.741651083546004,7.228491901342417,-2.1794976815169274,0.062288918632483335,-0.06939537278781717,-0.5577417955326378,0.0056831019605193475,-0.009882168012753618,-0.06652646048262392,0,70,255.0,255.0,255.0
154,7.7,7.744771584490198,7.225009410840063,-2.207467367697587,0.06251014183759242,-0.0699116303652422,-0.5610344182622378,0.0031658262438438965,-0.010768135084247768,-0.06517844870137192,0,70,255.0,255.0,255.0
155,7.75,7.7479,7.2215,-2.2356,0.06260550125686773,-0.07047218629624195,-0.564259640402775,0.000648550527168501,-0.011654102155741808,-0.06383043692012169,0,70,255.0,255.0,255.0
156,7.800000000000001,7.751032112610856,7.217962480955625,-2.2638930931762538,0.06269954037449474,-0.0710154175161439,-0.5674705488466463,0.003113014177911557,-0.010075146640335842,-0.06460590083472885,0,70,255.0,255.0,255.0
157,7.8500000000000005,7.754172007757158,7.214399774044648,-2.2923477011045934,0.06291680267465888,-0.07147970096027555,-0.570720230486248,0.0055774778286545685,-0.008496191124929903,-0.065381364749336,0,70,255.0,255.0,255.0
158,7.9,7.757325846598031,7.21081582665586,-2.320965762444807,0.06325728815736019,-0.07186503662863689,-0.5740086853215799,0.008041941479397581,-0.006917235609523964,-0.06615682866394312,0,70,255.0,255.0,255.0
159,7.95,7.760499790292603,7.207214586178047,-2.3497492158566806,0.06372099682259863,-0.07217142452122793,-0.5773359133526422,0.010506405130140593,-0.005338280094118025,-0.06693229257855027,0,70,255.0,255.0,255.0
160,8.0,7.7637,7.2036,-2.3787,0.06430792867037426,-0.07239886463804868,-0.5807019145794349,0.012970868780883937,-0.0037593245787115315,-0.06770775649315564,0,70,255.0,255.0,255.0
161,8.05,7.766930951444959,7.199974695172794,-2.407819799656306,0.06491695763726027,-0.07262657724173774,-0.5840914563071632,0.011390289894556548,-0.00534917956885066,-0.0678739126159746,0,70,255.0,255.0,255.0
162,8.1,7.770190378614654,7.196336017396668,-2.4371092840941517,0.0654469576598299,-0.07293378259493374,-0.5874893058410323,0.009809711008229216,-0.006939034558989731,-0.06804006873879356,0,70,255.0,255.0,255.0
163,8.15,7.77347433006187,7.192679992034142,-2.466568868703845,0.0658979287380832,-0.0733204806976367,-0.5908954631810426,0.008229132121901827,-0.00852888954912886,-0.06820622486161251,0,70,255.0,255.0,255.0
164,8.200000000000001,7.77677885433939,7.189002644447746,-2.4961989688756927,0.0662698708720201,-0.07378667154984664,-0.5943099283271936,0.006648553235574439,-0.010118744539267987,-0.06837238098443148,0,70,255.0,255.0,255.0
165,8.25,7.7801,7.1853,-2.526,0.06656278406164062,-0.07433235515156349,-0.5977327012794856,0.005067974349246995,-0.011708599529406727,-0.06853853710724866,0,70,255.0,255.0,255.0
166,8.3,7.783434481609308,7.181569138353195,-2.5559717081985225,0.06681662907646736,-0.07489427351690486,-0.6011236259247014,0.005085826243822389,-0.010768135084247819,-0.06709844870137631,0,70,255.0,255.0,255.0
167,8.35,7.786781677784226,7.1778113563686805,-2.5861111625187982,0.06707136668602286,-0.07540916865998827,-0.6044425461496233,0.005103678138397782,-0.009827670639088943,-0.06565836029550401,0,70,255.0,255.0,255.0
168,8.4,7.790141633154489,7.174029005207568,-2.6164147627398133,0.06732699689030713,-0.07587704058081375,-0.6076894619542517,0.005121530032973176,-0.008887206193930035,-0.06421827188963167,0,70,255.0,255.0,255.0
169,8.450000000000001,7.7935143923498345,7.17022443603097,-2.6468789086405526,0.06758351968932019,-0.07629788927938129,-0.6108643733385865,0.00513938192754857,-0.007946741748771127,-0.06277818348375931,0,70,255.0,255.0,255.0
170,8.5,7.7969,7.1664,-2.6775,0.06784093508306198,-0.07667171475569086,-0.6139672803026277,0.00515723382212363,-0.0070062773036115855,-0.06133809507788435,0,70,255.0,255.0,255.0
171,8.55,7.800299122117809,7.162557551414424,-2.7082757675496048,0.06813652605686882,-0.0770283286906344,-0.6170780399940383,0.00666640513014971,-0.0072582800941301245,-0.06309229257854024,0,70,255.0,255.0,255.0
172,8.6,7.803714910248443,7.158696957128611,-2.739209265830654,0.06850757559607694,-0.07739754276510387,-0.6202765095604817,0.008175576438175736,-0.007510282884648654,-0.06484649007919606,0,70,255.0,255.0,255.0
173,8.65,7.807151137320173,7.154817587135587,-2.7703048803369033,0.0689540837006864,-0.07777935697909927,-0.623562689001958,0.009684747746201816,-0.007762285675167193,-0.06660068757985195,0,70,255.0,255.0,255.0
174,8.700000000000001,7.810611576261269,7.150918811428376,-2.801566996562102,0.06947605037069715,-0.0781737713326206,-0.6269365783184669,0.011193919054227897,-0.008014288465685731,-0.06835488508050784,0,70,255.0,255.0,255.0
175,8.75,7.8141,7.147,-2.833,0.07007347560610916,-0.07858078582566783,-0.6303981775100086,0.012703090362253144,-0.00826629125620415,-0.070109082581161,0,70,255.0,255.0,255.0
176,8.8,7.817618629919455,7.143060655989112,-2.8646068216030622,0.07065326669605505,-0.07899241172055474,-0.6338602140991483,0.010488553235582256,-0.008198744539272383,-0.06837238098442222,0,70,255.0,255.0,255.0
177,8.85,7.8211634812219994,7.139100815116876,-2.896384574158584,0.07112233092966738,-0.07940066027959507,-0.6372354156084509,0.008274016108911446,-0.008131197822340619,-0.0666356793876835,0,70,255.0,255.0,255.0
178,8.9,7.824729017564817,7.135120646250083,-2.928328915912576,0.07148066830694619,-0.07980553150278881,-0.6405237820379165,0.006059478982240558,-0.008063651105408853,-0.06489897779094472,0,70,255.0,255.0,255.0
179,8.950000000000001,7.828309702605089,7.131120318255527,-2.9604355051110463,0.07172827882789144,-0.08020702539013595,-0.6437253133875454,0.00384494185556967,-0.007996104388477086,-0.06316227619420595,0,70,255.0,255.0,255.0
180,9.0,7.8319,7.1271,-2.9927,0.07186516249250316,-0.08060514194163652,-0.6468400096573371,0.00163040472889886,-0.007928557671545211,-0.061425574597467225,0,70,255.0,255.0,255.0
181,9.05,7.835495958204369,7.12305982462913,-3.0251193460381507,0.07198640715891404,-0.08100202442714444,-0.6499451036093681,0.0032193819275359694,-0.007946741748770792,-0.06277818348376789,0,70,255.0,255.0,255.0
182,9.1,7.839099964863557,7.118999782403889,-3.0576956375350086,0.07218710068525674,-0.0813998161165136,-0.6531178280057138,0.004808359126173023,-0.007964925825996371,-0.0641307923700685,0,70,255.0,255.0,255.0
183,9.15,7.84271599242056,7.114919827864081,-3.090432256012793,0.07246724307153134,-0.08179851700974407,-0.6563581828463749,0.006397336324810133,-0.007983109903221952,-0.06548340125636917,0,70,255.0,255.0,255.0
184,9.200000000000001,7.8463480133183765,7.110819915549516,-3.123332582993719,0.07282683431773779,-0.0821981271068358,-0.6596661681313508,0.007986313523447242,-0.008001293980447534,-0.06683601014266982,0,70,255.0,255.0,255.0
185,9.25,7.85,7.1067,-3.1564,0.07326587442387605,-0.08259864640778881,-0.6630417838606418,0.009575290722084295,-0.00801947805767289,-0.06818861902896867,0,70,255.0,255.0,255.0
186,9.3,7.8536751372630675,7.102560045494368,-3.18963659424434,0.07373710466828397,-0.08299949057087279,-0.6664073714633787,0.009273919054231956,-0.008014288465685549,-0.06643488508050141,0,70,255.0,255.0,255.0
187,9.35,7.857373459323772,7.098400055267573,-3.2230392757013804,0.07419326632929925,-0.08340007525435736,-0.6696852723686919,0.008972547386379627,-0.008009098873698207,-0.06468115113203422,0,70,255.0,255.0,255.0
188,9.4,7.861094212752941,7.0942200422935935,-3.2566036600362525,0.07463435940692192,-0.08380040045824261,-0.672875486576582,0.00867117571852729,-0.008003909281710863,-0.06292741718356697,0,70,255.0,255.0,255.0
189,9.450000000000001,7.864836644121407,7.090020019546409,-3.290325362914083,0.07506038390115198,-0.08420046618252845,-0.6759780140870487,0.00836980405067495,-0.007998719689723521,-0.06117368323509972,0,70,255.0,255.0,255.0
190,9.5,7.8686,7.0858,-3.3242,0.07547133981198942,-0.08460027242721495,-0.678992854900092,0.0080684323828224,-0.007993530097736179,-0.05941994928662897,0,70,255.0,255.0,255.0
191,9.55,7.872383492743357,7.081559993393396,-3.3582246769844915,0.07586517416794943,-0.08500001328936986,-0.682009410537113,0.007684941855577726,-0.007996104388460101,-0.06124227619420942,0,70,255.0,255.0,255.0
192,9.600000000000001,7.876186197841355,7.077299996525821,-3.3924024596594684,0.0762398339975472,-0.08539988286606097,-0.685117082519513,0.007301451328333053,-0.007998678679184024,-0.06306460310178987,0,70,255.0,255.0,255.0
193,9.65,7.8800071565676735,7.073020002961548,-3.4267379038421986,0.07659531930078273,-0.08579988115728826,-0.688315870847292,0.0069179608010883934,-0.008001252969907946,-0.06488693000937024,0,70,255.0,255.0,255.0
194,9.700000000000001,7.8838454101959945,7.06872000626485,-3.4612355653499534,0.07693163007765604,-0.08620000816305176,-0.69160577552045,0.006534470273843721,-0.008003827260631868,-0.06670925691695068,0,70,255.0,255.0,255.0
195,9.75,7.8877,7.0644,-3.4959,0.07724876632816709,-0.08660026388335144,-0.6949867965389871,0.006150979746598506,-0.008006401551355347,-0.06853158382453195,0,70,255.0,255.0,255.0
196,9.8,7.891570091763499,7.0600599809320475,-3.5307342978176965,0.07755419865991792,-0.08700045627164651,-0.6983709863881674,0.006066313523434517,-0.008001293980447266,-0.06683601014267812,0,70,255.0,255.0,255.0
197,9.850000000000001,7.895455349310805,7.055699958629145,-3.565735685660749,0.07785539768051054,-0.08740039328139619,-0.701670397553255,0.0059816473002705295,-0.007996186409539186,-0.0651404364608243,0,70,255.0,255.0,255.0
198,9.9,7.899355560976363,7.051319945860217,-3.600899924594953,0.07815236338994497,-0.08780007491260043,-0.7048850300342498,0.005896981077106544,-0.007991078838631104,-0.06344486277897053,0,70,255.0,255.0,255.0
199,9.950000000000001,7.903270515094614,7.046919955394193,-3.6362227756861056,0.0784450957882212,-0.08819950116525929,-0.708014883831152,0.005812314853942555,-0.007985971267723024,-0.06174928909711671,0,70,255.0,255.0,255.0
200,10.0,7.9072,7.0425,-3.6717,0.07873359487533922,-0.08859867203937272,-0.7110599589439615,0.00572764863077857,-0.007980863696814389,-0.06005371541526294,0,70,255.0,255.0,255.0
201,10.05,7.911144140202647,7.038060082878413,-3.707328531744726,0.0790380311923761,-0.08899816162403659,-0.7140906439102204,0.006449804050696516,-0.007998719689740507,-0.06117368323508964,0,70,255.0,255.0,255.0
202,10.100000000000001,7.915104404915421,7.033600168957602,-3.7431099976975397,0.07937857528040888,-0.08939854400834678,-0.7171773272674705,0.007171959470614463,-0.008016575682666628,-0.06229365105491634,0,70,255.0,255.0,255.0
203,10.15,7.91908259952687,7.029120213597584,-3.779047197777989,0.07975522713943756,-0.08979981919230325,-0.7203200090157119,0.007894114890532383,-0.008034431675592747,-0.063413618874743,0,70,255.0,255.0,255.0
204,10.200000000000001,7.9230805294255475,7.024620172158379,-3.815142931905627,0.08016798676946213,-0.09020198717590605,-0.7235186891549448,0.00861627031045033,-0.008052287668518865,-0.0645335866945697,0,70,255.0,255.0,255.0
205,10.25,7.9271,7.0201,-3.8514,0.08061685417048259,-0.09060504795915512,-0.7267733676851688,0.00933842573036836,-0.008070143661444873,-0.0656535545143937,0,70,255.0,255.0,255.0
206,10.3,7.9311421474259145,7.015559687554299,-3.8878203752034026,0.08106167657058735,-0.09100689723220705,-0.7300344379709524,0.008454470273821877,-0.008003827260631823,-0.06478925691694694,0,70,255.0,255.0,255.0
207,10.350000000000001,7.935205431027511,7.010999365540447,-3.924402723549098,0.08146230119786478,-0.09140543068521832,-0.7332522933768635,0.007570514817275395,-0.007937510859818774,-0.06392495931950017,0,70,255.0,255.0,255.0
208,10.4,7.939287640916153,7.006419199749445,-3.961144884293091,0.0818187280523149,-0.09180064831818892,-0.7364269339029024,0.006686559360728943,-0.007871194459005726,-0.06306066172205343,0,70,255.0,255.0,255.0
209,10.450000000000001,7.943386567203197,7.0018193559722945,-3.9980446966913905,0.08213095713393768,-0.09219255013111889,-0.7395583595490688,0.005802603904182461,-0.007804878058192676,-0.062196364124606676,0,70,255.0,255.0,255.0
210,10.5,7.9475,6.9972,-4.0351,0.08239898844273313,-0.09258113612400819,-0.7426465703153629,0.004918648447636231,-0.007738561657379184,-0.06133206652715906,0,70,255.0,255.0,255.0
211,10.55,7.951626470093698,6.992561166904391,-4.072309167441666,0.08266726252527261,-0.09297424944713574,-0.7457236042059698,0.005812314853942637,-0.007985971267722583,-0.06174928909711746,0,70,255.0,255.0,255.0
212,10.600000000000001,7.955767470974532,6.987902368880611,-4.109672708106072,0.0829802199281274,-0.09337973325078046,-0.7488214992250747,0.006705981260249042,-0.008233380878065983,-0.06216651166707587,0,70,255.0,255.0,255.0
213,10.65,7.959925236808517,6.983222987404637,-4.147191665049647,0.08333786065129752,-0.09379758753494233,-0.7519402553726774,0.007599647666555416,-0.008480790488409376,-0.06258373423703426,0,70,255.0,255.0,255.0
214,10.700000000000001,7.964102001761668,6.978522403952442,-4.184867081328815,0.08374018469478295,-0.09422781229962139,-0.7550798726487781,0.00849331407286182,-0.008728200098752775,-0.06300095680699265,0,70,255.0,255.0,255.0
215,10.75,7.9683,6.9738,-4.2227,0.08418719205858369,-0.09467040754481759,-0.7582403510533766,0.009386980479167972,-0.008975609709095833,-0.06341817937694927,0,70,255.0,255.0,255.0
216,10.8,7.9725207721992915,6.969055644828139,-4.260690955029939,0.08463727332832457,-0.09509610497925754,-0.7613911452051649,0.008616270310467333,-0.00805228766850171,-0.06261358669458053,0,70,255.0,255.0,255.0
217,10.850000000000001,7.976763085074358,6.964291158937108,-4.298838444026615,0.08504881908963044,-0.09547563631166778,-0.7645017097228348,0.007845560141766695,-0.007128965627907586,-0.06180899401221181,0,70,255.0,255.0,255.0
218,10.9,7.9810250118497805,6.959508850632006,-4.337140455508321,0.08542182934250124,-0.0958090015420483,-0.7675720446063861,0.007074849973066084,-0.006205643587313497,-0.0610044013298431,0,70,255.0,255.0,255.0
219,10.950000000000001,7.985304625750135,6.954711028217936,-4.375594977993352,0.08575630408693705,-0.09609620067039912,-0.770602149855819,0.006304139804365444,-0.005282321546719373,-0.060199808647474366,0,70,255.0,255.0,255.0
220,11.0,7.9896,6.9499,-4.4142,0.08605224332293779,-0.09633723369672023,-0.7735920254711335,0.005533429635664389,-0.004358999506125061,-0.05939521596510211,0,70,255.0,255.0,255.0
221,11.05,7.993909641109137,6.945077053783051,-4.452954212438581,0.08633564416143354,-0.0965933306358283,-0.7765838149733759,0.005802603904165386,-0.005884878058196973,-0.060276364124592176,0,70,255.0,255.0,255.0
222,11.100000000000001,7.998233788728035,6.940239395370958,-4.491859115787472,0.08663250371335433,-0.09692572150253993,-0.7796196618835929,0.006071778172666383,-0.007410756610268886,-0.06115751228408224,0,70,255.0,255.0,255.0
223,11.15,8.002573115792364,6.935383210067338,-4.530916912917072,0.08694282197870018,-0.09733440629685516,-0.782699566201784,0.006340952441167371,-0.008936635162340743,-0.06203866044357227,0,70,255.0,255.0,255.0
224,11.200000000000001,8.006928295237794,6.930504683175812,-4.570129806697783,0.08726659895747106,-0.09781938501877402,-0.78582352792795,0.006610126709668368,-0.010462513714412657,-0.06291980860306234,0,70,255.0,255.0,255.0
225,11.25,8.0113,6.9256,-4.6095,0.08760383464966699,-0.09838065766829641,-0.7889915470620903,0.006879300978168801,-0.01198839226648396,-0.06380095676255415,0,70,255.0,255.0,255.0
226,11.3,8.015688663364163,6.920666540039655,-4.649028995215743,0.08794015002594287,-0.09894657247742807,-0.792161594901329,0.006573314072866117,-0.010648200098782071,-0.06300095680699334,0,70,255.0,255.0,255.0
227,11.350000000000001,8.020093760013507,6.915706459579064,-4.688715492823504,0.08826116605695362,-0.09944547767817465,-0.7952916427427897,0.006267327167563432,-0.009308007931080182,-0.062200956851432544,0,70,255.0,255.0,255.0
228,11.4,8.024514524980772,6.910723109098645,-4.728557492823392,0.08856688274269921,-0.0998773732705361,-0.7983816905864722,0.005961340262260759,-0.00796781576337834,-0.061400956895871765,0,70,255.0,255.0,255.0
229,11.450000000000001,8.02895019329869,6.905719839078817,-4.768552995215522,0.08885730008317969,-0.10024225925451247,-0.8014317384323769,0.005655353356958075,-0.006627623595676451,-0.060600956940310965,0,70,255.0,255.0,255.0
230,11.5,8.0334,6.9007,-4.8087,0.08913241807839502,-0.10054013563010374,-0.8044417862805033,0.00534936645165518,-0.005287431427974387,-0.059800956984750187,0,70,255.0,255.0,255.0
231,11.55,8.037863705434214,6.895666386058327,-4.84899700669845,0.08942375573479511,-0.10080437945447022,-0.8074418054213093,0.006304139804348265,-0.00528232154668522,-0.06019980864748967,0,70,255.0,255.0,255.0
232,11.600000000000001,8.04234317121794,6.890619566312787,-4.889444512918518,0.08976283205882986,-0.10106836778477227,-0.8104617671452524,0.007258913157041352,-0.005277211665396053,-0.06059866031022915,0,70,255.0,255.0,255.0
233,11.65,8.046840784284557,6.885559553538084,-4.93004351578936,0.09014964705049924,-0.10133210062100984,-0.8135016714523322,0.008213686509734404,-0.005272101784106887,-0.06099751197296861,0,70,255.0,255.0,255.0
234,11.700000000000001,8.051358931567451,6.88048636050892,-4.970795012440137,0.09058420070980329,-0.10159557796318294,-0.8165615183425493,0.009168459862427489,-0.005266991902817719,-0.06139636363570809,0,70,255.0,255.0,255.0
235,11.75,8.0559,6.8754,-5.0117,0.09106649303674198,-0.1018587998112916,-0.8196413078159032,0.010123233215120986,-0.005261882021528552,-0.06179521529844845,0,70,255.0,255.0,255.0
236,11.8,8.060465314898979,6.870299915727037,-5.052758977990463,0.09153282703486289,-0.10215590970468993,-0.8227111834134403,0.008530126709714958,-0.006622513714404296,-0.06099980860303321,0,70,255.0,255.0,255.0
237,11.850000000000001,8.065051955114733,6.8651832751697865,-5.093970455502433,0.0919195057077135,-0.10252105118273204,-0.8257412886762066,0.0069370202043089295,-0.00798314540728004,-0.06020440190761798,0,70,255.0,255.0,255.0
238,11.9,8.069655937880995,6.860046676749019,-5.13533244401917,0.09222652905529378,-0.10295422424541793,-0.828731623604202,0.005343913698902958,-0.009343777100155735,-0.05940899521220277,0,70,255.0,255.0,255.0
239,11.950000000000001,8.074273280431507,6.854886718885501,-5.17684295502394,0.09245389707760378,-0.10345542889274761,-0.8316821881974268,0.0037508071934969295,-0.01070440879303148,-0.05861358851678754,0,70,255.0,255.0,255.0
240,12.0,8.0789,6.8497,-5.2185,0.09260160977464346,-0.10402466512472107,-0.8345929824558808,0.0021577006880906247,-0.012065040485907175,-0.05781818182137233,0,70,255.0,255.0,255.0
241,12.05,8.083533434969873,6.844484351033528,-5.260302281339704,0.09274893612576894,-0.1045879817267613,-0.8375054609249235,0.0037353533569282286,-0.010467623595701525,-0.05868095694033234,0,70,255.0,255.0,255.0
242,12.100000000000001,8.088176208323134,6.839242533008066,-5.302251265071759,0.09297514511033629,-0.10507142748429124,-0.8404610781499141,0.0053130060257658325,-0.008870206705495876,-0.05954373205929236,0,70,255.0,255.0,255.0
243,12.15,8.092832264191463,6.833978539465841,-5.344349108133961,0.09328023672834551,-0.10547500239731088,-0.8434598341308527,0.00689065869460338,-0.0072727898152902815,-0.06040650717825234,0,70,255.0,255.0,255.0
244,12.200000000000001,8.097505546706527,6.828696363949076,-5.38659796746411,0.09366421097979663,-0.10579870646582026,-0.8465017288677392,0.008468311363440985,-0.005675372925084631,-0.06126928229721235,0,70,255.0,255.0,255.0
245,12.25,8.1022,6.8234,-5.429,0.0941270678646896,-0.10604253968981935,-0.8495867623605738,0.01004596403227831,-0.004077956034878594,-0.062132057416174113,0,70,255.0,255.0,255.0
246,12.3,8.106918545221538,6.818092280138854,-5.471556696650725,0.0946074284620564,-0.10627616338826175,-0.852674972886871,0.009168459862393506,-0.005266991902817559,-0.061396363635709675,0,70,255.0,255.0,255.0
247,12.350000000000001,8.111660011592729,6.812771392797951,-5.514266884210538,0.09504391385092897,-0.1065692388801011,-0.8557263987241449,0.008290955692508702,-0.006456027770756523,-0.06066066985524523,0,70,255.0,255.0,255.0
248,12.4,8.116422205353155,6.80743436538762,-5.557128723444988,0.09543652403130728,-0.1069217661653374,-0.8587410398723955,0.007413451522623931,-0.007645063638695446,-0.05992497607478082,0,70,255.0,255.0,255.0
249,12.450000000000001,8.121202932742387,6.802078225318193,-5.600140375119627,0.09578525900319136,-0.10733374524397064,-0.8617188963316229,0.006535947352739128,-0.00883409950663441,-0.05918928229431638,0,70,255.0,255.0,255.0
250,12.5,8.126,6.7967,-5.6433,0.0960901187665812,-0.10780517611600084,-0.8646599681018272,0.005658443182854689,-0.010023135374573555,-0.0584535885138564,0,70,255.0,255.0,255.0
251,12.55,8.130811584143979,6.791297728411057,-5.686606132057402,0.09637335002599158,-0.10827536472019109,-0.867586647527593,0.005670807193560612,-0.008784408793036085,-0.05861358851677139,0,70,255.0,255.0,255.0
252,12.600000000000001,8.135637345305941,6.785873495800132,-5.730058798086096,0.09665719948593728,-0.10868361699530446,-0.8705213269535044,0.005683171204266535,-0.007545682211498615,-0.05877358851968637,0,70,255.0,255.0,255.0
253,12.65,8.140477314395914,6.780430398983678,-5.773658398086088,0.09694166714641825,-0.10902993294134095,-0.8734640063795616,0.005695535214972458,-0.006306955629961189,-0.05893358852260135,0,70,255.0,255.0,255.0
254,12.700000000000001,8.145331522323925,6.77497153477815,-5.817405332057388,0.09722675300743451,-0.10931431255830057,-0.8764146858057645,0.005707899225678381,-0.005068229048423719,-0.05909358852551634,0,70,255.0,255.0,255.0
255,12.75,8.1502,6.7695,-5.8613,0.09751245706898608,-0.10953675584618333,-0.8793733652321132,0.005720263236384526,-0.003829502466886403,-0.05925358852842777,0,70,255.0,255.0,255.0
256,12.8,8.155083118202548,6.764017606216917,-5.905342775119671,0.09781917143398097,-0.10977437773098217,-0.8823384370027547,0.006548311363411264,-0.005675372925067394,-0.05934928229723226,0,70,255.0,255.0,255.0
257,12.850000000000001,8.159982607183503,6.75852102400152,-5.949533923445085,0.09816728820532722,-0.11010429313869008,-0.8853082934618365,0.007376359490438002,-0.007521243383248385,-0.05944497606603676,0,70,255.0,255.0,255.0
258,12.9,8.164900537063188,6.753005638677665,-5.993873684210661,0.09855680738302477,-0.11052650206930702,-0.8882829346093584,0.00820440761746471,-0.009367113841429311,-0.059540669834841256,0,70,255.0,255.0,255.0
259,12.950000000000001,8.169838977961913,6.747466835569208,-6.038362296650827,0.09898772896707368,-0.11104100452283301,-0.8912623604453206,0.009032455744491448,-0.0112129842996103,-0.05963636360364575,0,70,255.0,255.0,255.0
260,13.0,8.1748,6.7419,-6.083,0.09946005295747393,-0.11164780049926804,-0.8942465709697229,0.009860503871518267,-0.013058854757791671,-0.05973205737244669,0,70,255.0,255.0,255.0
261,13.05,8.17978474304583,6.736302246721277,-6.12778676746392,0.09991796423808026,-0.11224312435587858,-0.8972196044613917,0.008455947352734784,-0.010754099506630123,-0.05918928229430093,0,70,255.0,255.0,255.0
262,13.100000000000001,8.184790625960042,6.730677608193789,-6.172721508133575,0.10030564769274741,-0.11272321044993107,-0.9001654991991531,0.007051390833951303,-0.008449344255468573,-0.05864650721615517,0,70,255.0,255.0,255.0
263,13.15,8.18981413735134,6.72503184630566,-6.21780286507127,0.10062310332147538,-0.11308805878142544,-0.9030842551830072,0.005646834315167871,-0.006144589004307106,-0.05810373213800943,0,70,255.0,255.0,255.0
264,13.200000000000001,8.194851765828425,6.719370722945022,-6.26302948133931,0.1008703311242642,-0.11333766935036177,-0.905975872412954,0.004242277796384389,-0.0038398337531455554,-0.05756095705986367,0,70,255.0,255.0,255.0
265,13.25,8.1999,6.7137,-6.3084,0.10104733110111383,-0.11347204215674002,-0.9088403508889935,0.0028377212776009575,-0.0015350785019844215,-0.057018181981716154,0,70,255.0,255.0,255.0
266,13.3,8.204956309614131,6.708023806897975,-6.353913355024654,0.10121297161369679,-0.11358912484550077,-0.9116951451516744,0.0037878992257170422,-0.003148229048445384,-0.057173588525519396,0,70,255.0,255.0,255.0
267,13.350000000000001,8.210022088976325,6.702339743223328,-6.399569644020622,0.10142612102368553,-0.11378686506158457,-0.9145577097415456,0.004738077173833127,-0.004761379594906347,-0.05732899506932263,0,70,255.0,255.0,255.0
268,13.4,8.215099713531457,6.696643776099695,-6.445369255504261,0.10168677933108008,-0.11406526280499141,-0.9174280446586066,0.005688255121949178,-0.006374530141367252,-0.05748440161312587,0,70,255.0,255.0,255.0
269,13.450000000000001,8.220191558724391,6.690931872650706,-6.491312577991935,0.10199494653588045,-0.11442431807572129,-0.9203061499028582,0.006638433070065262,-0.007987680687828215,-0.05763980815692911,0,70,255.0,255.0,255.0
270,13.5,8.2253,6.6852,-6.5374,0.10235062263808663,-0.11486403087377421,-0.9231920254742996,0.007588611018181202,-0.009600831234289564,-0.057795214700727016,0,70,255.0,255.0,255.0
271,13.55,8.230426818497648,6.679444925686824,-6.583631812437467,0.10271814930715185,-0.1153363762621214,-0.926079814931909,0.0071124557444276855,-0.009292984299597969,-0.05771636360364702,0,70,255.0,255.0,255.0
272,13.600000000000001,8.235571418134654,6.6736666189129,-6.630007915783944,0.10306186821252941,-0.11579332930373402,-0.9289636618346644,0.00663630047067417,-0.008985137364906373,-0.05763751250656703,0,70,255.0,255.0,255.0
273,13.65,8.240732608522839,6.667865849295564,-6.676528112911686,0.10338177935421926,-0.11623488999861205,-0.9318435661825657,0.006160145196920671,-0.008677290430214788,-0.057558661409487046,0,70,255.0,255.0,255.0
274,13.700000000000001,8.245909199274015,6.662043386452151,-6.7231922066929535,0.10367788273222146,-0.1166610583467555,-0.934719527975613,0.005683989923167155,-0.008369443495523193,-0.05747981031240705,0,70,255.0,255.0,255.0
275,13.75,8.2511,6.6562,-6.77,0.10395017834653597,-0.11707183434816436,-0.9375915472138062,0.005207834649413545,-0.008061596560832052,-0.05740095921532795,0,70,255.0,255.0,255.0
276,13.8,8.256304416395283,6.650336490354727,-6.816951395225479,0.10423443115768166,-0.11746537010601402,-0.9404655951206861,0.006162277796414109,-0.007679833753153992,-0.05756095705986493,0,70,255.0,255.0,255.0
277,13.850000000000001,8.261524238485057,6.644453781125072,-6.864046692843607,0.10456640612617739,-0.11783981772347976,-0.9433476429197928,0.007116720943414672,-0.007298070945475932,-0.057720954904401905,0,70,255.0,255.0,255.0
278,13.9,8.26676185237719,6.638552826718053,-6.911286292848994,0.10494610325202314,-0.11819517720056161,-0.9462376906111263,0.008071164090415202,-0.006916308137797885,-0.057880952748938876,0,70,255.0,255.0,255.0
279,13.950000000000001,8.272019644179547,6.632634581540688,-6.9586705952362555,0.10537352253521891,-0.11853144853725955,-0.9491357381946867,0.009025607237415766,-0.0065345453301198266,-0.05804095059347585,0,70,255.0,255.0,255.0
280,14.0,8.2773,6.6267,-7.0062,0.1058486639757647,-0.1188486317335736,-0.9520417856704739,0.009980050384416295,-0.006152782522441891,-0.05820094843801371,0,70,255.0,255.0,255.0
281,14.05,8.28260431592122,6.620749912894266,-7.053874606660621,0.10631212606212748,-0.11915414331383005,-0.9549378045853479,0.008558433070094898,-0.006067680687815667,-0.05763980815694367,0,70,255.0,255.0,255.0
282,14.100000000000001,8.287930027925118,6.614784656586812,-7.101693312841635,0.10670450728277421,-0.11945539980235517,-0.9578057664861683,0.0071368157557735,-0.005982578853189444,-0.057078667875873616,0,70,255.0,255.0,255.0
283,14.15,8.293273581968403,6.608804443832225,-7.1496547156923365,0.10702580763770485,-0.119752401199149,-0.9606456713729353,0.005715198441452153,-0.005897477018563224,-0.05651752759480359,0,70,255.0,255.0,255.0
284,14.200000000000001,8.298631424007793,6.602809487385092,-7.197757412362027,0.10727602712691942,-0.1200451475042115,-0.9634575192456487,0.004293581127130755,-0.005812375183937,-0.05595638731373355,0,70,255.0,255.0,255.0
285,14.25,8.304,6.5968,-7.246,0.10745516575041793,-0.12033363871754268,-0.9662413101043085,0.0028719638128097413,-0.00572727334931078,-0.05539524703266263,0,70,255.0,255.0,255.0
286,14.3,8.309376719919833,6.590775858068208,-7.294381378132041,0.10762106459381575,-0.12063805663866366,-0.9690151865379345,0.0037639899231033964,-0.006449443495527839,-0.05555981031237725,0,70,255.0,255.0,255.0
287,14.350000000000001,8.314762849814473,6.584735592527678,-7.342901655789862,0.10783156474272827,-0.12097858306709548,-0.9717972911355462,0.004656016033397051,-0.007171613641744899,-0.05572437359209186,0,70,255.0,255.0,255.0
288,14.4,8.320160619749199,6.578677397953044,-7.391561244381662,0.10808666619715547,-0.12135521800283813,-0.9745876238971437,0.005548042143690674,-0.007893783787961933,-0.055888936871806474,0,70,255.0,255.0,255.0
289,14.450000000000001,8.325572259789281,6.5725994689189395,-7.4403605553156416,0.10838636895709734,-0.12176796144589166,-0.9773861848227269,0.0064400682539843285,-0.008615953934178992,-0.056053500151521087,0,70,255.0,255.0,255.0
290,14.5,8.331,6.5665,-7.4893,0.10873067302255388,-0.12221681339625605,-0.9801929739122958,0.007332094364278063,-0.009338124080396137,-0.056218063431237475,0,70,255.0,255.0,255.0
291,14.55,8.336445604399447,6.5603778548328995,-7.538379880811222,0.1090916155625972,-0.12266163013151885,-0.9830014492629139,0.007105607237454367,-0.008454545330115436,-0.0561209505934821,0,70,255.0,255.0,255.0
292,14.600000000000001,8.341908972816988,6.554234573302472,-7.587600063998928,0.10944123374629933,-0.1230622679292676,-0.985805068971644,0.00687912011063067,-0.007570966579834734,-0.056023837755726724,0,70,255.0,255.0,255.0
293,14.65,8.347389539034804,6.548072364355598,-7.636960306781021,0.10977952757366025,-0.12341872678950232,-0.9886038330384864,0.0066526329838069815,-0.006687387829554064,-0.05592672491797135,0,70,255.0,255.0,255.0
294,14.700000000000001,8.35288673683508,6.541893436939147,-7.686460366375411,0.11010649704468002,-0.12373100671222301,-0.9913977414634412,0.006426145856983285,-0.005803809079273362,-0.05582961208021597,0,70,255.0,255.0,255.0
295,14.75,8.3584,6.5357,-7.7361,0.11042214215935858,-0.12399910769742965,-0.994186794246508,0.006199658730159374,-0.004920230328992248,-0.0557324992424606,0,70,255.0,255.0,255.0
296,14.8,8.36392886248238,6.5294935226001956,-7.7858790986230755,0.11073247315579159,-0.12426742283525288,-0.996979016410413,0.006213581127160506,-0.005812375183936814,-0.055956387313732314,0,70,255.0,255.0,255.0
297,14.850000000000001,8.369473258917576,6.523272514262429,-7.835798088214436,0.11104350027207464,-0.12458034521582334,-0.9997824329778813,0.006227503524161637,-0.006704520038881382,-0.05618027538500404,0,70,255.0,255.0,255.0
298,14.9,8.375033224111583,6.517034744624566,-7.885857528494256,0.11135522350820774,-0.12493787483914102,-1.0025970439489131,0.0062414259211627686,-0.007596664893825917,-0.05640416345627575,0,70,255.0,255.0,255.0
299,14.950000000000001,8.380608792870394,6.510777983324469,-7.93605797918272,0.11166764286419091,-0.12534001170520592,-1.005422849323509,0.006255348318163901,-0.008488809748770483,-0.05662805152754747,0,70,255.0,255.0,255.0
300,15.0,8.3862,6.5045,-7.9864,0.11198075834002413,-0.12578675581401805,-1.008259849101668,0.006269270715164588,-0.009380954603714908,-0.05685193959882007,0,70,255.0,255.0,255.0
301,15.05,8.391806945671036,6.498199254766323,-8.03688372469648,0.112298491814252,-0.12623667852746584,-1.0110824850954268,0.006440068253950051,-0.008615953934196242,-0.05605350015152161,0,70,255.0,255.0,255.0
302,15.100000000000001,8.397429991512707,6.491876969647811,-8.087507583143337,0.11262476516541915,-0.12664835120743767,-1.0138651991168204,0.006610865792735515,-0.007850953264677574,-0.05525506070422315,0,70,255.0,255.0,255.0
303,15.15,8.40306956451886,6.485535057146138,-8.138269579241955,0.11295957839352555,-0.1270217738539336,-1.0166079911658488,0.0067816633315209715,-0.007085952595158934,-0.054456621256924714,0,70,255.0,255.0,255.0
304,15.200000000000001,8.408726091683343,6.479175429762976,-8.189167716893715,0.11330293149857124,-0.12735694646695356,-1.0193108612425128,0.006952460870306435,-0.0063209519256402676,-0.053658181809626254,0,70,255.0,255.0,255.0
305,15.25,8.4144,6.4728,-8.2402,0.11365482448055618,-0.12765386904649764,-1.0219738093468114,0.00712325840909156,-0.005555951256121849,-0.052859742362326045,0,70,255.0,255.0,255.0
306,15.3,8.420091354833477,6.466410258334512,-8.29136520259101,0.1139935595872072,-0.12793786305488253,-1.024643043207876,0.0064261458569491075,-0.005803809079273184,-0.05390961208025475,0,70,255.0,255.0,255.0
307,15.350000000000001,8.425798775031595,6.460006007146327,-8.342665179212222,0.11429743906625109,-0.12823424995442495,-1.027364770554837,0.0057290333048066544,-0.0060516669024245195,-0.05495948179818345,0,70,255.0,255.0,255.0
308,15.4,8.431520517812974,6.453586626790884,-8.394102554537923,0.11456646291768788,-0.12854302974512496,-1.0301389913876944,0.005031920752664227,-0.006299524725575847,-0.05600935151611211,0,70,255.0,255.0,255.0
309,15.450000000000001,8.437254840396236,6.447151497623627,-8.445679953242422,0.11480063114151752,-0.12886420242698257,-1.0329657057064483,0.004334808200521774,-0.006547382548727182,-0.057059221234040815,0,70,255.0,255.0,255.0
310,15.5,8.443,6.4407,-8.4974,0.11499994373774006,-0.1291977679999977,-1.0358449135110985,0.0036376956483799017,-0.006795240371878508,-0.0581090909519677,0,70,255.0,255.0,255.0
311,15.55,8.44875483499506,6.434231711895627,-8.549264264939486,0.11519926983690462,-0.1295318692530136,-1.0387133420730856,0.004335348318202536,-0.006568809748757728,-0.0566280515275128,0,70,255.0,255.0,255.0
312,15.600000000000001,8.454520508360917,6.4277470017668845,-8.60127010000779,0.11543347856956032,-0.12985464897487345,-1.0415077186638497,0.005033000988025169,-0.006342379125636948,-0.055147012103057905,0,70,255.0,255.0,255.0
313,15.65,8.46029876422924,6.4212464356903265,-8.653413802606352,0.11570256993570713,-0.13016610716557728,-1.0442280432833912,0.0057306536578477785,-0.006115948502516176,-0.053665972678603055,0,70,255.0,255.0,255.0
314,15.700000000000001,8.46609134673171,6.414730579742512,-8.70569167013661,0.11600654393534508,-0.1304662438251251,-1.0468743159317102,0.006428306327670412,-0.005889517879395395,-0.052184933254148164,0,70,255.0,255.0,255.0
315,15.75,8.4719,6.4082,-8.7581,0.11634540056847419,-0.13075505895351683,-1.0494465366088062,0.0071259589974931314,-0.00566308725627418,-0.05070389382969687,0,70,255.0,255.0,255.0
316,15.8,8.477726105186283,6.401654894082975,-8.810636137651054,0.11669736106517002,-0.13105465993306425,-1.0520075884997886,0.006952460870340202,-0.006320951925623285,-0.051738181809596655,0,70,255.0,255.0,255.0
317,15.850000000000001,8.483569591524745,6.3950939857861355,-8.863301620756632,0.11704064665550822,-0.13138715414607918,-1.054620354789766,0.006778962743187273,-0.006978816594972389,-0.05277246978949644,0,70,255.0,255.0,255.0
318,15.9,8.489430025270062,6.388515630447809,-8.91609903503668,0.11737525733948875,-0.1317525415925615,-1.057284835478738,0.0066054646160343495,-0.00763668126432147,-0.05380675776939619,0,70,255.0,255.0,255.0
319,15.950000000000001,8.49530697267692,6.381918183406322,-8.969030966211156,0.11770119311711165,-0.13215082227251132,-1.0600010305667054,0.0064319664888814205,-0.008294545933670575,-0.05484104574929598,0,70,255.0,255.0,255.0
320,16.0,8.5012,6.3753,-9.0221,0.11801845398837689,-0.13258199618592856,-1.0627689400536677,0.006258468361728053,-0.008952410603019212,-0.05587533372919218,0,70,255.0,255.0,255.0
321,16.05,8.507108744259805,6.368659911772473,-9.075307984456305,0.11833128590243218,-0.13301749101472296,-1.0655443039277495,0.006254808200483297,-0.008467382548756713,-0.055139221234077586,0,70,255.0,255.0,255.0
322,16.1,8.51303312554011,6.3619986550885725,-9.128653816965697,0.11864393480842522,-0.13342873444080422,-1.0682828621770757,0.006251148039238541,-0.007982354494494212,-0.054403108738962994,0,70,255.0,255.0,255.0
323,16.150000000000002,8.518973134690512,6.355317442518436,-9.182135657246937,0.11895640070635603,-0.1338157264641724,-1.0709846148016458,0.006247487877993785,-0.0074973264402317125,-0.0536669962438484,0,70,255.0,255.0,255.0
324,16.2,8.52492876256061,6.348617486632201,-9.23575166501878,0.1192686835962246,-0.1341784670848274,-1.0736495618014603,0.006243827716749029,-0.007012298385969247,-0.05293088374873386,0,70,255.0,255.0,255.0
325,16.25,8.5309,6.3419,-9.2895,0.11958078347803093,-0.1345169563027693,-1.076277703176519,0.006240167555504494,-0.006527270331706303,-0.052194771253610384,0,70,255.0,255.0,255.0
326,16.3,8.5368869177745,6.335166258827135,-9.343379124523727,0.11989749532510946,-0.13482737600804684,-1.078887195789213,0.006428306327636582,-0.005889517879395125,-0.05218493325414784,0,70,255.0,255.0,255.0
327,16.35,8.542889906314823,6.328417793859572,-9.397388711380591,0.1202236141107946,-0.13510590809070883,-1.0814961965019338,0.006616445099768669,-0.0052517654270839475,-0.05217509525468529,0,70,255.0,255.0,255.0
328,16.400000000000002,8.548909435967891,6.321656199478441,-9.45152873597559,0.12055913983508634,-0.13535255255075523,-1.0841047053146815,0.006804583871900757,-0.004614012974772769,-0.05216525725522274,0,70,255.0,255.0,255.0
329,16.45,8.55494597708064,6.314883070064874,-9.505799173713722,0.12090407249798465,-0.1355673093881861,-1.086712722227456,0.006992722644032831,-0.003976260522461637,-0.05215541925576019,0,70,255.0,255.0,255.0
330,16.5,8.561,6.3081,-9.5602,0.12125841209948962,-0.13575017860300143,-1.0893202472402577,0.00718086141616503,-0.003338508070150681,-0.05214558125629587,0,70,255.0,255.0,255.0
331,16.55,8.567071584642193,6.301307852918986,-9.614731517448789,0.12159873279711662,-0.13594500495309633,-1.0919469129153967,0.006431966488915275,-0.004454545933645287,-0.052921045749264914,0,70,255.0,255.0,255.0
332,16.6,8.573159249200605,6.294504569473137,-9.669395337511952,0.12190160874838116,-0.13619563319636596,-1.0946123518151842,0.005683071561665521,-0.005570583797139893,-0.053696510242233965,0,70,255.0,255.0,255.0
333,16.650000000000002,8.579261121437924,6.287687359567795,-9.724193398850721,0.1221670399532832,-0.13650206333281031,-1.09731656393962,0.004934176634415767,-0.006686621660634499,-0.05447197473520301,0,70,255.0,255.0,255.0
334,16.7,8.585375329116827,6.280853433108303,-9.779127640126323,0.12239502641182273,-0.1368642953624294,-1.1000595492887044,0.004185281707166066,-0.007802659524129025,-0.055247439228172004,0,70,255.0,255.0,255.0
335,16.75,8.5915,6.274,-9.8342,0.12258556812399979,-0.13728232928522321,-1.1028413078624373,0.0034363867799158676,-0.00891869738762363,-0.056022903721137496,0,70,255.0,255.0,255.0
336,16.8,8.597633943656733,6.2671247294969215,-9.889411605681117,0.12277957348641652,-0.13772860417956334,-1.1056131525491848,0.004323827716753405,-0.008932298385981597,-0.05485088374875778,0,70,255.0,255.0,255.0
337,16.85,8.603778696882754,6.2602271282478785,-9.94476033857161,0.12301795089567513,-0.13817555912382137,-1.108326396237313,0.0052112686535909425,-0.008945899384339562,-0.05367886377637806,0,70,255.0,255.0,255.0
338,16.900000000000002,8.609936478280414,6.253307162250374,-10.00024326862154,0.12330070035177564,-0.1386231941179973,-1.1109810389268227,0.0060987095904284794,-0.008959500382697529,-0.052506843803998345,0,70,255.0,255.0,255.0
339,16.95,8.616109506452048,6.246364797501913,-10.055857465780978,0.12362782185471798,-0.13907150916209113,-1.1135770806177128,0.006986150527265953,-0.008973101381055492,-0.051334823831618706,0,70,255.0,255.0,255.0
340,17.0,8.6223,6.2394,-10.1116,0.12399931540450222,-0.13952050425610288,-1.1161145213099846,0.007873591464103824,-0.00898670237941368,-0.05016280385924077,0,70,255.0,255.0,255.0
341,17.05,8.628509440730879,6.232413229093328,-10.16746845982674,0.12437097325720566,-0.13994057832864998,-1.1186244768878606,0.006992722644033088,-0.007816260522469892,-0.05023541925579949,0,70,255.0,255.0,255.0
342,17.1,8.63473636326837,6.2254069175353495,-10.223462508201616,0.12469858766890554,-0.14030213030834987,-1.1211380632355645,0.006111853823962352,-0.006645818665526104,-0.050308034652358204,0,70,255.0,255.0,255.0
343,17.150000000000002,8.64097856544042,6.218383991430706,-10.279582326663126,0.12498215863960191,-0.14060516019520258,-1.1236552803530966,0.005230985003891615,-0.005475376808582316,-0.050380650048916925,0,70,255.0,255.0,255.0
344,17.2,8.64723384507498,6.211347376884043,-10.335828096749756,0.1252216861692947,-0.14084966798920812,-1.126176128240456,0.004350116183820941,-0.0043049349516386115,-0.05045326544547563,0,70,255.0,255.0,255.0
345,17.25,8.6535,6.2043,-10.3922,0.125417170257984,-0.14103565369036644,-1.128700606897644,0.003469247363749428,-0.0031344930946948235,-0.050525880842034354,0,70,255.0,255.0,255.0
346,17.3,8.659775493419746,6.1972439541297675,-10.44869855501193,0.1256085334847577,-0.14121308250583683,-1.1312489398993977,0.00418528170719955,-0.003962659524120905,-0.05140743922811099,0,70,255.0,255.0,255.0
347,17.35,8.666061450043761,6.190178001610725,-10.50532562862193,0.12583569842870396,-0.14143191964277854,-1.1338413508204552,0.004901316050649671,-0.004790825953546986,-0.05228899761418762,0,70,255.0,255.0,255.0
348,17.400000000000002,8.672359659957904,6.183100072026798,-10.562083424725966,0.1260986650898227,-0.14169216510119154,-1.1364778396608164,0.005617350394099793,-0.005618992382973066,-0.05317055600026425,0,70,255.0,255.0,255.0
349,17.45,8.67867191324803,6.176008094961915,-10.61897414722,0.1263974334681139,-0.14199381888107585,-1.1391584064204814,0.006333384737549864,-0.006447158812399089,-0.05405211438634082,0,70,255.0,255.0,255.0
350,17.5,8.685,6.1689,-10.676,0.12673200356357764,-0.14233688098243147,-1.1418830510994507,0.00704941908099932,-0.007275325241825392,-0.05493367277242278,0,70,255.0,255.0,255.0
351,17.55,8.691345385590132,6.161774154387601,-10.733162120125549,0.12708289280378343,-0.14269509164800362,-1.1445877635145516,0.006986150527232082,-0.007053101381060142,-0.05325482383161704,0,70,255.0,255.0,255.0
352,17.6,8.697708236556585,6.15463067602175,-10.790457377310672,0.12743061861630087,-0.1430421911205375,-1.1472085334826125,0.006922881973464843,-0.006830877520294891,-0.05157597489081129,0,70,255.0,255.0,255.0
353,17.650000000000002,8.704088394727968,6.147470120462098,-10.847881574433027,0.12777518100112992,-0.1433781794000331,-1.149745361003633,0.006859613419697605,-0.006608653659529642,-0.04989712595000555,0,70,255.0,255.0,255.0
354,17.7,8.710485701932901,6.140293043268298,-10.90543051437025,0.1281165799582706,-0.14370305648649043,-1.1521982460776128,0.006796344865930371,-0.006386429798764407,-0.04821827700919992,0,70,255.0,255.0,255.0
355,17.75,8.7169,6.1331,-10.9631,0.12845481548772297,-0.14401682237990956,-1.1545671887045528,0.006733076312163355,-0.0061642059379989345,-0.04653942806838707,0,70,255.0,255.0,255.0
356,17.8,8.723330964219723,6.125891428319826,-11.020887364485889,0.12877989530012163,-0.14432655090215038,-1.1569440060423992,0.006270116183782187,-0.006224934951633855,-0.04853326544547623,0,70,255.0,255.0,255.0
357,17.85,8.729777603729907,6.1186672943022735,-11.07879606213539,0.1290818271061012,-0.14463931587507295,-1.1594205152491006,0.005807156055401017,-0.006285663965268775,-0.050527102822565395,0,70,255.0,255.0,255.0
358,17.900000000000002,8.73623876113023,6.111427446124807,-11.136831077541949,0.12936061090566173,-0.14495511729867727,-1.161996716324656,0.005344195927019848,-0.006346392978903694,-0.05252094019965456,0,70,255.0,255.0,255.0
359,17.95,8.742713279020364,6.104171731964894,-11.194997395299,0.12961624669880317,-0.14527395517296332,-1.1646726092690658,0.004881235798638712,-0.00640712199253861,-0.054514777576743584,0,70,255.0,255.0,255.0
360,18.0,8.7492,6.0969,-11.2533,0.12984873448552559,-0.14559582949793115,-1.1674481940823302,0.004418275670257543,-0.006467851006173753,-0.05650861495383275,0,70,255.0,255.0,255.0
361,18.05,8.755697957530975,6.089612132333093,-11.311742021930906,0.13006952599572172,-0.1459187047433955,-1.1702122123158347,0.004413384737588011,-0.006447158812399323,-0.05405211438634542,0,70,255.0,255.0,255.0
362,18.1,8.762206948523795,6.082308146769154,-11.37031917414778,0.1302900729592844,-0.14624054537917108,-1.172853405520965,0.0044084938049184785,-0.006426466618624892,-0.051595613818858084,0,70,255.0,255.0,255.0
363,18.150000000000002,8.768726960751128,6.07498809503867,-11.429025315399198,0.1305103753762136,-0.14656135140525797,-1.1753717736977205,0.004403602872248946,-0.0064057744248504625,-0.049139113251370756,0,70,255.0,255.0,255.0
364,18.2,8.77525798198564,6.067652028872124,-11.487854304433741,0.13073043324650926,-0.14688112282165613,-1.177767316846102,0.004398711939579414,-0.0063850822310760336,-0.0466826126838836,0,70,255.0,255.0,255.0
365,18.25,8.7818,6.0603,-11.5468,0.1309502465701715,-0.14719985962836557,-1.1800400349661087,0.0043938210069094374,-0.006364390037301604,-0.04422611211639449,0,70,255.0,255.0,255.0
366,18.3,8.788353205656374,6.052932042347801,-11.605858147790489,0.13118200071699262,-0.14751863012426722,-1.1823031446942494,0.004876344865934896,-0.006386429798764404,-0.04629827700923602,0,70,255.0,255.0,255.0
367,18.35,8.794918602174917,6.045548118621104,-11.665032041273504,0.13143788105676502,-0.14783850260824202,-1.1846698626670322,0.005358868724960356,-0.006408469560227204,-0.048370441902077545,0,70,255.0,255.0,255.0
368,18.400000000000002,8.801497395865269,6.038148173720508,-11.724326860861272,0.13171788758948866,-0.14815947708028995,-1.1871401888844573,0.0058413925839858145,-0.0064305093216900045,-0.050442606794919076,0,70,255.0,255.0,255.0
369,18.45,8.80809079303708,6.030732152546609,-11.783747786966025,0.13202202031516358,-0.148481553540411,-1.189714123346524,0.006323916443011239,-0.0064525490831528025,-0.052514771687760455,0,70,255.0,255.0,255.0
370,18.5,8.8147,6.0233,-11.8433,0.13235027923378978,-0.14880473198860522,-1.1923916660532334,0.006806440302035366,-0.006474588844615159,-0.05458693658060021,0,70,255.0,255.0,255.0
371,18.55,8.821326019843525,6.015851698275702,-11.902986986907136,0.13269047113630653,-0.1491267747595341,-1.1950712089071673,0.006801235798633787,-0.0064071219925386546,-0.05259477757674664,0,70,255.0,255.0,255.0
372,18.6,8.827969042776544,6.0083873787464235,-11.962805460758215,0.13303040281365316,-0.1494454441878591,-1.197651143810908,0.006796031295232208,-0.006339655140462151,-0.05060261857289307,0,70,255.0,255.0,255.0
373,18.650000000000002,8.834629055787804,6.000907210079293,-12.022750441155726,0.13337007426582975,-0.1497607402735803,-1.2001314707644566,0.006790826791830629,-0.006272188288385647,-0.04861045956903949,0,70,255.0,255.0,255.0
374,18.7,8.841306045866041,5.993411360941442,-12.082816947702154,0.1337094854928362,-0.15007266301669764,-1.202512189767812,0.00678562228842905,-0.0062047214363091475,-0.04661830056518606,0,70,255.0,255.0,255.0
375,18.75,8.848,5.9859,-12.143,0.1340486364946726,-0.1503812124172112,-1.2047933008209748,0.006780417785026804,-0.006137254584232199,-0.04462614156132361,0,70,255.0,255.0,255.0
376,18.8,8.85471071496953,5.97837316454939,-12.20329630458097,0.13437611473778766,-0.15069427083759393,-1.207076019677104,0.006318711939574888,-0.0063850822310759486,-0.046682612683845576,0,70,255.0,255.0,255.0
377,18.85,8.861437226718909,5.970830366393201,-12.26370931569365,0.1346805076886301,-0.1510197206403188,-1.2094615620893594,0.005857006094122972,-0.006632909877919697,-0.048739083806367545,0,70,255.0,255.0,255.0
378,18.900000000000002,8.868178380983522,5.9632709859623185,-12.324244174515844,0.13496181534719995,-0.1513575618253859,-1.2119499280577408,0.0053953002486710555,-0.006880737524763447,-0.05079555492888952,0,70,255.0,255.0,255.0
379,18.95,8.874933023498757,5.955694403687624,-12.384906022225355,0.13522003771349722,-0.1517077943927951,-1.2145411175822483,0.004933594403219173,-0.007128565171607178,-0.052852026051411344,0,70,255.0,255.0,255.0
380,19.0,8.8817,5.9481,-12.4457,0.13545517478752186,-0.15207041834254656,-1.217235130662882,0.004471888557766812,-0.00737639281845115,-0.05490849717392976,0,70,255.0,255.0,255.0
381,19.05,8.88847832027836,5.940487643526739,-12.506629394768993,0.13567706991254058,-0.15241614189008665,-1.2199207123844233,0.004403916442981036,-0.006452549083152923,-0.05251477168772706,0,70,255.0,255.0,255.0
382,19.1,8.895267650347826,5.932859155680771,-12.567690076467205,0.13589556643181996,-0.15271567325086186,-1.2224866078316547,0.0043359443281952605,-0.0055287053478546965,-0.050121046201524355,0,70,255.0,255.0,255.0
383,19.150000000000002,8.902067820278113,5.925216846071432,-12.628876060780923,0.13611066434536012,-0.15296901242487215,-1.224932817004576,0.004267972213409485,-0.004604861612556471,-0.04772732071532165,0,70,255.0,255.0,255.0
384,19.200000000000003,8.908878660138932,5.917563024308063,-12.690181363396427,0.13632236365316092,-0.1531761594121175,-1.227259339903187,0.004200000098623709,-0.0036810178772582443,-0.04533359522911895,0,70,255.0,255.0,255.0
385,19.25,8.9157,5.9099,-12.7516,0.1365306643552225,-0.153337114212598,-1.2294661765274877,0.004132027983837716,-0.0027571741419603057,-0.04293986974290931,0,70,255.0,255.0,255.0
386,19.3,8.922532003917034,5.902229061343654,-12.813127716343065,0.13675560561203012,-0.15351316160205483,-1.231657130785191,0.004865622288467108,-0.004284721436313376,-0.04469830056521789,0,70,255.0,255.0,255.0
387,19.35,8.929376171889789,5.894547410883717,-12.874767178437539,0.1370172265840692,-0.15376558635622936,-1.2339360065840097,0.0055992165930965,-0.005812268730666446,-0.04645673138752647,0,70,255.0,255.0,255.0
388,19.400000000000002,8.936234337904029,5.886851229751952,-12.936522782360484,0.13731552727133978,-0.1540943884751215,-1.2363028039239436,0.006332810897725891,-0.007339816025019518,-0.048215162209835044,0,70,255.0,255.0,255.0
389,19.450000000000003,8.943108335945512,5.879136699080124,-12.998398924188955,0.1376505076738418,-0.1544995679587313,-1.238757522804993,0.007066405202355283,-0.008867363319372587,-0.049973593032143625,0,70,255.0,255.0,255.0
390,19.5,8.95,5.8714,-13.0604,0.13802216779157528,-0.1549811248070587,-1.2413001632271579,0.007799999506984623,-0.010394910613725772,-0.05173202385445563,0,70,255.0,255.0,255.0
391,19.55,8.956910464053502,5.863638511098647,-13.122529339858758,0.13838850763933114,-0.15546721170169234,-1.2438667644748047,0.006853594403248651,-0.009048565171619874,-0.05093202605141726,0,70,255.0,255.0,255.0
392,19.6,8.963838062093014,5.8558544007843665,-13.184786009782647,0.13870752723190014,-0.1558859813242207,-1.2463933658322996,0.005907189299512679,-0.007702219729513977,-0.05013202824837888,0,70,255.0,255.0,255.0
393,19.650000000000002,8.970780428105773,5.84805103492076,-13.247168009777155,0.1389792265692824,-0.15623743367464377,-1.2488799672996427,0.004960784195776706,-0.006355874287408079,-0.0493320304453405,0,70,255.0,255.0,255.0
394,19.700000000000003,8.97773519607902,5.840231779371436,-13.309673339847775,0.13920360565147782,-0.1565215687529615,-1.2513265688768338,0.004014379092040734,-0.005009528845302182,-0.048532032642302124,0,70,255.0,255.0,255.0
395,19.75,8.9847,5.8324,-13.3723,0.13938066447848646,-0.156738386559174,-1.2537331705638728,0.0030679739883043844,-0.0036631834031966015,-0.0477320348392567,0,70,255.0,255.0,255.0
396,19.8,8.991673339868957,5.824558494261756,-13.435046124221905,0.13956236383065881,-0.15692199159118492,-1.2561078113155828,0.00420000009858949,-0.003681017877241377,-0.04725359522914231,0,70,255.0,255.0,255.0
397,19.85,8.998657179738158,5.816707785978819,-13.497910382431884,0.1398006644883454,-0.15710648834689814,-1.2584585300867872,0.005332026208874595,-0.0036988523512861532,-0.046775155619027925,0,70,255.0,255.0,255.0
398,19.900000000000002,9.00565434967288,5.808847830565004,-13.560891578530908,0.14009556645154628,-0.15729187682631354,-1.2607853268774856,0.0064640523191597,-0.003716686825330929,-0.046296716008913545,0,70,255.0,255.0,255.0
399,19.950000000000003,9.012667679738405,5.8009785834341265,-13.623988516419958,0.14044706972026139,-0.15747815702943124,-1.2630882016876785,0.007596078429444806,-0.003734521299375705,-0.04581827639879916,0,70,255.0,255.0,255.0
400,20.0,9.0197,5.7931,-13.6872,0.1408551742944907,-0.15766532895625113,-1.2653671545173653,0.008728104539729165,-0.0037523557734200352,-0.04533983678867948,0,70,255.0,255.0,255.0
401,20.05,9.026752976470675,5.7852115118543255,-13.750525363253622,0.14125003703804195,-0.15788482193357073,-1.2676539902628854,0.0070664052023210674,-0.005027363319364149,-0.046133593032120154,0,70,255.0,255.0,255.0
402,20.1,9.033823618954356,5.777310455300354,-13.813966060489829,0.14156181481472283,-0.15816806528818755,-1.2699805138205773,0.00540470586491297,-0.006302370865308262,-0.04692734927556084,0,70,255.0,255.0,255.0
403,20.150000000000002,9.040907773202699,5.769393642819218,-13.87752407609922,0.1417905076245333,-0.15851505902010155,-1.2723467251904415,0.0037430065275048732,-0.007577378411252377,-0.047721105519001515,0,70,255.0,255.0,255.0
404,20.200000000000003,9.048001284967363,5.761457886892056,-13.94120139447241,0.1419361154674733,-0.1589258031293128,-1.2747526243724776,0.002081307190096776,-0.00885238595719649,-0.0485148617624422,0,70,255.0,255.0,255.0
405,20.25,9.0551,5.7535,-14.005,0.14199863834354298,-0.1594002976158212,-1.2771982113666855,0.0004196078526894631,-0.01012739350314007,-0.04930861800588637,0,70,255.0,255.0,255.0
406,20.3,9.06220115424834,5.745517858320937,-14.068921222763608,0.14206148801716223,-0.15987472067453248,-1.2796442276328885,0.0020943790920794807,-0.008849528845310477,-0.04853203264223359,0,70,255.0,255.0,255.0
407,20.35,9.069307544444417,5.737513592819761,-14.132963775608822,0.14220807625275092,-0.16028525050035225,-1.282051414630909,0.0037691503314694983,-0.007571664187480884,-0.04775544727858081,0,70,255.0,255.0,255.0
408,20.400000000000002,9.076423357516317,5.7294903981581164,-14.19712571707223,0.14243840305030916,-0.16063188709328058,-1.2844197723607467,0.005443921570859516,-0.006293799529651291,-0.046978861914928026,0,70,255.0,255.0,255.0
409,20.450000000000003,9.083552780392147,5.721451468997648,-14.261405105690429,0.14275246840983688,-0.16091463045331741,-1.2867493008224018,0.0071186928102495335,-0.005015934871821697,-0.04620227655127525,0,70,255.0,255.0,255.0
410,20.5,9.0907,5.7134,-14.3258,0.1431502723313341,-0.1611334805804627,-1.2890400000158742,0.0087934640496381,-0.0037380702139906408,-0.045425691187618966,0,70,255.0,255.0,255.0
411,20.55,9.097868006535954,5.705338654861923,-14.39030894569195,0.14356001089331116,-0.16132029536829684,-1.2913210992055364,0.007596078429443659,-0.0037345212993751264,-0.04581827639886207,0,70,255.0,255.0,255.0
412,20.6,9.105055003267982,5.697267973420598,-14.454932437074897,0.14390988017427847,-0.16150693271040023,-1.2936218276557605,0.006398692809249217,-0.003730972384759612,-0.04621086161010518,0,70,255.0,255.0,255.0
413,20.650000000000002,9.112257996732032,5.689187964548313,-14.51967145561187,0.14419988017423607,-0.16169339260677282,-1.295942185366547,0.005201307189054776,-0.003727423470144098,-0.04660344682134829,0,70,255.0,255.0,255.0
414,20.700000000000003,9.119473993464055,5.68109863711735,-14.584526982765897,0.14443001089318394,-0.16187967505741463,-1.2982821723378952,0.004003921568860334,-0.0037238745555285835,-0.046996032032591395,0,70,255.0,255.0,255.0
415,20.75,9.1267,5.673,-14.6495,0.14460027233112208,-0.16206578006232564,-1.300641788569806,0.0028065359486662,-0.003720325640911959,-0.04738861724383625,0,70,255.0,255.0,255.0
416,20.8,9.133934019607842,5.6648915222313665,-14.714590994468596,0.14477046840959107,-0.16228409785227857,-1.302991375544964,0.004001307190093301,-0.005012385957205209,-0.046594861762482495,0,70,255.0,255.0,255.0
417,20.85,9.141178042483661,5.656770513497841,-14.779798476091596,0.1450004030501314,-0.16256701865804618,-1.3053012747460544,0.005196078431520402,-0.006304446273498457,-0.045801106281128746,0,70,255.0,255.0,255.0
418,20.900000000000002,9.148435055555556,5.648633743648632,-14.8451204604803,0.1452900762527431,-0.16291454247962842,-1.307571486173077,0.006390849672947502,-0.007596506589791706,-0.04500735079977499,0,70,255.0,255.0,255.0
419,20.950000000000003,9.155708045751636,5.640477982532948,-14.910554963246005,0.14563948801742616,-0.16332666931702533,-1.309802009826032,0.007585620914374603,-0.008888566906084956,-0.04421359531842124,0,70,255.0,255.0,255.0
420,21.0,9.163,5.6323,-14.9761,0.14604863834418055,-0.16380339917023692,-1.311992845704919,0.00878039215580162,-0.01018062722237878,-0.04341983983706399,0,70,255.0,255.0,255.0
421,21.05,9.170312715032678,5.624097656212606,-15.041754276433673,0.1464461154683318,-0.1642793132225917,-1.314185398614626,0.007118692810248838,-0.008855934871812403,-0.044282276551208366,0,70,255.0,255.0,255.0
422,21.1,9.177643226797379,5.615873172588032,-15.107519258558726,0.14676050762520543,-0.16468899265741818,-1.3164210733600399,0.005456993464696055,-0.007531242521246024,-0.04514471326535274,0,70,255.0,255.0,255.0
423,21.150000000000002,9.184987381045744,5.607629860857156,-15.173397102466943,0.14699181481480145,-0.16503243747471633,-1.3186998699411614,0.0037952941191432736,-0.0062065501706796465,-0.04600714997949712,0,70,255.0,255.0,255.0
424,21.200000000000003,9.192341023529407,5.599371032750852,-15.239389964250108,0.14714003703711978,-0.16530964767448617,-1.3210217883579898,0.002133594773590491,-0.004881857820113269,-0.0468695866936415,0,70,255.0,255.0,255.0
425,21.25,9.1997,5.5911,-15.3055,0.14720517429216048,-0.16552062325672764,-1.3233868286105253,0.00047189542803782736,-0.0035571654695465416,-0.047732023407782265,0,70,255.0,255.0,255.0
426,21.3,9.207061520261451,5.5828194529182085,-15.371728699796714,0.1472690697170822,-0.1657026492573545,-1.3257550299965348,0.0020839215688307497,-0.0037238745555276975,-0.04699603203259243,0,70,255.0,255.0,255.0
427,21.35,9.214428250326826,5.574529596150025,-15.43807488967351,0.14741356644904355,-0.1658930107122804,-1.3280864318137846,0.0036959477096236717,-0.003890583641508854,-0.04626004065740259,0,70,255.0,255.0,255.0
428,21.400000000000002,9.221804220261474,5.566230012922741,-15.50453672965195,0.14763866448804458,-0.16609170762150538,-1.330381034062275,0.005307973850416594,-0.00405729272749001,-0.04552404928221276,0,70,255.0,255.0,255.0
429,21.450000000000003,9.229193460130748,5.557920286463637,-15.571112379753593,0.1479443638340852,-0.16629873998502942,-1.332638836742006,0.006919999991209516,-0.004224001813471166,-0.04478805790702292,0,70,255.0,255.0,255.0
430,21.5,9.2366,5.5496,-15.6378,0.1483306644871655,-0.1665141078028525,-1.334859839852977,0.008532026132002768,-0.004390710899451422,-0.044052066531827805,0,70,255.0,255.0,255.0
431,21.55,9.244026803921516,5.541268532114563,-15.704598124379476,0.14873360566332577,-0.16675008974799116,-1.3370664813992332,0.007585620914408806,-0.005048566906093975,-0.04421359531841951,0,70,255.0,255.0,255.0
432,21.6,9.251472571895317,5.532924442811861,-15.771506782747247,0.1490892265786064,-0.1670189644934619,-1.3392811993848188,0.006639215696814844,-0.005706422912736527,-0.04437512410501122,0,70,255.0,255.0,255.0
433,21.650000000000002,9.25893493790836,5.524566087451878,-15.838526378925282,0.14939752723300728,-0.1673207320392648,-1.3415039938097342,0.005692810479220881,-0.006364278919379079,-0.04453665289160292,0,70,255.0,255.0,255.0
434,21.700000000000003,9.266411535947604,5.516191821394597,-15.905657316735546,0.1496585076265285,-0.1676553923853998,-1.3437348646739795,0.00474640526162692,-0.007022134926021632,-0.04469818167819462,0,70,255.0,255.0,255.0
435,21.75,9.2739,5.5078,-15.9729,0.14987216775916998,-0.16802294553186695,-1.3459738119775537,0.003800000044033469,-0.007679990932663694,-0.044859710464782765,0,70,255.0,255.0,255.0
436,21.8,9.281398464052485,5.499389618623536,-16.04025480268539,0.15006850762961133,-0.16838499175068583,-1.3482190444065152,0.00405359477362031,-0.006801857820091626,-0.04494958669367826,0,70,255.0,255.0,255.0
437,21.85,9.288907062091903,5.490962232602525,-16.107721979337512,0.150277527236532,-0.16870313131387613,-1.3504687706469216,0.00430718950320715,-0.0059237247075195594,-0.04503946292257375,0,70,255.0,255.0,255.0
438,21.900000000000002,9.29642642810508,5.482520037269743,-16.175301754646938,0.15049922657993206,-0.1689773642214378,-1.3527229906987728,0.004560784232793991,-0.005045591594947492,-0.045129339151469244,0,70,255.0,255.0,255.0
439,21.950000000000003,9.303957196078837,5.474065227957974,-16.242994353304244,0.15073360565981142,-0.1692076904733709,-1.3549817045620685,0.004814378962380831,-0.004167458482375425,-0.04521921538036473,0,70,255.0,255.0,255.0
440,22.0,9.3115,5.4656,-16.3108,0.15098066447617015,-0.16939411006967534,-1.3572449122368089,0.005067973691967431,-0.0032893253698034197,-0.04530909160925489,0,70,255.0,255.0,255.0
441,22.05,9.319055339868548,5.4571257933912865,-16.378718664878978,0.15123236381824798,-0.16958194324925763,-1.3594973409747149,0.0049999999911455525,-0.0042240018134879565,-0.04478805790698529,0,70,255.0,255.0,255.0
442,22.1,9.326623179737075,5.448641026778038,-16.44674929990272,0.15148066447528472,-0.16981651025102415,-1.3617237180275075,0.004932026290323675,-0.005158678257172493,-0.0442670242047157,0,70,255.0,255.0,255.0
443,22.150000000000002,9.334203349671327,5.440143363469146,-16.51489060248698,0.15172556644728036,-0.17009781107497488,-1.3639240433951867,0.004864052589501796,-0.006093354700857029,-0.0437459905024461,0,70,255.0,255.0,255.0
444,22.200000000000003,9.341795679737054,5.431630466773504,-16.58314127004749,0.15196706973423488,-0.17042584572110986,-1.366098317077752,0.004796078888679918,-0.007028031144541567,-0.043224956800176496,0,70,255.0,255.0,255.0
445,22.25,9.3494,5.4231,-16.6515,0.15220517433614833,-0.17080061418942905,-1.368246539075204,0.004728105187858045,-0.007962707588226703,-0.04270392309791404,0,70,255.0,255.0,255.0
446,22.3,9.357016176473323,5.414550407811319,-16.719965737798706,0.15244203709738632,-0.17117523525228526,-1.3703835916946079,0.004746405261661302,-0.007022134926021537,-0.04277818167823568,0,70,255.0,255.0,255.0
447,22.35,9.3646442189598,5.405983260285323,-16.78853842105161,0.15267981486231447,-0.1715028276820312,-1.372524357243028,0.004764705335464559,-0.006081562263816371,-0.04285244025855733,0,70,255.0,255.0,255.0
448,22.400000000000002,9.372284173209616,5.397400908853666,-16.857218235405163,0.1529185076309328,-0.1717833914786669,-1.3746688357204637,0.004783005409267816,-0.005140989601611206,-0.042926698838878966,0,70,255.0,255.0,255.0
449,22.450000000000003,9.379936084972956,5.388805704948007,-16.926005366505812,0.15315811540324126,-0.17201692664219234,-1.3768170271269156,0.004801305483071073,-0.004200416939406039,-0.043000957419200604,0,70,255.0,255.0,255.0
450,22.5,9.3876,5.3802,-16.9949,0.15339863817923988,-0.1722034331726075,-1.3789689314623836,0.004819605556873885,-0.0032598442772004965,-0.043075215999511585,0,70,255.0,255.0,255.0
451,22.55,9.395275954238162,5.371585375363438,-17.063902383926195,0.15363948779222125,-0.17238911574159688,-1.3811282922468804,0.004814378962380683,-0.004167458482375177,-0.04329921538036033,0,70,255.0,255.0,255.0
452,22.6,9.402963944423728,5.36296033208067,-17.133013015890842,0.15388007607547793,-0.17262017902084503,-1.3832988530004198,0.0048091523678874815,-0.005075072687549856,-0.043523214761209066,0,70,255.0,255.0,255.0
453,22.650000000000002,9.410663957490215,5.354322601116182,-17.202232455892393,0.15412040302900998,-0.17289662301035189,-1.3854806137230014,0.00480392577339428,-0.005982686892724537,-0.04374721414205781,0,70,255.0,255.0,255.0
454,22.700000000000003,9.418375980371133,5.345669913434464,-17.271561263929296,0.15436046865281738,-0.1732184477101175,-1.3876735744146256,0.004798699178901078,-0.006890301097899216,-0.04397121352290655,0,70,255.0,255.0,255.0
455,22.75,9.4261,5.337,-17.341,0.15460027294690007,-0.17358565312014176,-1.389877735075292,0.004793472584406322,-0.0077979153030740544,-0.04419521290375528,0,70,255.0,255.0,255.0
456,22.8,9.433836006574035,5.32831129073493,-17.410548726496522,0.15484001173372636,-0.1739563017813322,-1.392063239317889,0.004796078888645416,-0.007028031144542213,-0.043224956800113276,0,70,255.0,255.0,255.0
457,22.85,9.441584003345294,5.319605011391999,-17.480205515385038,0.15507988083576463,-0.174288456234596,-1.3942002307553032,0.004798685192884511,-0.0062581469860103715,-0.042254700696471276,0,70,255.0,255.0,255.0
458,22.900000000000002,9.449343996829532,5.310883086681602,-17.5499679410253,0.15531988025301482,-0.17458211647993324,-1.3962887093875358,0.004801291497123605,-0.00548826282747853,-0.041284444592829275,0,70,255.0,255.0,255.0
459,22.950000000000003,9.457115993542514,5.302147441314137,-17.619833577777044,0.15556000998547698,-0.17483728251734384,-1.3983286752145865,0.0048038978013627,-0.0047183786689466885,-0.040314188489187275,0,70,255.0,255.0,255.0
460,23.0,9.4649,5.2934,-17.6898,0.15580027003315106,-0.1750539543468279,-1.4003201282364548,0.004806504105600684,-0.003948494510415124,-0.03934393238554357,0,70,255.0,255.0,255.0
461,23.05,9.472696019465698,5.284642261696842,-17.759865910087736,0.1560404652728687,-0.175257677133073,-1.4023307504815734,0.004801305483105001,-0.004200416939388777,-0.041080957419199066,0,70,255.0,255.0,255.0
462,23.1,9.480504042195102,5.275874022351335,-17.830034522569022,0.15628040058146156,-0.1754739960407668,-1.4044282239783747,0.004796106860609317,-0.0044523393683624304,-0.04281798245285456,0,70,255.0,255.0,255.0
463,23.150000000000002,9.48832405519166,5.267094652157408,-17.90031018000644,0.15652007595892964,-0.17570291106990926,-1.4066125487268588,0.004790908238113634,-0.004704261797336084,-0.044555007486510055,0,70,255.0,255.0,255.0
464,23.200000000000003,9.49615604545881,5.258303521308986,-17.970697224962574,0.15675949140527293,-0.1759444222205004,-1.4088837247270258,0.00478570961561795,-0.004956184226309737,-0.046292032520165546,0,70,255.0,255.0,255.0
465,23.25,9.504,5.2495,-18.0412,0.15699864692049145,-0.1761985294925402,-1.4112417519788754,0.004780510993122045,-0.005208106655283151,-0.04802905755382447,0,70,255.0,255.0,255.0
466,23.3,9.511855915563176,5.240683662477703,-18.111821233152536,0.15723812717479202,-0.1764529896863703,-1.4135897587557935,0.004798699178900323,-0.0049703010979206454,-0.04589121352290381,0,70,255.0,255.0,255.0
467,23.35,9.519723827874301,5.231854899202661,-18.182557194338887,0.1574785168383815,-0.17669555960233224,-1.4158308733311658,0.004816887364678602,-0.004732495540558139,-0.04375336949198315,0,70,255.0,255.0,255.0
468,23.400000000000002,9.527603782403835,5.223014304688767,-18.253402538948965,0.15771981591125986,-0.1769262392404261,-1.4179650957049919,0.004835075550456881,-0.004494689983195633,-0.04161552546106248,0,70,255.0,255.0,255.0
469,23.450000000000003,9.535495824622247,5.214162473449916,-18.3243519223727,0.1579620243934272,-0.17714502860065184,-1.4199924258772723,0.00485326373623516,-0.004256884425833127,-0.03947768143014182,0,70,255.0,255.0,255.0
470,23.5,9.5434,5.2053,-18.3954,0.15820514228488336,-0.17735192768300942,-1.4219128638480063,0.004871451922013215,-0.004019078868470638,-0.037339837399223086,0,70,255.0,255.0,255.0
471,23.55,9.551316318281597,5.196427088392347,-18.466542757302104,0.15844702602796776,-0.17757036412144486,-1.4238062144952184,0.004803897801362211,-0.0047183786689470085,-0.03839418848925932,0,70,255.0,255.0,255.0
472,23.6,9.559244646307697,5.187542380838022,-18.537781500075432,0.1586855320650196,-0.17782376554990414,-1.4257522826969322,0.004736343680711206,-0.005417678469423379,-0.03944853957929556,0,70,255.0,255.0,255.0
473,23.650000000000002,9.567184815192999,5.178644129087523,-18.609118864197708,0.1589206603960389,-0.1781121319683872,-1.427751068453148,0.004668789560060202,-0.00611697826989975,-0.04050289066933179,0,70,255.0,255.0,255.0
474,23.700000000000003,9.575136656052202,5.169730584891349,-18.680557485546657,0.15915241102102562,-0.17843546337689412,-1.4298025717638656,0.004601235439409198,-0.00681627807037612,-0.04155724175936803,0,70,255.0,255.0,255.0
475,23.75,9.5831,5.1608,-18.7521,0.1593807839399798,-0.17879375977542478,-1.4319067926290845,0.004533681318758198,-0.007515577870851331,-0.04261159284939886,0,70,255.0,255.0,255.0
476,23.8,9.591074811310436,5.151851183952909,-18.823748537639045,0.1596137687133392,-0.17915355382785367,-1.4340333832633239,0.004785709615618043,-0.006876184226304706,-0.0424520325201744,0,70,255.0,255.0,255.0
477,23.85,9.599061586894916,5.142885177445251,-18.89550320535939,0.1598593549015416,-0.17948137819805524,-1.436151995881102,0.005037737912477887,-0.0062367905817580825,-0.042292472190949934,0,70,255.0,255.0,255.0
478,23.900000000000002,9.607060956824172,5.1339035789611405,-18.967363604260218,0.160117542504587,-0.1797772328860295,-1.4382626304824189,0.005289766209337732,-0.005597396937211458,-0.04213291186172547,0,70,255.0,255.0,255.0
479,23.950000000000003,9.615073551168953,5.124907986984685,-19.039329335440694,0.16038833152247536,-0.1800411178917764,-1.4403652870672747,0.005541794506197576,-0.004958003292664834,-0.04197335153250101,0,70,255.0,255.0,255.0
480,24.0,9.6231,5.1159,-19.1114,0.16067172195520676,-0.18027303321529597,-1.4424599656356691,0.005793822803057624,-0.0043186096481182545,-0.04181379120328543,0,70,255.0,255.0,255.0
481,24.05,9.631140436476652,5.106880975796018,-19.183575092141716,0.16093789911868825,-0.18048742056714434,-1.4445402524515032,0.004853263736200772,-0.004256884425816309,-0.04139768143007458,0,70,255.0,255.0,255.0
482,24.1,9.639193006112649,5.09785130938097,-19.25585367848701,0.16115704832882685,-0.1806987216578776,-1.4465997337786767,0.00391270466934392,-0.004195159203514363,-0.040981571656863724,0,70,255.0,255.0,255.0
483,24.150000000000002,9.647255357510316,5.088811155067915,-19.328234718761443,0.16132916958562263,-0.18090693648749578,-1.4486384096171896,0.0029721456024870683,-0.0041334339812124175,-0.04056546188365287,0,70,255.0,255.0,255.0
484,24.200000000000003,9.655325139271987,5.079760667169906,-19.400717172690587,0.16145426288907555,-0.18111206505599886,-1.450656279967042,0.0020315865356302166,-0.004071708758910471,-0.040149352110442016,0,70,255.0,255.0,255.0
485,24.25,9.6634,5.0707,-19.4733,0.16153232823918565,-0.18131410736338685,-1.452653344828234,0.0010910274687734312,-0.004009983536608752,-0.03973324233722941,0,70,255.0,255.0,255.0
486,24.3,9.671478642782947,5.0616289128630205,-19.54598229379409,0.16162663481189118,-0.181536763903562,-1.4546376069306506,0.0026812354394477604,-0.004896278070396999,-0.0396372417594339,0,70,255.0,255.0,255.0
487,24.35,9.679563988654499,5.052545585030866,-19.618763680692584,0.1618004517831304,-0.18180373517042656,-1.4566170690041773,0.00427144341012209,-0.005782572604185247,-0.0395412411816384,0,70,255.0,255.0,255.0
488,24.400000000000002,9.687660013134572,5.0434478007672,-19.69164392069403,0.1620537791529034,-0.18211502116398054,-1.4585917310488146,0.0058616513807964185,-0.006668867137973493,-0.039445240603842885,0,70,255.0,255.0,255.0
489,24.450000000000003,9.695770691743098,5.034333344335689,-19.764622773796987,0.1623866169212101,-0.18247062188422392,-1.4605615930645617,0.007451859351470748,-0.00755516167176174,-0.03934924002604738,0,70,255.0,255.0,255.0
490,24.5,9.7039,5.0252,-19.8377,0.16279896508805047,-0.18287053733115669,-1.4625266550514193,0.00904206732214563,-0.00844145620554948,-0.0392532394482501,0,70,255.0,255.0,255.0
491,24.55,9.712050592391549,5.016046572751899,-19.91087573268192,0.16321156163375897,-0.18325352381861193,-1.4645093198259365,0.0074617945061934195,-0.006878003292660151,-0.04005335153244048,0,70,255.0,255.0,255.0
492,24.6,9.720219839269364,5.006875950495567,-19.98415159874267,0.16354514453866983,-0.1835583376604227,-1.4665319902046634,0.005881521690241209,-0.005314550379770822,-0.04085346361663087,0,70,255.0,255.0,255.0
493,24.650000000000002,9.728403789951406,4.997692041863283,-20.05752959846246,0.16379971380278308,-0.183784978856589,-1.4685946661875997,0.004301248874288998,-0.003751097466881492,-0.04165357570082125,0,70,255.0,255.0,255.0
494,24.700000000000003,9.73659849375563,4.988498755487334,-20.1310117321215,0.16397526942609872,-0.18393344740711087,-1.4706973477747456,0.0027209760583367867,-0.0021876445539921628,-0.04245368778501164,0,70,255.0,255.0,255.0
495,24.75,9.7448,4.9793,-20.2046,0.16407181140861676,-0.18400374331198824,-1.4728400349661008,0.0011407032423842445,-0.0006241916411029447,-0.04325379986920552,0,70,255.0,255.0,255.0
496,24.8,9.753005387650855,4.970098396129384,-20.278295575478246,0.16415111865306628,-0.18407314082198828,-1.4749731137655921,0.0020315865355958656,-0.0021517087588982294,-0.042069352110439676,0,70,255.0,255.0,255.0
497,24.85,9.76121585426805,4.96089141298687,-20.35209632433676,0.16427497006217637,-0.18421891418787806,-1.4770469701771447,0.0029224698288074866,-0.0036792258766935137,-0.040884904351673836,0,70,255.0,255.0,255.0
498,24.900000000000002,9.769433627059819,4.951675231779664,-20.42599928545616,0.164443365635947,-0.18444106340965763,-1.4790616042007594,0.0038133531220191077,-0.005206742994488798,-0.03970045659290799,0,70,255.0,255.0,255.0
499,24.950000000000003,9.777660933234388,4.9424460337149725,-20.50000149771704,0.16465630537437825,-0.18473958848732694,-1.4810170158364357,0.004704236415230729,-0.006734260112284083,-0.03851600883414215,0,70,255.0,255.0,255.0
500,25.0,9.7859,4.9332,-20.5741,0.16491378927747005,-0.18511448942088599,-1.4829132050841738,0.005595119708441176,-0.008261777230078149,-0.03733156107537816,0,70,255.0,255.0,255.0
501,25.05,9.794152657005027,4.923934242730567,-20.648292365405116,0.16519196375396883,-0.18550991289343238,-1.4847822251117113,0.005531859351509415,-0.0075551616717782445,-0.03742924002611936,0,70,255.0,255.0,255.0
502,25.1,9.802419143658433,4.914649597556956,-20.7225783039103,0.165466975212621,-0.18587000558806382,-1.4866561290867857,0.0054685989945776545,-0.00684854611347834,-0.03752691897686056,0,70,255.0,255.0,255.0
503,25.150000000000002,9.810699301809326,4.90534783101806,-20.796958059712924,0.1657388236534266,-0.18619476750478023,-1.4885349170093973,0.005405338637645893,-0.006141930555178435,-0.03762459792760176,0,70,255.0,255.0,255.0
504,25.200000000000003,9.81899297330681,4.896030709652775,-20.87143187701037,0.1660075090763856,-0.18648419864358168,-1.490418588879546,0.005342078280714132,-0.005435314996878531,-0.03772227687834296,0,70,255.0,255.0,255.0
505,25.25,9.8273,4.8867,-20.946,0.166273031481498,-0.18673829900446806,-1.4923071446972316,0.005278817923781487,-0.00472869943857801,-0.03781995582908415,0,70,255.0,255.0,255.0
506,25.3,9.835619984329036,4.877357432948347,-21.020662962901298,0.16652102633105084,-0.18695920760428222,-1.4942179857875808,0.004640976058332082,-0.004107644553987857,-0.0386136877848852,0,70,255.0,255.0,255.0
507,25.35,9.843951571098218,4.868004596785309,-21.095422460022057,0.1667371290873312,-0.18714906345986684,-1.49616851347572,0.004003134192882678,-0.003486589669397704,-0.03940741974068625,0,70,255.0,255.0,255.0
508,25.400000000000002,9.852293165702882,4.858643044148097,-21.17028047569217,0.1669213397503391,-0.187307866571222,-1.4981587277616495,0.003365292327433273,-0.002865534784807551,-0.04020115169648729,0,70,255.0,255.0,255.0
509,25.450000000000003,9.860643173538362,4.849274327673923,-21.24523899424152,0.16707365832007454,-0.18743561693834762,-1.500188628645369,0.0027274504619838684,-0.0022444799002173978,-0.04099488365228834,0,70,255.0,255.0,255.0
510,25.5,9.869,4.8399,-21.3203,0.16719408479653747,-0.18753231456124372,-1.5022582161268783,0.002089608596533399,-0.0016234250156268448,-0.04178861560808578,0,70,255.0,255.0,255.0
511,25.55,9.877362605678831,4.830520825476046,-21.3954645829897,0.16731593092183167,-0.18764525668944126,-1.5043138317379354,0.002784236415234452,-0.002894260112275289,-0.04043600883420628,0,70,255.0,255.0,255.0
512,25.6,9.885732171948698,4.821134415301809,-21.47073025600148,0.16747250843806094,-0.18782174057247125,-1.506301817010299,0.0034788642339355054,-0.004165095208923733,-0.039083402060326795,0,70,255.0,255.0,255.0
513,25.650000000000002,9.894110435379153,4.811737592389551,-21.54609363751842,0.16766381734522523,-0.18806176621033366,-1.5082221719439683,0.004173492052636559,-0.005435930305572177,-0.0377307952864473,0,70,255.0,255.0,255.0
514,25.700000000000003,9.902499132539738,4.8023271796515274,-21.62155134602357,0.1678898576433246,-0.18836533360302848,-1.5100748965389437,0.004868119871337612,-0.006706765402220621,-0.03637818851256781,0,70,255.0,255.0,255.0
515,25.75,9.9109,4.7929,-21.6971,0.16815062933235897,-0.1887324427505557,-1.5118599907952248,0.005562747690037728,-0.007977600498868087,-0.035025581738679534,0,70,255.0,255.0,255.0
516,25.8,9.919314392955643,4.783453665147475,-21.772737105139907,0.1684232499816269,-0.18911576563794966,-1.5136306872606522,0.005342078280679538,-0.007355314996890474,-0.03580227687841388,0,70,255.0,255.0,255.0
517,25.85,9.92774214110699,4.773988942007457,-21.848463715972017,0.16868483716042693,-0.18946797425024475,-1.5154402184830662,0.005121408871321348,-0.006733029494912861,-0.03657897201814821,0,70,255.0,255.0,255.0
518,25.900000000000002,9.936182692780513,4.764507386293702,-21.92428177423417,0.16893539086875903,-0.18978906858744096,-1.517288584462467,0.004900739461963156,-0.006110743992935248,-0.037355667157882556,0,70,255.0,255.0,255.0
519,25.950000000000003,9.94463549630269,4.755010553719964,-22.00019322166421,0.16917491110662328,-0.1900790486495383,-1.5191757851988545,0.004680070052604966,-0.0054884584909576355,-0.03813236229761689,0,70,255.0,255.0,255.0
520,26.0,9.9531,4.7455,-22.0762,0.1694033978740195,-0.19033791443653672,-1.5211018206922284,0.004459400643246125,-0.004866172988979622,-0.038909057437338745,0,70,255.0,255.0,255.0
521,26.05,9.961575822498597,4.735977313934057,-22.152303796450663,0.169631069151651,-0.19056368075876653,-1.5230514192194675,0.004647450462013006,-0.004164479900212771,-0.039074883652221004,0,70,255.0,255.0,255.0
522,26.1,9.970063263623347,4.726444216668363,-22.22850528011046,0.1698681429202208,-0.190754362426558,-1.5250093090574506,0.004835500280779886,-0.0034627868114459194,-0.03924070986710327,0,70,255.0,255.0,255.0
523,26.150000000000002,9.978562793498801,4.716902462435642,-22.304804865544924,0.17011461917972898,-0.19090995943991113,-1.5269754902061778,0.0050235500995467666,-0.0027610937226790677,-0.03940653608198553,0,70,255.0,255.0,255.0
524,26.200000000000003,9.987074882249503,4.707353805468613,-22.381202967319595,0.1703704979301755,-0.19103047179882593,-1.5289499626656493,0.005211599918313647,-0.0020594006339122164,-0.03957236229686779,0,70,255.0,255.0,255.0
525,26.25,9.9956,4.6978,-22.4577,0.17063577917156034,-0.19111589950330235,-1.5309327264358648,0.00539964973708007,-0.0013577075451454146,-0.03973818851174471,0,70,255.0,255.0,255.0
526,26.3,10.004138317049971,4.688241879116296,-22.53429570905743,0.17089247341177077,-0.19122151132698628,-1.5328836358614724,0.004868119871337165,-0.0028667654022122005,-0.03829818851255806,0,70,255.0,255.0,255.0
527,26.35,10.012688804399621,4.678676591319086,-22.61098716358615,0.17112259115869405,-0.19140257604352356,-1.5347625452871205,0.004336590005594261,-0.004375823259278986,-0.036858188513371415,0,70,255.0,255.0,255.0
528,26.400000000000002,10.021250133224287,4.66910036396373,-22.687770763586148,0.1713261324123302,-0.1916590936529142,-1.5365694547128095,0.003805060139851357,-0.005884881116345772,-0.035418188514184774,0,70,255.0,255.0,255.0
529,26.450000000000003,10.029820974699302,4.659509424405581,-22.76464290905743,0.17150309717267923,-0.19199106415515815,-1.5383043641385392,0.0032735302741084523,-0.007393938973412558,-0.03397818851499813,0,70,255.0,255.0,255.0
530,26.5,10.0384,4.6499,-22.8416,0.17165348543974102,-0.19239848755025546,-1.539967273564309,0.0027420004083644756,-0.00890299683047946,-0.032538188515806254,0,70,255.0,255.0,255.0
531,26.55,10.046986109301516,4.640269569600757,-22.918639767319604,0.17179103720126535,-0.19280627393329125,-1.5416380373346448,0.002760070052608832,-0.0074084584909529525,-0.03429236229761978,0,70,255.0,255.0,255.0
532,26.6,10.055579118778164,4.6306206180552865,-22.99576526554495,0.17192949244500189,-0.19313933339935077,-1.5433965097940712,0.0027781396968531887,-0.005913920151426446,-0.03604653607943332,0,70,255.0,255.0,255.0
533,26.650000000000002,10.064179073604052,4.6209568817094375,-23.072980880110496,0.17206885117095067,-0.1933976659484339,-1.5452426909425883,0.0027962093410975448,-0.004419381811899939,-0.037800709861246846,0,70,255.0,255.0,255.0
534,26.700000000000003,10.072786018953295,4.6112820969090595,-23.150290996450696,0.17220911337911166,-0.19358127158054078,-1.5471765807801958,0.0028142789853419013,-0.002924843472373432,-0.03955488364306038,0,70,255.0,255.0,255.0
535,26.75,10.0814,4.6016,-23.2277,0.17235027906948483,-0.1936901502956713,-1.5491981793068939,0.0028323486295847022,-0.0014303051328468097,-0.04130905742487201,0,70,255.0,255.0,255.0
536,26.8,10.090021245743964,4.591913442480674,-23.305210821664154,0.17250337778318153,-0.1937773929398407,-1.5512202147999374,0.0032915999182835673,-0.002059400633929052,-0.03957236229686811,0,70,255.0,255.0,255.0
537,26.85,10.098650720487726,4.582221736459766,-23.382820574234053,0.1726794390613132,-0.19389609035906422,-1.5531554155365808,0.0037508512069824324,-0.0026884961350112937,-0.03783566716886421,0,70,255.0,255.0,255.0
538,26.900000000000002,10.107289572359504,4.572523309198518,-23.460524915971877,0.1728784629038798,-0.19404624255334182,-1.5550037815168238,0.0042101024956812975,-0.0033175916360935354,-0.036098972040860315,0,70,255.0,255.0,255.0
539,26.950000000000003,10.115938949487523,4.562816587958179,-23.5383195051398,0.17310044931088134,-0.19422784952267355,-1.5567653127406669,0.004669353784380163,-0.003946687137175778,-0.03436227691285642,0,70,255.0,255.0,255.0
540,27.0,10.1246,4.5531,-23.6162,0.17334539828231776,-0.19444091126705937,-1.5584400092081097,0.0051286050730787736,-0.0045757826382568645,-0.032625581784850866,0,70,255.0,255.0,255.0
541,27.05,10.133273707722624,4.543371860476542,-23.694163346023775,0.17360345166599817,-0.1946921543073512,-1.5601051034656075,0.005193530274137893,-0.005473938973416916,-0.03397818851506182,0,70,255.0,255.0,255.0
542,27.1,10.141960399270934,4.533630036105651,-23.772211637518836,0.17386475130973156,-0.19498830516440108,-1.561837828059616,0.005258455475197012,-0.006372095308576967,-0.03533079524527278,0,70,255.0,255.0,255.0
543,27.150000000000002,10.150660236957933,4.52387228149649,-23.850348256002015,0.1741292972135179,-0.19532936383820892,-1.5636381829901347,0.005323380676256132,-0.007270251643737019,-0.03668340197548373,0,70,255.0,255.0,255.0
544,27.200000000000003,10.15937338309662,4.5140963512582175,-23.92857658299013,0.17439708937735718,-0.19571533032877478,-1.5655061682571643,0.00538830587731525,-0.00816840797889707,-0.03803600870569469,0,70,255.0,255.0,255.0
545,27.25,10.1681,4.5043,-24.0069,0.1746681278012494,-0.1961462046360986,-1.567441783860704,0.005453231078374365,-0.009066564314057057,-0.03938861543589667,0,70,255.0,255.0,255.0
546,27.3,10.17683992336554,4.494482315613153,-24.085320594240752,0.1749228155528422,-0.1965419898307587,-1.5693673713376746,0.004734278985336705,-0.006764843472347749,-0.037634883642924395,0,70,255.0,255.0,255.0
547,27.35,10.18559168242854,4.484647719117625,-24.16383527569061,0.1751415556997831,-0.1968226889833334,-1.5712052722249965,0.004015326892299044,-0.00446312263063844,-0.03588115184995212,0,70,255.0,255.0,255.0
548,27.400000000000002,10.194353479808774,4.47480196481552,-24.242439660020093,0.1753243482420721,-0.19698830209382256,-1.5729554865226698,0.003296374799261384,-0.0021614017889291307,-0.03412742005697986,0,70,255.0,255.0,255.0
549,27.450000000000003,10.203123518126004,4.464950807008944,-24.32112936289972,0.17547119317970925,-0.19703882916222631,-1.5746180142306945,0.0025774227062237234,0.00014031905278017766,-0.032373688264007584,0,70,255.0,255.0,255.0
550,27.5,10.2119,4.4551,-24.3999,0.1755820905126945,-0.1969742701885446,-1.5761928553490703,0.001858470613186336,0.002442039894489545,-0.03061995647103366,0,70,255.0,255.0,255.0
551,27.55,10.220681798815223,4.445253277070844,-24.478748677013225,0.1756972861226329,-0.19691588636961196,-1.5777694111836693,0.002749353784350252,-0.00010668713718392812,-0.032442276912931715,0,70,255.0,255.0,255.0
552,27.6,10.229470471014906,4.435406287423846,-24.557678459718737,0.17585702589112953,-0.19698493890226298,-1.5794370830403635,0.0036402369555141676,-0.002655414168857401,-0.03426459735482977,0,70,255.0,255.0,255.0
553,27.650000000000002,10.23826824380698,4.425552659241424,-24.63669390391763,0.17606130981818433,-0.1971814277864977,-1.5811958709191523,0.004531120126678083,-0.005204141200530874,-0.036086917796727826,0,70,255.0,255.0,255.0
554,27.700000000000003,10.247077344399369,4.415686020706002,-24.71579956541102,0.17631013790379732,-0.19750535302231612,-1.5830457748200364,0.005422003297841999,-0.007752868232204347,-0.03790923823862588,0,70,255.0,255.0,255.0
555,27.75,10.2559,4.4058,-24.795,0.17660351014796852,-0.1979567146097181,-1.584986794743015,0.0063128864690049635,-0.010301595263877417,-0.039731558680523804,0,70,255.0,255.0,255.0
556,27.8,10.264737681373573,4.395890176103469,-24.87429829770635,0.17689603995662737,-0.1984184646907879,-1.5869309839276704,0.00538830587734894,-0.00816840797891413,-0.03803600870569033,0,70,255.0,255.0,255.0
557,27.85,10.273588833511836,4.385959931186991,-24.953691685434457,0.17714234073570342,-0.19877355540760952,-1.588790395613584,0.004463725285692917,-0.006035220693950844,-0.036340458730856846,0,70,255.0,255.0,255.0
558,27.900000000000002,10.282451144963316,4.37601459821878,-25.033175924309397,0.17734241248519667,-0.19902198676018298,-1.590565029800756,0.0035391446940368936,-0.0039020334089875574,-0.03464490875602337,0,70,255.0,255.0,255.0
559,27.950000000000003,10.29132230427653,4.366059510167044,-25.112746775456227,0.1774962552051071,-0.19916375874850828,-1.5922548864891866,0.0026145641023808705,-0.001768846124024271,-0.03294935878118989,0,70,255.0,255.0,255.0
560,28.0,10.3002,4.3561,-25.1924,0.17760386889543472,-0.19919887137258543,-1.5938599656788748,0.0016899835107229144,0.00036434116093952973,-0.03125380880634765,0,70,255.0,255.0,255.0
561,28.05,10.309082675690492,4.346139618515276,-25.272132532161393,0.17771055405085753,-0.19923425486724233,-1.5954506531056318,0.0025774227061894045,-0.0017796809472151978,-0.032373688263935226,0,70,255.0,255.0,255.0
562,28.1,10.31797179493775,4.3361747878281856,-25.351945998543442,0.17786161116605367,-0.19937683946730697,-1.5970973345052684,0.0034648619016558945,-0.003923703055369925,-0.033493567721522795,0,70,255.0,255.0,255.0
563,28.150000000000002,10.326869576339762,4.326200147883456,-25.431843198844803,0.17805704024102312,-0.19962662517277932,-1.5988000098777844,0.004352301097122384,-0.006067725163524653,-0.03461344717911037,0,70,255.0,255.0,255.0
564,28.200000000000003,10.335778238494514,4.316210338625816,-25.51182693276411,0.17829684127576592,-0.19998361198365944,-1.6005586792231796,0.005239740292588875,-0.00821174727167938,-0.03573332663669795,0,70,255.0,255.0,255.0
565,28.25,10.3447,4.3062,-25.5919,0.178581014270282,-0.20044779989994724,-1.6023733425414537,0.006127179488055301,-0.010355769379833957,-0.03685320609428011,0,70,255.0,255.0,255.0
566,28.3,10.353636415864461,4.296165749835422,-25.672064373648084,0.1788697438399303,-0.20090051584024776,-1.60419440364978,0.005422003297876089,-0.007752868232187023,-0.035989238238767374,0,70,255.0,255.0,255.0
567,28.35,10.362586386737169,4.286112117500265,-25.75231872039177,0.17912321460006964,-0.20122308672316597,-1.6059722663653304,0.004716827107696877,-0.005149967084540089,-0.035125270383254636,0,70,255.0,255.0,255.0
