idx,t,px,py,pz,vx,vy,vz,ax,ay,az,yaw,mode,ledr,ledg,ledb
0,0.0,-1.5,-13.5,0.0,0.0014408622401111213,0.0002859187981535574,0.0017690446535330619,-0.02609034688133071,-0.0018310255778464174,-0.03722853584239675,0,70,255.0,255.0,255.0
1,0.05,-1.499960128959356,-13.499988106923267,4.208560752719022e-05,0.00016279663045123304,0.00018752264715050587,-8.223945937479197e-05,-0.025032277505064822,-0.0021048204622756425,-0.036822828673917396,0,70,255.0,255.0,255.0
2,0.1,-1.4999828386124747,-13.49998147589769,-7.885856630413071e-06,-0.0010623655103953608,7.543675192599312e-05,-0.0019132382138586782,-0.02397420812879893,-0.0023786153467048672,-0.03641712150543805,0,70,255.0,255.0,255.0
3,0.15000000000000002,-1.5000654837859153,-13.499980791410477,-0.00014890012455161155,-0.002234624182428661,-5.033888751998091e-05,-0.0037239516099185975,-0.022916138752533042,-0.0026524102311340923,-0.036011414336958696,0,70,255.0,255.0,255.0
4,0.2,-1.5002054193062375,-13.499986737948843,-0.0003799429283152067,-0.003353979385648665,-0.00018980427118741612,-0.005514379647554548,-0.02185806937626715,-0.002926205115563317,-0.03560570716847935,0,70,255.0,255.0,255.0
5,0.25,-1.5004,-13.5,-0.0007,-0.004420431120055375,-0.00034295939907631257,-0.00728452232676653,-0.020800000000001255,-0.003199999999992543,-0.03519999999999997,0,70,255.0,255.0,255.0
6,0.30000000000000004,-1.5006465806937628,-13.500021262051156,-0.0011080570716847937,-0.005433979385648792,-0.0005098042711866705,-0.009034379647554547,-0.019741930623735367,-0.0034737948844217677,-0.034794292831520635,0,70,255.0,255.0,255.0
7,0.35000000000000003,-1.5009425162140848,-13.500051208589523,-0.0016030998754483889,-0.006394624182428913,-0.0006903388875184894,-0.010763951609918594,-0.018683861247469482,-0.003747589768850992,-0.03438858566304131,0,70,255.0,255.0,255.0
8,0.4,-1.5012851613875253,-13.50009052410231,-0.002184114143369587,-0.0073023655103957395,-0.0008845632480717697,-0.012473238213858677,-0.017625791871203597,-0.004021384653280217,-0.033982878494561976,0,70,255.0,255.0,255.0
9,0.45,-1.501671871040644,-13.500139893076733,-0.00285008560752719,-0.008157203369549271,-0.001092477352846511,-0.014162239459374792,-0.016567722494937712,-0.004295179537709441,-0.03357717132608265,0,70,255.0,255.0,255.0
10,0.5,-1.5021,-13.5002,-0.0036,-0.00895913775988951,-0.0013140812018427137,-0.015830955346466943,-0.01550965311867182,-0.004568974422138666,-0.03317146415760336,0,70,255.0,255.0,255.0
11,0.55,-1.5025679482655934,-13.50027084487211,-0.0044330573207880175,-0.009770879087856241,-0.0015083055623968467,-0.017492241950407026,-0.016959999999997425,-0.003200000000026647,-0.03328000000000002,0,70,255.0,255.0,255.0
12,0.6000000000000001,-1.5030782965311866,-13.50034968974422,-0.0053493146415760345,-0.010655137759889253,-0.0016340812018453786,-0.019158955346466947,-0.01841034688132303,-0.0018310255779146272,-0.033388535842396684,0,70,255.0,255.0,255.0
13,0.65,-1.5036346706639834,-13.500433112180275,-0.006349043301970042,-0.011611913775988544,-0.0016914081201883095,-0.020831095534646696,-0.01986069376264863,-0.00046205115580261105,-0.03349707168479334,0,70,255.0,255.0,255.0
14,0.7000000000000001,-1.5042406965311867,-13.500517689744223,-0.007432514641576036,-0.012641207136154117,-0.0016802863174256396,-0.022508662514946282,-0.02131104064397424,0.0009069232663094081,-0.03360560752719001,0,70,255.0,255.0,255.0
15,0.75,-1.5049,-13.5006,-0.0086,-0.013743017840385967,-0.0016007157935573689,-0.0241916562873657,-0.022761387525299867,0.002275897688421428,-0.033714143369586724,0,70,255.0,255.0,255.0
16,0.8,-1.5056152262438638,-13.500677758460403,-0.009851713645163141,-0.014858504262925145,-0.0015209734792352872,-0.02587665255081735,-0.02185806937626716,0.0009137948844618394,-0.03368570716847931,0,70,255.0,255.0,255.0
17,0.8500000000000001,-1.5063850976611683,-13.500753232433594,-0.011187641558247481,-0.015928824778012683,-0.0015093363051111848,-0.027560227004213633,-0.020954751227234454,-0.00044830791949774943,-0.03365727096737189,0,70,255.0,255.0,255.0
18,0.9,-1.5072073559565407,-13.500829827176585,-0.012607712648750248,-0.01695397938564859,-0.0015658042711850619,-0.02924237964755454,-0.02005143307820175,-0.001810410723457335,-0.03362883476626447,0,70,255.0,255.0,255.0
19,0.9500000000000001,-1.508079742834609,-13.500910947946382,-0.014111855826168678,-0.01793396808583286,-0.0016903773774569184,-0.03092311048084008,-0.01914811492916904,-0.0031725135274169236,-0.03360039856515705,0,70,255.0,255.0,255.0
20,1.0,-1.509,-13.501,-0.0157,-0.018868790878565495,-0.001883055623926754,-0.032602419504070244,-0.018244796780136407,-0.004534616331376513,-0.03357196236404941,0,70,255.0,255.0,255.0
21,1.05,-1.5099663467589512,-13.50109972128628,-0.017372088098559422,-0.01978710386044245,-0.002103800520653903,-0.034281147846323544,-0.018487722494941773,-0.0042951795377094435,-0.03357717132608259,0,70,255.0,255.0,255.0
22,1.1,-1.5109789128241398,-13.501210180521404,-0.01912811912543405,-0.020717563128059672,-0.0023125735776976988,-0.035960136636678505,-0.018730648209747135,-0.004055742744042374,-0.03358238028811576,0,70,255.0,255.0,255.0
23,1.1500000000000001,-1.5120383055098527,-13.501330779113388,-0.02096810610302897,-0.021660168681417166,-0.002509374795058141,-0.03763938587513513,-0.0189735739245525,-0.0038163059503753044,-0.033587589250148944,0,70,255.0,255.0,255.0
24,1.2000000000000002,-1.513145132130377,-13.501460918470249,-0.022892062053749263,-0.022614920520514923,-0.0026942041727352293,-0.0393188955616934,-0.019216499639357867,-0.003576869156708235,-0.03359279821218212,0,70,255.0,255.0,255.0
25,1.25,-1.5143,-13.5016,-0.0249,-0.02358181864535295,-0.002867061710728964,-0.040998665696353326,-0.019459425354163284,-0.0033374323630411817,-0.03359800717421524,0,70,255.0,255.0,255.0
26,1.3,-1.5155033867203311,-13.50174735639448,-0.026991933960599172,-0.024553080295306288,-0.003023824438147888,-0.04267875606388846,-0.019391040643970202,-0.002933076733715753,-0.03360560752719022,0,70,255.0,255.0,255.0
27,1.35,-1.5167552510422722,-13.50190204548079,-0.02916788194001633,-0.02552092270974997,-0.00316036938410054,-0.04435922644907235,-0.019322655933777123,-0.002528721104390324,-0.0336132078801652,0,70,255.0,255.0,255.0
28,1.4000000000000001,-1.5180554220040476,-13.502063056369865,-0.03142786293913389,-0.026485345888684002,-0.00327669654858692,-0.04604007685190498,-0.01925427122358404,-0.002124365475064895,-0.033620808233140176,0,70,255.0,255.0,255.0
29,1.4500000000000002,-1.519403728643882,-13.502229378172624,-0.033771895958834314,-0.027446349832108377,-0.0033728059316070294,-0.047721307272386375,-0.01918588651339096,-0.001720009845739466,-0.033628408586115155,0,70,255.0,255.0,255.0
30,1.5,-1.5208,-13.5024,-0.0362,-0.028403934540023098,-0.0034486975331608667,-0.04940291771051649,-0.019117501803198073,-0.0013156542164140528,-0.03363600893908997,0,70,255.0,255.0,255.0
31,1.55,-1.522244106359724,-13.502574053135808,-0.03871217605904389,-0.02936057495833228,-0.0035129017267559004,-0.05108382789812266,-0.01914811492916913,-0.0012525135273872944,-0.033600398565156744,0,70,255.0,255.0,255.0
32,1.6,-1.5237360830067714,-13.502751237555435,-0.041308353114500665,-0.030318746032940012,-0.0035739488858995963,-0.052762957567032163,-0.019178728055140187,-0.0011893728383605361,-0.033564788191223514,0,70,255.0,255.0,255.0
33,1.6500000000000001,-1.5252760064739568,-13.502931395407158,-0.0439884421404355,-0.03127844776384629,-0.003631839010591954,-0.054440306717245014,-0.019209341181111245,-0.0011262321493337778,-0.03352917781729029,0,70,255.0,255.0,255.0
34,1.7000000000000002,-1.5268639532940944,-13.503114368839253,-0.04675235411091356,-0.032239680151051144,-0.003686572100832974,-0.0561158753487612,-0.0192399543070823,-0.0010630914603070194,-0.03349356744335706,0,70,255.0,255.0,255.0
35,1.75,-1.5285,-13.5033,-0.0496,-0.03320244319455453,-0.003738148156622656,-0.057789663461580716,-0.019270567433053387,-0.0009999507712802613,-0.03345795706942417,0,70,255.0,255.0,255.0
36,1.8,-1.5301841878407716,-13.503488431062289,-0.05253136180322529,-0.03416461987136492,-0.003804568654823333,-0.05946593234362088,-0.019216499639362106,-0.0016568691567468213,-0.03359279821218236,0,70,255.0,255.0,255.0
37,1.85,-1.5319164169306418,-13.50368100429747,-0.05554670560198106,-0.035124093158490736,-0.0039038350722973383,-0.061148943282798955,-0.019162431845670826,-0.0023137875422133813,-0.03372763935494055,0,70,255.0,255.0,255.0
38,1.9000000000000001,-1.533696552100126,-13.503879362001506,-0.05864636849912416,-0.036080863055932,-0.004035947409044671,-0.06283869627911494,-0.01910836405197954,-0.0029707059276799412,-0.033862480497698744,0,70,255.0,255.0,255.0
39,1.9500000000000002,-1.53552445817974,-13.504085146470363,-0.06183068759751153,-0.0370349295636887,-0.004200905665065332,-0.06453519133256883,-0.01905429625828826,-0.0036276243131465017,-0.033997321640456934,0,70,255.0,255.0,255.0
40,2.0,-1.5374,-13.5043,-0.0651,-0.037986292681760826,-0.004398709840359322,-0.06623842844316064,-0.01900022846459709,-0.0042845426986130655,-0.03413216278321474,0,70,255.0,255.0,255.0
41,2.0500000000000003,-1.5393231422771891,-13.504525022615036,-0.06845437672805496,-0.03894094555621043,-0.004596823653967172,-0.06793244272739389,-0.01918588651338683,-0.0036400098457008874,-0.03362840858611466,0,70,255.0,255.0,255.0
42,2.1,-1.5412942492706618,-13.504759145254686,-0.07189282447757515,-0.03990488133309951,-0.004762710824929411,-0.0696012693017721,-0.019371544562176567,-0.0029954769927887153,-0.033124654389014595,0,70,255.0,255.0,255.0
43,2.15,-1.54331378512554,-13.505000756586819,-0.07541408386306789,-0.04087810001242808,-0.004896371353246042,-0.07124490816629533,-0.019557202610966308,-0.0023509441398765424,-0.03262090019191453,0,70,255.0,255.0,255.0
44,2.2,-1.5453822139869453,-13.5052482452793,-0.07901689549904044,-0.04186060159419615,-0.004997805238917065,-0.07286335932096355,-0.019742860659756046,-0.0017064112869643647,-0.03211714599481445,0,70,255.0,255.0,255.0
45,2.25,-1.5475,-13.5055,-0.0827,-0.04285238607840369,-0.005067012481942479,-0.07445662276577678,-0.01992851870854606,-0.0010618784340521922,-0.03161339179771461,0,70,255.0,255.0,255.0
46,2.3000000000000003,-1.549667243050472,-13.505754678477567,-0.08646233128455502,-0.0438315979037943,-0.0051201367293014595,-0.0760362967468036,-0.01923995430707812,-0.0010630914603070181,-0.031573567443357445,0,70,255.0,255.0,255.0
47,2.35,-1.5518825859867116,-13.506012014683785,-0.0903035964877184,-0.04477638150911151,-0.005173321627973181,-0.07761397951011252,-0.018551389905610182,-0.0010643044865618443,-0.031533743089000275,0,70,255.0,255.0,255.0
48,2.4000000000000004,-1.5541443073977153,-13.50627201165122,-0.09422369604860431,-0.04568673689435532,-0.005226567177957644,-0.07918967105570361,-0.017862825504142237,-0.0010655175128166702,-0.03149391873464311,0,70,255.0,255.0,255.0
49,2.45,-1.5564506858724791,-13.506534672412437,-0.09822253040632681,-0.04656266405952573,-0.005279873379254848,-0.08076337138357684,-0.017174261102674303,-0.0010667305390714963,-0.031454094380285944,0,70,255.0,255.0,255.0
50,2.5,-1.5588,-13.5068,-0.1023,-0.04740416300462275,-0.005333240231864794,-0.08233508049373221,-0.01648569670120653,-0.001067943565326357,-0.031414270025929114,0,70,255.0,255.0,255.0
51,2.5500000000000003,-1.5611910855209232,-13.507068263474695,-0.10645629813372509,-0.04824466282861024,-0.005402629428827581,-0.08392237028539187,-0.017134296258292762,-0.0017076243131850998,-0.032077321640456916,0,70,255.0,255.0,255.0
52,2.6,-1.5636250067824917,-13.507340796010173,-0.11069278957155129,-0.04911759263045203,-0.005504002663183304,-0.08554281265777791,-0.017782895815378987,-0.0023473050610438376,-0.03274037325498471,0,70,255.0,255.0,255.0
53,2.6500000000000004,-1.5661033852835993,-13.507619196808303,-0.115011131942515,-0.05002295241014814,-0.005637359934931965,-0.08719640761089034,-0.018431495372465218,-0.0029869858089025805,-0.03340342486951252,0,70,255.0,255.0,255.0
54,2.7,-1.5686278425231377,-13.507905065070956,-0.11941298287565245,-0.05096074216769855,-0.005802701244073562,-0.08888315514472916,-0.01908009492955144,-0.0036266665567613178,-0.03406647648404031,0,70,255.0,255.0,255.0
55,2.75,-1.5712,-13.5082,-0.1239,-0.051930961903103284,-0.006000026590608096,-0.09060305525929437,-0.01972869448663761,-0.004266347304620041,-0.034729528098567886,0,70,255.0,255.0,255.0
56,2.8000000000000003,-1.5738212148658355,-13.508505067623654,-0.12847327618054472,-0.052917750781763244,-0.0061973455553967416,-0.09232222211162892,-0.019742860659760365,-0.00362641128692577,-0.03403714599481444,0,70,255.0,255.0,255.0
57,2.85,-1.5764917868833206,-13.508819201275525,-0.13313164522607646,-0.05390524796907932,-0.0063626677193006735,-0.09400676985877582,-0.019757026832883117,-0.002986475269231505,-0.033344763891061,0,70,255.0,255.0,255.0
58,2.9000000000000004,-1.5792117514678876,-13.509140801115569,-0.13787337618133585,-0.054893453465051555,-0.0064959930823198925,-0.09565669850073504,-0.019771193006005872,-0.0023465392515372337,-0.032652381787307554,0,70,255.0,255.0,255.0
59,2.95,-1.5819811440349703,-13.509468267303742,-0.14269673809106348,-0.055882367269679906,-0.006597321644454398,-0.09727200803750657,-0.019785359179128624,-0.0017066032338429685,-0.03195999968355412,0,70,255.0,255.0,255.0
60,3.0,-1.5848,-13.5098,-0.1476,-0.05687198938296441,-0.006666653405704189,-0.09885269846909042,-0.019799525352251046,-0.0010666672161487034,-0.0312676175797999,0,70,255.0,255.0,255.0
61,3.0500000000000003,-1.5876680550157345,-13.510134666030691,-0.15258179714409617,-0.05784433404433744,-0.006719988349584694,-0.10042074126809258,-0.019094261102669804,-0.0010667305390715171,-0.03145409438028595,0,70,255.0,255.0,255.0
62,3.1,-1.5905838456842258,-13.510471998887727,-0.157642229524143,-0.05878141549323139,-0.006773326459611341,-0.10199810790711902,-0.018388996853088566,-0.0010667938619943306,-0.031640571180771994,0,70,255.0,255.0,255.0
63,3.1500000000000004,-1.5935456088448496,-13.510811998729421,-0.16278176333214184,-0.05968323372964629,-0.006826667735784127,-0.10358479838616978,-0.017683732603507325,-0.0010668571849171444,-0.03182704798125804,0,70,255.0,255.0,255.0
64,3.2,-1.5965515813369824,-13.511154665714075,-0.16800086476009374,-0.06054978875358213,-0.006880012178103055,-0.10518081270524482,-0.016978468353926086,-0.0010669205078399579,-0.03201352478174409,0,70,255.0,255.0,255.0
65,3.25,-1.5996,-13.5115,-0.1733,-0.06138108056503889,-0.006933359786568123,-0.10678615086434418,-0.016273204104344907,-0.0010669838307627438,-0.03220000158223013,0,70,255.0,255.0,255.0
66,3.3000000000000003,-1.6026897650712262,-13.511848268253585,-0.1786795352430708,-0.06221691304088631,-0.0070027010462563365,-0.10839481281600093,-0.017160094929551787,-0.001706666556765777,-0.03214647648404005,0,70,255.0,255.0,255.0
67,3.35,-1.6058224303797761,-13.512200803173563,-0.1841394366773516,-0.06309709005799406,-0.0071040264422447,-0.11000079851274819,-0.01804698575475866,-0.002346349282768804,-0.03209295138584998,0,70,255.0,255.0,255.0
68,3.4000000000000004,-1.6090002131527132,-13.512559203966749,-0.18967957049009712,-0.06402161161636218,-0.007237335974533217,-0.11160410795458593,-0.018933876579965543,-0.0029860320087718374,-0.0320394262876599,0,70,255.0,255.0,255.0
69,3.45,-1.6122253306171002,-13.512925069839955,-0.19529980286856174,-0.06499047771599062,-0.007402629643121885,-0.11320474114151419,-0.019820767405172416,-0.0036257147347748646,-0.031985901189469826,0,70,255.0,255.0,255.0
70,3.5,-1.6155,-13.5133,-0.201,-0.0660036883568794,-0.007599907448010703,-0.11480269807353291,-0.020707658230379233,-0.004265397460777906,-0.031932376091279524,0,70,255.0,255.0,255.0
71,3.5500000000000003,-1.6188256846993607,-13.513685060954964,-0.20678006188362089,-0.06701601379211722,-0.007797207465376967,-0.11640000746790373,-0.01978535917913275,-0.00362660323387261,-0.03195999968355338,0,70,255.0,255.0,255.0
72,3.6,-1.6222008327966688,-13.514079188418012,-0.21264002376645064,-0.0679822242747927,-0.007962567771397965,-0.11799869804188826,-0.018863060127886275,-0.0029878090069673196,-0.03198762327582725,0,70,255.0,255.0,255.0
73,3.6500000000000004,-1.625623138544297,-13.514480785403583,-0.21857995470746996,-0.06890231980490584,-0.0080959883660737,-0.11959876979548646,-0.01794076107663979,-0.0023490147800620236,-0.03201524686810111,0,70,255.0,255.0,255.0
74,3.7,-1.6290902961946168,-13.514888254926099,-0.22459992376565951,-0.06977630038245666,-0.008197469249404166,-0.12120022272869838,-0.017018462025393317,-0.0017102205531567332,-0.032042870460374975,0,70,255.0,255.0,255.0
75,3.75,-1.6326,-13.5153,-0.2307,-0.07060416600744517,-0.008267010421389371,-0.12280305684152396,-0.0160961629741464,-0.001071426326251415,-0.03207049405264839,0,70,255.0,255.0,255.0
76,3.8000000000000003,-1.6361506961313317,-13.515714687926554,-0.23688021722244582,-0.07143103179064687,-0.008320469092241654,-0.1244051573123838,-0.016978468353921656,-0.001066920507839933,-0.03201352478174502,0,70,255.0,255.0,255.0
77,3.85,-1.6397438384335477,-13.516132043154373,-0.243140468256846,-0.07230201284283733,-0.008373702472173363,-0.12600440931969845,-0.017860773733696902,-0.0010624146894284508,-0.031956555510841644,0,70,255.0,255.0,255.0
78,3.9000000000000004,-1.6433816326700983,-13.516552054418922,-0.24948061068002328,-0.07321710916401657,-0.0084267105611845,-0.12760081286346794,-0.018743079113472155,-0.0010579088710169686,-0.03189958623993827,0,70,255.0,255.0,255.0
79,3.95,-1.6470662846044326,-13.516974710455646,-0.2559005020688004,-0.07417632075418455,-0.008479493359275062,-0.1291943679436923,-0.019625384493247404,-0.0010534030526054867,-0.0318426169690349,0,70,255.0,255.0,255.0
80,4.0,-1.6508,-13.5174,-0.2624,-0.0751796476133413,-0.00853205086644505,-0.13078507456037142,-0.020507689873022872,-0.0010488972341940739,-0.03178564769813086,0,70,255.0,255.0,255.0
81,4.05,-1.6545843307753134,-13.517828187338823,-0.268979069226596,-0.07618785904529607,-0.008600916165668535,-0.13237936328256142,-0.019820767405168273,-0.0017057147347452593,-0.031985901189468625,0,70,255.0,255.0,255.0
82,4.1000000000000005,-1.6584182134691399,-13.518260638964485,-0.2756381032061657,-0.07716172435385814,-0.008702622339919579,-0.1339836646793183,-0.019133844937313665,-0.0023625322352964565,-0.03218615468080639,0,70,255.0,255.0,255.0
83,4.15,-1.6622999307753095,-13.518698996920733,-0.2823776025724373,-0.07810124353902745,-0.008837169389198181,-0.13559797875064206,-0.018446922469459066,-0.003019349735847642,-0.03238640817214416,0,70,255.0,255.0,255.0
84,4.2,-1.6662277653876527,-13.519144903251322,-0.28919806795913927,-0.07900641660080404,-0.00900455731350434,-0.1372223054965327,-0.017760000001604468,-0.0036761672363988273,-0.03258666166348192,0,70,255.0,255.0,255.0
85,4.25,-1.6702,-13.5196,-0.2961,-0.07987724353918789,-0.009204786112838063,-0.13885664491699024,-0.01707307753374987,-0.004332984736949999,-0.03278691515481924,0,70,255.0,255.0,255.0
86,4.3,-1.6742151807674146,-13.520065362718155,-0.3030835058711703,-0.08072953202816668,-0.009403866245090618,-0.1404773895573701,-0.017018462025401627,-0.0036302205531522245,-0.03204287046037475,0,70,255.0,255.0,255.0
87,4.3500000000000005,-1.678272907689893,-13.52053980098769,-0.31014711891849167,-0.08157908974172806,-0.009567808168153287,-0.14206093196302771,-0.01696384651705338,-0.002927456369354437,-0.03129882576593025,0,70,255.0,255.0,255.0
88,4.4,-1.6823730442286637,-13.521021557898148,-0.3172889790302278,-0.08242591667987202,-0.009696611882026064,-0.14360727213396313,-0.016909231008705138,-0.0022246921855566624,-0.030554781071485765,0,70,255.0,255.0,255.0
89,4.45,-1.6865154538449565,-13.521508876539073,-0.3245072260946426,-0.08327001284259856,-0.009790277386708953,-0.14511641007017628,-0.016854615500356895,-0.0015219280017588878,-0.029810736377041278,0,70,255.0,255.0,255.0
90,4.5,-1.6907,-13.522,-0.3318,-0.0841113782299077,-0.009848804682201952,-0.14658834577166727,-0.016799999992008652,-0.00081916381796103,-0.029066691682597012,0,70,255.0,255.0,255.0
91,4.55,-1.6949269461550276,-13.522493561788563,-0.33916610728872254,-0.084974012842039,-0.009895618853966115,-0.1480630784879581,-0.017705384493243433,-0.0010534030526054912,-0.02992261696903635,0,70,255.0,255.0,255.0
92,4.6000000000000005,-1.6991981557712883,-13.522989757084758,-0.34660702111986796,-0.08588191667923206,-0.009954144987462502,-0.1495806074685709,-0.018610768994478232,-0.0012876422872499568,-0.030778542255475702,0,70,255.0,255.0,255.0
93,4.65,-1.7035158923100353,-13.523489171486672,-0.3541248813066518,-0.08683508974148683,-0.01002438308269111,-0.15114093271350568,-0.019516153495713014,-0.0015218815218944182,-0.03163446754191504,0,70,255.0,255.0,255.0
94,4.7,-1.7078824192325215,-13.52399239059239,-0.36172182766229044,-0.08783353202880335,-0.010106333139651943,-0.1527440542227624,-0.020421537996947795,-0.0017561207565388796,-0.03249039282835438,0,70,255.0,255.0,255.0
95,4.75,-1.7123,-13.5245,-0.3694,-0.0888772435411816,-0.010199995158344997,-0.1543899719963411,-0.0213269224981818,-0.001990359991183327,-0.033346318114793716,0,70,255.0,255.0,255.0
96,4.800000000000001,-1.716769834612475,-13.525012390127591,-0.3771608649739393,-0.08990241660367626,-0.010293658339035517,-0.15603829649079795,-0.01968000000160399,-0.0017561672364374249,-0.03258666166347955,0,70,255.0,255.0,255.0
97,4.8500000000000005,-1.7212888692249537,-13.525529170673275,-0.38500319660203713,-0.090845243541342,-0.01037561188198874,-0.1576486381626891,-0.01803307750502621,-0.0015219744816915267,-0.03182700521216541,0,70,255.0,255.0,255.0
98,4.9,-1.7258529865311951,-13.526049756155162,-0.39292509574316536,-0.09170572435417887,-0.01044585578720467,-0.1592209970120145,-0.016386155008448432,-0.0012877817269456287,-0.03106734876085126,0,70,255.0,255.0,255.0
99,4.95,-1.7304580692249578,-13.526573561091368,-0.40092466325619575,-0.09248385904218685,-0.010504390054683302,-0.16075537303877419,-0.014739232511870653,-0.0010535889721997307,-0.030307692309537112,0,70,255.0,255.0,255.0
100,5.0,-1.7351,-13.5271,-0.409,-0.09317964760536593,-0.010551214684424643,-0.16225176624296822,-0.013092310015292652,-0.0008193962174538466,-0.029548035858223187,0,70,255.0,255.0,255.0
101,5.050000000000001,-1.739776115395073,-13.527628877701071,-0.41714963281552075,-0.09388032074325718,-0.01060974778990411,-0.16373573554884988,-0.0149346155003572,-0.001521928001724761,-0.029810736377042527,0,70,255.0,255.0,255.0
102,5.1000000000000005,-1.7444895673288965,-13.528161560222145,-0.4253737924719841,-0.09467310915540166,-0.010703407484597121,-0.1652328398806725,-0.016776920985421714,-0.0022244597859956633,-0.030073436895861862,0,70,255.0,255.0,255.0
103,5.15,-1.749244961565184,-13.528699803892684,-0.433673135720687,-0.09555801284179935,-0.010832193768503676,-0.16674307923843606,-0.01861922647048623,-0.002926991570266565,-0.030336137414681198,0,70,255.0,255.0,255.0
104,5.2,-1.7540469038676476,-13.529245365042149,-0.44204831931292665,-0.09653503180245027,-0.010996106641623775,-0.1682664536221406,-0.020461531955550744,-0.003629523354537467,-0.030598837933500534,0,70,255.0,255.0,255.0
105,5.25,-1.7589,-13.5298,-0.4505,-0.09760416603735442,-0.01119514610395742,-0.16980296303178607,-0.02230383744061526,-0.004332055138808341,-0.030861538452319204,0,70,255.0,255.0,255.0
106,5.300000000000001,-1.7638073038072335,-13.530364899068127,-0.4590286037639782,-0.0986723004232935,-0.01139535050134099,-0.17133876131380293,-0.02042153799694743,-0.003676120756534367,-0.030570392828354404,0,70,255.0,255.0,255.0
107,5.3500000000000005,-1.7687656614594596,-13.53093898843815,-0.4676336335100271,-0.09964631983704918,-0.011562758179610859,-0.17286000231462154,-0.018539238553279637,-0.003020186374260404,-0.03027924720438961,0,70,255.0,255.0,255.0
108,5.4,-1.773770367208069,-13.531520628274103,-0.476314361374087,-0.10052622427862146,-0.01169736913876703,-0.17436668603424188,-0.016656939109611843,-0.0023642519919864417,-0.02998810158042482,0,70,255.0,255.0,255.0
109,5.45,-1.778816715304452,-13.53210817874004,-0.48507005949209797,-0.10131201374801035,-0.011799183378809502,-0.175858812472664,-0.014774639665944049,-0.0017083176097124789,-0.029696955956460023,0,70,255.0,255.0,255.0
110,5.5,-1.7839,-13.5327,-0.4939,-0.10200368824521586,-0.011868200899738278,-0.17733638162988785,-0.012892340222275811,-0.001052383227438461,-0.029405810332494564,0,70,255.0,255.0,255.0
111,5.550000000000001,-1.7890170693759928,-13.533294726026414,-0.5028039521285673,-0.10269447756356963,-0.011920850204730086,-0.17882921919593864,-0.014739232511874683,-0.001053588972233835,-0.030307692309536283,0,70,255.0,255.0,255.0
112,5.6000000000000005,-1.794170986833265,-13.53389208602526,-0.5117836734879082,-0.10347761149640332,-0.011973559796961662,-0.1803671508608415,-0.01658612480147352,-0.0010547947170292088,-0.031209574286577987,0,70,255.0,255.0,255.0
113,5.65,-1.799366369602541,-13.534492083010898,-0.5208414187829655,-0.10435309004371697,-0.012026329676433006,-0.18195017662459642,-0.01843301709107236,-0.0010560004618245828,-0.03211145626361969,0,70,255.0,255.0,255.0
114,5.7,-1.8046078349145447,-13.535094719997689,-0.5299794427186819,-0.10532091320551056,-0.01207915984314412,-0.18357829648720345,-0.020279909380671198,-0.0010572062066199566,-0.0330133382406614,0,70,255.0,255.0,255.0
115,5.75,-1.8099,-13.5357,-0.5392,-0.10638108098178409,-0.012132050297095002,-0.18525151044866256,-0.022126801670269813,-0.0010584119514152751,-0.03391522021770266,0,70,255.0,255.0,255.0
116,5.800000000000001,-1.815246018688796,-13.536308196826212,-0.5485043877217537,-0.1074457893224294,-0.012201248679743081,-0.18691236190244265,-0.02046153195554219,-0.0017095233545078201,-0.032518837933500924,0,70,255.0,255.0,255.0
117,5.8500000000000005,-1.820643191207481,-13.53692066746081,-0.5578900725383409,-0.10842723417733832,-0.012303002632545783,-0.18850339424201268,-0.01879626224081459,-0.0023606347576003535,-0.031122455649299215,0,70,255.0,255.0,255.0
118,5.9,-1.8260873543817675,-13.537539039682303,-0.5673535634940513,-0.10932541554651086,-0.012437312155503115,-0.19002460746737257,-0.017130992526086998,-0.003011746160692887,-0.029726073365097506,0,70,255.0,255.0,255.0
119,5.95,-1.8315743450373698,-13.538164941269196,-0.5768913696331746,-0.11014033342994702,-0.012604177248615072,-0.19147600157852243,-0.015465722811359401,-0.0036628575637854205,-0.028329691080895798,0,70,255.0,255.0,255.0
120,6.0,-1.8371,-13.5388,-0.5865,-0.11087198782764679,-0.012803597911881655,-0.19285757657546213,-0.01380045309663136,-0.004313968966877954,-0.026933308796693423,0,70,255.0,255.0,255.0
121,6.050000000000001,-1.8426612558688236,-13.539445286668737,-0.5961768969844191,-0.11158636514671129,-0.013002155076296306,-0.19422533319429097,-0.014774639665948022,-0.0036283176097079857,-0.027776955956459803,0,70,255.0,255.0,255.0
122,6.1000000000000005,-1.8482594483368124,-13.5400996441315,-0.605923236358729,-0.11234945179424159,-0.013166429672852456,-0.19563527217110813,-0.015748826235264666,-0.0029426662525380296,-0.028620603116226172,0,70,255.0,255.0,255.0
123,6.15,-1.853897012870389,-13.540761358259893,-0.6157411272408295,-0.11316124777023776,-0.013296421701550109,-0.1970873935059136,-0.016723012804581314,-0.002257014895368074,-0.02946425027599254,0,70,255.0,255.0,255.0
124,6.2,-1.859576384935977,-13.541428714925523,-0.6256326787486202,-0.11402175307469972,-0.013392131162389263,-0.19858169719870736,-0.017697199373897958,-0.0015713635381981177,-0.030307897435758905,0,70,255.0,255.0,255.0
125,6.25,-1.8653,-13.5421,-0.6356,-0.11493096770762753,-0.013453558055369921,-0.2001181832494895,-0.01867138594321438,-0.0008857121810281754,-0.031151544595525493,0,70,255.0,255.0,255.0
126,6.300000000000001,-1.8710697578359092,-13.542773856498838,-0.6456448243405711,-0.1158567500907248,-0.013502131015061978,-0.20167430532039413,-0.01835990938067557,-0.0010572062066540402,-0.031093338240659383,0,70,255.0,255.0,255.0
127,6.3500000000000005,-1.8768854154452703,-13.543450356013192,-0.6557673820267438,-0.1167669586456951,-0.013559278676035326,-0.20322751707355546,-0.01804843281813677,-0.001228700232279902,-0.031035131885793276,0,70,255.0,255.0,255.0
128,6.4,-1.8827461941366765,-13.54412992727813,-0.665967527542631,-0.11766159337253847,-0.013625001038289966,-0.20477781850897345,-0.017736956255597968,-0.0014001942579057636,-0.03097692553092717,0,70,255.0,255.0,255.0
129,6.45,-1.8886513152187219,-13.54481299902871,-0.6762451153723454,-0.11854065427125489,-0.013699298101825902,-0.20632520962664816,-0.017425479693059163,-0.0015716882835316254,-0.03091871917606106,0,70,255.0,255.0,255.0
130,6.5,-1.8946,-13.5455,-0.6866,-0.11940414134184439,-0.01378216986664313,-0.20786969042657957,-0.017114003130520916,-0.0017431823091574317,-0.03086051282119473,0,70,255.0,255.0,255.0
131,6.550000000000001,-1.9005917127875394,-13.54619128733591,-0.6970318056532971,-0.1202666344903913,-0.01386932086346596,-0.2093974455241319,-0.017385722811354958,-0.001742857563755762,-0.030249691080897048,0,70,255.0,255.0,255.0
132,6.6000000000000005,-1.9066268898821066,-13.546886931815726,-0.7075392355342964,-0.12114271362297989,-0.013956455623018707,-0.2108946595346693,-0.017657442492188993,-0.0017425328183540922,-0.029638869340599377,0,70,255.0,255.0,255.0
133,6.65,-1.9127062105829045,-13.54758693262759,-0.7181207625886471,-0.12203237873961019,-0.014043574145301368,-0.2123613324581918,-0.01792916217302303,-0.0017422080729524226,-0.029028047600301705,0,70,255.0,255.0,255.0
134,6.7,-1.918830354189135,-13.548291288959634,-0.7287748597619986,-0.1229356298402822,-0.01413067643031395,-0.21379746429469945,-0.018200881853857067,-0.0017418833275507529,-0.028417225860004034,0,70,255.0,255.0,255.0
135,6.75,-1.925,-13.549,-0.7395,-0.1238524669249959,-0.014217762478056445,-0.2152030550441922,-0.018472601534691546,-0.0017415585821491247,-0.02780640411970503,0,70,255.0,255.0,255.0
136,6.800000000000001,-1.9312153910139347,-13.549712994157527,-0.7502951530462412,-0.12475671194771053,-0.014300585531065129,-0.21660791258307885,-0.017697199373893656,-0.0015713635381981509,-0.028387897435758855,0,70,255.0,255.0,255.0
137,6.8500000000000005,-1.9374750250263038,-13.550429916723903,-0.7611612758360714,-0.12562218686238527,-0.014374898831876261,-0.2180418447877681,-0.016921797213095783,-0.00140116849424718,-0.02896939075181267,0,70,255.0,255.0,255.0
138,6.9,-1.9437769635317057,-13.551150342211512,-0.7720998221027813,-0.1264488916690201,-0.014440702380489846,-0.2195048516582601,-0.016146395052297906,-0.0012309734502962094,-0.029550884067866483,0,70,255.0,255.0,255.0
139,6.95,-1.9501192680247386,-13.551873845132748,-0.7831122455796607,-0.12723682636761505,-0.014497996176905881,-0.22099693319455474,-0.015370992891500032,-0.0010607784063452386,-0.030132377383920297,0,70,255.0,255.0,255.0
140,7.0,-1.9565,-13.5526,-0.7942,-0.1279859909581701,-0.014546780221124371,-0.2225180893966521,-0.014595590730702046,-0.0008905833623943371,-0.03071387069997411,0,70,255.0,255.0,255.0
141,7.050000000000001,-1.9629179231567229,-13.553328736033977,-0.8053643821617394,-0.12873851771876435,-0.014608337012273374,-0.22405890414355295,-0.015505479693068138,-0.0015716882835657294,-0.03091871917605924,0,70,255.0,255.0,255.0
142,7.1000000000000005,-1.9693746100126783,-13.554061401288662,-0.8166060611214188,-0.1295365389274769,-0.014703949049480943,-0.22560996131425806,-0.016415368655434213,-0.0022527932047371095,-0.03112356765214437,0,70,255.0,255.0,255.0
143,7.15,-1.9758723352902723,-13.55479969852636,-0.8279255490002286,-0.1303800545843078,-0.014833616332747084,-0.22717126090876738,-0.01732525761780029,-0.00293389812590849,-0.0313284161282295,0,70,255.0,255.0,255.0
144,7.2,-1.9824133737119112,-13.555545330509371,-0.8393233579193589,-0.13126906468925692,-0.014997338862071791,-0.228742802927081,-0.018235146580166364,-0.0036150030470798703,-0.031533264604314624,0,70,255.0,255.0,255.0
145,7.25,-1.989,-13.5563,-0.8508,-0.1322035692423244,-0.015195116637455068,-0.23032458736919884,-0.019145035542531996,-0.004296107968251209,-0.03173811308039842,0,70,255.0,255.0,255.0
146,7.300000000000001,-1.9956337163591744,-13.557064861706566,-0.8623553183068021,-0.13313721717723415,-0.015394066419849155,-0.23187647084270893,-0.018200881853857074,-0.0036618833275121657,-0.030337225860004872,0,70,255.0,255.0,255.0
147,7.3500000000000005,-2.002312934922983,-13.557838878121451,-0.873986479678254,-0.13402365742771014,-0.015561304970206287,-0.23335830995519935,-0.01725672816518217,-0.003027658686773134,-0.028936338639611342,0,70,255.0,255.0,255.0
148,7.4,-2.0090352953072044,-13.558620463683052,-0.885689981896305,-0.13486288999375237,-0.015696832288526467,-0.23477010470667006,-0.01631257447650726,-0.0023934340460341026,-0.027535451419217816,0,70,255.0,255.0,255.0
149,7.45,-2.0157984371276174,-13.559408032829769,-0.8974623227429039,-0.13565491487536083,-0.015800648374809694,-0.2361118550971211,-0.015368420787832356,-0.0017592094052950708,-0.02613456419882429,0,70,255.0,255.0,255.0
150,7.5,-2.0226,-13.5602,-0.9093,-0.13639973207253556,-0.015872753229055972,-0.23738356112655248,-0.014424267099156785,-0.0011249847645559696,-0.024733676978430763,0,70,255.0,255.0,255.0
151,7.550000000000001,-2.029438411406581,-13.560995017139758,-0.9212007446110532,-0.13714461357230165,-0.015927397308328504,-0.2386592124856113,-0.015370992891487103,-0.0010607784063452633,-0.026292377383921005,0,70,255.0,255.0,255.0
152,7.6000000000000005,-2.0363152502953903,-13.561792686225536,-0.9331672201655659,-0.13793683136168428,-0.0159788310696905,-0.2400127988649446,-0.016317718683817404,-0.0009965720481345578,-0.027851077789411222,0,70,255.0,255.0,255.0
153,7.65,-2.0432328834809095,-13.56259284674143,-0.945203323414552,-0.13877638544068338,-0.01602705451314196,-0.2414443202645524,-0.01726444447614771,-0.0009323656899238525,-0.029409778194901436,0,70,255.0,255.0,255.0
154,7.7,-2.0501936777776195,-13.56339533817155,-0.9573129511090257,-0.13966327580929905,-0.016072067638682883,-0.24295377668443474,-0.01821117026847801,-0.0008681593317131473,-0.030968478600391654,0,70,255.0,255.0,255.0
155,7.75,-2.0572,-13.5642,-0.9695,-0.14059750246753117,-0.016113870446313273,-0.24454116812459153,-0.0191578960608072,-0.0008039529735023865,-0.032527179005881646,0,70,255.0,255.0,255.0
156,7.800000000000001,-2.064253438014502,-13.565007069734396,-0.9817673032489865,-0.14153232853355582,-0.016176344346828794,-0.24614267921484645,-0.018235146580178784,-0.001695003047118428,-0.031533264604314125,0,70,255.0,255.0,255.0
157,7.8500000000000005,-2.071352463895455,-13.565818376976411,-0.9941134396594834,-0.14242101712554905,-0.016283370751025115,-0.24769449458502296,-0.017312397099550382,-0.0025860531207344533,-0.030539350202746618,0,70,255.0,255.0,255.0
158,7.9,-2.078494770769157,-13.566636149351226,-1.0065359244454875,-0.14326356824351086,-0.01643494965890224,-0.2491966142351211,-0.01638964761892198,-0.003477103194350479,-0.029545435801179114,0,70,255.0,255.0,255.0
159,7.95,-2.085678051761906,-13.567462614484029,-1.0190322728209942,-0.14405998188744126,-0.016631081070460164,-0.2506490381651409,-0.01546689813829358,-0.0043681532679665045,-0.02855152139961161,0,70,255.0,255.0,255.0
160,8.0,-2.0929,-13.5683,-1.0316,-0.1448102580573402,-0.01687176498569889,-0.25205176637508225,-0.014544148657665179,-0.005259203341582502,-0.027557606998043216,0,70,255.0,255.0,255.0
161,8.05,-2.1001590365354104,-13.569149503922656,-1.0442372423930024,-0.14555807229347756,-0.017095225304369868,-0.25344207065500385,-0.01536842078782793,-0.003679209405256417,-0.028054564198819517,0,70,255.0,255.0,255.0
162,8.1,-2.10745649412279,-13.570008205868824,-1.056944621196501,-0.14634710013612298,-0.017239685926224536,-0.2548572227949642,-0.016192692917990654,-0.0020992154689303878,-0.0285515213995958,0,70,255.0,255.0,255.0
163,8.15,-2.1147944334424644,-13.570872155853664,-1.0697233788034994,-0.14717734158527662,-0.0173051468512629,-0.2562972227949634,-0.017016965048153403,-0.0005192215326043021,-0.0290484786003721,0,70,255.0,255.0,255.0
164,8.200000000000001,-2.1221749151747598,-13.571737403892337,-1.0825747576069982,-0.14804879664093837,-0.017291608079484964,-0.25776207065500145,-0.017841237178316156,0.0010607724037217832,-0.0295454358011484,0,70,255.0,255.0,255.0
165,8.25,-2.1296,-13.5726,-1.0955,-0.1489614653031082,-0.017199069610890728,-0.2592517663750782,-0.018665509308478212,0.0026407663400478676,-0.03004239300192335,0,70,255.0,255.0,255.0
166,8.3,-2.1370712158438576,-13.573457314574982,-1.1084997271790058,-0.1498833822925321,-0.01710675443568247,-0.26072903816513615,-0.018211170268477288,0.0010518406682823941,-0.029048478600395798,0,70,255.0,255.0,255.0
167,8.35,-2.1445879596133866,-13.574311999548293,-1.1215720755545122,-0.15078258232995592,-0.017093885544062486,-0.26215661423511777,-0.01775683122847638,-0.000537085003483023,-0.028054564198868277,0,70,255.0,255.0,255.0
168,8.4,-2.1521490954609868,-13.575168027234115,-1.1347145603405162,-0.15165906541537974,-0.017160462936030775,-0.263534494585023,-0.017302492188475457,-0.0021260106752484962,-0.027060649797340724,0,70,255.0,255.0,255.0
169,8.450000000000001,-2.1597534875390574,-13.576029369946623,-1.1479246967510135,-0.1525128315488035,-0.01730648661158734,-0.2648626792148519,-0.016848153148474532,-0.00371493634701397,-0.026066735395813168,0,70,255.0,255.0,255.0
170,8.5,-2.1674,-13.5769,-1.1612,-0.1533438807302272,-0.01753195657073217,-0.2661411681246043,-0.01639381410847296,-0.005303862018779415,-0.02507282099428565,0,70,255.0,255.0,255.0
171,8.55,-2.1750873000891597,-13.577782837777415,-1.1745390488909757,-0.15414039853639636,-0.017773756952901672,-0.2674337766844518,-0.015466898138293304,-0.004368153268000606,-0.02663152139961176,0,70,255.0,255.0,255.0
172,8.6,-2.1828132674236644,-13.578676595937997,-1.1879446765854496,-0.15489057054405653,-0.01796877189753223,-0.26880432026456547,-0.014539982168113681,-0.0034324445172218285,-0.02819022180493781,0,70,255.0,255.0,255.0
173,8.65,-2.19057558471359,-13.579578935209875,-1.2014207798344365,-0.15559439675320771,-0.018117001404623856,-0.2702527988649455,-0.013613066197934025,-0.002496735766443019,-0.029748922210263918,0,70,255.0,255.0,255.0
174,8.700000000000001,-2.1983719346690105,-13.580487516321169,-1.2149712553889491,-0.15625187716384994,-0.018218445474176538,-0.2717792124855919,-0.01268615022775437,-0.001561027015664209,-0.031307622615590024,0,70,255.0,255.0,255.0
175,8.75,-2.2062,-13.5814,-1.2286,-0.15686301177598314,-0.018273104106190277,-0.2733835611265045,-0.01175923425757408,-0.0006253182648854327,-0.03286632302091519,0,70,255.0,255.0,255.0
176,8.8,-2.214058783799505,-13.582314534315362,-1.2423096772570934,-0.15750702356188018,-0.018310217752718405,-0.2749918550970561,-0.014001237178307667,-0.0008592275962396456,-0.031465435801147,0,70,255.0,255.0,255.0
177,8.85,-2.221952570691955,-13.583231216699714,-1.256098018103689,-0.15826313549381388,-0.01835902686581424,-0.27653010470661926,-0.016243240099041174,-0.0010931369275938502,-0.03006454858137887,0,70,255.0,255.0,255.0
178,8.9,-2.2298869656846536,-13.584150631926386,-1.2699615203217385,-0.15913134757178432,-0.01841953144547779,-0.277998309955194,-0.01848524301977476,-0.0013270462589480632,-0.028663661361610682,0,70,255.0,255.0,255.0
179,8.950000000000001,-2.2378675737849014,-13.585073364768707,-1.2838966816931923,-0.1601116597957914,-0.01849173149170905,-0.2793964708427803,-0.020727245940508347,-0.001560955590302276,-0.0272627741418425,0,70,255.0,255.0,255.0
180,9.0,-2.2459,-13.586,-1.2979,-0.16120407216583515,-0.018575627004508016,-0.28072458736937816,-0.022969248861241187,-0.0017948649216564805,-0.025861886922073918,0,70,255.0,255.0,255.0
181,9.05,-2.2539879647128216,-13.586931024961139,-1.3119686420806524,-0.16229550721607847,-0.01866537203622489,-0.28202280292732534,-0.02068815314849074,-0.0017949363470184387,-0.02606673539581346,0,70,255.0,255.0,255.0
182,9.1,-2.2621276498085137,-13.587866537263144,-1.3261024509997938,-0.16327288748068422,-0.01875512063920986,-0.2833312609089595,-0.018407057435740375,-0.001795007772380397,-0.026271583869552993,0,70,255.0,255.0,255.0
183,9.15,-2.2703133525477956,-13.58880653708458,-1.34030193887861,-0.1641362129596525,-0.018844872813462928,-0.28464996131428066,-0.01612596172298993,-0.0017950791977423552,-0.026476432343292534,0,70,255.0,255.0,255.0
184,9.200000000000001,-2.2785393701913854,-13.589751024604011,-1.354567617838284,-0.16488548365298322,-0.0189346285589841,-0.2859789041432888,-0.013844866010239484,-0.0017951506231043135,-0.026681280817032076,0,70,255.0,255.0,255.0
185,9.25,-2.2868,-13.5907,-1.3689,-0.16552069956067644,-0.019024387875773364,-0.28731808939598386,-0.011563770297488674,-0.0017952220484662995,-0.026886129290769833,0,70,255.0,255.0,255.0
186,9.3,-2.2950909573492098,-13.591653365840086,-1.3832997544202983,-0.1661269475738073,-0.01910829410237663,-0.2886769331936428,-0.012686150227745434,-0.0015610270156642203,-0.027467622615585184,0,70,255.0,255.0,255.0
187,9.35,-2.303413630073989,-13.59261063424771,-1.397768177897135,-0.16678931458345098,-0.01918049057733979,-0.29006485165754237,-0.013808530158002156,-0.0013268319828621494,-0.02804911594040051,0,70,255.0,255.0,255.0
188,9.4,-2.311770824124164,-13.59357121973529,-1.4123067241638232,-0.16750780058960751,-0.01924097730066284,-0.2914818447876828,-0.014930910088258916,-0.0010926369500600702,-0.02863060926521586,0,70,255.0,255.0,255.0
189,9.450000000000001,-2.320165345449559,-13.594534536815248,-1.4269168469536744,-0.1682824055922769,-0.019289754272345794,-0.292927912584064,-0.016053290018515676,-0.0008584419172579911,-0.029212102590031208,0,70,255.0,255.0,255.0
190,9.5,-2.3286,-13.5955,-1.4416,-0.16911312959145908,-0.01932682149238864,-0.29440305504668585,-0.017175669948771954,-0.0006242468844559201,-0.029793595914846094,0,70,255.0,255.0,255.0
191,9.55,-2.3370770058903387,-13.596467511678519,-1.4563571402381559,-0.1699647024886911,-0.01938145155425845,-0.2958774642981032,-0.016887245940508496,-0.0015609555903363847,-0.02918277414184657,0,70,255.0,255.0,255.0
192,9.600000000000001,-2.345596229895529,-13.597438925746014,-1.4711872374116666,-0.17080185418550994,-0.019482917051422282,-0.29732133246087056,-0.016598821932245038,-0.0024976642962168494,-0.028571952368847048,0,70,255.0,255.0,255.0
193,9.65,-2.3541569509555496,-13.598416583974247,-1.4860887644660987,-0.1716245846819156,-0.019631217983880133,-0.2987346595349879,-0.016310397923981586,-0.003434373002097281,-0.027961130595847546,0,70,255.0,255.0,255.0
194,9.700000000000001,-2.3627584480103803,-13.59940282813499,-1.501060194347021,-0.1724328939779081,-0.01982635435163201,-0.3001174455204553,-0.016021973915718128,-0.004371081707977745,-0.027350308822848023,0,70,255.0,255.0,255.0
195,9.75,-2.3714,-13.6004,-1.5161,-0.1732267820734874,-0.020068326154677907,-0.30146969041727273,-0.015733549907454236,-0.00530779041385826,-0.026739487049849853,0,70,255.0,255.0,255.0
196,9.8,-2.380081019089435,-13.60140938744584,-1.531206884627079,-0.17401424247142985,-0.02029389968060101,-0.3028052096139448,-0.01576486601024332,-0.0037151506230657548,-0.026681280817031715,0,70,255.0,255.0,255.0
197,9.850000000000001,-2.3888014503438955,-13.602428062768235,-1.546380472456201,-0.17480326867451176,-0.02043984121698449,-0.3041378184989759,-0.0157961821130324,-0.002122510832273249,-0.026623074584213577,0,70,255.0,255.0,255.0
198,9.9,-2.397561372053638,-13.603452044367712,-1.5616206179717826,-0.17559386068273308,-0.020506150763828338,-0.30546751707236613,-0.015827498215821478,-0.0005298710414808,-0.026564868351395442,0,70,255.0,255.0,255.0
199,9.950000000000001,-2.406360862508921,-13.604477350644792,-1.5769271756582435,-0.1763860184960939,-0.020492828321132566,-0.30679430533411545,-0.01585881431861056,0.001062768749311705,-0.026506662118577305,0,70,255.0,255.0,255.0
200,10.0,-2.4152,-13.6055,-1.5923,-0.17717974211459414,-0.02039987388889717,-0.30811818328422386,-0.015890130421400084,0.0026554085401040983,-0.026448455885758282,0,70,255.0,255.0,255.0
201,10.05,-2.4240789177519217,-13.606517338538128,-1.607739321253529,-0.17797832762559185,-0.02030694972332613,-0.3094616972461185,-0.016053290018507218,0.001061558082737501,-0.027292102590026093,0,70,255.0,255.0,255.0
202,10.100000000000001,-2.4329979687288907,-13.607532023181047,-1.6232468727635325,-0.1787850711164449,-0.02029371808062342,-0.3108473935432265,-0.016216449615614352,-0.0005322923746290962,-0.0281357492942939,0,70,255.0,255.0,255.0
203,10.15,-2.4419575608298976,-13.608548038554902,-1.6388247636467714,-0.17959997258715324,-0.020360178960789035,-0.3122752721755479,-0.016379609212721483,-0.0021261428319956366,-0.02897939599856168,0,70,255.0,255.0,255.0
204,10.200000000000001,-2.4509581019539364,-13.60956936928584,-1.6544751030200076,-0.18042303203771703,-0.020506332363822984,-0.31374533314308267,-0.016542768809828617,-0.0037199932893622343,-0.02982304270282949,0,70,255.0,255.0,255.0
205,10.25,-2.46,-13.6106,-1.6702,-0.18125424946813612,-0.020732178289725255,-0.31525757644583086,-0.0167059284069353,-0.00531384374672883,-0.03066668940709949,0,70,255.0,255.0,255.0
206,10.3,-2.469083309902878,-13.611642858401654,-1.6860006303588069,-0.18207244702620246,-0.020974301426093776,-0.31675600140157967,-0.01602197391571768,-0.004371081708011879,-0.029270308822853666,0,70,255.0,255.0,255.0
207,10.350000000000001,-2.4782066747405445,-13.612696644507578,-1.7018744364896716,-0.1828564468597079,-0.021169286460526446,-0.31818460732811626,-0.015338019424500063,-0.0034283196692949276,-0.02787392823860784,0,70,255.0,255.0,255.0
208,10.4,-2.487368384626772,-13.613759001412673,-1.7178179274411318,-0.18360624896865246,-0.02131713339302327,-0.3195433942254405,-0.014654064933282468,-0.00248555763057801,-0.02647754765436207,0,70,255.0,255.0,255.0
209,10.450000000000001,-2.496566729675334,-13.614827572211848,-1.7338276122617284,-0.18432185335303616,-0.021417842223584248,-0.3208323620935525,-0.01397011044206485,-0.0015427955918610589,-0.02508116707011624,0,70,255.0,255.0,255.0
210,10.5,-2.5058,-13.6159,-1.7499,-0.18500326001285894,-0.021471412952209376,-0.3220515109324521,-0.013286155950846812,-0.0006000335531440859,-0.023684786485872245,0,70,255.0,255.0,255.0
211,10.55,-2.5150670426365678,-13.61697442785526,-1.7660325573112439,-0.1856838842695957,-0.021507844572304223,-0.3232582971475634,-0.013938814318623658,-0.0008572312506497407,-0.02458666211857744,0,70,255.0,255.0,255.0
212,10.600000000000001,-2.524368932308933,-13.618050998788645,-1.7822265812777842,-0.18639714144472133,-0.02155713607727435,-0.32451017714430985,-0.014591472686400505,-0.0011144289481553955,-0.02548853775128264,0,70,255.0,255.0,255.0
213,10.65,-2.533707300663013,-13.6191303557944,-1.7984843265887018,-0.18714303153823575,-0.02161928746711976,-0.32580715092269164,-0.015244131054177329,-0.001371626645661041,-0.026390413383987805,0,70,255.0,255.0,255.0
214,10.700000000000001,-2.5430837793447294,-13.62021314186677,-1.8148080479330806,-0.18792155455013906,-0.021694298741840458,-0.32714921848270867,-0.015896789421954174,-0.0016288243431666959,-0.027292289016693002,0,70,255.0,255.0,255.0
215,10.75,-2.5525,-13.6213,-1.8312,-0.1887327104804312,-0.021782169901436433,-0.32853637982436096,-0.01654944778973122,-0.0018860220406724248,-0.028194164649397724,0,70,255.0,255.0,255.0
216,10.8,-2.561957319550851,-13.62239143017731,-1.8476619403962187,-0.18956001589542,-0.02187432028468741,-0.32993881000816655,-0.016542768809819954,-0.0017999932893667235,-0.027903042702825773,0,70,255.0,255.0,255.0
217,10.850000000000001,-2.571455996023726,-13.623487360337844,-1.8641936383991948,-0.1903869873614132,-0.02196216923037311,-0.3313266840946436,-0.016536089829908684,-0.0017139645380610223,-0.027611920756253818,0,70,255.0,255.0,255.0
218,10.9,-2.5809960127211755,-13.62458757540972,-1.880794366204061,-0.19121362487841084,-0.022045716738493516,-0.3327000020837919,-0.016529410849997418,-0.001627935786755324,-0.027320798809681877,0,70,255.0,255.0,255.0
219,10.950000000000001,-2.59057735294575,-13.625691860321066,-1.8974633960059517,-0.19203992844641293,-0.02212496280904864,-0.3340587639756118,-0.016522731870086148,-0.0015419070354496228,-0.027029676863109923,0,70,255.0,255.0,255.0
220,11.0,-2.6002,-13.6268,-1.9142,-0.19286589806541946,-0.02219990744203848,-0.33540296977010287,-0.01651605289017488,-0.0014558782841439522,-0.026738554916534873,0,70,255.0,255.0,255.0
221,11.05,-2.6098636791600307,-13.6279118514355,-1.9310036811038815,-0.19367605214872513,-0.022274874288939456,-0.3367464628197693,-0.015890110442051634,-0.001542795591895142,-0.02700116707012015,0,70,255.0,255.0,255.0
222,11.100000000000001,-2.6195670835961664,-13.629027559859983,-1.9478748651254385,-0.19445490910962462,-0.022354187001227998,-0.3381030864771149,-0.015264167993928383,-0.001629712899646332,-0.027263779223705428,0,70,255.0,255.0,255.0
223,11.15,-2.629308648452286,-13.630147342566714,-1.9648142085950542,-0.19520246894811796,-0.02243784557890409,-0.3394728407421398,-0.014638225545805158,-0.0017166302073975187,-0.027526391377290696,0,70,255.0,255.0,255.0
224,11.200000000000001,-2.6390868088722708,-13.631271416848964,-1.9818223680431137,-0.19591873166420515,-0.022525850021967747,-0.34085572561484395,-0.014012283097681908,-0.0018035475151487086,-0.02778900353087597,0,70,255.0,255.0,255.0
225,11.25,-2.6489,-13.6324,-1.9989,-0.19660369725788615,-0.022618200330418958,-0.3422517410952274,-0.013386340649559125,-0.0018904648228997567,-0.02805161568446035,0,70,255.0,255.0,255.0
226,11.3,-2.658747163809028,-13.633533164080683,-2.0160473351882557,-0.19728777550967455,-0.022706182559569767,-0.34363533871275637,-0.013976789421976096,-0.0016288243431325862,-0.027292289016697592,0,70,255.0,255.0,255.0
227,11.350000000000001,-2.6686292695916114,-13.634670400222223,-2.033262901099053,-0.1980013762000838,-0.022781082764732216,-0.34498096999689715,-0.014567238194393067,-0.0013671838633654157,-0.02653296234893483,0,70,255.0,255.0,255.0
228,11.4,-2.67854779346968,-13.635811054323423,-2.050544799415722,-0.19874449932911384,-0.02284290094590631,-0.34628863494764983,-0.015157686966810018,-0.0011055433835982546,-0.025773635681172097,0,70,255.0,255.0,255.0
229,11.450000000000001,-2.6885042115651663,-13.636954472283083,-2.067891131821595,-0.19951714489676478,-0.022891637103092045,-0.34755833356501437,-0.01574813573922699,-0.0008439029038310841,-0.025014309013409335,0,70,255.0,255.0,255.0
230,11.5,-2.6985,-13.6381,-2.0853,-0.20031931290303653,-0.022927291236289418,-0.34879006584899075,-0.016338584511643495,-0.0005822624240640339,-0.024254982345646603,0,70,255.0,255.0,255.0
231,11.55,-2.7085364656038577,-13.639247492241767,-2.102770178143098,-0.20114084581257957,-0.022980395472777262,-0.35002418232920934,-0.01652273187007736,-0.0015419070354497381,-0.025109676863096033,0,70,255.0,255.0,255.0
232,11.600000000000001,-2.7186142380373903,-13.640398839251121,-2.1203031304783524,-0.20197158609004429,-0.023081481939834395,-0.35130103353530034,-0.016706879228511225,-0.0025015516468354423,-0.02596437138054546,0,70,255.0,255.0,255.0
233,11.65,-2.7287337776689937,-13.641556440139592,-2.1379009937420586,-0.20281153373543068,-0.023230550637460805,-0.35262061946726386,-0.01689102658694508,-0.003461196258221112,-0.02681906589799486,0,70,255.0,255.0,255.0
234,11.700000000000001,-2.738895544867065,-13.642722694018708,-2.15556590467051,-0.2036606887487388,-0.023427601565656507,-0.35398294012509984,-0.017075173945378944,-0.004420840869606816,-0.02767376041544429,0,70,255.0,255.0,255.0
235,11.75,-2.7491,-13.6439,-2.1733,-0.20451905112996857,-0.023672634724421486,-0.35538799550880823,-0.01725932130381236,-0.005380485480992514,-0.028528454932891467,0,70,255.0,255.0,255.0
236,11.8,-2.7593469737755423,-13.645089666952256,-2.1911047522393554,-0.20534884124000582,-0.023900235549325757,-0.35679593197040255,-0.015932283097677517,-0.003723547515178215,-0.027789003530879243,0,70,255.0,255.0,255.0
237,11.850000000000001,-2.7696337782588287,-13.646288642773294,-2.208978976987539,-0.20611227943973634,-0.024044989475939315,-0.3581668958618962,-0.014605244891542675,-0.0020666095493639155,-0.02704955212886702,0,70,255.0,255.0,255.0
238,11.9,-2.779957095854344,-13.64749278511821,-2.2269208256160438,-0.20680936572916012,-0.024106896504262152,-0.3595008871832892,-0.01327820668540788,-0.00040967158354967507,-0.02631010072685482,0,70,255.0,255.0,255.0
239,11.950000000000001,-2.790313608966573,-13.648697951642083,-2.2449284494963657,-0.20744010010827713,-0.02408595663429428,-0.36079790593458166,-0.01195116847927304,0.0012472663822646248,-0.025570649324842595,0,70,255.0,255.0,255.0
240,12.0,-2.8007,-13.6499,-2.263,-0.20800448257708737,-0.02398216986603569,-0.36205795211577346,-0.010624130273138022,0.002904204348079059,-0.024831197922830395,0,70,255.0,255.0,255.0
241,12.05,-2.8111140392939733,-13.651096239949222,-2.2811340128994804,-0.20856778922739672,-0.023882662329928746,-0.3633040897891797,-0.011908135739235898,0.0010760970961985379,-0.025014309013418327,0,70,255.0,255.0,255.0
242,12.100000000000001,-2.821557848927295,-13.652289789655704,-2.2993305615714936,-0.20919529615101098,-0.02387456015641583,-0.3645593830171153,-0.013192141205333777,-0.0007520101556819834,-0.025197420104006257,0,70,255.0,255.0,255.0
243,12.15,-2.8320346389136293,-13.653485219387573,-2.3175901037937665,-0.2098870033479301,-0.023957863345496943,-0.3658238317995803,-0.014476146671431609,-0.0025801174075624394,-0.025380531194594182,0,70,255.0,255.0,255.0
244,12.200000000000001,-2.842547619266643,-13.654687099412962,-2.335913097344027,-0.21064291081815412,-0.024132571897172078,-0.36709743613657475,-0.015760152137529487,-0.004408224659442961,-0.02556364228518211,0,70,255.0,255.0,255.0
245,12.25,-2.8531,-13.6559,-2.3543,-0.21146301856168304,-0.02439868581144123,-0.36838019602809857,-0.01704415760362643,-0.0062363319113233895,-0.02574675337577048,0,70,255.0,255.0,255.0
246,12.3,-2.863694469048564,-13.657126973250863,-2.3727511961627243,-0.21231600185040797,-0.024665115130964487,-0.3696677088728788,-0.017075173945369927,-0.004420840869606842,-0.025753760415438975,0,70,255.0,255.0,255.0
247,12.350000000000001,-2.874331626031992,-13.658364998603895,-2.391266776726488,-0.21317053595622007,-0.02484076989840192,-0.3709555720696425,-0.01710619028711342,-0.002605349827890295,-0.02576076745510747,0,70,255.0,255.0,255.0
248,12.4,-2.885011548491138,-13.659609537331502,-2.409846759208888,-0.21402662087911928,-0.02492565011375352,-0.37224378561838956,-0.017137206628856917,-0.0007898587861738119,-0.025767774494775963,0,70,255.0,255.0,255.0
249,12.450000000000001,-2.8957343139668557,-13.66085605070607,-2.428491161127526,-0.21488425661910573,-0.024919755777019298,-0.37353234951912007,-0.017168222970600413,0.0010256322555427357,-0.025774781534444458,0,70,255.0,255.0,255.0
250,12.5,-2.9065,-13.6621,-2.4472,-0.2157434431761793,-0.024823086888199255,-0.37482126377183406,-0.017199239312344128,0.0028411232972591904,-0.025781788574114284,0,70,255.0,255.0,255.0
251,12.55,-2.917308084511769,-13.663338267047337,-2.465973202449623,-0.21656820337096994,-0.024720877146211157,-0.37610507471930804,-0.015791168479281328,0.0012472663822646608,-0.025570649324842785,0,70,255.0,255.0,255.0
252,12.600000000000001,-2.9281556469447363,-13.66457341592872,-2.484810331522557,-0.21732256002410746,-0.024698360249972788,-0.37737832870431837,-0.014383097646218528,-0.0003465905327298688,-0.025359510075571284,0,70,255.0,255.0,255.0
253,12.65,-2.9390391671218183,-13.665809431286432,-2.50371085937068,-0.2180065131355918,-0.024755536199484143,-0.37864102572686514,-0.012975026813155778,-0.0019404474477243416,-0.025148370826299792,0,70,255.0,255.0,255.0
254,12.700000000000001,-2.949955124865934,-13.667050297762762,-2.522674258145869,-0.21862006270542303,-0.024892404994745224,-0.3798931657869483,-0.011566955980092978,-0.0035343043627188717,-0.02493723157702829,0,70,255.0,255.0,255.0
255,12.75,-2.9609,-13.6683,-2.5417,-0.21916320873360107,-0.025108966635756024,-0.381134748884568,-0.010158885147029117,-0.0051281612777133445,-0.024726092327757243,0,70,255.0,255.0,255.0
256,12.8,-2.9718715929043604,-13.669561558559796,-2.5607879940387877,-0.21971518466571482,-0.025347376284184934,-0.3823919922498913,-0.01192015213752067,-0.004408224659442878,-0.025563642285173684,0,70,255.0,255.0,255.0
257,12.850000000000001,-2.982872986189064,-13.670834137681238,-2.5799398971832876,-0.22035522394735316,-0.025549789101700318,-0.3836911131130854,-0.013681419128012223,-0.0036882880411724123,-0.026401192242590122,0,70,255.0,255.0,255.0
258,12.9,-2.9939085830215877,-13.672115937522783,-2.5991578033083935,-0.22108332657851604,-0.025716205088302177,-0.3850321114741503,-0.015442686118503714,-0.002968351422901972,-0.027238742200006532,0,70,255.0,255.0,255.0
259,12.950000000000001,-3.0049827865694074,-13.673405158242886,-2.6184438062890005,-0.22189949255920352,-0.025846624243990514,-0.38641498733308605,-0.017203953108995265,-0.0022484148046315057,-0.028076292157422973,0,70,255.0,255.0,255.0
260,13.0,-3.0161,-13.6747,-2.6378,-0.22280372188941555,-0.025941046568765325,-0.3878397406898925,-0.01896522009948587,-0.0015284781863611208,-0.02891384211483805,0,70,255.0,255.0,255.0
261,13.05,-3.0272631438707913,-13.675998698713487,-2.6572276213952297,-0.22370705796616772,-0.02600161771703653,-0.3892549562811247,-0.017168222970600208,-0.0008943677444869756,-0.027694781534448935,0,70,255.0,255.0,255.0
262,13.100000000000001,-3.0384692082990097,-13.677299633346335,-2.6767244797442964,-0.2245205441864756,-0.026030483343214023,-0.39060921884333744,-0.015371225841714546,-0.0002602573026128305,-0.026475720954059822,0,70,255.0,255.0,255.0
263,13.15,-3.0497137007918314,-13.67860121862244,-2.6962875273957465,-0.22524418055033918,-0.026027643447297813,-0.3919025283765307,-0.01357422871282895,0.0003738531392612921,-0.02525666037367075,0,70,255.0,255.0,255.0
264,13.200000000000001,-3.060992128856436,-13.679901869265695,-2.715913716698132,-0.22587796705775848,-0.025993098029287894,-0.3931348848807045,-0.011777231583943289,0.0010079635811354373,-0.024037599793281635,0,70,255.0,255.0,255.0
265,13.25,-3.0723,-13.6812,-2.7356,-0.2264219037087335,-0.025926847089184274,-0.3943062883558588,-0.009980234455057246,0.001642074023009532,-0.022818539212890343,0,70,255.0,255.0,255.0
266,13.3,-3.0836342316124745,-13.682494846586259,-2.755343920380294,-0.22696058346961268,-0.02587815284767638,-0.3954521826256071,-0.011566955980109506,0.0003056956373063168,-0.02301723157704139,0,70,255.0,255.0,255.0
267,13.350000000000001,-3.094997380614899,-13.683788928933422,-2.7751453838395315,-0.22757859930674446,-0.02589627752545364,-0.39660801151356295,-0.013153677505161766,-0.0010306827483968985,-0.023215923941192436,0,70,255.0,255.0,255.0
268,13.4,-3.106393413811086,-13.685085587987459,-2.7950048871086204,-0.22827595122012884,-0.025981221122516066,-0.39777377501972633,-0.014740399030213968,-0.0023670611341000663,-0.023414616305343472,0,70,255.0,255.0,255.0
269,13.450000000000001,-3.1178262980048497,-13.68638816469433,-2.8149229269184737,-0.22905263920976585,-0.026132983638863648,-0.3989494731440973,-0.01632712055526623,-0.0037034395198032814,-0.02361330866949452,0,70,255.0,255.0,255.0
270,13.5,-3.1293,-13.6877,-2.8349,-0.22990866327565546,-0.026351565074496385,-0.4001351058866757,-0.01791384208031843,-0.005039817905506422,-0.023812001033644226,0,70,255.0,255.0,255.0
271,13.55,-3.1408175296793126,-13.68902351494148,-2.8549366970835948,-0.23078660815538787,-0.026581770892249723,-0.40133631321645225,-0.0172039531089779,-0.0041684148046270564,-0.024236292157414237,0,70,255.0,255.0,255.0
272,13.600000000000001,-3.1523780692413963,-13.690357450919974,-2.8750339848975828,-0.23162905858655328,-0.026768406554959098,-0.4025587351024172,-0.016494064137637366,-0.0032970117037476906,-0.024660583281184246,0,70,255.0,255.0,255.0
273,13.65,-3.1639798439638245,-13.691699629427728,-2.8951929241697725,-0.23243601456915158,-0.026911472062624495,-0.4038023715445706,-0.01578417516629686,-0.002425608602868356,-0.02508487440495424,0,70,255.0,255.0,255.0
274,13.700000000000001,-3.175621079124169,-13.693047871956985,-2.915414575627976,-0.23320747610318293,-0.027010967415245928,-0.4050672225429126,-0.015074286194956328,-0.0015542055019889902,-0.025509165528724252,0,70,255.0,255.0,255.0
275,13.75,-3.1873,-13.6944,-2.9357,-0.23394344318864724,-0.027066892612823395,-0.40635328809744303,-0.014364397223616265,-0.0006828024011096556,-0.02593345665249247,0,70,255.0,255.0,255.0
276,13.8,-3.1990148496702786,-13.695754293647816,-2.9560500912853303,-0.23464498390883612,-0.027106763583323496,-0.40765056450858705,-0.013697231583938842,-0.0009120364188942441,-0.02595759979326706,0,70,255.0,255.0,255.0
277,13.850000000000001,-3.2107639424195176,-13.697110867386682,-2.9764650765701433,-0.23531316634704114,-0.02715809625471282,-0.40894904807676974,-0.01303006594426142,-0.0011412704366788326,-0.02598174293404165,0,70,255.0,255.0,255.0
278,13.9,-3.2225456103336163,-13.698470294301636,-2.9969450162122913,-0.23594799050326226,-0.027220890626991373,-0.4102487388019912,-0.012362900304584019,-0.0013705044544634131,-0.026005886074816242,0,70,255.0,255.0,255.0
279,13.950000000000001,-3.2343581854984773,-13.699833147477728,-3.0174899705696263,-0.23654945637749955,-0.027295146700159163,-0.41154963668425143,-0.011695734664906594,-0.0015997384722480018,-0.026030029215590833,0,70,255.0,255.0,255.0
280,14.0,-3.2462,-13.7012,-3.0381,-0.23711756396975292,-0.027380864474216175,-0.41285174172355027,-0.011028569025228308,-0.0018289724900325266,-0.026054172356365424,0,70,255.0,255.0,255.0
281,14.05,-3.2580702716395735,-13.702571310467254,-3.058774937775087,-0.2377054562092655,-0.02747117477446133,-0.41414142874919707,-0.012487120555274721,-0.0017834395197735714,-0.025533308669506642,0,70,255.0,255.0,255.0
282,14.100000000000001,-3.2699717610805354,-13.703947079533304,-3.079513708821848,-0.2383662760252804,-0.027559208426193537,-0.41540507259050097,-0.013945672085321135,-0.001737906549514616,-0.02501244498264786,0,70,255.0,255.0,255.0
283,14.15,-3.2819081147017104,-13.70532719336573,-3.100315010981064,-0.23910002341779762,-0.027644965429412787,-0.4166426732474619,-0.015404223615367495,-0.0016923735792556624,-0.024491581295789096,0,70,255.0,255.0,255.0
284,14.200000000000001,-3.293882978881923,-13.706711538132103,-3.1211775420935215,-0.23990669838681716,-0.0277284457841191,-0.4178542307200799,-0.016862775145413907,-0.0016468406089967071,-0.023970717608930315,0,70,255.0,255.0,255.0
285,14.25,-3.3059,-13.7081,-3.1421,-0.24078630093233896,-0.02780964949031246,-0.41903974500835495,-0.018321326675459604,-0.001601307638737809,-0.023449853922071995,0,70,255.0,255.0,255.0
286,14.3,-3.3179616637714275,-13.709492464483175,-3.1630813576143235,-0.2416691912540995,-0.027888537318830633,-0.4202157204946248,-0.016994286194960597,-0.0015542055019890414,-0.023589165528719393,0,70,255.0,255.0,255.0
287,14.350000000000001,-3.330065813258343,-13.710888814480102,-3.1841216881424685,-0.24248572955183503,-0.027965070040511363,-0.4213986615612269,-0.015667245714461594,-0.001507103365240274,-0.023728477135366792,0,70,255.0,255.0,255.0
288,14.4,-3.342209130859544,-13.712288932235444,-3.2052213398634515,-0.24323591582554566,-0.02803924765535466,-0.42258856820816143,-0.014340205233962636,-0.0014600012284915083,-0.023867788742014184,0,70,255.0,255.0,255.0
289,14.450000000000001,-3.3543882989738303,-13.713692699993858,-3.22638066105629,-0.24391975007523128,-0.028111070163360515,-0.4237854404354283,-0.013013164753463629,-0.001412899091742741,-0.024007100348661582,0,70,255.0,255.0,255.0
290,14.5,-3.3666,-13.7151,-3.2476,-0.24453723230089197,-0.028180537564528936,-0.42498927824302757,-0.011686124272963117,-0.001365796954994003,-0.0241464119553072,0,70,255.0,255.0,255.0
291,14.55,-3.378841473274716,-13.716510831600052,-3.268879631767621,-0.2451217787743387,-0.028254675950210837,-0.42619568927230017,-0.011695734664905899,-0.0015997384722820673,-0.02411002921559451,0,70,255.0,255.0,255.0
292,14.600000000000001,-3.391112185886094,-13.717925662546286,-3.2902195386082806,-0.24570680576738257,-0.028340511411757145,-0.42740028116458706,-0.011705345056848683,-0.0018336799895701317,-0.024073646475881814,0,70,255.0,255.0,255.0
293,14.65,-3.4034121618601136,-13.719345077692491,-3.3116196295651297,-0.24629231328002357,-0.02843804394916785,-0.4286030539198883,-0.011714955448791465,-0.0020676215068581878,-0.024037263736169122,0,70,255.0,255.0,255.0
294,14.700000000000001,-3.4157414252227567,-13.720769661892467,-3.33307981368132,-0.24687830131226174,-0.028547273562442962,-0.42980400753820397,-0.011724565840734247,-0.0023015630241462522,-0.02400088099645643,0,70,255.0,255.0,255.0
295,14.75,-3.4281,-13.7222,-3.3546,-0.247464769864097,-0.02866820025158248,-0.431003142019534,-0.011734176232677918,-0.002535504541434336,-0.023964498256744182,0,70,255.0,255.0,255.0
296,14.8,-3.4404884431297096,-13.723636209116618,-3.376180115315195,-0.24808369364854913,-0.028772758880342402,-0.4322015224161759,-0.013022775145406059,-0.0016468406089626005,-0.023970717608931037,0,70,255.0,255.0,255.0
297,14.850000000000001,-3.4529094431972824,-13.72507653533476,-3.397820157424412,-0.2487670473786376,-0.02883288431247874,-0.4334002137804271,-0.0143113740581342,-0.0007581766764908652,-0.02397693696111789,0,70,255.0,255.0,255.0
298,14.9,-3.4653662217000005,-13.726518756994588,-3.419520141876031,-0.2495148310543625,-0.02884857654799149,-0.4345992161122877,-0.015599972970862295,0.00013048725598083883,-0.023983156313304742,0,70,255.0,255.0,255.0
299,14.950000000000001,-3.477862000135146,-13.72796065243628,-3.441280084218434,-0.2503270446757238,-0.028819835586880654,-0.4357985294117576,-0.016888571883590435,0.0010191511884525741,-0.023989375665491596,0,70,255.0,255.0,255.0
300,15.0,-3.4904,-13.7294,-3.4631,-0.25120368824272155,-0.028746661429146236,-0.4369981536788368,-0.0181771707963172,0.0019078151209243888,-0.023995595017675786,0,70,255.0,255.0,255.0
301,15.05,-3.5029823542064475,-13.730835531933478,-3.4849799069716023,-0.25207944663146603,-0.028686288528415954,-0.4381982210629952,-0.01685316475346175,0.0005071009082868916,-0.024007100348659716,0,70,255.0,255.0,255.0
302,15.100000000000001,-3.5156068413247783,-13.732269796114688,-3.5069198316940757,-0.25288900471806774,-0.028695951338317545,-0.43939886371370285,-0.0155291587106063,-0.0008936133043506056,-0.024018605679643645,0,70,255.0,255.0,255.0
303,15.15,-3.5282701513398846,-13.733706294329155,-3.528919802930748,-0.2536323625025267,-0.02877564985885101,-0.4406000816309596,-0.014205152667750898,-0.0022943275169880527,-0.024030111010627575,0,70,255.0,255.0,255.0
304,15.200000000000001,-3.5409689742366615,-13.735148528362414,-3.550979849444947,-0.25430951998484286,-0.02892538409001635,-0.44180187481476557,-0.012881146624895451,-0.0036950417296255497,-0.024041616341611505,0,70,255.0,255.0,255.0
305,15.25,-3.5537,-13.7366,-3.5731,-0.25492047716501615,-0.029145154031813558,-0.4430042432651207,-0.011557140582040493,-0.0050957559422629695,-0.024053121672593658,0,70,255.0,255.0,255.0
306,15.3,-3.566460540044503,-13.738063263149469,-3.595280256798399,-0.25550251982558553,-0.029378087005975387,-0.444205593331847,-0.011724565840735316,-0.0042215630242100274,-0.024000880996456697,0,70,255.0,255.0,255.0
307,15.350000000000001,-3.5792503915036082,-13.7395370802065,-3.6175205157992885,-0.2560929337490897,-0.029567310334234567,-0.4454043313647664,-0.011891991099430137,-0.0033473701061570854,-0.023948640320319736,0,70,255.0,255.0,255.0
308,15.4,-3.5920699729404606,-13.741019265688793,-3.6398206464009784,-0.25669171893552856,-0.029712824016591095,-0.44660045736387893,-0.012059416358124953,-0.0024731771881041746,-0.023896399644182775,0,70,255.0,255.0,255.0
309,15.450000000000001,-3.604919702918209,-13.742507634114059,-3.66218051800178,-0.2572988753849022,-0.029814628053044984,-0.4477939713291847,-0.012226841616819776,-0.0015989842700512326,-0.023844158968045814,0,70,255.0,255.0,255.0
310,15.5,-3.6178,-13.744,-3.6846,-0.2579144030972106,-0.029872722443596223,-0.44898487326068354,-0.012394266875515036,-0.000724791351998183,-0.023791918291908853,0,70,255.0,255.0,255.0
311,15.55,-3.6307114856155414,-13.745494615468644,-3.707079065834805,-0.2585504740661884,-0.02991336344768475,-0.45017940560961833,-0.013048571883598656,-0.0009008488115428618,-0.023989375665482364,0,70,255.0,255.0,255.0
312,15.600000000000001,-3.6436555926607923,-13.746991483059318,-3.729618105108774,-0.25921926028557046,-0.029962807324750512,-0.45138381082723184,-0.013702876891682278,-0.0010769062710875405,-0.02418683303905587,0,70,255.0,255.0,255.0
313,15.65,-3.656633956898272,-13.74849104291567,-3.75221761146534,-0.25992076175535667,-0.030021054074793503,-0.4525980889135239,-0.014357181899765875,-0.0012529637306322129,-0.024384290412629375,0,70,255.0,255.0,255.0
314,15.700000000000001,-3.669648214090502,-13.749993735181347,-3.774878078547937,-0.26065497847554703,-0.030088103697813732,-0.45382223986849474,-0.015011486907849494,-0.0014290211901768915,-0.02458174778620288,0,70,255.0,255.0,255.0
315,15.75,-3.6827,-13.7515,-3.7976,-0.26142191044614155,-0.030163956193811195,-0.4550562636921442,-0.01566579191593176,-0.0016050786497214808,-0.024779205159772832,0,70,255.0,255.0,255.0
316,15.8,-3.6957903174933313,-13.753010274975953,-3.8203834798623832,-0.2621835839096621,-0.03024845920329413,-0.45627678422967893,-0.014801146624890547,-0.0017750417295958412,-0.02404161634161789,0,70,255.0,255.0,255.0
317,15.850000000000001,-3.708917637853224,-13.754524987556229,-3.84322706376562,-0.26290202510863064,-0.03034146036677078,-0.45746042532630604,-0.013936501333849336,-0.0019450048094702015,-0.023304027523462945,0,70,255.0,255.0,255.0
318,15.9,-3.7220797994664516,-13.75604456264853,-3.8661289077376653,-0.26357723404304706,-0.03044295968424115,-0.45860718698202524,-0.013071856042808154,-0.0021149678893445556,-0.02256643870530803,0,70,255.0,255.0,255.0
319,15.950000000000001,-3.735274640719786,-13.757569425160554,-3.889087167806474,-0.2642092107129114,-0.030552957155705236,-0.4597170691968368,-0.012207210751766943,-0.002284930969218916,-0.021828849887153084,0,70,255.0,255.0,255.0
320,16.0,-3.7485,-13.7591,-3.9121,-0.26479795511822374,-0.030671452781163035,-0.4607900719707405,-0.01134256546072665,-0.0024548940490932425,-0.02109126106899417,0,70,255.0,255.0,255.0
321,16.05,-3.7617544444111357,-13.760636284627545,-3.935166214715665,-0.26538719029516245,-0.03077279973914165,-0.4618654574716662,-0.01222684161682085,-0.0015989842700512226,-0.021924158968032625,0,70,255.0,255.0,255.0
322,16.1,-3.775039455926313,-13.762176566715766,-3.95828723982875,-0.2660206392799058,-0.03083135120816816,-0.4629824878675438,-0.013111117772915052,-0.0007430744910092025,-0.02275705686707108,0,70,255.0,255.0,255.0
323,16.150000000000002,-3.7883572452359235,-13.763718706490213,-3.9814651575840023,-0.266698302072454,-0.03084710718824257,-0.46414116315837334,-0.013995393929009252,0.00011283528803281758,-0.023589954766109537,0,70,255.0,255.0,255.0
324,16.2,-3.8017100230303553,-13.76526056417644,-4.004702050226169,-0.2674201786728067,-0.03082006767936488,-0.4653414833441547,-0.01487967008510339,0.0009687450670747767,-0.02442285266514793,0,70,255.0,255.0,255.0
325,16.25,-3.8151,-13.7668,-4.028,-0.26818626908096427,-0.03075023268153509,-0.4665834484248881,-0.01576394624119759,0.0018246548461167966,-0.025255750564186386,0,70,255.0,255.0,255.0
326,16.3,-3.8285287048621277,-13.768335786513866,-4.0513604612749585,-0.2689556549096904,-0.030692341840136705,-0.4678293858836485,-0.015011486907848494,0.0004909788098186295,-0.024581747786227827,0,70,255.0,255.0,255.0
327,16.35,-3.841994938441525,-13.76987034558071,-4.074782376919384,-0.26968741777174915,-0.030701134800553226,-0.4690416232035109,-0.014259027574499395,-0.0008426972264795377,-0.02390774500826927,0,70,255.0,255.0,255.0
328,16.400000000000002,-3.8554968195898587,-13.77140701139062,-4.098264061926329,-0.2703815576671404,-0.03077661156278466,-0.4702201603844754,-0.013506568241150298,-0.0021763732627777047,-0.02323374223031071,0,70,255.0,255.0,255.0
329,16.45,-3.869032467158794,-13.772949118133685,-4.121803831288848,-0.27103807459586415,-0.03091877212683099,-0.4713649974265419,-0.012754108907801253,-0.0035100492990757766,-0.0225597394523522,0,70,255.0,255.0,255.0
330,16.5,-3.8826,-13.7745,-4.1454,-0.2716569685579205,-0.031127616492692238,-0.47247613432971053,-0.012001649574451267,-0.004843725335374083,-0.02188573667439231,0,70,255.0,255.0,255.0
331,16.55,-3.8961979361403554,-13.776062169316985,-4.169051140184502,-0.2722621900660757,-0.031353832900307806,-0.4735689989937487,-0.012207210751758438,-0.004204930969248546,-0.021828849887133916,0,70,255.0,255.0,255.0
332,16.6,-3.9098263903075887,-13.777634850961393,-4.192756852493719,-0.27287768963309633,-0.031548109589617096,-0.4746590193184239,-0.012412771929065609,-0.0035661366031230087,-0.021771963099875523,0,70,255.0,255.0,255.0
333,16.650000000000002,-3.923485876404646,-13.779216447947308,-4.216516994710688,-0.2735034672589823,-0.03171044656062011,-0.4757461953037363,-0.01261833310637278,-0.0029273422369974714,-0.02171507631261713,0,70,255.0,255.0,255.0
334,16.7,-3.9371769083344677,-13.780805363288815,-4.240331424618437,-0.2741395229437336,-0.03184084381331684,-0.4768305269496856,-0.012823894283679934,-0.00228854787087198,-0.02165818952535874,0,70,255.0,255.0,255.0
335,16.75,-3.9509,-13.7824,-4.2642,-0.2747858566873503,-0.031939301347707304,-0.47791201425627217,-0.013029455460987105,-0.0016497535047464429,-0.021601302738102568,0,70,255.0,255.0,255.0
336,16.8,-3.9646555505764534,-13.783998736218194,-4.28812297798704,-0.2754355848260027,-0.03200432655864813,-0.4790146181413533,-0.012959670085108054,-0.0009512549328865927,-0.02250285266514479,0,70,255.0,255.0,255.0
337,16.85,-3.9784435003281207,-13.785599850573721,-4.312102213105742,-0.2760818236958611,-0.032034426840995965,-0.48016229952278666,-0.012889884709229003,-0.0002527563610267426,-0.023404402592187016,0,70,255.0,255.0,255.0
338,16.900000000000002,-3.9922636747915603,-13.787201596820152,-4.336139959230924,-0.2767245732969256,-0.0320296021947508,-0.4813550584005721,-0.012820099333349952,0.0004457422108331073,-0.02430595251922924,0,70,255.0,255.0,255.0
339,16.95,-4.006115899503333,-13.788802228711054,-4.3602384702374035,-0.27736383362919603,-0.031989852619912655,-0.48259289477470957,-0.012750313957470906,0.0011442407826929082,-0.0252075024462714,0,70,255.0,255.0,255.0
340,17.0,-4.02,-13.7904,-4.3844,-0.27799960469267265,-0.031915178116481514,-0.48387580864519925,-0.012680528581590966,0.0018427393545528692,-0.02610905237331318,0,70,255.0,255.0,255.0
341,17.05,-4.03391586155383,-13.791994085810236,-4.408625747867344,-0.2786354706299079,-0.031860860865094806,-0.48514052844084116,-0.012754108907817587,0.0003299507009152055,-0.024479739452363057,0,70,255.0,255.0,255.0
342,17.1,-4.047863608379929,-13.793587346743722,-4.432912695083318,-0.2792750155834544,-0.03188218304639,-0.4863237825904356,-0.012827689234044206,-0.0011828379527224582,-0.022850426531412935,0,70,255.0,255.0,255.0
343,17.150000000000002,-4.061843424429114,-13.795183564772088,-4.45725676836562,-0.2799182395533123,-0.03197914466036706,-0.4874255710939825,-0.012901269560270826,-0.0026956266063601223,-0.021221113610462812,0,70,255.0,255.0,255.0
344,17.2,-4.075855493652199,-13.796786521866968,-4.481653894431947,-0.2805651425394815,-0.032151745707025996,-0.48844589395148186,-0.01297484988649744,-0.004208415259997678,-0.019591800689512807,0,70,255.0,255.0,255.0
345,17.25,-4.0899,-13.7984,-4.5061,-0.28121572454196203,-0.03239998618636683,-0.4893847511629338,-0.013048430212723172,-0.0057212039136351756,-0.01796248776856313,0,70,255.0,255.0,255.0
346,17.3,-4.103977003208227,-13.80002652054086,-4.5305924305435905,-0.28186253265437167,-0.032648229980979396,-0.49032726809528154,-0.012823894283662703,-0.004208547870867397,-0.019738189525347342,0,70,255.0,255.0,255.0
347,17.35,-4.118086066152164,-13.801663562451397,-4.555134206560993,-0.2824981139703283,-0.03282084097345358,-0.4913585701154686,-0.012599358354602234,-0.002695891828099618,-0.021513891282131554,0,70,255.0,255.0,255.0
348,17.400000000000002,-4.1322266274919865,-13.803307344091504,-4.579729767306601,-0.28312246848983197,-0.032917819163789365,-0.4924786572234947,-0.012374822425541766,-0.0011832357853318399,-0.023289593038915764,0,70,255.0,255.0,255.0
349,17.45,-4.146398125887872,-13.804954083821073,-4.604383552034805,-0.28373559621288247,-0.03293916455198677,-0.49368752941936006,-0.012150286496481314,0.00032942025743583174,-0.02506529479569985,0,70,255.0,255.0,255.0
350,17.5,-4.1606,-13.8066,-4.6291,-0.28433749713948,-0.03288487713804578,-0.4949851867030647,-0.011925750567418625,0.0018420763002036655,-0.026840996552484953,0,70,255.0,255.0,255.0
351,17.55,-4.1748321256132614,-13.808242232026325,-4.6538821299583,-0.2849543987526022,-0.032810219210973365,-0.49628639917803363,-0.012750313957470116,0.0011442407826929746,-0.025207502446271745,0,70,255.0,255.0,255.0
352,17.6,-4.189096127011418,-13.809881603450695,-4.678727278672716,-0.285612528535227,-0.03277045305977649,-0.49750593694769185,-0.01357487734752161,0.0004464052651822839,-0.023574008340058537,0,70,255.0,255.0,255.0
353,17.650000000000002,-4.203394065602944,-13.811519858861901,-4.7036313624079815,-0.28631188648735434,-0.032765578684455135,-0.4986438000120395,-0.014399440737573101,-0.00025143025232840727,-0.02194051423384533,0,70,255.0,255.0,255.0
354,17.7,-4.217728002796313,-13.813158742848739,-4.72859029742883,-0.2870524726089843,-0.03279559608500932,-0.4996999883710763,-0.015224004127624535,-0.0009492657698390483,-0.020307020127632237,0,70,255.0,255.0,255.0
355,17.75,-4.2321,-13.8148,-4.7536,-0.28783428690011675,-0.032860505261439035,-0.5006745020248027,-0.016048567517672918,-0.0016471012873496838,-0.018673526021419917,0,70,255.0,255.0,255.0
356,17.8,-4.246511294338723,-13.816445351353835,-4.778657449623212,-0.28860787233522134,-0.03295889317512368,-0.5016311351925764,-0.014894849886509114,-0.0022884152600362783,-0.01959180068953047,0,70,255.0,255.0,255.0
357,17.85,-4.260959825802163,-13.818096423745823,-4.803763878748148,-0.2893237718887677,-0.033089346787442665,-0.5026336820937557,-0.013741132255345312,-0.0029297292327228734,-0.020510075357641027,0,70,255.0,255.0,255.0
358,17.900000000000002,-4.275442710096241,-13.81975482046089,-4.8289215830614785,-0.2899819855607559,-0.03325186609839598,-0.5036821427283406,-0.01258741462418151,-0.0035710432054094684,-0.02142835002575158,0,70,255.0,255.0,255.0
359,17.95,-4.289957062926879,-13.821422144783973,-4.854132858249871,-0.2905825133511858,-0.0334464511079836,-0.5047765170963309,-0.01143369699301779,-0.004212357178096017,-0.02234662469386207,0,70,255.0,255.0,255.0
360,18.0,-4.3045,-13.8231,-4.8794,-0.29112535526005756,-0.03367310181620557,-0.5059168051977266,-0.010279979361853542,-0.0048536711507825014,-0.02326489936196996,0,70,255.0,255.0,255.0
361,18.05,-4.319069097031844,-13.824789162558329,-4.9047248715488525,-0.2916381119065156,-0.03388220808853816,-0.5070770600516681,-0.010230286496468288,-0.0035105797425210505,-0.023145294795686944,0,70,255.0,255.0,255.0
362,18.1,-4.333663769779931,-13.826487101566013,-4.930107606334697,-0.2921483839097044,-0.034024159790457684,-0.5082313346772953,-0.010180593631083033,-0.002167488334259599,-0.023025690229403924,0,70,255.0,255.0,255.0
363,18.150000000000002,-4.348283894012094,-13.828190459294536,-4.955547905346112,-0.2926561712696239,-0.03409895692196413,-0.5093796290746084,-0.01013090076569778,-0.0008243969259981478,-0.02290608566312091,0,70,255.0,255.0,255.0
364,18.2,-4.3629293454961715,-13.82989587801537,-4.981045469571684,-0.2931614739862742,-0.034106599483057505,-0.5105219432436074,-0.010081207900312528,0.0005186944822632078,-0.022786481096837896,0,70,255.0,255.0,255.0
365,18.25,-4.3776,-13.8316,-5.0066,-0.2936642920596551,-0.0340470874737378,-0.5116582771842924,-0.010031515034925942,0.0018617858905245477,-0.02266687653055577,0,70,255.0,255.0,255.0
366,18.3,-4.392296317533899,-13.83330039841285,-5.032211064181377,-0.29419968003871866,-0.033976274470720776,-0.512780624600747,-0.011384004127614774,0.0009707342301564432,-0.022227020127628443,0,70,255.0,255.0,255.0
367,18.35,-4.407021095078117,-13.834998369990121,-5.0578776959130725,-0.2948026924724166,-0.033950014050722156,-0.5138809791970552,-0.012736493220303607,7.968256978833866e-05,-0.021787163724701117,0,70,255.0,255.0,255.0
368,18.400000000000002,-4.421777713855384,-13.836696142360971,-5.08359879555408,-0.29547332936074905,-0.03396830621374194,-0.5149593409732172,-0.01408898231299244,-0.0008113690905797656,-0.021347307321773795,0,70,255.0,255.0,255.0
369,18.45,-4.436569555088434,-13.838395943154547,-5.10937326346339,-0.29621159070371583,-0.034031150959780126,-0.5160157099292325,-0.015441471405681176,-0.001702420750947807,-0.0209074509188465,0,70,255.0,255.0,255.0
370,18.5,-4.4514,-13.8401,-5.1352,-0.29701747650131716,-0.03413854828883672,-0.5170500860651018,-0.016793960498370453,-0.0025934724113159113,-0.020467594515920062,0,70,255.0,255.0,255.0
371,18.55,-4.466271232832561,-13.841810043790275,-5.161078071725641,-0.297819167938602,-0.03426069402857213,-0.5180724415453469,-0.015273696993025589,-0.0022923571781004303,-0.020426624693881654,0,70,255.0,255.0,255.0
372,18.6,-4.481180649907606,-13.843525818473497,-5.187007210013018,-0.2985448462006198,-0.03436778400664677,-0.5190927485344901,-0.013753433487680723,-0.0019912419448849497,-0.02038565487184325,0,70,255.0,255.0,255.0
373,18.650000000000002,-4.496124450566369,-13.84524657126158,-5.212987312437573,-0.2991945112873701,-0.03445981822306063,-0.5201110070325312,-0.012233169982335857,-0.001690126711669469,-0.020344685049804842,0,70,255.0,255.0,255.0
374,18.7,-4.511098834150088,-13.84697154936644,-5.23901827657475,-0.2997681631988533,-0.034536796677813716,-0.5211272170394705,-0.0107129064769911,-0.0013890114784540096,-0.02030371522776644,0,70,255.0,255.0,255.0
375,18.75,-4.5261,-13.8487,-5.2651,-0.30026580193506924,-0.03459871937090602,-0.5221413785553078,-0.00919264297164446,-0.0010878962452384733,-0.020262745405728033,0,70,255.0,255.0,255.0
376,18.8,-4.541125151135855,-13.850431426426047,-5.291232648916061,-0.30074764820686856,-0.03466094941498114,-0.5231696092178713,-0.010081207900327994,-0.0014013055177664645,-0.020866481096808984,0,70,255.0,255.0,255.0
377,18.85,-4.556175505291461,-13.852166356115891,-5.317417464034864,-0.301273922725102,-0.03473884992268267,-0.5242280266649887,-0.010969772829011529,-0.001714714790294456,-0.021470216787889934,0,70,255.0,255.0,255.0
378,18.900000000000002,-4.571253283879139,-13.85390557259271,-5.343655954695636,-0.3018446254897697,-0.03483242089401059,-0.5253166308966603,-0.011858337757695063,-0.0020281240628224474,-0.022073952478970885,0,70,255.0,255.0,255.0
379,18.95,-4.586360708311211,-13.855649859379687,-5.369949630237605,-0.30245975650087153,-0.03494166232896491,-0.5264354219128858,-0.012746902686378535,-0.0023415333353504165,-0.022677688170051793,0,70,255.0,255.0,255.0
380,19.0,-4.6015,-13.8574,-5.3963,-0.3031193157584076,-0.03506657422754563,-0.5275843997136653,-0.013635467615063401,-0.0026549426078781857,-0.02328142386113008,0,70,255.0,255.0,255.0
381,19.05,-4.616672962624019,-13.85915625050553,-5.422708132610118,-0.30379823923392596,-0.03517550831151543,-0.5287371215831651,-0.01352147140566968,-0.0017024207509136221,-0.02282745091885942,0,70,255.0,255.0,255.0
382,19.1,-4.6318797289265525,-13.860916757062936,-5.449173333847533,-0.3044714628989746,-0.035236816302636996,-0.5298671448055513,-0.013407475196275961,-0.0007498988939490588,-0.02237347797658876,0,70,255.0,255.0,255.0
383,19.150000000000002,-4.647120013917076,-13.862679138367579,-5.4756944687798885,-0.3051389867535536,-0.035250498200910335,-0.5309744693808239,-0.01329347898688224,0.00020262296301550454,-0.021919505034318103,0,70,255.0,255.0,255.0
384,19.200000000000003,-4.662393532605066,-13.864441013114813,-5.50227040247483,-0.3058008107976628,-0.03521655400633545,-0.5320590953089832,-0.01317948277748852,0.001155144819980068,-0.02146553209204744,0,70,255.0,255.0,255.0
385,19.25,-4.6777,-13.8662,-5.5289,-0.3064569350313024,-0.035134983718912334,-0.5331210225900287,-0.01306548656809392,0.002107666676944897,-0.02101155914977504,0,70,255.0,255.0,255.0
386,19.3,-4.6930389983680705,-13.86795477155183,-5.555582020643472,-0.30709939485742943,-0.03506901733895017,-0.5341539044494672,-0.012632906476985267,0.0005309885215416419,-0.02030371522776625,0,70,255.0,255.0,255.0
387,19.35,-4.708409579002333,-13.869708215632357,-5.582314800575014,-0.3077202256790009,-0.03508188486675817,-0.5351513941128053,-0.012200326385876613,-0.0010456896338616132,-0.019595871305757465,0,70,255.0,255.0,255.0
388,19.400000000000002,-4.723810660452562,-13.871464273936969,-5.609096570184818,-0.3083194274960171,-0.03517358630233633,-0.536113491580043,-0.011767746294767959,-0.0026223677892648683,-0.018888027383748677,0,70,255.0,255.0,255.0
389,19.450000000000003,-4.739241161268526,-13.873226888161055,-5.635925559863082,-0.3088970003084777,-0.035344121645684665,-0.5370401968511803,-0.011335166203659305,-0.0041990459446681234,-0.01818018346173989,0,70,255.0,255.0,255.0
390,19.5,-4.7547,-13.875,-5.6628,-0.3094529441163829,-0.03559349089680312,-0.5379315099262169,-0.01090258611254935,-0.005775724100070989,-0.017472339539728488,0,70,255.0,255.0,255.0
391,19.55,-4.7701862439037,-13.876786263287146,-5.689718984815998,-0.30999618133635626,-0.035844422332689405,-0.5388392606189615,-0.010826902686383732,-0.004261533335379931,-0.018837688170058993,0,70,255.0,255.0,255.0
392,19.6,-4.785699555064114,-13.878583180407633,-5.716685063852423,-0.3105356343850213,-0.036019644230341125,-0.5398152787432228,-0.010751219260218112,-0.0027473425706888723,-0.020203036800389502,0,70,255.0,255.0,255.0
393,19.650000000000002,-4.801239744272679,-13.880386965884544,-5.743701650480847,-0.3110713032623781,-0.03611915658975829,-0.5408595642990005,-0.010675535834052494,-0.0012331518059978137,-0.021568385430720007,0,70,255.0,255.0,255.0
394,19.700000000000003,-4.81680662232083,-13.882193834240969,-5.770772158072848,-0.31160318796842656,-0.0361429594109409,-0.5419721172862948,-0.010599852407886873,0.00028103895869324453,-0.022933734061050516,0,70,255.0,255.0,255.0
395,19.75,-4.8324,-13.884,-5.7979,-0.31213128850316674,-0.036091052693888966,-0.5431529377051054,-0.010524168981720372,0.0017952297233844727,-0.024299082691380036,0,70,255.0,255.0,255.0
396,19.8,-4.848020026017133,-13.885802575299586,-5.825087640092537,-0.31267587979714706,-0.036017293330304,-0.544345053074691,-0.011259482777492568,0.0011551448200142664,-0.02338553209204298,0,70,255.0,255.0,255.0
397,19.85,-4.863668200741212,-13.887602262737117,-5.852333744015303,-0.313257236780916,-0.03597553821188754,-0.5454914909143097,-0.011994796573264764,0.0005150599166440601,-0.022471981492705923,0,70,255.0,255.0,255.0
398,19.900000000000002,-4.8793463624567215,-13.88940066252486,-5.879636027891803,-0.31387535945447353,-0.03596578733863959,-0.5465922512239617,-0.01273011036903696,-0.00012502498672614616,-0.02155843089336887,0,70,255.0,255.0,255.0
399,19.950000000000003,-4.895056349448156,-13.891199374875066,-5.906992207845535,-0.31453024781781974,-0.03598804071056015,-0.5476473340036466,-0.013465424164809156,-0.0007651098900963525,-0.020644880294031814,0,70,255.0,255.0,255.0
400,20.0,-4.9108,-13.893,-5.9344,-0.3152219018709545,-0.03604229832764922,-0.5486567392533648,-0.014200737960580856,-0.0014051947934664022,-0.01973132969469127,0,70,255.0,255.0,255.0
401,20.05,-4.9265784520277665,-13.89480423551452,-5.961857654813857,-0.3159082994750604,-0.03613440434610269,-0.549652527082275,-0.013255166203653777,-0.002279045944672388,-0.020100183461715566,0,70,255.0,255.0,255.0
402,20.1,-4.942390041971043,-13.896614168643906,-5.989365560086368,-0.3165474184913199,-0.03627020292211647,-0.5506667575995363,-0.012309594446726697,-0.003152897095878374,-0.02046903722873986,0,70,255.0,255.0,255.0
403,20.150000000000002,-4.958232405900435,-13.898431984016026,-6.01692463795195,-0.31713925891973305,-0.03644969405569053,-0.5516994308051489,-0.011364022689799618,-0.004026748247084359,-0.020837890995764156,0,70,255.0,255.0,255.0
404,20.200000000000003,-4.974103179886552,-13.900259866258764,-6.044535810545023,-0.3176838207602999,-0.0366728777468249,-0.5527505466991128,-0.010418450932872539,-0.004900599398290345,-0.021206744762788454,0,70,255.0,255.0,255.0
405,20.25,-4.99,-13.9021,-6.0722,-0.31818110401302024,-0.036939753995519554,-0.5538201052814277,-0.009472879175944193,-0.005774450549496268,-0.021575598529806506,0,70,255.0,255.0,255.0
406,20.3,-5.005921365871801,-13.903953282642336,-6.099917740652038,-0.3186829223026156,-0.03717308928528941,-0.5548848385961995,-0.010599852407869308,-0.0035589610412977385,-0.021013734061069825,0,70,255.0,255.0,255.0
407,20.35,-5.021869231374622,-13.905815462687272,-6.1276880156392295,-0.3192410892538072,-0.03729565009964934,-0.5559214786875347,-0.011726825639794424,-0.0013434715330992086,-0.020451869592333145,0,70,255.0,255.0,255.0
408,20.400000000000002,-5.0378464139415415,-13.907681001411044,-6.155509420300402,-0.31985560486659503,-0.03730743643859933,-0.5569300255554329,-0.012853798871719538,0.0008720179750993208,-0.019890005123596465,0,70,255.0,255.0,255.0
409,20.450000000000003,-5.053855731005643,-13.909544360089876,-6.183380549974383,-0.32052646914097915,-0.0372084483021394,-0.5579104791998943,-0.013980772103644654,0.003087507483297851,-0.019328140654859785,0,70,255.0,255.0,255.0
410,20.5,-5.0699,-13.9114,-6.2113,-0.3212536820769595,-0.03699868569026956,-0.5588628396209188,-0.015107745335570577,0.005302996991496334,-0.01876627618612048,0,70,255.0,255.0,255.0
411,20.55,-5.085980884485029,-13.91324423391614,-6.23926658257799,-0.32196801131446945,-0.03678923851273478,-0.5598001185329231,-0.013465424164826854,0.003074890109894792,-0.01872488029405268,0,70,255.0,255.0,255.0
412,20.6,-5.102095432530471,-13.915080780607008,-6.267279977356717,-0.32260022449344217,-0.03669119667928008,-0.5607353276503241,-0.011823102994083132,0.00084678322829325,-0.018683484401984883,0,70,255.0,255.0,255.0
413,20.650000000000002,-5.118239538333399,-13.916915210339805,-6.295340080846447,-0.32315032161387774,-0.03670456018990546,-0.5616684669731217,-0.01018078182333941,-0.0013813236533082923,-0.018642088509917085,0,70,255.0,255.0,255.0
414,20.700000000000003,-5.1344090960908835,-13.918753093381733,-6.323446789557452,-0.3236183026757761,-0.036829329044610906,-0.5625995365013158,-0.008538460652595687,-0.0036094305349098337,-0.018600692617849288,0,70,255.0,255.0,255.0
415,20.75,-5.1506,-13.9206,-6.3516,-0.32400416767913737,-0.037065503243396414,-0.5635285362349065,-0.006896139481854302,-0.005837537416510941,-0.01855929672578327,0,70,255.0,255.0,255.0
416,20.8,-5.16680949618808,-13.922460181693099,-6.379799929036002,-0.32438903243950606,-0.03733395666376645,-0.56447468727212,-0.008498450932893788,-0.004900599398290227,-0.019286744762757036,0,70,255.0,255.0,255.0
417,20.85,-5.1830402385034935,-13.924332614884696,-6.408048074933911,-0.32485401277242676,-0.03755556318322544,-0.5654572107111822,-0.010100762383933272,-0.003963661380069512,-0.0200141927997308,0,70,255.0,255.0,255.0
418,20.900000000000002,-5.1992962327248655,-13.92621495722974,-6.436346256313819,-0.32539910867789945,-0.03773032280177341,-0.5664761065520931,-0.011703073834972755,-0.0030267233618487977,-0.020741640836704565,0,70,255.0,255.0,255.0
419,20.950000000000003,-5.215581484630827,-13.92810486638319,-6.464696291795818,-0.3260243201559241,-0.037858235519410324,-0.5675313747948527,-0.013305385286012241,-0.0020897853436280833,-0.02146908887367833,0,70,255.0,255.0,255.0
420,21.0,-5.2319,-13.93,-6.4931,-0.3267296472065006,-0.03793930133613621,-0.5686230154394608,-0.014907696737051612,-0.0011528473254071026,-0.022196536910649378,0,70,255.0,255.0,255.0
421,21.05,-5.248254730762649,-13.93189823931146,-6.5215585012780055,-0.32745185892751716,-0.037986934832189574,-0.5697091323785984,-0.013980772103610381,-0.0007524925167273043,-0.02124814065485284,0,70,255.0,255.0,255.0
422,21.1,-5.264644413455558,-13.933798359854213,-6.5500701229076475,-0.32812772441686167,-0.03801455058780894,-0.5707478295049461,-0.01305384747016915,-0.000352137708047506,-0.020299744399056303,0,70,255.0,255.0,255.0
423,21.150000000000002,-5.281066730767142,-13.935699360741234,-6.5786324938982865,-0.32875724367453407,-0.03802214860299432,-0.571739106818504,-0.012126922836727921,4.8217100632292134e-05,-0.019351348143259766,0,70,255.0,255.0,255.0
424,21.200000000000003,-5.297519365385818,-13.937600241085503,-6.607243243259286,-0.3293404167005345,-0.038009728877745716,-0.5726829643192721,-0.01119999820328669,0.0004485719093120905,-0.01840295188746323,0,70,255.0,255.0,255.0
425,21.25,-5.314,-13.9395,-6.6359,-0.3298772434948628,-0.037977291412063116,-0.5735794020072502,-0.01027307356984597,0.0008489267179921933,-0.017454555631662316,0,70,255.0,255.0,255.0
426,21.3,-5.330506780761324,-13.941398061061061,-6.664601265851981,-0.3303955318504238,-0.03795030400748542,-0.5744807832134879,-0.010458460652592375,0.00023056946511565098,-0.01860069261784931,0,70,255.0,255.0,255.0
427,21.35,-5.347039707674278,-13.94329554569846,-6.693349033435505,-0.330923089560122,-0.037954234465551545,-0.5754394712690352,-0.01064384773533878,-0.00038778778776089136,-0.019746829604036297,0,70,255.0,255.0,255.0
428,21.400000000000002,-5.363599244206572,-13.945193999805326,-6.722146168093039,-0.33145991662395763,-0.03798908278626151,-0.5764554661738917,-0.010829234818085185,-0.0010061450406374337,-0.020892966590223286,0,70,255.0,255.0,255.0
429,21.450000000000003,-5.380185853825911,-13.947094969274797,-6.75099553516705,-0.3320060130419306,-0.03805484896961529,-0.5775287679280575,-0.011014621900831589,-0.001624502293513976,-0.022039103576410278,0,70,255.0,255.0,255.0
430,21.5,-5.3968,-13.949,-6.7799,-0.33256137881404074,-0.0381515330156129,-0.5786593765315327,-0.011200008983576648,-0.0022428595463902523,-0.023185240562591858,0,70,255.0,255.0,255.0
431,21.55,-5.413442146192057,-13.950910316444295,-6.808861235314077,-0.33312601367078104,-0.03825984913786336,-0.5797757347674398,-0.011385385286033325,-0.002089785343627979,-0.021469088873692473,0,70,255.0,255.0,255.0
432,21.6,-5.430112755847331,-13.95282585735195,-6.8378761433503366,-0.3336999173426441,-0.0383605115499757,-0.5808062854189019,-0.011570761588490002,-0.0019367111408657056,-0.019752937184793092,0,70,255.0,255.0,255.0
433,21.650000000000002,-5.446812292406575,-13.954746240037458,-6.866940433729559,-0.33428308982963006,-0.03845352025194993,-0.5817510284859192,-0.011756137890946679,-0.0017836369381034325,-0.018036785495893708,0,70,255.0,255.0,255.0
434,21.700000000000003,-5.463541219310546,-13.956671081815308,-6.896049816072523,-0.3348755311317388,-0.03853887524378605,-0.5826099639684913,-0.011941514193403356,-0.001630562735341159,-0.016320633806994327,0,70,255.0,255.0,255.0
435,21.75,-5.4803,-13.9586,-6.9252,-0.3354772412489703,-0.038616576525484045,-0.5833830918666185,-0.012126890495858245,-0.0014774885325788967,-0.014604482118093287,0,70,255.0,255.0,255.0
436,21.8,-5.497088634470446,-13.960532673161758,-6.954388192891717,-0.33606041346644894,-0.038690299441065605,-0.5841602777167575,-0.01119999820328673,-0.0014714280906833687,-0.01648295188746583,0,70,255.0,255.0,255.0
437,21.85,-5.513905268936401,-13.962469024893739,-6.983617593163151,-0.336597241069299,-0.03876371933455238,-0.5850313870553652,-0.010273105910715214,-0.0014653676487878407,-0.01836142165683837,0,70,255.0,255.0,255.0
438,21.900000000000002,-5.5307475861671325,-13.964409040044844,-7.0128928969887285,-0.33708772405752047,-0.03883683620594439,-0.5859964198824413,-0.0093462136181437,-0.0014593072068923127,-0.020239891426210913,0,70,255.0,255.0,255.0
439,21.950000000000003,-5.54761326893191,-13.966352703463965,-7.04221880054287,-0.33753186243111344,-0.038909650055241614,-0.5870553761979862,-0.008419321325572184,-0.0014532467649967847,-0.022118361195583455,0,70,255.0,255.0,255.0
440,22.0,-5.5645,-13.9683,-7.0716,-0.3379296561900777,-0.038982160882444064,-0.5882082560019998,-0.007492429033000736,-0.0014471863231012572,-0.023996830964954974,0,70,255.0,255.0,255.0
441,22.05,-5.581406515926157,-13.97025099090868,-7.1010395931190615,-0.3383443324634236,-0.03905895309785944,-0.5893591543655331,-0.009094621900835632,-0.0016245022935138546,-0.022039103576373415,0,70,255.0,255.0,255.0
442,22.1,-5.598335768407065,-13.972206043073093,-7.130534283997064,-0.3388391183801613,-0.03914461111179545,-0.5904121663596371,-0.010696814768670527,-0.0018018182639264518,-0.020081376187791856,0,70,255.0,255.0,255.0
443,22.150000000000002,-5.615291762924897,-13.974165599783166,-7.160079178315535,-0.33941401394029064,-0.03923913492425209,-0.5913672919843123,-0.012299007636505422,-0.0019791342343390495,-0.018123648799210294,0,70,255.0,255.0,255.0
444,22.200000000000003,-5.632278504961819,-13.97613010432883,-7.189669381756006,-0.3400690191438118,-0.03934252453522936,-0.5922245312395582,-0.013901200504340318,-0.0021564502047516465,-0.016165921410628736,0,70,255.0,255.0,255.0
445,22.25,-5.6493,-13.9781,-7.2193,-0.34080413399072473,-0.03945477994472725,-0.592983884125375,-0.015503393372175545,-0.0023337661751640093,-0.014208194022042875,0,70,255.0,255.0,255.0
446,22.3,-5.666358901824927,-13.980075363203524,-7.248967834632039,-0.34153825667986365,-0.03955388816749073,-0.5937471048211017,-0.013861514193380995,-0.0016305627353751751,-0.016320633807026783,0,70,255.0,255.0,255.0
447,22.35,-5.683452457435338,-13.982054802813881,-7.278676470848598,-0.34219028541006286,-0.03961783621826477,-0.5946159475060776,-0.012219635014586448,-0.0009273592955863408,-0.018433073592010688,0,70,255.0,255.0,255.0
448,22.400000000000002,-5.700576562133286,-13.984036560822483,-7.308431189749136,-0.3427602201813223,-0.03964662409704937,-0.5955904121803027,-0.010577755835791899,-0.0002241558557975064,-0.020545513376994597,0,70,255.0,255.0,255.0
449,22.450000000000003,-5.717727111220823,-13.98601887922072,-7.338237272433116,-0.343248060993642,-0.03964025180384452,-0.5966704988437771,-0.008935876656997351,0.00047904758399132776,-0.0226579531619785,0,70,255.0,255.0,255.0
450,22.5,-5.7349,-13.988,-7.3681,-0.34365380784702204,-0.03959871933865023,-0.5978562074965005,-0.007293997478202918,0.0011822510237800565,-0.024770392946959596,0,70,255.0,255.0,255.0
451,22.55,-5.752092276774135,-13.989978756277232,-7.398022668352779,-0.34404664081711683,-0.03955749423217991,-0.599028426350064,-0.008419321325589217,0.0004667532350327362,-0.022118361195583844,0,70,255.0,255.0,255.0
452,22.6,-5.769305601851585,-13.991956345671374,-7.428000632608548,-0.344495739979581,-0.039552044015146955,-0.6000680436160589,-0.009544645172975517,-0.00024874455371458413,-0.019466329444208088,0,70,255.0,255.0,255.0
453,22.650000000000002,-5.786542788541967,-13.993934556926904,-7.458027262687928,-0.3450011053344144,-0.03958236868755137,-0.6009750592944849,-0.010669969020361818,-0.0009642423424619045,-0.016814297692832332,0,70,255.0,255.0,255.0
454,22.700000000000003,-5.803806650154899,-13.995915178788287,-7.488095928511538,-0.34556273688161715,-0.039648468249393144,-0.6017494733853421,-0.011795292867748117,-0.0016797401312092248,-0.01416226594145658,0,70,255.0,255.0,255.0
455,22.75,-5.8211,-13.9979,-7.5182,-0.34618063462118925,-0.03975034270067228,-0.6023912858886307,-0.012920616715135669,-0.002395237919956217,-0.01151023419007835,0,70,255.0,255.0,255.0
456,22.8,-5.838424791078533,-13.99989041168755,-7.548335091956845,-0.3468031800516763,-0.039864134903789976,-0.6030351897786475,-0.0119812005043454,-0.0021564502047514557,-0.01424592141059588,0,70,255.0,255.0,255.0
457,22.85,-5.855779535158327,-14.001886214500614,-7.578505798717217,-0.3473787546716238,-0.03996598772114743,-0.6038158780296903,-0.01104178429355513,-0.001917662489546694,-0.01698160863111341,0,70,255.0,255.0,255.0
458,22.900000000000002,-5.873161883698853,-14.003886811469904,-7.608718959499165,-0.3479073584810318,-0.04005590115274465,-0.6047333506417588,-0.010102368082764861,-0.001678874774341933,-0.01971729585163094,0,70,255.0,255.0,255.0
459,22.950000000000003,-5.890569488159588,-14.005891605626127,-7.638981413520743,-0.3483889914799003,-0.04013387519858162,-0.6057876076148534,-0.009162951871974592,-0.0014400870591371713,-0.02245298307214847,0,70,255.0,255.0,255.0
460,23.0,-5.908,-14.0079,-7.6693,-0.3488236536682292,-0.04019990985865835,-0.6069786489489736,-0.008223535661183945,-0.0012012993439321495,-0.02518867029266314,0,70,255.0,255.0,255.0
461,23.05,-5.925451758911737,-14.00991159697256,-7.699679363819843,-0.34925263897618286,-0.04026596615265761,-0.6081748145353401,-0.00893587665696317,-0.0014409524160383137,-0.022657953161993802,0,70,255.0,255.0,255.0
462,23.1,-5.942925857515116,-14.01192679632616,-7.730115372522592,-0.34971724133392557,-0.04034400510026219,-0.609244444265173,-0.009648217652742395,-0.001680605488144478,-0.020127236031324464,0,70,255.0,255.0,255.0
463,23.150000000000002,-5.960424076662626,-14.013946197193478,-7.760601699315419,-0.35021746074145715,-0.040434026701472066,-0.6101875381384725,-0.01036055864852162,-0.0019202585602506419,-0.017596518900655125,0,70,255.0,255.0,255.0
464,23.200000000000003,-5.977948197206759,-14.0159703987072,-7.7911320174054985,-0.3507532971987777,-0.04053603095628725,-0.6110040961552385,-0.011072899644300844,-0.0021599116323568063,-0.015065801769985787,0,70,255.0,255.0,255.0
465,23.25,-5.9955,-14.018,-7.8217,-0.35132475070588715,-0.04065001786470774,-0.6116941183154709,-0.011785240640078687,-0.002399564704462953,-0.012535084639312188,0,70,255.0,255.0,255.0
466,23.3,-6.013080973274523,-14.02003520042221,-7.852301052763782,-0.35191426404358367,-0.04075200048559868,-0.6123615520799905,-0.01179529286778278,-0.0016797401311749792,-0.014162265941472563,0,70,255.0,255.0,255.0
467,23.35,-6.030691434781215,-14.022074600194749,-7.882937511192418,-0.3525042799926654,-0.04081799187782524,-0.6131103449096182,-0.011805345095486875,-0.000959915557887005,-0.01578944724363294,0,70,255.0,255.0,255.0
468,23.400000000000002,-6.048331409650646,-14.024116399756181,-7.913613443239163,-0.35309479855313236,-0.040847992041387386,-0.6139404968043538,-0.011815397323190969,-0.00024009098459903087,-0.017416628545793313,0,70,255.0,255.0,255.0
469,23.450000000000003,-6.066000923013386,-14.026158799545078,-7.944332916857273,-0.3536858197249846,-0.040842000976285146,-0.6148520077641976,-0.011825449550895062,0.00047973358868894306,-0.019043809847953688,0,70,255.0,255.0,255.0
470,23.5,-6.0837,-14.0282,-7.9751,-0.3542773435082218,-0.04080001868251851,-0.6158448777891491,-0.011835501778596935,0.0011995581619769213,-0.020670991150111284,0,70,255.0,255.0,255.0
471,23.55,-6.101428347990173,-14.0302388013386,-8.00591802512503,-0.354850304849486,-0.040758031904946763,-0.6168749771447049,-0.01108295187196936,0.0004799129408926359,-0.020532983072117438,0,70,255.0,255.0,255.0
472,23.6,-6.119184403360027,-14.032276402894846,-8.036787382707741,-0.3553856386954188,-0.04075202738842924,-0.6178981760963609,-0.010330401965341785,-0.0002397322801916495,-0.02039497499412359,0,70,255.0,255.0,255.0
473,23.650000000000002,-6.136966284734794,-14.034314603781795,-8.067707727727937,-0.3558833450460202,-0.04078200513296593,-0.6189144746441172,-0.00957785205871421,-0.0009593775012759348,-0.020256966916129743,0,70,255.0,255.0,255.0
474,23.700000000000003,-6.1547721107397075,-14.036355203112494,-8.098678715165423,-0.3563434239012902,-0.04084796513855684,-0.6199238727879739,-0.008825302152086635,-0.0016790227223602203,-0.020118958838135897,0,70,255.0,255.0,255.0
475,23.75,-6.1726,-14.0384,-8.1297,-0.3567658752612289,-0.04094990740520195,-0.6209263705279306,-0.008072752245459558,-0.0023986679434443436,-0.019980950760137617,0,70,255.0,255.0,255.0
476,23.8,-6.190448834764785,-14.040450394223392,-8.160770846736101,-0.35719651655847257,-0.04106387189459869,-0.6218985393411843,-0.009152899644287798,-0.002159911632424968,-0.018905801770008054,0,70,255.0,255.0,255.0
477,23.85,-6.20832055177868,-14.042506188225866,-8.191888957976628,-0.3576811652256577,-0.041165898568444444,-0.6228169507049315,-0.010233047043116037,-0.001921155321405592,-0.01783065277987849,0,70,255.0,255.0,255.0
478,23.900000000000002,-6.226217851410184,-14.044566785116645,-8.223051645849102,-0.3582198212627842,-0.04125598742673925,-0.6236816046191722,-0.011313194441944275,-0.001682399010386216,-0.016755503789748924,0,70,255.0,255.0,255.0
479,23.950000000000003,-6.244143434027792,-14.04663158800495,-8.254256222481056,-0.3588124846698521,-0.04133413846948308,-0.6244925010839064,-0.012393341840772516,-0.0014436426993668402,-0.01568035479961936,0,70,255.0,255.0,255.0
480,24.0,-6.2621,-14.0487,-8.2855,-0.3594591554468614,-0.041400351696675934,-0.625249640099134,-0.013473489239600678,-0.001204886388347426,-0.01460520580948721,0,70,255.0,255.0,255.0
481,24.05,-6.28008911295069,-14.050771621767828,-8.316780987930569,-0.3600916289166238,-0.04146648051666729,-0.6259948654905694,-0.011825449550893794,-0.0014402664113066044,-0.015203809847927205,0,70,255.0,255.0,255.0
482,24.1,-6.298107789525257,-14.052846844201687,-8.348099985385756,-0.3606417004019508,-0.041544378337806595,-0.6267700210839267,-0.010177409862186912,-0.0016756464342657829,-0.0158024138863672,0,70,255.0,255.0,255.0
483,24.150000000000002,-6.316151909624478,-14.054926255751628,-8.379458488875661,-0.3611093699028425,-0.04163404516009387,-0.627575106879206,-0.00852937017348003,-0.0019110264572249614,-0.016401017924807196,0,70,255.0,255.0,255.0
484,24.200000000000003,-6.334217353149133,-14.057010444867714,-8.410857994910378,-0.36149463741929877,-0.0417354809835291,-0.6284101228764075,-0.006881330484773147,-0.00214640648018414,-0.016999621963247193,0,70,255.0,255.0,255.0
485,24.25,-6.3523,-14.0591,-8.4423,-0.3617975029513198,-0.041848685808112275,-0.6292750690755309,-0.005233290796066381,-0.0023817865031429686,-0.017598226001688033,0,70,255.0,255.0,255.0
486,24.3,-6.3703971134324595,-14.061195118705292,-8.473786001541626,-0.3621009677750237,-0.04195020603874814,-0.6301699986965262,-0.006905302152091621,-0.0016790227222917907,-0.01819895883812138,0,70,255.0,255.0,255.0
487,24.35,-6.388511490120299,-14.063294434967391,-8.50531750048035,-0.362488033166529,-0.042016588080341456,-0.631094964959343,-0.00857731350811686,-0.000976258941440613,-0.018799691674554725,0,70,255.0,255.0,255.0
488,24.400000000000002,-6.406647310091909,-14.065396191876843,-8.536895998648259,-0.36295869912583545,-0.04204783193289221,-0.6320499678639817,-0.010249324864142099,-0.0002734951605894353,-0.01940042451098807,0,70,255.0,255.0,255.0
489,24.450000000000003,-6.42480875337568,-14.067498632524197,-8.568522997877446,-0.36351296565294317,-0.042043937596400405,-0.6330350074104418,-0.01192133622016734,0.0004292686202617426,-0.020001157347421417,0,70,255.0,255.0,255.0
490,24.5,-6.443,-14.0696,-8.6002,-0.36415083274785215,-0.04200490507086603,-0.6340500835987236,-0.013593347576191572,0.0011320324011130367,-0.020601890183852056,0,70,255.0,255.0,255.0
491,24.55,-6.461224033319473,-14.071699103411001,-8.63192780590292,-0.3648004999832767,-0.04196469532832334,-0.6350531397233119,-0.012393341840789135,0.0004763573005945117,-0.01952035479967636,0,70,255.0,255.0,255.0
492,24.6,-6.479479049993549,-14.073797015928749,-8.663704412692846,-0.3653901669319311,-0.041957269340806576,-0.6360021190786913,-0.011193336105386698,-0.00017931779992401333,-0.018438819415500664,0,70,255.0,255.0,255.0
493,24.650000000000002,-6.4977620500078865,-14.075895376740998,-8.695527116531306,-0.36591983359381536,-0.04198262710831574,-0.636897021664862,-0.009993330369984258,-0.0008349929004425384,-0.01735728403132497,0,70,255.0,255.0,255.0
494,24.700000000000003,-6.51607003334815,-14.077995825035497,-8.727393213579845,-0.3663894999689295,-0.042040768630850836,-0.6377378474818238,-0.008793324634581821,-0.0014906680009610634,-0.016275748647149275,0,70,255.0,255.0,255.0
495,24.75,-6.5344,-14.0801,-8.7593,-0.36679916605727353,-0.042131693908411844,-0.6385245965295767,-0.007593318899177692,-0.002146343101479431,-0.015194213262972767,0,70,255.0,255.0,255.0
496,24.8,-6.5527499532896485,-14.082209267650704,-8.791245174846683,-0.36720903229187213,-0.04223901264795428,-0.6392814424102314,-0.00880133048476825,-0.0021464064802180884,-0.015079621963219124,0,70,255.0,255.0,255.0
497,24.85,-6.571121909905509,-14.08432390131761,-8.823228048748273,-0.36767929910575037,-0.042346334556433655,-0.6400325587258987,-0.010009342070358807,-0.0021464698589567454,-0.014965030663465481,0,70,255.0,255.0,255.0
498,24.900000000000002,-6.589518889876545,-14.086443901159162,-8.855248335226523,-0.368209966498908,-0.042453659633849956,-0.6407779454765781,-0.011217353655949365,-0.002146533237695403,-0.014850439363711838,0,70,255.0,255.0,255.0
499,24.950000000000003,-6.607943913231721,-14.088569267333812,-8.88730574780318,-0.3688010344713453,-0.042560987880203204,-0.6415176026622699,-0.012425365241539922,-0.00214659661643406,-0.014735848063958194,0,70,255.0,255.0,255.0
500,25.0,-6.6264,-14.0907,-8.9194,-0.36945250302306204,-0.04266831929549336,-0.642251530282974,-0.013633376827128618,-0.0021466599951727172,-0.014621256764207224,0,70,255.0,255.0,255.0
501,25.05,-6.644888953521935,-14.092835825986178,-8.951531494710348,-0.37009137084924404,-0.042759254079865174,-0.6430210906357648,-0.011921336220149457,-0.0014907313796996297,-0.016161157347429466,0,70,255.0,255.0,255.0
502,25.1,-6.66340771038442,-14.094975378800806,-8.983703392314062,-0.370644636645077,-0.04281739243346333,-0.643867646017717,-0.010209295613170296,-0.0008348027642265422,-0.017701057930651708,0,70,255.0,255.0,255.0
503,25.150000000000002,-6.6819519904859375,-14.097117018622345,-9.015919542562607,-0.37111230041056104,-0.042842734356287826,-0.6447911964288301,-0.008497255006191133,-0.00017887414875345474,-0.01924095851387395,0,70,255.0,255.0,255.0
504,25.200000000000003,-6.70051751372497,-14.099259105629256,-9.048183795207432,-0.37149436214569614,-0.042835279848338674,-0.6457917418691044,-0.006785214399211972,0.00047705446671963275,-0.02078085909709619,0,70,255.0,255.0,255.0
505,25.25,-6.7191,-14.1014,-9.0805,-0.37179082185048223,-0.04279502890961587,-0.6468692823385397,-0.005073173792232932,0.0011329830821925624,-0.02232075968031655,0,70,255.0,255.0,255.0
506,25.3,-6.737696632622615,-14.10353862840458,-9.11287044631193,-0.3720894843111523,-0.042755971032585195,-0.6479301950467261,-0.006873324634568982,0.00042933199903448906,-0.020115748647138224,0,70,255.0,255.0,255.0
507,25.35,-6.7563104485568175,-14.10567618347916,-9.14529118199548,-0.37247815431393916,-0.04275209570971242,-0.6488808572032535,-0.008673475476905031,-0.00027431908412358427,-0.017910737613959896,0,70,255.0,255.0,255.0
508,25.400000000000002,-6.774945948179712,-14.107814424351453,-9.177756694523065,-0.3729568318588428,-0.04278340294099755,-0.6497212688081221,-0.01047362631924108,-0.0009779701672816576,-0.015705726580781572,0,70,255.0,255.0,255.0
509,25.450000000000003,-6.7936076318684036,-14.109955110149162,-9.2102614713671,-0.3735255169458633,-0.04284989272644059,-0.6504514298613318,-0.01227377716157713,-0.001681621250439731,-0.013500715547603246,0,70,255.0,255.0,255.0
510,25.5,-6.8123,-14.1121,-9.2428,-0.3741842095750004,-0.04295156506604152,-0.6510713403628825,-0.01407392800391083,-0.0023852723335978654,-0.011295704514424187,0,70,255.0,255.0,255.0
511,25.55,-6.831026115987604,-14.114250460395503,-9.275368320041935,-0.37484669190613756,-0.04306486178979232,-0.6516741291773414,-0.012425365241572605,-0.002146596616434079,-0.012815848063929658,0,70,255.0,255.0,255.0
512,25.6,-6.849783295388312,-14.116406287282548,-9.307968679704027,-0.3754267460991577,-0.04316622472768493,-0.6523529251692756,-0.01077680247923438,-0.0019079208992702921,-0.014335991613435127,0,70,255.0,255.0,255.0
513,25.650000000000002,-6.868567416795218,-14.118566883971841,-9.340604879345152,-0.375924372154061,-0.04325565387971935,-0.6531077283386849,-0.009128239716896153,-0.0016692451821065054,-0.0158561351629406,0,70,255.0,255.0,255.0
514,25.700000000000003,-6.8873743588014165,-14.120731653774088,-9.373280719324187,-0.37633957007084734,-0.043333149245895576,-0.6539385386855695,-0.0074796769545579294,-0.001430569464942719,-0.017376278712446066,0,70,255.0,255.0,255.0
515,25.75,-6.9062,-14.1229,-9.406,-0.3766723398495167,-0.043398710826213625,-0.6548453562099295,-0.0058311141922184895,-0.0011918937477791158,-0.018896422261949652,0,70,255.0,255.0,255.0
516,25.8,-6.92504130342697,-14.125071530013406,-9.438765873520339,-0.37698774806430246,-0.04346458180824085,-0.6557892882439057,-0.006785214399212261,-0.001442945533310095,-0.018860859097099336,0,70,255.0,255.0,255.0
517,25.85,-6.943899569889937,-14.127246667390645,-9.471578899188422,-0.37735086128943796,-0.04354300537954464,-0.6567314421196394,-0.007739314606206032,-0.0016939973188410745,-0.01882529593224902,0,70,255.0,255.0,255.0
518,25.900000000000002,-6.962777184639419,-14.12942603976118,-9.504438988096334,-0.37776167952492307,-0.04363398154012497,-0.6576718178371306,-0.008693414813199803,-0.0019450491043720539,-0.018789732767398704,0,70,255.0,255.0,255.0
519,25.950000000000003,-6.981676532925936,-14.131610274754479,-9.537346051336163,-0.3782202027707579,-0.043737510289981844,-0.6586104153963793,-0.009647515020193575,-0.002196100889903033,-0.018754169602548384,0,70,255.0,255.0,255.0
520,26.0,-7.0006,-14.1338,-9.5703,-0.3787264310269425,-0.04385359162911527,-0.6595472347973853,-0.010601615227187722,-0.00244715267543405,-0.01871860643769896,0,70,255.0,255.0,255.0
521,26.05,-7.019549470304521,-14.135995419550873,-9.603300185876712,-0.37925031583666086,-0.043956810977261264,-0.6604487178470185,-0.010353777161546415,-0.0016816212504055742,-0.017340715547629927,0,70,255.0,255.0,255.0
522,26.1,-7.038524825051946,-14.138195043154873,-9.636343723542295,-0.3797618087430971,-0.04402175375415583,-0.6612813063521483,-0.010105939095905108,-0.0009160898253770982,-0.0159628246575609,0,70,255.0,255.0,255.0
523,26.150000000000002,-7.05752544464711,-14.140396956983434,-9.66942716826952,-0.3802609097462514,-0.044048419959798975,-0.6620450003127747,-0.0098581010302638,-0.00015055840034862216,-0.014584933767491867,0,70,255.0,255.0,255.0
524,26.200000000000003,-7.07655070949485,-14.142599247207999,-9.702547075331164,-0.3807476188461235,-0.04403680959419069,-0.6627397997288975,-0.009610262964622493,0.0006149730246798536,-0.013207042877422836,0,70,255.0,255.0,255.0
525,26.25,-7.0956,-14.1448,-9.7357,-0.38122193604271354,-0.043986922657331,-0.663365704600517,-0.00936242489897987,0.0013805044497082197,-0.011829151987353015,0,70,255.0,255.0,255.0
526,26.3,-7.114672815354949,-14.146997991783103,-9.76888378297281,-0.38169098858905226,-0.043940174282711124,-0.6639998403680122,-0.009399676954569447,0.0004894305350868084,-0.013536278712453179,0,70,255.0,255.0,255.0
527,26.35,-7.133769129902285,-14.149194759989866,-9.802101406642405,-0.3821619037381705,-0.04393797960382232,-0.6647193324717624,-0.009436929010159025,-0.0004016433795346029,-0.01524340543755334,0,70,255.0,255.0,255.0
528,26.400000000000002,-7.152889036772147,-14.151392532305081,-9.835357138825593,-0.3826346814900682,-0.04398033862066458,-0.6655241809117676,-0.009474181065748601,-0.0012927172941560143,-0.016950532162653506,0,70,255.0,255.0,255.0
529,26.450000000000003,-7.172032629094672,-14.153593536413528,-9.868655247339188,-0.38310932184474533,-0.04406725133323792,-0.6664143856880277,-0.009511433121338177,-0.0021837912087774255,-0.018657658887753666,0,70,255.0,255.0,255.0
530,26.5,-7.1912,-14.1558,-9.902,-0.38358582480220205,-0.04419871774154232,-0.6673899468005429,-0.009548685176928196,-0.0030748651233985513,-0.020364785612851932,0,70,255.0,255.0,255.0
531,26.55,-7.210391268275683,-14.158013413316716,-9.935394282232037,-0.38406572980713016,-0.044330491891876565,-0.6683679206809279,-0.009647515020194144,-0.002196100889971174,-0.018754169602547655,0,70,255.0,255.0,255.0
532,26.6,-7.229606655338917,-14.160232316885658,-9.968835449888084,-0.38455057630422146,-0.04441832783053944,-0.6692653637607976,-0.00974634486346009,-0.0013173366565437967,-0.017143553592243375,0,70,255.0,255.0,255.0
533,26.650000000000002,-7.248846408264308,-14.162454513796241,-10.00231947642811,-0.38504036429347616,-0.044462225557530946,-0.6700822760401521,-0.009845174706726039,-0.0004385724231164194,-0.015532937581939098,0,70,255.0,255.0,255.0
534,26.700000000000003,-7.268110774126467,-14.164677807137885,-10.035842335312093,-0.3855350937748941,-0.04446218507285109,-0.6708186575189916,-0.009944004549991985,0.000440191810310958,-0.013922321571634819,0,70,255.0,255.0,255.0
535,26.75,-7.2874,-14.1669,-10.0694,-0.38603476474847537,-0.04441820637649986,-0.6714745081973158,-0.010042834393257483,0.0013189560437382175,-0.01231170556133332,0,70,255.0,255.0,255.0
536,26.8,-7.30671411154232,-14.169119554950028,-10.102989488099032,-0.38652609218242234,-0.044369858149789415,-0.6721124769082848,-0.009610262964621169,0.0006149730246797114,-0.013207042877423993,0,70,255.0,255.0,255.0
537,26.85,-7.3260522487420525,-14.171337572467495,-10.136611993805259,-0.3869957910449375,-0.04435670907403189,-0.6727952124850581,-0.009177691535984854,-8.900999437879472e-05,-0.014102380193514667,0,70,255.0,255.0,255.0
538,26.900000000000002,-7.345413330170624,-14.173555812509948,-10.170269755461968,-0.3874438613360208,-0.044378759149227294,-0.6735227149276363,-0.00874512010734854,-0.0007929930134373008,-0.01499771750960534,0,70,255.0,255.0,255.0
539,26.950000000000003,-7.364796274399464,-14.175776035034934,-10.203965011412455,-0.3878703030556724,-0.04443600837537562,-0.6742949842360189,-0.008312548678712227,-0.001496976032495807,-0.015893054825696015,0,70,255.0,255.0,255.0
540,27.0,-7.3842,-14.178,-10.2377,-0.3882751162038921,-0.04452845675247687,-0.6751120204102058,-0.007879977250077275,-0.0022009590515544297,-0.016788392141784847,0,70,255.0,255.0,255.0
541,27.05,-7.403623485555038,-14.180229166883171,-10.271476565371833,-0.3886619014631776,-0.04463807550898346,-0.6759501716859434,-0.007591433121343446,-0.0021837912087090956,-0.016737658887721985,0,70,255.0,255.0,255.0
542,27.1,-7.4230659496928775,-14.182463793244365,-10.305294974890884,-0.3890342595160265,-0.04474683587334779,-0.676785786298978,-0.007302888992609616,-0.002166623365863762,-0.01668692563365912,0,70,255.0,255.0,255.0
543,27.150000000000002,-7.4425266710532005,-14.18470383616397,-10.33915510172402,-0.3893921903624386,-0.04485473784556984,-0.6776188642493094,-0.0070143448638757865,-0.002149455523018428,-0.016636192379596258,0,70,255.0,255.0,255.0
544,27.200000000000003,-7.4620049282756815,-14.186949252722385,-10.373056819038105,-0.38973569400241403,-0.04496178142564963,-0.6784494055369377,-0.006725800735141957,-0.002132287680173094,-0.016585459125533393,0,70,255.0,255.0,255.0
545,27.25,-7.4815,-14.1892,-10.407,-0.3900647704359528,-0.04506796661358715,-0.6792774101618627,-0.00643725660640726,-0.0021151198373276503,-0.016534725871465206,0,70,255.0,255.0,255.0
546,27.3,-7.501011946237532,-14.19145577751729,-10.440984250413642,-0.3904263019648629,-0.04515783981426331,-0.6800868363479402,-0.008024004549995944,-0.001479808189718692,-0.01584232157163025,0,70,255.0,255.0,255.0
547,27.35,-7.520543952486439,-14.193715254555054,-10.475008106631213,-0.3908671708909524,-0.045215947432559016,-0.6808616423190258,-0.00961075249358463,-0.0008444965421097335,-0.01514991727179529,0,70,255.0,255.0,255.0
548,27.400000000000002,-7.540099985616581,-14.195976842834172,-10.509069837641961,-0.39138737721422134,-0.045242289468474285,-0.6816018280751197,-0.011197500437173314,-0.00020918489450077516,-0.014457512971960334,0,70,255.0,255.0,255.0
549,27.450000000000003,-7.559684012497816,-14.198238954075526,-10.543167712435142,-0.39198692093466975,-0.045236865922009095,-0.6823073936162218,-0.012784248380762,0.0004261267531081832,-0.013765108672125374,0,70,255.0,255.0,255.0
550,27.5,-7.5793,-14.2005,-10.5773,-0.3926658020522975,-0.04519967679316346,-0.6829783389423321,-0.014370996324348795,0.0010614384007173738,-0.013072704372286026,0,70,255.0,255.0,255.0
