idx,t,px,py,pz,vx,vy,vz,ax,ay,az,yaw,mode,ledr,ledg,ledb
0,0.0,-4.5,7.5,0.0,0.00014493369019076378,0.0005437528812046021,0.0023816840959855826,-0.01853920428231396,-0.01052503457448143,-0.066180209151827,0,70,255.0,255.0,255.0
1,0.05,-4.5000163823871535,7.500013975103723,3.6140627455480954e-05,-0.0008093305025132979,1.4126325352997151e-05,-0.0009404253158466324,-0.019631363425848508,-0.010660027659582766,-0.0667041673214616,0,70,255.0,255.0,255.0
2,0.1,-4.500081843182872,7.5000013001382975,-9.447916339269212e-05,-0.0018182026523940872,-0.0005222498847536746,-0.004288732636160577,-0.020723522569383056,-0.010795020744684101,-0.06722812549109619,0,70,255.0,255.0,255.0
3,0.15000000000000002,-4.500199112785012,7.49996163762101,-0.0003931692679686058,-0.002881682759451604,-0.0010653757491154133,-0.007663237864956252,-0.021815681712917603,-0.010930013829785437,-0.0677520836607308,0,70,255.0,255.0,255.0
4,0.2,-4.500370921591435,7.499894650069149,-0.0008612395816963463,-0.0039997708236858475,-0.0016152512677322184,-0.011063941002233657,-0.02290784085645215,-0.011065006914886773,-0.06827604183036538,0,70,255.0,255.0,255.0
5,0.25,-4.5006,7.4998,-0.0015,-0.005172466845096819,-0.00217187644060409,-0.01449084204799279,-0.023999999999986706,-0.011199999999988108,-0.06880000000000011,0,70,255.0,255.0,255.0
6,0.30000000000000004,-4.500889078408565,7.499677349930851,-0.002310760418303655,-0.006399770823684518,-0.00273525126773103,-0.017943941002233663,-0.02509215914352125,-0.011334993085089444,-0.06932395816963464,0,70,255.0,255.0,255.0
7,0.35000000000000003,-4.501240887214989,7.499526362378989,-0.0032948307320313955,-0.007681682759448944,-0.0033053757491130348,-0.021423237864956257,-0.026184318287055794,-0.01146998617019078,-0.06984791633926918,0,70,255.0,255.0,255.0
8,0.4,-4.501658156817129,7.499346699861702,-0.004453520836607309,-0.009018202652390098,-0.0038822498847501073,-0.02492873263616058,-0.027276477430590335,-0.011604979255292115,-0.0703718745089037,0,70,255.0,255.0,255.0
9,0.45,-4.502143617612846,7.4991380248962765,-0.0057881406274554814,-0.010409330502507978,-0.004465873674642246,-0.028460425315846624,-0.02836863657412488,-0.01173997234039345,-0.07089583267853823,0,70,255.0,255.0,255.0
10,0.5,-4.5027,7.4989,-0.0073,-0.011855066309802586,-0.005056247118789452,-0.032018315904014404,-0.029460795717659458,-0.01187496542549478,-0.07141979084817301,0,70,255.0,255.0,255.0
11,0.55,-4.503328903978589,7.498632625172872,-0.008989898954240867,-0.013287586202744369,-0.005633121254426951,-0.03557181067521874,-0.027840000000011862,-0.011200000000005157,-0.07072000000000009,0,70,255.0,255.0,255.0
12,0.6000000000000001,-4.504027407957176,7.498337250345744,-0.010856597908481732,-0.014639066309803774,-0.0061762471187899685,-0.03909031590401442,-0.026219204282364267,-0.010525034574515537,-0.07002020915182715,0,70,255.0,255.0,255.0
13,0.65,-4.504791459946471,7.498015562932181,-0.012898347385602164,-0.015909506630980796,-0.006685624711878505,-0.04257383159040145,-0.024598408564716675,-0.009850069149025916,-0.06932041830365422,0,70,255.0,255.0,255.0
14,0.7000000000000001,-4.505617007957176,7.497669250345745,-0.015113397908481731,-0.01709890716627544,-0.00716125403369256,-0.046022357734379835,-0.02297761284706908,-0.009175103723536296,-0.06862062745548128,0,70,255.0,255.0,255.0
15,0.75,-4.5065,7.4973,-0.0175,-0.018207267915687705,-0.007603135084232133,-0.049435894335949575,-0.021356817129421557,-0.008500138298046654,-0.06792083660730835,0,70,255.0,255.0,255.0
16,0.8,-4.507437705677083,7.4969089493776595,-0.020056843764732893,-0.019313884365334974,-0.008044263714556008,-0.05284081629689142,-0.02290784085646922,-0.009145006914908299,-0.06827604183036537,0,70,255.0,255.0,255.0
17,0.8500000000000001,-4.508432680956306,7.49649503623803,-0.022784377634041696,-0.02049805200133463,-0.008517635775722964,-0.05626349851898612,-0.024458864583516884,-0.009789875531769942,-0.06863124705342237,0,70,255.0,255.0,255.0
18,0.9,-4.509488803396988,7.4960566484095725,-0.025683489620984053,-0.021759770823686662,-0.009023251267733002,-0.059703941002233654,-0.026009888310564545,-0.010434744148631585,-0.06898645227647938,0,70,255.0,255.0,255.0
19,0.9500000000000001,-4.510609950558447,7.495592173720743,-0.02875506773861761,-0.023099040832391084,-0.009561110190586123,-0.06316214374663405,-0.02756091203761221,-0.011079612765493229,-0.06934165749953639,0,70,255.0,255.0,255.0
20,1.0,-4.5118,7.4951,-0.032,-0.024515862027447884,-0.010131212544282325,-0.0666381067521873,-0.02911193576465987,-0.011724481382354934,-0.06969686272259368,0,70,255.0,255.0,255.0
21,1.05,-4.513061873313083,7.494578777316492,-0.03541872598682759,-0.02595287633591708,-0.01071782388735061,-0.07010492413721561,-0.02836863657410783,-0.01173997234037642,-0.06897583267853838,0,70,255.0,255.0,255.0
22,1.1,-4.5143946682176,7.494028204702133,-0.03900989155535152,-0.027352725684858668,-0.011305209778319968,-0.07353569002004114,-0.02762533738355579,-0.011755463298397906,-0.06825480263448307,0,70,255.0,255.0,255.0
23,1.1500000000000001,-4.515796526465576,7.493448243429528,-0.04277169413046166,-0.02871541007427266,-0.0118933702171904,-0.07693040440066393,-0.026882038193003752,-0.011770954256419391,-0.06753377259042777,0,70,255.0,255.0,255.0
24,1.2000000000000002,-4.517265589809035,7.492838854771283,-0.046702331137047866,-0.030040929504159045,-0.012482305203961909,-0.08028906727908393,-0.026138739002451714,-0.011786445214440878,-0.06681274254637246,0,70,255.0,255.0,255.0
25,1.25,-4.5188,7.4922,-0.0508,-0.03132928397451783,-0.013072014738634487,-0.08361167865530116,-0.025395439811899623,-0.011801936172462363,-0.0660917125023176,0,70,255.0,255.0,255.0
26,1.3,-4.520398001070588,7.4915319413563735,-0.055063452287956775,-0.032586610290992364,-0.013644440736034767,-0.08693148715424615,-0.02489761284708167,-0.011095103723548848,-0.06670062745548162,0,70,255.0,255.0,255.0
27,1.35,-4.522058246173295,7.4908361449534375,-0.05949365614455226,-0.033819045259226,-0.014181525110989373,-0.09028174140084932,-0.024399785882263724,-0.010388271274635335,-0.06730954240864565,0,70,255.0,255.0,255.0
28,1.4000000000000001,-4.523779490740707,7.490114377872315,-0.06409213385716936,-0.03502658887921873,-0.014683267863498302,-0.09366244139511071,-0.023901958917445773,-0.00968143882572182,-0.06791845736180967,0,70,255.0,255.0,255.0
29,1.4500000000000002,-4.525560490205413,7.489368407194128,-0.06886040771319096,-0.03620924115097057,-0.015149668993561556,-0.0970735871370303,-0.023404131952627825,-0.008974606376808306,-0.06852737231497368,0,70,255.0,255.0,255.0
30,1.5,-4.5274,7.4886,-0.0738,-0.037367002074481515,-0.015580728501179131,-0.10051517862660807,-0.02290630498780999,-0.008267773927894767,-0.06913628726813859,0,70,255.0,255.0,255.0
31,1.55,-4.529297322404563,7.487810257258015,-0.07891226486134532,-0.03853268250011687,-0.016016413168513943,-0.10397712724579995,-0.02372091203760416,-0.009159612765497722,-0.06934165749953654,0,70,255.0,255.0,255.0
32,1.6,-4.53125394708922,7.486997615484117,-0.0841978838664395,-0.03973909327824193,-0.016496689777728907,-0.10744934437656173,-0.02453551908739833,-0.010051451603100676,-0.06954702773093449,0,70,255.0,255.0,255.0
33,1.6500000000000001,-4.533271910571596,7.486159845081211,-0.089657370440861,-0.0409862344088567,-0.017021558328824012,-0.1109318300188934,-0.025350126137192498,-0.010943290440703631,-0.06975239796233243,0,70,255.0,255.0,255.0
34,1.7000000000000002,-4.535353249369313,7.485294716452203,-0.09529123801018835,-0.042274105891961185,-0.017591018821799267,-0.11442458417279498,-0.026164733186986668,-0.011835129278306586,-0.06995776819373038,0,70,255.0,255.0,255.0
35,1.75,-4.5375,7.4844,-0.1011,-0.04360270772755537,-0.01820507125665467,-0.11792760683826645,-0.026979340236780835,-0.012726968115909593,-0.07016313842512845,0,70,255.0,255.0,255.0
36,1.8,-4.539713509311159,7.483474229611565,-0.10708348826666192,-0.04493065970853618,-0.018817906589913006,-0.12140000386255398,-0.026138739002451672,-0.011786445214423851,-0.06873274254637277,0,70,255.0,255.0,255.0
37,1.85,-4.541992365469825,7.4825189931100935,-0.11323880838968976,-0.04621658162780054,-0.01938371577809706,-0.12480088109290373,-0.02529813776812251,-0.010845922312938109,-0.06730234666761707,0,70,255.0,255.0,255.0
38,1.9000000000000001,-4.54433446697291,7.4815366418028395,-0.11956238437938668,-0.04746047348534844,-0.01990249882120682,-0.12813023852931568,-0.02445753653379334,-0.009905399411452367,-0.06587195078886138,0,70,255.0,255.0,255.0
39,1.9500000000000002,-4.546737712317331,7.480529526997057,-0.12605064024605572,-0.04866233528117987,-0.02037425571924229,-0.13138807617178985,-0.023616935299464178,-0.008964876509966626,-0.0644415549101057,0,70,255.0,255.0,255.0
40,2.0,-4.5492,7.4795,-0.1327,-0.04982216701529484,-0.020798986472203483,-0.13457439402032625,-0.02277633406513485,-0.008024353608480972,-0.06301115903134957,0,70,255.0,255.0,255.0
41,2.0500000000000003,-4.5517198403508,7.478449624295726,-0.13950818207200708,-0.050976678665739336,-0.021223960471835716,-0.13776685730398433,-0.023404131952644895,-0.008974606376808308,-0.06468737231497347,0,70,255.0,255.0,255.0
42,2.1,-4.554298191031481,7.47737681207551,-0.1464780825748015,-0.05216258021055933,-0.021696447109884314,-0.1410431312518236,-0.024031929840154932,-0.009924859145135636,-0.06636358559859734,0,70,255.0,255.0,255.0
43,2.15,-4.556936621536761,7.47627918770743,-0.15361389204159237,-0.05337987164975483,-0.022216446386349276,-0.14440321586384408,-0.02465972772766497,-0.010875111913462963,-0.06803979888222123,0,70,255.0,255.0,255.0
44,2.2,-4.559636701361362,7.475154375559567,-0.1609198010055889,-0.054628552983325834,-0.022783958301230613,-0.14784711114004573,-0.025287525615175013,-0.0118253646817903,-0.06971601216584511,0,70,255.0,255.0,255.0
45,2.25,-4.5624,7.474,-0.1684,-0.05590862421127232,-0.023398982854528308,-0.15137481708042858,-0.025915323502684995,-0.012775617450117571,-0.071392225449469,0,70,255.0,255.0,255.0
46,2.3000000000000003,-4.565227929285644,7.472814473205533,-0.1760573834453101,-0.0572106256285137,-0.024014251522738915,-0.1549085669215086,-0.026164733186969658,-0.011835129278306562,-0.06995776819373058,0,70,255.0,255.0,255.0
47,2.35,-4.568121270404255,7.471599358587869,-0.18388966131110443,-0.05852509752996929,-0.024582495782358965,-0.15837059389980163,-0.02641414287125432,-0.01089464110649556,-0.06852331093799217,0,70,255.0,255.0,255.0
48,2.4000000000000004,-4.571080646880045,7.47035700736744,-0.1918932474542438,-0.05985203991563913,-0.02510371563338847,-0.16176089801530782,-0.026663552555538983,-0.00995415293468455,-0.06708885368225376,0,70,255.0,255.0,255.0
49,2.45,-4.574106682237222,7.469089770764674,-0.20006455573158877,-0.061191452785523195,-0.025577911075827423,-0.16507947926802702,-0.026912962239823646,-0.009013664762873548,-0.06565439642651535,0,70,255.0,255.0,255.0
50,2.5,-4.5772,7.4678,-0.2084,-0.06254333613962149,-0.026005082109675823,-0.16832633765795932,-0.02716237192410853,-0.008073176591062436,-0.0642199391707774,0,70,255.0,255.0,255.0
51,2.5500000000000003,-4.580360442506627,7.4664892828821445,-0.2168966841467529,-0.0638608188202107,-0.02643103343720198,-0.17154287500998142,-0.025536935299459697,-0.008964876509983705,-0.06444155491010624,0,70,255.0,255.0,255.0
52,2.6,-4.583584727351501,7.465156153573014,-0.22555447218078092,-0.06509702966956746,-0.026901569760674194,-0.17477049314896995,-0.02391149867481088,-0.009856576428904962,-0.06466317064943508,0,70,255.0,255.0,255.0
53,2.6500000000000004,-4.586868790943063,7.463798382822811,-0.23437391814143263,-0.06625196868769179,-0.027416691080092478,-0.17800919207492494,-0.022286062050162047,-0.01074827634782623,-0.06488478638876392,0,70,255.0,255.0,255.0
54,2.7,-4.590208569689749,7.462413741381739,-0.24335557606805622,-0.06732563587458366,-0.027976397395456817,-0.18125897178784636,-0.02066062542551323,-0.01163997626674749,-0.06510640212809275,0,70,255.0,255.0,255.0
55,2.75,-4.5936,7.461,-0.2525,-0.0683180312302431,-0.02858068870676722,-0.18451983228773422,-0.019035188800864633,-0.012531676185668639,-0.0653280178674236,0,70,255.0,255.0,255.0
56,2.8000000000000003,-4.597040700687852,7.45955559526589,-0.26180787996767874,-0.0693300990906439,-0.029189614728453696,-0.18779993303856596,-0.02144752561516691,-0.011825364681790247,-0.06587601216584558,0,70,255.0,255.0,255.0
57,2.85,-4.600535020189743,7.458081627120075,-0.271280449965772,-0.0704627837917598,-0.029763225174946246,-0.1911074335043188,-0.023859862429469164,-0.011119053177911863,-0.06642400646426756,0,70,255.0,255.0,255.0
58,2.9000000000000004,-4.604088989347707,7.456579861341315,-0.28091907998002597,-0.07171608533359082,-0.03030152004624488,-0.19444233368499272,-0.026272199243771437,-0.010412741674033471,-0.06697200076268954,0,70,255.0,255.0,255.0
59,2.95,-4.607708639003781,7.45505206370837,-0.29072513999618665,-0.07309000371613693,-0.030804499342349596,-0.19780463358058775,-0.028684536058073695,-0.009706430170155086,-0.06751999506111153,0,70,255.0,255.0,255.0
60,3.0,-4.6114,7.4535,-0.3007,-0.07458453893939818,-0.03127216306326039,-0.20119433319110389,-0.03109687287237617,-0.009000118666276702,-0.06806798935953462,0,70,255.0,255.0,255.0
61,3.0500000000000003,-4.615167154741963,7.451925136054297,-0.31084459598253256,-0.07608278481720349,-0.03172250764898872,-0.20458539283575514,-0.028832962239836345,-0.009013664762856477,-0.06757439642651523,0,70,255.0,255.0,255.0
62,3.1,-4.619006391889527,7.4503277379466875,-0.32115812795613136,-0.07746783516338182,-0.03217352953954604,-0.2079517728337554,-0.026569051607296543,-0.009027210859436252,-0.06708080349349585,0,70,255.0,255.0,255.0
63,3.1500000000000004,-4.622912051666107,7.448707771811929,-0.331639361938464,-0.07873968997793315,-0.03262522873493235,-0.21129347318510475,-0.024305140974756716,-0.009040756956016027,-0.06658721056047646,0,70,255.0,255.0,255.0
64,3.2,-4.626878474295126,7.44706520378478,-0.34228706394719766,-0.0798983492608575,-0.03307760523514764,-0.21461049388980308,-0.022041230342216916,-0.009054303052595802,-0.0660936176274571,0,70,255.0,255.0,255.0
65,3.25,-4.6309,7.4454,-0.3531,-0.08094381301215482,-0.03353065904019193,-0.21790283494785043,-0.01977731970967722,-0.009067849149175744,-0.06560002469443726,0,70,255.0,255.0,255.0
66,3.3000000000000003,-4.634972280344293,7.443711860516922,-0.3640769361021914,-0.08195476164053501,-0.03400035467559013,-0.2211704956184137,-0.02066062542553045,-0.009719976266751954,-0.06510640212809275,0,70,255.0,255.0,255.0
67,3.35,-4.6390962122521495,7.441999421093176,-0.3752166382097028,-0.08300987555470786,-0.034502656666867124,-0.2244134751606597,-0.021543931141383667,-0.010372103384328158,-0.06461277956174824,0,70,255.0,255.0,255.0
68,3.4000000000000004,-4.643274003987861,7.44026105141097,-0.3865178722661187,-0.08410915475467338,-0.03503756501402294,-0.22763177357458853,-0.022427236857236892,-0.011024230501904368,-0.06411915699540373,0,70,255.0,255.0,255.0
69,3.45,-4.647507863815712,7.43849512115251,-0.39797940421502304,-0.08525259924043156,-0.035605079717057564,-0.23082539086020007,-0.023310542573090114,-0.011676357619480573,-0.06362553442905923,0,70,255.0,255.0,255.0
70,3.5,-4.6518,7.4367,-0.4096,-0.08644020901198239,-0.036205200775971,-0.23399432701749442,-0.024193848288943554,-0.012328484737056833,-0.0631319118627156,0,70,255.0,255.0,255.0
71,3.5500000000000003,-4.656152523880863,7.434874621878016,-0.4213788596087026,-0.08766616862065763,-0.03680407364865162,-0.23716462469059016,-0.02484453605806574,-0.01162643017016762,-0.06367999506111298,0,70,255.0,255.0,255.0
72,3.6,-4.6605671591018725,7.433020177680608,-0.43331691920505766,-0.08892466261778896,-0.03736784379298777,-0.24036232652360573,-0.02549522382718792,-0.010924375603278412,-0.06422807825951034,0,70,255.0,255.0,255.0
73,3.6500000000000004,-4.66504553238245,7.43113842254419,-0.44541554899706176,-0.09021569100337642,-0.03789651120897946,-0.2435874325165412,-0.026145911596310106,-0.010222321036389198,-0.0647761614579077,0,70,255.0,255.0,255.0
74,3.7,-4.669589270442019,7.429231111605182,-0.4576761191927105,-0.09153925377741999,-0.038390075896626685,-0.2468399426693965,-0.026796599365432286,-0.00952026646949999,-0.06532424465630507,0,70,255.0,255.0,255.0
75,3.75,-4.6742,7.4273,-0.4701,-0.09289535093991964,-0.03884853785592945,-0.25011985698217165,-0.0274472871345538,-0.008818211902610396,-0.06587232785470132,0,70,255.0,255.0,255.0
76,3.8000000000000003,-4.67887842413225,7.425346451971012,-0.482688425462999,-0.09422856387683869,-0.03929535072980918,-0.2534190056192256,-0.025881230342207632,-0.009054303052578717,-0.06609361762745536,0,70,255.0,255.0,255.0
77,3.85,-4.683621551340357,7.423370268184394,-0.49544208497006653,-0.0954834739741404,-0.03975396816118732,-0.25672921874491716,-0.024315173549861478,-0.009290394202547037,-0.0663149074002094,0,70,255.0,255.0,255.0
78,3.9000000000000004,-4.688425466482338,7.42137085841227,-0.5083615317456347,-0.09666008123182485,-0.040224390150063884,-0.2600504963592465,-0.022749116757515307,-0.009526485352515358,-0.06653619717296344,0,70,255.0,255.0,255.0
79,3.95,-4.693286254416213,7.419347632426763,-0.5214473190141352,-0.09775838564989194,-0.04070661669643886,-0.26338283846221355,-0.021183059965169154,-0.009762576502483678,-0.06675748694571748,0,70,255.0,255.0,255.0
80,4.0,-4.6982,7.4173,-0.5347,-0.09877838722834173,-0.04120064780031224,-0.26672624505381826,-0.01961700317282289,-0.009998667652451942,-0.06697877671847063,0,70,255.0,255.0,255.0
81,4.05,-4.703164179590133,7.415227570237933,-0.5481194385393017,-0.09980357587198968,-0.041694523432110664,-0.2700393528325066,-0.021390542573094824,-0.00975635761948519,-0.06554553442906244,0,70,255.0,255.0,255.0
82,4.1000000000000005,-4.708181835536699,7.413130749581816,-0.5617027409146762,-0.10091744148565122,-0.04217628356226077,-0.27328079849672454,-0.023164081973366786,-0.009514047586518434,-0.06411229213965422,0,70,255.0,255.0,255.0
83,4.15,-4.713257401688198,7.411010143806734,-0.5754463240203997,-0.10211998406932636,-0.042645928190762517,-0.27645058204647205,-0.02493762137363872,-0.009271737553551682,-0.06267904985024603,0,70,255.0,255.0,255.0
84,4.2,-4.718395311893132,7.408866358687768,-0.5893466047507487,-0.10341120362301508,-0.04310345731761593,-0.2795487034817491,-0.026711160773910655,-0.00902942752058493,-0.061245807560837834,0,70,255.0,255.0,255.0
85,4.25,-4.7236,7.4067,-0.6034,-0.10479110014671743,-0.043548870942821,-0.28257516280255585,-0.028484700174183142,-0.008787117487618012,-0.0598125652714292,0,70,255.0,255.0,255.0
86,4.3,-4.728874457507217,7.404511267077257,-0.617604220379794,-0.1061731326352078,-0.04400655554174894,-0.2856075830507491,-0.0267965993654322,-0.00952026646949978,-0.061484244656303574,0,70,255.0,255.0,255.0
87,4.3500000000000005,-4.734215906512848,7.40229873348834,-0.6319621513712292,-0.10747076008326066,-0.04450089758977098,-0.2887235872681862,-0.02510849855668123,-0.01025341545138156,-0.06315592404117798,0,70,255.0,255.0,255.0
88,4.4,-4.739620126764869,7.400060566360795,-0.6464779721727669,-0.10868398249087594,-0.0450318970868871,-0.291923175454867,-0.023420397747930286,-0.010986564433263329,-0.06482760342605234,0,70,255.0,255.0,255.0
89,4.45,-4.745082898011261,7.397794932822166,-0.6611558619828699,-0.10981279985805367,-0.04559955403309732,-0.29520634761079145,-0.021732296939179347,-0.011719713415145097,-0.06649928281092672,0,70,255.0,255.0,255.0
90,4.5,-4.7506,7.3955,-0.676,-0.11085721218479387,-0.046203868428401615,-0.29857310373595963,-0.02004419613042796,-0.012452862397027031,-0.06817096219580199,0,70,255.0,255.0,255.0
91,4.55,-4.756168390381001,7.39317456145304,-0.6910132799415218,-0.11188789358718336,-0.04680725440088927,-0.30194631496449753,-0.021183059965151702,-0.011682576502479216,-0.06675748694571437,0,70,255.0,255.0,255.0
92,4.6000000000000005,-4.761789738411914,7.390819916464823,-0.7061934536004082,-0.11297551818130905,-0.04737212607864954,-0.30524885243053107,-0.022321923799875465,-0.010912290607931387,-0.06534401169562674,0,70,255.0,255.0,255.0
93,4.65,-4.767466891252328,7.388437990750087,-0.7215369872885333,-0.11412008596717091,-0.04789848346168241,-0.30848071613406025,-0.02346078763459921,-0.010142004713383574,-0.06393053644553913,0,70,255.0,255.0,255.0
94,4.7,-4.773202696061828,7.386030710023567,-0.7370403473177725,-0.11532159694476897,-0.048386326549987896,-0.311641906075085,-0.024599651469322952,-0.009371718818835759,-0.06251706119545153,0,70,255.0,255.0,255.0
95,4.75,-4.779,7.3836,-0.7527,-0.1165800511141032,-0.04883565534356599,-0.31473242225360537,-0.02573851530404625,-0.008601432924287833,-0.061103585945363026,0,70,255.0,255.0,255.0
96,4.800000000000001,-4.784860780968781,7.381147287110585,-0.7685130598541187,-0.11784329301605269,-0.049276426854688235,-0.31779115709126043,-0.024791160773932362,-0.009029427520601813,-0.06124580756083953,0,70,255.0,255.0,255.0
97,4.8500000000000005,-4.790783539839497,7.378672000652368,-0.7844792342271392,-0.11905916719149645,-0.049738598095626176,-0.3208570030096894,-0.02384380624381849,-0.009457422116915786,-0.06138802917631603,0,70,255.0,255.0,255.0
98,4.9,-4.796765908225822,7.376173070638859,-0.8005988786731003,-0.12022767364043453,-0.05022216906637981,-0.32392996000889207,-0.022896451713704618,-0.009885416713229758,-0.06153025079179253,0,70,255.0,255.0,255.0
99,4.95,-4.802805517741431,7.373649427083566,-0.8168723487460412,-0.1213488123628669,-0.05072713976694914,-0.3270100280888686,-0.021949097183590744,-0.01031341130954373,-0.06167247240726903,0,70,255.0,255.0,255.0
100,5.0,-4.8089,7.3711,-0.8333,-0.1224225833587936,-0.05125351019733418,-0.33009720724961894,-0.021001742653476874,-0.010741405905857704,-0.06181469402274464,0,70,255.0,255.0,255.0
101,5.050000000000001,-4.815047685743876,7.368524290104622,-0.8498824806420048,-0.12349093434861001,-0.051767038180359375,-0.33320905667046075,-0.021732296939179274,-0.009799713415149678,-0.0626592828109252,0,70,255.0,255.0,255.0
102,5.1000000000000005,-4.821249702230099,7.365924080925706,-0.8666216094910365,-0.12459581305271153,-0.05223348153884915,-0.33636313553071145,-0.02246285122488166,-0.008858020924441668,-0.06350387159910574,0,70,255.0,255.0,255.0
103,5.15,-4.827507875844385,7.36330172669448,-0.8835194980190659,-0.12573721947109817,-0.05265284027280353,-0.3395594438303713,-0.023193405510584048,-0.007916328433733659,-0.06434846038728628,0,70,255.0,255.0,255.0
104,5.2,-4.833824032972448,7.360659581642169,-0.9005782576980637,-0.12691515360376993,-0.053025114382222516,-0.3427979815694401,-0.023923959796286434,-0.0069746359430256505,-0.06519304917546682,0,70,255.0,255.0,255.0
105,5.25,-4.8402,7.358,-0.9178,-0.12812961545072682,-0.0533503038671061,-0.34607874874791794,-0.024654514081988488,-0.006032943452317419,-0.06603763796364825,0,70,255.0,255.0,255.0
106,5.300000000000001,-4.846637276055717,7.355324352470926,-0.9351858175778639,-0.12936096958950918,-0.053687420423884184,-0.34934061622689555,-0.024599651469305515,-0.007451718818806017,-0.0644370611954536,0,70,255.0,255.0,255.0
107,5.3500000000000005,-4.853136051240108,7.3526300756448055,-0.9527327278087162,-0.1305895805976574,-0.054095475748986696,-0.3525224548674633,-0.024544788856622545,-0.00887049418529459,-0.06283648442725898,0,70,255.0,255.0,255.0
108,5.4,-4.859696188396639,7.349913622583222,-0.9704367292506366,-0.13181544847517143,-0.054574469842413646,-0.35562426466962144,-0.024489926243939576,-0.010289269551783164,-0.06123590765906436,0,70,255.0,255.0,255.0
109,5.45,-4.86631755036878,7.347171446347759,-0.9882938204617048,-0.13303857322205134,-0.055124402704165014,-0.3586460456333697,-0.024435063631256602,-0.011708044918271737,-0.05963533089086974,0,70,255.0,255.0,255.0
110,5.5,-4.873,7.3444,-1.0063,-0.13425895483829708,-0.05574527433424081,-0.3615877977587084,-0.02438020101857319,-0.013126820284760088,-0.05803475412267556,0,70,255.0,255.0,255.0
111,5.550000000000001,-4.879743210033257,7.341596700011672,-1.0244526490465409,-0.1354651872933515,-0.05637928012409873,-0.36453247842195713,-0.023869097183603208,-0.012233411309556252,-0.059752472407270774,0,70,255.0,255.0,255.0
112,5.6000000000000005,-4.886546092809473,7.33876281649507,-1.0427546792740998,-0.13664586455665742,-0.056968615465196444,-0.36756304499943554,-0.023357993348633237,-0.01134000233435243,-0.06147019069186596,0,70,255.0,255.0,255.0
113,5.65,-4.893407370569061,7.335900582972632,-1.061210384978388,-0.13780098662821483,-0.057513280357533975,-0.37067949749114365,-0.022846889513663267,-0.010446593359148609,-0.06318790897646115,0,70,255.0,255.0,255.0
114,5.7,-4.900325765552432,7.333012232966795,-1.0798240604551177,-0.13893055350802375,-0.0580132748011113,-0.3738818358970816,-0.022335785678693296,-0.009553184383944787,-0.06490562726105634,0,70,255.0,255.0,255.0
115,5.75,-4.9073,7.3301,-1.0986,-0.14003456519608415,-0.05846859879592844,-0.3771700602172493,-0.021824681843722438,-0.008659775408740578,-0.06662334554564975,0,70,255.0,255.0,255.0
116,5.800000000000001,-4.914329083811256,7.327165647482387,-1.1175411862359739,-0.14113028123708407,-0.05890745907972291,-0.3804654700852772,-0.022003959796273523,-0.00889463594303807,-0.06519304917546423,0,70,255.0,255.0,255.0
117,5.8500000000000005,-4.921413177522003,7.324209058374916,-1.136645355094886,-0.14223496117571152,-0.05935806239023225,-0.38368936513479573,-0.022183237748824605,-0.009129496477335556,-0.06376275280527872,0,70,255.0,255.0,255.0
118,5.9,-4.928552729327121,7.321229645526252,-1.1559089308358115,-0.14334860501196653,-0.05982040872745646,-0.38684174536580507,-0.022362515701375686,-0.009364357011633042,-0.062332456435093234,0,70,255.0,255.0,255.0
119,5.95,-4.935748187421493,7.318226821785058,-1.1753283377178247,-0.14447121274584906,-0.060294498091395546,-0.38992261077830503,-0.022541793653926768,-0.009599217545930528,-0.060902160064907736,0,70,255.0,255.0,255.0
120,6.0,-4.943,7.3152,-1.1949,-0.14560278437735918,-0.06078033048204951,-0.39293196137229575,-0.022721071606477405,-0.009834078080228126,-0.059471863694720906,0,70,255.0,255.0,255.0
121,6.050000000000001,-4.9503084547217195,7.312148710058781,-1.2146210060095652,-0.1467336877583031,-0.0612708835570117,-0.3959096412369355,-0.022515063631277952,-0.009788044918259187,-0.05963533089086601,0,70,255.0,255.0,255.0
122,6.1000000000000005,-4.957673197102517,7.309072950005268,-1.2344911003463572,-0.14785429074048698,-0.06175913497387544,-0.3988954944613824,-0.022309055656078502,-0.009742011756290248,-0.05979879808701112,0,70,255.0,255.0,255.0
123,6.15,-4.965093712122455,7.305972834922362,-1.2545106916783668,-0.14896459332391093,-0.062245084732640725,-0.4018895210456366,-0.022103047680879048,-0.009695978594321308,-0.05996226528315623,0,70,255.0,255.0,255.0
124,6.2,-4.972569484761595,7.302848479892972,-1.2746801886735841,-0.15006459550857487,-0.06272873283330756,-0.40489172098969795,-0.021897039705679598,-0.00964994543235237,-0.06012573247930133,0,70,255.0,255.0,255.0
125,6.25,-4.9801,7.2997,-1.295,-0.15115429729447888,-0.06321007927587595,-0.40790209429356666,-0.02169103173047926,-0.009603912270383153,-0.060289199675447325,0,70,255.0,255.0,255.0
126,6.300000000000001,-4.987685097301866,7.296527512282488,-1.315470789725767,-0.1522549677297082,-0.06368900669223415,-0.41093596496697943,-0.022335785678692686,-0.0095531843839445,-0.06106562726106094,0,70,255.0,255.0,255.0
127,6.3500000000000005,-4.9953260340679275,7.293331141604015,-1.336094243519686,-0.15338787586234817,-0.0641653977142704,-0.4140086570196728,-0.0229805396269061,-0.00950245649750585,-0.06184205484667454,0,70,255.0,255.0,255.0
128,6.4,-5.003024422183057,7.290111014784298,-1.3568723024507219,-0.1545530216923988,-0.06463925234198473,-0.41712017045164684,-0.023625293575119513,-0.0094517286110672,-0.06261848243228814,0,70,255.0,255.0,255.0
129,6.45,-5.010781873532124,7.2868672586430545,-1.3778069075878387,-0.1557504052198601,-0.06511057057537713,-0.42027050526290155,-0.02427004752333293,-0.00940100072462855,-0.06339491001790175,0,70,255.0,255.0,255.0
130,6.5,-5.0186,7.2836,-1.3989,-0.15698002644473208,-0.0655793524144476,-0.42345966145343694,-0.0249148014715459,-0.00935027283819001,-0.0641713376035149,0,70,255.0,255.0,255.0
131,6.550000000000001,-5.026479956070819,7.280309240811269,-1.4201526350873688,-0.15821444132286835,-0.06605308967405062,-0.42663449889514754,-0.024461793653905054,-0.009599217545930608,-0.06282216006490662,0,70,255.0,255.0,255.0
132,6.6000000000000005,-5.0344210666257725,7.2769944835786715,-1.4415623255748995,-0.1594262058101226,-0.06653927416904065,-0.42974187745992765,-0.02400878583626422,-0.009848162253671203,-0.06147298252629837,0,70,255.0,255.0,255.0
133,6.65,-5.042422199145317,7.27365510594044,-1.463125698518746,-0.16061531990649477,-0.06703790589941773,-0.4327817971477773,-0.023555778018623384,-0.010097106961411797,-0.06012380498769011,0,70,255.0,255.0,255.0
134,6.7,-5.050482221109907,7.270290485534807,-1.4848393809750615,-0.16178178361198495,-0.06754898486518184,-0.43575425795869666,-0.023102770200982545,-0.01034605166915239,-0.05877462744908186,0,70,255.0,255.0,255.0
135,6.75,-5.0586,7.2669,-1.5067,-0.162925596926593,-0.06807251106633298,-0.4386592598926855,-0.022649762383340155,-0.010594996376893318,-0.0574254499104736,0,70,255.0,255.0,255.0
136,6.800000000000001,-5.066774278414861,7.26348352447244,-1.5287050699247595,-0.1640392669788185,-0.06857863461156412,-0.44155003945242993,-0.021897039705678835,-0.009649945432352256,-0.058205732479302,0,70,255.0,255.0,255.0
137,6.8500000000000005,-5.0750032994289835,7.260042924081296,-1.5508556541807172,-0.1651153008971609,-0.06903750560956821,-0.44447983314061573,-0.021144317028017525,-0.008704894487811211,-0.05898601504813038,0,70,255.0,255.0,255.0
138,6.9,-5.083285181235679,7.256580561453935,-1.573153703474295,-0.16615369868162022,-0.06944912406034526,-0.44744864095724296,-0.02039159435035622,-0.007759843543270166,-0.05976629761695876,0,70,255.0,255.0,255.0
139,6.95,-5.091618042028248,7.253098799217716,-1.5956011685119156,-0.16715446033219652,-0.06981348996389522,-0.4504564629023116,-0.01963887167269491,-0.006814792598729122,-0.06054658018578714,0,70,255.0,255.0,255.0
140,7.0,-5.1,7.2496,-1.6182,-0.16811758584888972,-0.07013060332021817,-0.4535032989758217,-0.01888614899503316,-0.0058697416541881875,-0.06132686275461685,0,70,255.0,255.0,255.0
141,7.050000000000001,-5.108430130269742,7.246085461298975,-1.6409518852135947,-0.1691004907618491,-0.07046437187968871,-0.4565733432951347,-0.020430047523341856,-0.0074810007246330695,-0.06147491001790178,0,70,255.0,255.0,255.0
142,7.1000000000000005,-5.116911335658291,7.242552220096139,-1.6638574577022331,-0.1701605906012239,-0.07087870339268149,-0.4596507899776119,-0.021973946051650522,-0.009092259795077924,-0.0616229572811867,0,70,255.0,255.0,255.0
143,7.15,-5.125447475911971,7.238996248243815,-1.6869170875840749,-0.17129788536701415,-0.07137359785919649,-0.4627356390232534,-0.02351784457995919,-0.010703518865522777,-0.06177100454447162,0,70,255.0,255.0,255.0
144,7.2,-5.134042410777099,7.235413517594328,-1.7101311449772778,-0.17251237505921982,-0.07194905527923376,-0.465827890432059,-0.025061743108267857,-0.01231477793596763,-0.061919051807756545,0,70,255.0,255.0,255.0
145,7.25,-5.1427,7.2318,-1.7335,-0.1738040596778409,-0.07260507565279324,-0.46892754420402905,-0.026605641636575417,-0.01392603700641215,-0.062067099071043685,0,70,255.0,255.0,255.0
146,7.300000000000001,-5.151422800506173,7.22815303033166,-1.7570233892208647,-0.17509476997378015,-0.07325987786968226,-0.47199658736703215,-0.025022770200994127,-0.012266051669148003,-0.06069462744907772,0,70,255.0,255.0,255.0
147,7.3500000000000005,-5.1602081579378485,7.224475395534146,-1.780698515010352,-0.17630633669794035,-0.07383168081970805,-0.4749970069489369,-0.023439898765412866,-0.010606066331883882,-0.05932215582711178,0,70,255.0,255.0,255.0
148,7.4,-5.169052115116437,7.220771245570804,-1.8045219461894069,-0.17743875985032143,-0.07432048450287064,-0.47792880294974327,-0.0218570273298316,-0.008946080994619764,-0.057949684205145846,0,70,255.0,255.0,255.0
149,7.45,-5.17795071486335,7.217044730404973,-1.8284902515789743,-0.1784920394309235,-0.07472628891917002,-0.4807919753694514,-0.02027415589425034,-0.007286095657355645,-0.05657721258317991,0,70,255.0,255.0,255.0
150,7.5,-5.1869,7.2133,-1.8526,-0.17946617543974644,-0.0750490940686062,-0.4835865242080613,-0.01869128445866841,-0.005626110320091526,-0.055204740961214416,0,70,255.0,255.0,255.0
151,7.550000000000001,-5.195897067705566,7.209540017374387,-1.8768489579029486,-0.18042442934303052,-0.07536011664157673,-0.48638430723673653,-0.019638871672694836,-0.00681479259872932,-0.05670658018579211,0,70,255.0,255.0,255.0
152,7.6000000000000005,-5.204943232590314,7.205762997767277,-1.901239682256361,-0.1814300626070159,-0.07573057332847913,-0.48925718222664055,-0.020586458886721247,-0.00800347487736709,-0.05820841941036978,0,70,255.0,255.0,255.0
153,7.65,-5.214040863622279,7.201965969472974,-1.9257759276582995,-0.18248307523170265,-0.07616046412931343,-0.49220514917777347,-0.021534046100747658,-0.009192157156004863,-0.059710258634947444,0,70,255.0,255.0,255.0
154,7.7,-5.223192329769497,7.19814596078578,-1.9504614487068253,-0.18358346721709068,-0.07664978904407961,-0.49522820809013524,-0.022481633314774065,-0.010380839434642634,-0.06121209785952511,0,70,255.0,255.0,255.0
155,7.75,-5.2324,7.1943,-1.9753,-0.18473123856318008,-0.07719854807277769,-0.49832635896372596,-0.023429220528800254,-0.011569521713280628,-0.062713937084101,0,70,255.0,255.0,255.0
156,7.800000000000001,-5.241665728671561,7.190426100170794,-2.0002943791673435,-0.18589551265410648,-0.07774765556400944,-0.5014421836860223,-0.023141743108254606,-0.010394777935989025,-0.061919051807752624,0,70,255.0,255.0,255.0
157,7.8500000000000005,-5.250989311700894,7.186526213396746,-2.0254435559642054,-0.18704541287400556,-0.0782380258663766,-0.5045182641445013,-0.02285426568770896,-0.009220034158697443,-0.06112416653140426,0,70,255.0,255.0,255.0
158,7.9,-5.260370030394445,7.182603276537304,-2.0507455431773964,-0.18818093922287737,-0.07866965897987918,-0.5075546003391628,-0.022566788267163317,-0.008045290381405858,-0.06032928125505589,0,70,255.0,255.0,255.0
159,7.95,-5.269807166058664,7.178660226451907,-2.0761983535937247,-0.18930209170072188,-0.07904255490451718,-0.5105511922700068,-0.022279310846617672,-0.006870546604114276,-0.05953439597870753,0,70,255.0,255.0,255.0
160,8.0,-5.2793,7.1747,-2.1018,-0.1904088703075391,-0.07935671364029061,-0.5135080399370334,-0.021991833426071583,-0.0056958028268226935,-0.058739510702356945,0,70,255.0,255.0,255.0
161,8.05,-5.2888480176081885,7.170724381942439,-2.1275487254276797,-0.19151352004054706,-0.07968126110239422,-0.5164389580191721,-0.02219415589424534,-0.007286095657321523,-0.05849721258318841,0,70,255.0,255.0,255.0
162,8.1,-5.298451520606112,7.1667305486457344,-2.1534436938868176,-0.19262828589696365,-0.08008532320602275,-0.5193577611953523,-0.022396478362419092,-0.008876388487820297,-0.05825491446401987,0,70,255.0,255.0,255.0
163,8.15,-5.308111014799941,7.162714524377812,-2.179484299632116,-0.19375316787678895,-0.08056889995117625,-0.522264449465574,-0.022598800830592847,-0.010466681318319127,-0.05801261634485133,0,70,255.0,255.0,255.0
164,8.200000000000001,-5.317827005995848,7.158672333406592,-2.2056699369182766,-0.19488816598002295,-0.08113199133785469,-0.5251590228298375,-0.022801123298766605,-0.012056974148817956,-0.057770318225682786,0,70,255.0,255.0,255.0
165,8.25,-5.3276,7.1546,-2.232,-0.1960332802066656,-0.08177459736605804,-0.5280414812881422,-0.023003445766939468,-0.013647266979316508,-0.05752802010651514,0,70,255.0,255.0,255.0
166,8.3,-5.337430200895688,7.15049477205945,-2.258473919121938,-0.19717040718370846,-0.08242330002640734,-0.5309139842372932,-0.022481633314773833,-0.01230083943465519,-0.05737209785952188,0,70,255.0,255.0,255.0
167,8.35,-5.347316605874661,7.1463587920203135,-2.285091268488524,-0.19828144353814298,-0.08300468130952354,-0.5337786910740944,-0.02195982086260822,-0.01095441188999392,-0.05721617561252863,0,70,255.0,255.0,255.0
168,8.4,-5.357257910405791,7.142195425951451,-2.3118516582941413,-0.19936638926996927,-0.08351874121540673,-0.536635601798546,-0.021438008410442584,-0.0096079843453326,-0.05706025336553537,0,70,255.0,255.0,255.0
169,8.450000000000001,-5.3672528099579475,7.1380080399217265,-2.338754698733173,-0.20042524437918727,-0.08396547974405683,-0.539484716410648,-0.02091619595827695,-0.008261556800671283,-0.056904331118542116,0,70,255.0,255.0,255.0
170,8.5,-5.3773,7.1338,-2.3658,-0.20145800886579693,-0.08434489689547384,-0.5423260349104002,-0.020394383506110225,-0.0069151292560099,-0.05674840887154886,0,70,255.0,255.0,255.0
171,8.55,-5.387398378809064,7.129574129819762,-2.3929875980845714,-0.20247685122461523,-0.08468953879197737,-0.5451851050316564,-0.020359310846621837,-0.006870546604131399,-0.0576143959786979,0,70,255.0,255.0,255.0
172,8.6,-5.397547655895245,7.125331083273013,-2.4203192321590876,-0.2034939399504591,-0.08503195155588697,-0.54808747450827,-0.02032423818713345,-0.006825963952252901,-0.0584803830858469,0,70,255.0,255.0,255.0
173,8.65,-5.407747743576893,7.121070971816382,-2.4477970671913205,-0.20450927504332858,-0.08537213518720266,-0.5510331433402411,-0.020289165527645057,-0.0067813813003744,-0.05934637019299594,0,70,255.0,255.0,255.0
174,8.700000000000001,-5.417998554172362,7.116793906906501,-2.475423268149036,-0.20552285650322363,-0.08571008968592443,-0.5540221115275696,-0.02025409286815667,-0.0067367986484959,-0.06021235730014498,0,70,255.0,255.0,255.0
175,8.75,-5.4283,7.1125,-2.5032,-0.20653468433014424,-0.08604581505205225,-0.5570543790702556,-0.02021902020866828,-0.006692215996617401,-0.06107834440729043,0,70,255.0,255.0,255.0
176,8.8,-5.4386522838680555,7.108188708661505,-2.5311284885397805,-0.20756218791783024,-0.08641854480568752,-0.56007359563608,-0.020881123298770954,-0.008216974148792721,-0.05969031822568523,0,70,255.0,255.0,255.0
177,8.85,-5.449056770544359,7.103856874887637,-2.5592062028751235,-0.20862279666002134,-0.08686751246693152,-0.563023410892824,-0.0215432263888736,-0.009741732300967986,-0.05830229204408007,0,70,255.0,255.0,255.0
178,8.9,-5.459515115286633,7.099500686783017,-2.5874296729405772,-0.20971651055671758,-0.08739271803578431,-0.565903824840488,-0.02220532947897627,-0.011266490453143308,-0.05691426586247487,0,70,255.0,255.0,255.0
179,8.950000000000001,-5.470028973352605,7.095116332452266,-2.615795428670688,-0.210843329607919,-0.08799416151224586,-0.5687148374790717,-0.02286743256907894,-0.012791248605318627,-0.055526239680869664,0,70,255.0,255.0,255.0
180,9.0,-5.4806,7.0907,-2.6443,-0.2120032538136255,-0.08867184289631615,-0.5714564488085749,-0.02352953565918181,-0.014316006757493116,-0.054138213499260956,0,70,255.0,255.0,255.0
181,9.05,-5.491229285718713,7.08624943553422,-2.6729408477563115,-0.21316239710406185,-0.08933228198527046,-0.5741845124240201,-0.022836195958271854,-0.012101556800679028,-0.05498433111854589,0,70,255.0,255.0,255.0
182,9.1,-5.501915661927322,7.0817686171764365,-2.7017191563404177,-0.21428687340945268,-0.08988199857638406,-0.5769548819204295,-0.022142856257361926,-0.009887106843865016,-0.0558304487378308,0,70,255.0,255.0,255.0
183,9.15,-5.512657395276575,7.077263081051545,-2.7306370410463696,-0.21537668272979804,-0.09032099266965696,-0.5797675572978032,-0.02144951655645197,-0.007672656887050928,-0.05667656635711574,0,70,255.0,255.0,255.0
184,9.200000000000001,-5.523452752417217,7.072738363284436,-2.759696617168215,-0.2164318250650979,-0.09064926426508915,-0.5826225385561412,-0.020756176855542013,-0.005458206930236839,-0.057522683976400674,0,70,255.0,255.0,255.0
185,9.25,-5.5343,7.0682,-2.7889,-0.2174523004153522,-0.09086681336268063,-0.5855198256954433,-0.02006283715463142,-0.0032437569734222738,-0.05836880159568736,0,70,255.0,255.0,255.0
186,9.3,-5.545197773257091,7.063651949201618,-2.8182489204349777,-0.21846022366592194,-0.09106832725322869,-0.5884363546678392,-0.020254092868156496,-0.004816798648500398,-0.05829235730014943,0,70,255.0,255.0,255.0
187,9.35,-5.556146181746353,7.0590918564066145,-2.847743571763204,-0.21947770970216784,-0.09134849322753066,-0.5913490614254582,-0.020445348581681566,-0.006389840323578466,-0.05821591300461151,0,70,255.0,255.0,255.0
188,9.4,-5.5671457036070695,7.054515789010802,-2.877383762873943,-0.22050475852409007,-0.09170731128558654,-0.5942579459683003,-0.02063660429520664,-0.00796288199865659,-0.058139468709073584,0,70,255.0,255.0,255.0
189,9.450000000000001,-5.578196816978524,7.049919814409993,-2.907169302656455,-0.22154137013168856,-0.09214478142739632,-0.5971630082963657,-0.020827860008731717,-0.009535923673734716,-0.058063024413535655,0,70,255.0,255.0,255.0
190,9.5,-5.5893,7.0453,-2.9371,-0.22258754452496324,-0.09266090365296001,-0.6000642484096538,-0.021019115722256343,-0.011108965348812783,-0.057986580117996844,0,70,255.0,255.0,255.0
191,9.55,-5.60045562125292,7.040653167659309,-2.967175470503782,-0.22363670823224674,-0.09321040900181342,-0.6029500689046253,-0.020947432569083577,-0.010871248605322799,-0.05744623968086361,0,70,255.0,255.0,255.0
192,9.600000000000001,-5.6116636110872635,7.035979157197105,-2.997394556606766,-0.22468228778187163,-0.0937480285134923,-0.6058088723777403,-0.020875749415910815,-0.010633531861832817,-0.05690589924373038,0,70,255.0,255.0,255.0
193,9.65,-5.622923790295147,7.031278562905246,-3.027755907457858,-0.2257242831738378,-0.09427376218799668,-0.6086406588289983,-0.020804066262738053,-0.010395815118342842,-0.05636555880659717,0,70,255.0,255.0,255.0
194,9.700000000000001,-5.634235979668686,7.026551979075592,-3.058258172205968,-0.22676269440814542,-0.09478761002532658,-0.6114454282584,-0.020732383109565287,-0.01015809837485286,-0.055825218369463935,0,70,255.0,255.0,255.0
195,9.75,-5.6456,7.0218,-3.0889,-0.22779752148479437,-0.09528957202548198,-0.6142231806659447,-0.020660699956392747,-0.009920381631363218,-0.05528487793233072,0,70,255.0,255.0,255.0
196,9.8,-5.657015741731227,7.017023380161146,-3.1196803975498986,-0.22883294340509275,-0.09577003673952177,-0.616995369713663,-0.020756176855541677,-0.009298206930227705,-0.0556026839763975,0,70,255.0,255.0,255.0
197,9.850000000000001,-5.668483373904592,7.0122235148049645,-3.150599801809737,-0.22987313917034857,-0.09621939271850477,-0.6197834490635845,-0.020851653754690606,-0.008676032229092195,-0.05592049002046427,0,70,255.0,255.0,255.0
198,9.9,-5.680003135212344,7.007401959368212,-3.181659007294627,-0.2309181087805618,-0.09663763996243097,-0.6225874187157094,-0.02094713065383953,-0.008053857527956705,-0.05623829606453104,0,70,255.0,255.0,255.0
199,9.950000000000001,-5.691575264346731,7.002560269287639,-3.212858808519678,-0.23196785223573252,-0.09702477847130042,-0.6254072786700376,-0.02104260755298846,-0.007431682826821193,-0.056556102108597815,0,70,255.0,255.0,255.0
200,10.0,-5.7032,6.9977,-3.2442,-0.2330223695358606,-0.09738080824511308,-0.628243028926569,-0.021138084452137607,-0.006809508125685593,-0.05687390815266369,0,70,255.0,255.0,255.0
201,10.05,-5.714877411822173,6.992822111696109,-3.2756829392966282,-0.23407151814738236,-0.09774144404009871,-0.6310684522407239,-0.02082786000873171,-0.007615923673739123,-0.05614302441353088,0,70,255.0,255.0,255.0
202,10.100000000000001,-5.726606893294369,6.987925183583034,-3.307306236154291,-0.2351051555367338,-0.09814240061248701,-0.6338573313679222,-0.02051763556532581,-0.008422339221792653,-0.055412140674398085,0,70,255.0,255.0,255.0
203,10.15,-5.738387668855477,6.983007199621904,-3.3390680633636376,-0.23612328170391494,-0.09858367796227797,-0.6366096663081637,-0.020207411121919924,-0.009228754769846154,-0.05468125693526531,0,70,255.0,255.0,255.0
204,10.200000000000001,-5.750218962944391,6.978066143773849,-3.370966593715324,-0.2371258966489258,-0.09906527608947162,-0.6393254570614487,-0.019897186678514027,-0.010035170317899684,-0.0539503731961325,0,70,255.0,255.0,255.0
205,10.25,-5.7621,6.9731,-3.403,-0.2381130003717663,-0.09958719499406793,-0.6420047036277768,-0.01958696223510792,-0.010841585865953185,-0.053219489456998836,0,70,255.0,255.0,255.0
206,10.3,-5.7740306109800805,6.968107373054418,-3.435167045263591,-0.23912098400538315,-0.1001121871000881,-0.6446828213234386,-0.020732383109565527,-0.010158098374853076,-0.05390521836946879,0,70,255.0,255.0,255.0
207,10.350000000000001,-5.786013052917934,6.9630893508629,-3.467468853573105,-0.2401862386827229,-0.10060300483155325,-0.6473952254647237,-0.021877803984023135,-0.009474610883752968,-0.05459094728193874,0,70,255.0,255.0,255.0
208,10.4,-5.798050189365747,6.958047642144172,-3.4999071392508236,-0.24130876440378546,-0.10105964818846339,-0.6501419160516325,-0.023023224858480705,-0.008791123392652884,-0.05527667619440867,0,70,255.0,255.0,255.0
209,10.450000000000001,-5.810144883875708,6.952983955616963,-3.5324836166190288,-0.24248856116857095,-0.10148211717081854,-0.6529228930841646,-0.024168645732938313,-0.008107635901552775,-0.05596240510687861,0,70,255.0,255.0,255.0
210,10.5,-5.8223,6.9479,-3.5652,-0.24372562897707928,-0.10187041177861865,-0.6557381565623203,-0.025314066607396768,-0.007424148410452802,-0.05664813401934854,0,70,255.0,255.0,255.0
211,10.55,-5.8345169442575076,6.942797196086215,-3.598057679649011,-0.2449325458310884,-0.10224180755955008,-0.6585682624655192,-0.02296260755296725,-0.007431682826804154,-0.05655610210860562,0,70,255.0,255.0,255.0
212,10.600000000000001,-5.846791295033897,6.937675812965364,-3.6310567495532937,-0.24602188973237601,-0.10261358006129907,-0.6613937667731808,-0.020611148498537735,-0.007439217243155505,-0.056464070197862704,0,70,255.0,255.0,255.0
213,10.65,-5.8591171736815335,6.932535831801405,-3.6641969796330702,-0.24699366068094217,-0.10298572928386564,-0.6642146694853054,-0.0182596894441083,-0.007446751659506856,-0.056372038287119786,0,70,255.0,255.0,255.0
214,10.700000000000001,-5.87148870155278,6.927377233758298,-3.6974781398085654,-0.24784785867678685,-0.10335825522724976,-0.6670309706018929,-0.015908230389678785,-0.007454286075858208,-0.05628000637637687,0,70,255.0,255.0,255.0
215,10.75,-5.8839,6.9222,-3.7309,-0.24858448371991002,-0.10373115789145146,-0.6698426701229431,-0.013556771335247797,-0.00746182049220967,-0.05618797446563217,0,70,255.0,255.0,255.0
216,10.8,-5.896347211989891,6.917003842600718,-3.7644622361403677,-0.2493248326702547,-0.10412058266170474,-0.6726441288144871,-0.016057186678539184,-0.00811517031792116,-0.05587037319612644,0,70,255.0,255.0,255.0
217,10.850000000000001,-5.908834566946478,6.911787397275642,-3.7981641482137247,-0.25019020238776396,-0.10454267492324358,-0.6754297074425558,-0.01855760202183057,-0.00876852014363265,-0.055552771926620705,0,70,255.0,255.0,255.0
218,10.9,-5.921368315908119,6.906549030650206,-3.8320049422168982,-0.25118059287243777,-0.10499743467606801,-0.6781994060071491,-0.02105801736512187,-0.009421869969344115,-0.05523517065711498,0,70,255.0,255.0,255.0
219,10.950000000000001,-5.933954709913174,6.9012871093498465,-3.8659838241467153,-0.25229600412427616,-0.105484861920178,-0.6809532245082672,-0.023558432708413256,-0.010075219795055605,-0.05491756938760925,0,70,255.0,255.0,255.0
220,11.0,-5.9466,6.896,-3.9001,-0.25353643614327903,-0.10600495665557354,-0.6836911629459101,-0.02605884805170522,-0.010728569620766515,-0.054599968118104414,0,70,255.0,255.0,255.0
221,11.05,-5.95930860778293,6.890686633510912,-3.9343525757895224,-0.25479212348789515,-0.10652386179363142,-0.6864072222765347,-0.024168645732939326,-0.010027635901548105,-0.05404240510687472,0,70,255.0,255.0,255.0
222,11.100000000000001,-5.972077637180191,6.885348197932069,-3.968740257591812,-0.25595330071657296,-0.10700772024572835,-0.6890954034565977,-0.022278443414173434,-0.009326702182329696,-0.05348484209564502,0,70,255.0,255.0,255.0
223,11.15,-5.984902362685988,6.879986445597772,-4.003261651499339,-0.2570199678293125,-0.10745653201186438,-0.6917557064860992,-0.020388241095407607,-0.008625768463111312,-0.05292727908441534,0,70,255.0,255.0,255.0
224,11.200000000000001,-5.997778058794523,6.874603128842316,-4.037915363604579,-0.2579921248261138,-0.10787029709203949,-0.6943881313650392,-0.018498038776641718,-0.0079248347438929,-0.05236971607318565,0,70,255.0,255.0,255.0
225,11.25,-6.0107,6.8692,-4.0727,-0.25886977170697667,-0.10824901548625367,-0.6969926780934176,-0.01660783645787589,-0.007223901024674073,-0.05181215306195508,0,70,255.0,255.0,255.0
226,11.3,-6.023664756878393,6.863778423355636,-4.107614660701547,-0.25973067337816497,-0.10861597016376698,-0.6995989820793758,-0.017828230389656436,-0.0074542860758582555,-0.05244000637636806,0,70,255.0,255.0,255.0
227,11.350000000000001,-6.03667408433276,6.85833821099608,-4.142660421419034,-0.2606525947459423,-0.1089944440938395,-0.7022366787310544,-0.01904862432143698,-0.007684671127042437,-0.053067859690781045,0,70,255.0,255.0,255.0
228,11.4,-6.049731033347931,6.8528787869587084,-4.177838851785747,-0.2616355358103087,-0.10938443727647122,-0.7049057680484537,-0.02026901825321748,-0.00791505617822661,-0.053695713005194004,0,70,255.0,255.0,255.0
229,11.450000000000001,-6.0628386549087345,6.847399575280892,-4.213151521434974,-0.26267949657126405,-0.10978594971166217,-0.7076062500315738,-0.02148941218499803,-0.008145441229410792,-0.05432356631960699,0,70,255.0,255.0,255.0
230,11.5,-6.076,6.8419,-4.2486,-0.2637844770288085,-0.1101989813994123,-0.7103381246804145,-0.02270980611677942,-0.008375826280594967,-0.05495141963401995,0,70,255.0,255.0,255.0
231,11.55,-6.0892171647034985,6.836379673066547,-4.284185581404294,-0.26489318299943887,-0.11061225755130366,-0.7130848494059557,-0.021638432708435202,-0.008155219795059862,-0.054917569387627374,0,70,255.0,255.0,255.0
232,11.600000000000001,-6.10248842548877,6.830838958083608,-4.319908456732057,-0.26594832029965204,-0.1110145033789183,-0.7158298816191773,-0.020567059300090985,-0.007934613309524757,-0.0548837191412348,0,70,255.0,255.0,255.0
233,11.65,-6.115811103922291,6.825278406567393,-4.355768541357674,-0.266949888929448,-0.11140571888225614,-0.7185732213200792,-0.01949568589174681,-0.007714006823989659,-0.054849868894842224,0,70,255.0,255.0,255.0
234,11.700000000000001,-6.129182521570541,6.81969857003412,-4.391765750655526,-0.2678978888888267,-0.11178590406131726,-0.7213148685086614,-0.018424312483402594,-0.007493400338454554,-0.05481601864844965,0,70,255.0,255.0,255.0
235,11.75,-6.1426,6.8141,-4.4279,-0.2687923201777882,-0.1121550589161016,-0.7240548231849242,-0.017352939075059304,-0.007272793852919235,-0.05478216840205796,0,70,255.0,255.0,255.0
236,11.8,-6.156061784307608,6.808482884378174,-4.4641710136812796,-0.26968859462408074,-0.11253499963102148,-0.7267816202968052,-0.01849803877664195,-0.007924834743875607,-0.05428971607318011,0,70,255.0,255.0,255.0
237,11.850000000000001,-6.169569813712159,6.802845956669489,-4.500577751652742,-0.2706421240554524,-0.11294754239048917,-0.7294837947922423,-0.019643138478224596,-0.008576875634831978,-0.05379726374430226,0,70,255.0,255.0,255.0
238,11.9,-6.183126950962906,6.797187586771716,-4.5371189827835625,-0.2716529084719032,-0.11339268719450467,-0.7321613466712354,-0.020788238179807204,-0.009228916525788326,-0.053304811415424425,0,70,255.0,255.0,255.0
239,11.950000000000001,-6.196736058809101,6.791506144582629,-4.5737934759429235,-0.2727209478734331,-0.113870434043068,-0.7348142759337847,-0.02193333788138985,-0.009880957416744699,-0.052812359086546565,0,70,255.0,255.0,255.0
240,12.0,-6.2104,6.7858,-4.6106,-0.27384624226004217,-0.11438078293617913,-0.7374425825798899,-0.023078437582973343,-0.010532998307700603,-0.05231990675766429,0,70,255.0,255.0,255.0
241,12.05,-6.224120498066065,6.780067989420755,-4.647537563870594,-0.27496043850424107,-0.11489574392460723,-0.7400606694068214,-0.02148941218498146,-0.010065441229423227,-0.052403566319592976,0,70,255.0,255.0,255.0
242,12.100000000000001,-6.237894719662593,6.774310815238438,-4.684606136656984,-0.27599518347854035,-0.11538732705912147,-0.7426829392118494,-0.019900386786989577,-0.00959788415114585,-0.05248722588152166,0,70,255.0,255.0,255.0
243,12.15,-6.2517186922260874,6.768529646345741,-4.721805927508079,-0.27695047718293997,-0.11585553233972182,-0.7453093919949736,-0.01831136138899775,-0.00913032707286849,-0.052570885443450344,0,70,255.0,255.0,255.0
244,12.200000000000001,-6.265588443193055,6.762725651635365,-4.759137145572783,-0.2778263196174401,-0.11630035976640832,-0.7479400277561943,-0.016722335991005866,-0.008662769994591115,-0.05265454500537903,0,70,255.0,255.0,255.0
245,12.25,-6.2795,6.7569,-4.7966,-0.27862271078204065,-0.11672180933918092,-0.7505748464955114,-0.01513331059301537,-0.008195212916313421,-0.05273820456730771,0,70,255.0,255.0,255.0
246,12.3,-6.293450623428131,6.751053957938803,-4.834194730836352,-0.27941365135895163,-0.11711402467055011,-0.7532157020759059,-0.016504312483424606,-0.007493400338454482,-0.05289601864847296,0,70,255.0,255.0,255.0
247,12.350000000000001,-6.30744250763747,6.74518918237676,-4.871921701719327,-0.28027314203038317,-0.11747114937302637,-0.7558644483603588,-0.017875314373833846,-0.006791587760595543,-0.0530538327296382,0,70,255.0,255.0,255.0
248,12.4,-6.321479080132745,6.739307427845315,-4.909781307184122,-0.28120118279633505,-0.11779318344660968,-0.7585210853488698,-0.019246316264243033,-0.006089775182736629,-0.05321164681080344,0,70,255.0,255.0,255.0
249,12.450000000000001,-6.335563768418679,6.7334104488759134,-4.947773941765948,-0.2821977736568074,-0.11808012689130004,-0.7611856130414392,-0.020617318154652273,-0.00538796260487769,-0.05336946089196868,0,70,255.0,255.0,255.0
250,12.5,-6.3497,6.7275,-4.9859,-0.28326291461180025,-0.11833197970709744,-0.7638580314380665,-0.021988320045059684,-0.00468615002701811,-0.05352727497313303,0,70,255.0,255.0,255.0
251,12.55,-6.363890608221412,6.721576978824032,-5.024159512784,-0.28436095605996103,-0.1186001573931913,-0.766516522289558,-0.02193333788137215,-0.006040957416736223,-0.052812359086527386,0,70,255.0,255.0,255.0
252,12.600000000000001,-6.3781360497875275,6.7156388552545225,-5.062551056465718,-0.2854562483999375,-0.11893607544877106,-0.7691392673467193,-0.021878355717684615,-0.007395764806454336,-0.05209744319992173,0,70,255.0,255.0,255.0
253,12.65,-6.392436187242937,6.709682242272997,-5.101072843755434,-0.2865487916317295,-0.11933973387383674,-0.7717262666095502,-0.02182337355399708,-0.0087505721961724,-0.05138252731331611,0,70,255.0,255.0,255.0
254,12.700000000000001,-6.40679088313223,6.7037037528609815,-5.139723087363435,-0.28763858575533724,-0.11981113266838832,-0.774277520078051,-0.021768391390309547,-0.010105379585890513,-0.05066761142671047,0,70,255.0,255.0,255.0
255,12.75,-6.4212,6.6977,-5.1785,-0.28872563077076047,-0.12035027183242576,-0.7767930277522214,-0.021713409226621128,-0.011460186975608244,-0.04995269554010395,0,70,255.0,255.0,255.0
256,12.8,-6.435662943686223,6.691668526765068,-5.217402418027647,-0.28978252440120095,-0.12090134575668106,-0.7793102087658585,-0.020562335990997733,-0.010582769994603556,-0.050734545005382804,0,70,255.0,255.0,255.0
257,12.850000000000001,-6.450177293212423,6.68561059660515,-5.256431672417808,-0.29078186436986025,-0.12140854883188613,-0.7818664822527597,-0.019411262755374338,-0.009705353013598868,-0.051516394470661656,0,70,255.0,255.0,255.0
258,12.9,-6.464740170895513,6.6795284030626965,-5.295589717794143,-0.2917236506767384,-0.12187188105804095,-0.7844618482129246,-0.01826018951975098,-0.008827936032594214,-0.05229824393594047,0,70,255.0,255.0,255.0
259,12.950000000000001,-6.479348699052402,6.673424139680162,-5.334878508780321,-0.2926078833218354,-0.12229134243514554,-0.7870963066463538,-0.017109116284127587,-0.007950519051589526,-0.05308009340121932,0,70,255.0,255.0,255.0
260,13.0,-6.494,6.6673,-5.3743,-0.29343456230515114,-0.1226669329631999,-0.7897698575530466,-0.015958043048504233,-0.007073102070585313,-0.05386194286649992,0,70,255.0,255.0,255.0
261,13.05,-6.508692017033695,6.661157714115696,-5.413855615105414,-0.2942529463352307,-0.12302645958008637,-0.7924506426470088,-0.016777318154677725,-0.007307962604873212,-0.05336946089198572,0,70,255.0,255.0,255.0
262,13.100000000000001,-6.523425977362779,6.654997158324879,-5.453544653863057,-0.29511229412061896,-0.12339772922368723,-0.7951068036422453,-0.017596593260851213,-0.00754282313916111,-0.05287697891747153,0,70,255.0,255.0,255.0
263,13.15,-6.538203929175012,6.648817745476214,-5.493365885067991,-0.2960126056613158,-0.12378074189400248,-0.7977383405387559,-0.018415868367024673,-0.007777683673449,-0.05238449694295735,0,70,255.0,255.0,255.0
264,13.200000000000001,-6.553027920658166,6.642618888418367,-5.533318077515286,-0.2969538809573214,-0.12417549759103212,-0.800345253336541,-0.019235143473198164,-0.008012544207736899,-0.051892014968443145,0,70,255.0,255.0,255.0
265,13.25,-6.5679,6.6364,-5.5734,-0.2979361200086357,-0.12458199631477616,-0.8029275420356001,-0.020054418579372957,-0.008247404742025233,-0.0513995329939263,0,70,255.0,255.0,255.0
266,13.3,-6.582821788178994,6.630160616772149,-5.613610321550704,-0.2989336902578774,-0.12499281592297375,-0.8054792206461152,-0.019848391390296878,-0.008185379585877794,-0.050667611426675654,0,70,255.0,255.0,255.0
267,13.350000000000001,-6.597793197336463,6.623900770095332,-5.653947312129973,-0.2999209591476654,-0.12540053427336395,-0.8079943031782677,-0.019642364201220803,-0.008123354429730355,-0.049935689859425,0,70,255.0,255.0,255.0
268,13.4,-6.612813712404436,6.617620615032442,-5.694409141933891,-0.3008979266779995,-0.12580515136594678,-0.8104727896320577,-0.01943633701214473,-0.008061329273582917,-0.049203768292174384,0,70,255.0,255.0,255.0
269,13.450000000000001,-6.62788281831494,6.611320306646368,-5.7349939811585395,-0.30186459284887984,-0.12620666720072224,-0.8129146800074851,-0.019230309823068656,-0.007999304117435478,-0.04847184672492374,0,70,255.0,255.0,255.0
270,13.5,-6.643,6.605,-5.7757,-0.30282095766030637,-0.12660508177769034,-0.81531997430455,-0.019024282633991696,-0.007937278961287264,-0.04773992515766956,0,70,255.0,255.0,255.0
271,13.55,-6.658164830250329,6.59865981879571,-5.816526298691777,-0.3037722926332592,-0.12700227672801268,-0.8177444747685225,-0.019029116284122516,-0.00795051905160631,-0.0492400934012281,0,70,255.0,255.0,255.0
272,13.600000000000001,-6.673377233291368,6.59229976129379,-5.857475697617056,-0.30472386928871864,-0.127400133682851,-0.820243983644673,-0.019033949934253336,-0.007963759141925352,-0.05074026164478664,0,70,255.0,255.0,255.0
273,13.65,-6.688637221207242,6.585919794394016,-5.898551947196447,-0.30567568762668457,-0.12779865264220522,-0.8228185009330011,-0.019038783584384156,-0.007976999232244398,-0.05224042988834513,0,70,255.0,255.0,255.0
274,13.700000000000001,-6.703944806082078,6.579519884996161,-5.939758797850559,-0.30662774764715706,-0.12819783360607542,-0.8254680266335075,-0.019043617234514976,-0.007990239322563443,-0.05374059813190367,0,70,255.0,255.0,255.0
275,13.75,-6.7193,6.5731,-5.9811,-0.307580049350136,-0.12859767657446156,-0.8281925607461915,-0.019048450884644463,-0.008003479412882042,-0.05524076637545683,0,70,255.0,255.0,255.0
276,13.8,-6.734702890819691,6.566660108045013,-6.022578083682193,-0.3085371392090825,-0.12899807716497702,-0.8309188802797897,-0.019235143473215914,-0.00801254420773705,-0.05381201496846975,0,70,255.0,255.0,255.0
277,13.850000000000001,-6.750153869498066,6.560200184729506,-6.0641906974018065,-0.3095035636974576,-0.12939893099523528,-0.8335737622430386,-0.01942183606178736,-0.008021609002592056,-0.052383263561482665,0,70,255.0,255.0,255.0
278,13.9,-6.765653402766594,6.5537202073914935,-6.105934269280324,-0.31047932281526125,-0.12980023806523625,-0.8361572066359381,-0.019608528650358805,-0.008030673797447064,-0.05095451215449563,0,70,255.0,255.0,255.0
279,13.950000000000001,-6.781201957356748,6.547220153368987,-6.147805227439228,-0.31146441656249346,-0.13020199837497998,-0.8386692134584881,-0.019795221238930252,-0.008039738592302071,-0.04952576074750856,0,70,255.0,255.0,255.0
280,14.0,-6.7968,6.5407,-6.1898,-0.3124588449391543,-0.13060421192446645,-0.8411097827106888,-0.019981913827500364,-0.008048803387156633,-0.04809700934051797,0,70,255.0,255.0,255.0
281,14.05,-6.812447606470908,6.534159749024238,-6.231915766579454,-0.3134391505304181,-0.13100541461208123,-0.8435240041123244,-0.01923030982305071,-0.007999304117435145,-0.04847184672490493,0,70,255.0,255.0,255.0
282,14.100000000000001,-6.828143288716372,6.527599499788184,-6.27415271277572,-0.31438187592145944,-0.13140414233620998,-0.8459569673831794,-0.01847870581860105,-0.007949804847713658,-0.04884668410929188,0,70,255.0,255.0,255.0
283,14.15,-6.843885167726382,6.521019376040009,-6.316511775682259,-0.3152870211122782,-0.13180039509685262,-0.8484086725232536,-0.01772710181415142,-0.007900305577992173,-0.049221521493678824,0,70,255.0,255.0,255.0
284,14.200000000000001,-6.8596713644909295,6.51441950152789,-6.358993892392533,-0.31615458610287456,-0.1321941728940092,-0.8508791195325472,-0.016975497809701763,-0.007850806308270685,-0.04959635887806578,0,70,255.0,255.0,255.0
285,14.25,-6.8755,6.5078,-6.4016,-0.3169845708932484,-0.1325854757276797,-0.85336830841106,-0.016223893805249467,-0.007801307038548533,-0.04997119626245361,0,70,255.0,255.0,255.0
286,14.3,-6.891369883296681,6.501160895858033,-6.444330849999995,-0.31781825866924257,-0.13298026438670707,-0.8558651032709188,-0.017123617234517864,-0.007990239322545903,-0.049900598131895,0,70,255.0,255.0,255.0
287,14.350000000000001,-6.907282575636449,6.494501816117759,-6.487186451495318,-0.3186969326167002,-0.1333844996599343,-0.8583583682242496,-0.01802334066378626,-0.008179171606543273,-0.049830000001336396,0,70,255.0,255.0,255.0
288,14.4,-6.923240326327875,6.487822288448469,-6.530166627990643,-0.3196205927356212,-0.1337981815473614,-0.8608481032710523,-0.018923064093054626,-0.008368103890540636,-0.049759401870777785,0,70,255.0,255.0,255.0
289,14.450000000000001,-6.939245384679535,6.481121840519453,-6.573271202990647,-0.3205892390260056,-0.13422131004898835,-0.8633343084113274,-0.019822787522323023,-0.008557036174538006,-0.049688803740219174,0,70,255.0,255.0,255.0
290,14.5,-6.9553,6.4744,-6.6165,-0.3216028714878535,-0.13465388516481516,-0.8658169836450744,-0.0207225109515905,-0.008745968458534703,-0.049618205609657906,0,70,255.0,255.0,255.0
291,14.55,-6.971405660342369,6.467656667543631,-6.659852833420574,-0.32261581479261653,-0.1350735278410861,-0.8682955828040035,-0.019795221238930148,-0.008039738592301882,-0.049525760747505386,0,70,255.0,255.0,255.0
292,14.600000000000001,-6.987560808737835,6.46089323574078,-6.703329481243016,-0.3235823936117465,-0.13545785902404536,-0.8707695597198251,-0.018867931526269796,-0.007333508726069062,-0.049433315885352866,0,70,255.0,255.0,255.0
293,14.65,-7.003763126962117,6.454111470166115,-6.746929712355171,-0.32450260794524355,-0.13580687871369299,-0.8732389143925389,-0.017940641813609475,-0.006627278859836267,-0.04934087102320035,0,70,255.0,255.0,255.0
294,14.700000000000001,-7.020010296790932,6.447313136394299,-6.790653295644884,-0.3253764577931075,-0.13612058691002898,-0.8757036468221451,-0.017013352100949123,-0.005921048993603446,-0.04924842616104783,0,70,255.0,255.0,255.0
295,14.75,-7.0363,6.4405,-6.8345,-0.3262039431553384,-0.13639898361305336,-0.8781637570086435,-0.016086062388287914,-0.005214819127370429,-0.049155981298889095,0,70,255.0,255.0,255.0
296,14.8,-7.0526306753338455,6.433673233967447,-6.878469816317715,-0.3270304821602881,-0.13667762424894492,-0.8806325655130673,-0.01697549780970055,-0.005930806308292002,-0.04959635887806418,0,70,255.0,255.0,255.0
297,14.850000000000001,-7.069003789412213,6.42683164091912,-6.922563623532624,-0.3279014929363085,-0.13699206424388255,-0.8831233928964499,-0.01786493323111318,-0.006646793489213574,-0.050036736457239266,0,70,255.0,255.0,255.0
298,14.9,-7.08542156582366,6.419973430887074,-6.966782522588675,-0.32881697548339944,-0.13734230359786628,-0.8856362391587913,-0.018754368652525784,-0.007362780670135121,-0.05047711403641433,0,70,255.0,255.0,255.0
299,14.950000000000001,-7.101886228156738,6.413096813903351,-7.011127614429819,-0.32977692980156104,-0.13772834231089606,-0.8881711043000914,-0.01964380407393842,-0.008078767851056694,-0.050917491615589415,0,70,255.0,255.0,255.0
300,15.0,-7.1184,6.4062,-7.0556,-0.33078135589079327,-0.13815018038297194,-0.89072798832035,-0.02053323949535013,-0.008794755031978685,-0.051357869194758266,0,70,255.0,255.0,255.0
301,15.05,-7.134964438322254,6.399281596586586,-7.100199901308573,-0.3317902565662351,-0.13858397516313445,-0.8932541551437245,-0.01982278752232246,-0.008557036174520768,-0.04968880374021791,0,70,255.0,255.0,255.0
302,15.100000000000001,-7.151578433613314,6.392341800582734,-7.144924024626494,-0.33276363464302555,-0.13900588400042405,-0.8956968686943719,-0.01911233554929479,-0.008319317317062851,-0.04801973828567756,0,70,255.0,255.0,255.0
303,15.15,-7.168240209743246,6.385381206285591,-7.18976819729013,-0.33370149012116457,-0.1394159068948407,-0.8980561289722923,-0.018401883576267146,-0.008081598459604942,-0.046350672831137266,0,70,255.0,255.0,255.0
304,15.200000000000001,-7.18494799058212,6.378400407992299,-7.234728246635845,-0.3346038230006523,-0.13981404384638452,-0.9003319359774856,-0.01769143160323948,-0.007843879602147025,-0.044681607376596905,0,70,255.0,255.0,255.0
305,15.25,-7.2017,6.3714,-7.2798,-0.3354706332814886,-0.14020029485505542,-0.9025242897099519,-0.01698097963021228,-0.007606160744689117,-0.04301254192205306,0,70,255.0,255.0,255.0
306,15.3,-7.2184947713771415,6.364380379686213,-7.324980978448001,-0.3363204915747676,-0.14058647509851305,-0.9047348139120296,-0.017013352100948877,-0.007841048993615998,-0.04540842616105362,0,70,255.0,255.0,255.0
307,15.350000000000001,-7.2353320761345365,6.357341156749942,-7.370275477961403,-0.3371719684915835,-0.14098439975441704,-0.9070651323260573,-0.01704572457168547,-0.008075937242542882,-0.04780431040005417,0,70,255.0,255.0,255.0
308,15.4,-7.252211995203359,6.350281743970564,-7.415689488250805,-0.33802506403193616,-0.1413940688227673,-0.9095152449520351,-0.01707809704242207,-0.008310825491469755,-0.050200194639054646,0,70,255.0,255.0,255.0
309,15.450000000000001,-7.269134609514788,6.343201554127457,-7.4612289990268055,-0.33887977819582565,-0.141815482303564,-0.9120851517899629,-0.017110469513158668,-0.008545713740396636,-0.0525960788780552,0,70,255.0,255.0,255.0
310,15.5,-7.2861,6.3361,-7.5069,-0.339736110983252,-0.14224864019680702,-0.9147748528398405,-0.017142841983895263,-0.008780601989323289,-0.05499196311705745,0,70,255.0,255.0,255.0
311,15.55,-7.3031084761691805,6.328976884668564,-7.552706584899429,-0.340607777134698,-0.14267012444281651,-0.9174705892081566,-0.017723804073942438,-0.008078767851056623,-0.0528374916155833,0,70,255.0,255.0,255.0
312,15.600000000000001,-7.320161261848545,6.3218335724175,-7.598645263527899,-0.34150849139064626,-0.14305651698191268,-0.9200586020013989,-0.01830476616398961,-0.0073769337127899594,-0.05068302011410915,0,70,255.0,255.0,255.0
313,15.65,-7.33725980944332,6.3146718178321555,-7.644710649706651,-0.34243825375109693,-0.1434078178140955,-0.9225388912195674,-0.018885728254036765,-0.00667509957452332,-0.04852854861263508,0,70,255.0,255.0,255.0
314,15.700000000000001,-7.35440557135873,6.307493375497873,-7.6908973572569375,-0.34339706421605,-0.143724026939365,-0.9249114568626624,-0.019466690344083937,-0.005973265436256654,-0.04637407711116093,0,70,255.0,255.0,255.0
315,15.75,-7.3716,6.3003,-7.7372,-0.34438492278550525,-0.14400514435772116,-0.9271762989306837,-0.02004765243412976,-0.005271431297988904,-0.04421960560968419,0,70,255.0,255.0,255.0
316,15.8,-7.388844123946139,6.293092881639532,-7.783614281954283,-0.34537639988643937,-0.14428502713022423,-0.9293988292553407,-0.01961143160323519,-0.005923879602134195,-0.044681607376593574,0,70,255.0,255.0,255.0
317,15.850000000000001,-7.406137276471285,6.285870953580057,-7.830140267927008,-0.34634606594582884,-0.1445975323179346,-0.9316444596683431,-0.01917521077234062,-0.006576327906279485,-0.04514360914350296,0,70,255.0,255.0,255.0
318,15.9,-7.423478367023362,6.2786325847008175,-7.876779112922589,-0.34729392096367345,-0.14494265992085217,-0.9339131901696909,-0.018738989941446068,-0.007228776210424752,-0.045605610910412334,0,70,255.0,255.0,255.0
319,15.950000000000001,-7.440866305050293,6.271376143881051,-7.923531971945448,-0.34821996493997337,-0.14532040993897705,-0.9362050207593843,-0.0183027691105515,-0.007881224514570042,-0.04606761267732172,0,70,255.0,255.0,255.0
320,16.0,-7.4583,6.2641,-7.9704,-0.3491241978747286,-0.14573078237230921,-0.9385199514374231,-0.017866548279656058,-0.008533672818715976,-0.04652961444422754,0,70,255.0,255.0,255.0
321,16.05,-7.475778228046267,6.25680278877331,-8.017384287283441,-0.34999862331954895,-0.14615776703628705,-0.9408540937704805,-0.017110469513158567,-0.008545713740397032,-0.046836078878068406,0,70,255.0,255.0,255.0
322,16.1,-7.493299232266317,6.24948421326227,-8.064485664764078,-0.3508352448260445,-0.14658535374634893,-0.94320355932523,-0.016354390746661073,-0.008557754662078088,-0.047142543311909264,0,70,255.0,255.0,255.0
323,16.150000000000002,-7.510861122463233,6.2421442433645735,-8.111704898602994,-0.3516340623942151,-0.14701354250249488,-0.9455683481016716,-0.015598311980163582,-0.008569795583759143,-0.04744900774575013,0,70,255.0,255.0,255.0
324,16.2,-7.528462008440099,6.234782848977919,-8.15904275496127,-0.35239507602406084,-0.1474423333047248,-0.9479484600998048,-0.014842233213666144,-0.008581836505440199,-0.04775547217959097,0,70,255.0,255.0,255.0
325,16.25,-7.5461,6.2274,-8.2065,-0.3531182857155816,-0.14787172615303887,-0.9503438953196306,-0.014086154447168209,-0.00859387742712081,-0.048061936613430944,0,70,255.0,255.0,255.0
326,16.3,-7.563774163868795,6.219995963267228,-8.254077368911956,-0.3538611068353627,-0.1482839047246236,-0.9527527956627454,-0.015626690344075312,-0.00789326543626835,-0.04829407711115579,0,70,255.0,255.0,255.0
327,16.35,-7.581487394463451,6.212572193370863,-8.30177547301669,-0.3546809547499892,-0.1486610526966657,-0.9551733030307462,-0.017167226240982412,-0.0071926534454158884,-0.04852621760888064,0,70,255.0,255.0,255.0
328,16.400000000000002,-7.599243543123709,6.205130441840886,-8.349594892665447,-0.35557782945946104,-0.1490031700691652,-0.9576054174236335,-0.018707762137889515,-0.006492041454563427,-0.04875835810660548,0,70,255.0,255.0,255.0
329,16.45,-7.617046461189311,6.197672460207273,-8.397536208209466,-0.35655173096377807,-0.14931025684212204,-0.9600491388414066,-0.020248298034796507,-0.0057914294637110165,-0.04899049860433031,0,70,255.0,255.0,255.0
330,16.5,-7.6349,6.1902,-8.4456,-0.3576026592629406,-0.14958231301553626,-0.9625044672840664,-0.02178883393170361,-0.005090817472857889,-0.0492226391020516,0,70,255.0,255.0,255.0
331,16.55,-7.652806716478553,6.182714158157781,-8.493786237068738,-0.35865294933899733,-0.14985861406522208,-0.9649347235785497,-0.0202227691105638,-0.005961224514574872,-0.047987612677280446,0,70,255.0,255.0,255.0
332,16.6,-7.670763989879884,6.175213413254276,-8.542092443169171,-0.35962493617399705,-0.15017843546699375,-0.9673032285517945,-0.018656704289423988,-0.006831631556291853,-0.0467525862525093,0,70,255.0,255.0,255.0
333,16.650000000000002,-7.688767905041936,6.16769558927188,-8.590515530735233,-0.36051861976793975,-0.15054177722085127,-0.9696099822038008,-0.017090639468284173,-0.007702038598008835,-0.04551755982773814,0,70,255.0,255.0,255.0
334,16.7,-7.706814546802659,6.16015851019299,-8.63905241220086,-0.3613340001208254,-0.15094863932679461,-0.9718549845345681,-0.015524574647144473,-0.008572445639725755,-0.044282533402967075,0,70,255.0,255.0,255.0
335,16.75,-7.7249,6.1526,-8.6877,-0.3620710772326542,-0.15139902178482384,-0.9740382355440973,-0.013958509826006882,-0.009442852681443181,-0.04304750697819415,0,70,255.0,255.0,255.0
336,16.8,-7.743021370216994,6.145018604101646,-8.736456082813095,-0.36279109580864605,-0.1518496390144955,-0.9762123100230431,-0.014842233213666324,-0.008581836505423266,-0.04391547217963422,0,70,255.0,255.0,255.0
337,16.85,-7.761179846017021,6.1374157536120295,-8.785321954306639,-0.36355530055402085,-0.15225720543536617,-0.9784297827620607,-0.015725956601325766,-0.007720820329403353,-0.04478343738107429,0,70,255.0,255.0,255.0
338,16.900000000000002,-7.779377636708553,6.129793601071589,-8.834299784393636,-0.36436369146877867,-0.15262172104743585,-0.9806906537611505,-0.01660967998898521,-0.0068598041533834385,-0.04565140258251436,0,70,255.0,255.0,255.0
339,16.95,-7.797616951600054,6.122154299020767,-8.883391742987088,-0.36521626855291933,-0.15294318585070452,-0.9829949230203121,-0.017493403376644588,-0.005998787977363586,-0.046519367783954366,0,70,255.0,255.0,255.0
340,17.0,-7.8159,6.1145,-8.9326,-0.3661130318064431,-0.15322159984517222,-0.9853425905395458,-0.018377126764305363,-0.005137771801344337,-0.04738733298538822,0,70,255.0,255.0,255.0
341,17.05,-7.834228602653474,6.10683222543563,-8.981926231678885,-0.36703066742642076,-0.1534948298767986,-0.9877040363292888,-0.018328298034800825,-0.005791429463710661,-0.04707049860433176,0,70,255.0,255.0,255.0
342,17.1,-7.8526030260520345,6.0991499722976,-9.03137013960428,-0.3679458616099232,-0.1538007427915433,-0.990049640399979,-0.01827946930529629,-0.0064450871260769834,-0.04675366422327531,0,70,255.0,255.0,255.0
343,17.150000000000002,-7.871023148123859,6.0914516064417565,-9.080930931690233,-0.36885861435695044,-0.15413933858940632,-0.9923794027516164,-0.018230640575791754,-0.007098744788443306,-0.04643682984221885,0,70,255.0,255.0,255.0
344,17.2,-7.889488846797121,6.0837354937239425,-9.130607815850789,-0.36976892566750236,-0.1545106172703876,-0.9946933233842008,-0.018181811846287223,-0.007752402450809583,-0.04611999546116242,0,70,255.0,255.0,255.0
345,17.25,-7.908,6.076,-9.1804,-0.37067679554157906,-0.15491457883448723,-0.9969914022977325,-0.018132983116779577,-0.008406060113175684,-0.045803161080107735,0,70,255.0,255.0,255.0
346,17.3,-7.926556219169113,6.06824369415583,-9.230306990471373,-0.37156623448567705,-0.15533904147830976,-0.9992915446598085,-0.017444574647139877,-0.008572445639725859,-0.04620253340292973,0,70,255.0,255.0,255.0
347,17.35,-7.945156049774844,6.060465957197563,-9.280329487276253,-0.3724212530062931,-0.15577182339845982,-1.0016116556380255,-0.016756166177500177,-0.008738831166276034,-0.04660190572575172,0,70,255.0,255.0,255.0
348,17.400000000000002,-7.963797770796019,6.05266637316138,-9.330468488845446,-0.3732418511034271,-0.15621292459493738,-1.003951735232384,-0.01606775770786048,-0.008905216692826208,-0.04700127804857372,0,70,255.0,255.0,255.0
349,17.45,-7.982479661211461,6.044844526083463,-9.380724993609757,-0.3740280287770791,-0.15666234506774243,-1.0063117834428827,-0.015379349238220829,-0.009071602219376371,-0.04740065037139569,0,70,255.0,255.0,255.0
350,17.5,-8.0012,6.037,-9.4311,-0.37477978602724915,-0.15712008481687498,-1.0086918002695233,-0.01469094076858024,-0.00923798774592588,-0.04780002269421857,0,70,255.0,255.0,255.0
351,17.55,-8.019957720670078,6.029132997941044,-9.481593806435633,-0.37553639463087907,-0.15754900420995754,-1.0110497850314775,-0.015573403376616047,-0.007918787977376444,-0.046519367783950806,0,70,255.0,255.0,255.0
352,17.6,-8.038754374848596,6.021246198912144,-9.532203911290726,-0.37633712636491073,-0.15791196361461263,-1.0133437370479186,-0.016455865984651853,-0.006599588208827008,-0.04523871287368305,0,70,255.0,255.0,255.0
353,17.650000000000002,-8.057592168692077,6.013342900912723,-9.582927112928001,-0.3771819812293443,-0.15820896303084026,-1.015573656318846,-0.017338328592687663,-0.005280388440277572,-0.04395805796341529,0,70,255.0,255.0,255.0
354,17.7,-8.076473308357038,6.005426401942201,-9.633760209710182,-0.3780709592241795,-0.1584400024586404,-1.01773954284426,-0.018220791200723407,-0.0039611886717282295,-0.04267740305314762,0,70,255.0,255.0,255.0
355,17.75,-8.0954,5.9975,-9.6847,-0.37900406034941664,-0.15860508189801306,-1.0198413966241606,-0.01910325380875877,-0.0026419889031792376,-0.04139674814287275,0,70,255.0,255.0,255.0
356,17.8,-8.114373698150581,5.989565914079992,-9.735744183786103,-0.3799361869907932,-0.1587689416818626,-1.0219333152142627,-0.018181811846302486,-0.003912402450801595,-0.04227999546120317,0,70,255.0,255.0,255.0
357,17.85,-8.133392850830779,5.981622047153857,-9.78689406756086,-0.38082224153404687,-0.15899632214309323,-1.024069396170281,-0.017260369883846202,-0.005182815998423953,-0.04316324277953359,0,70,255.0,255.0,255.0
358,17.900000000000002,-8.152455154435684,5.973665223187726,-9.838151859442565,-0.3816622239791778,-0.15928722328170497,-1.026249639492216,-0.01633892792138992,-0.006453229546046312,-0.044046490097864,0,70,255.0,255.0,255.0
359,17.95,-8.171558305360392,5.96569226614773,-9.88951976754951,-0.38245613432618586,-0.15964164509769785,-1.0284740451800674,-0.015417485958933698,-0.0077236430936685795,-0.04492973741619436,0,70,255.0,255.0,255.0
360,18.0,-8.1907,5.9577,-9.941,-0.38320397257507116,-0.16005958759107186,-1.030742613233835,-0.01449604399647475,-0.00899405664129116,-0.04581298473452655,0,70,255.0,255.0,255.0
361,18.05,-8.2098786867276,5.949685745738988,-9.99259425841996,-0.3839508574059398,-0.16051122906258852,-1.0330249541114833,-0.015379349238270657,-0.009071602219375842,-0.045480650371404245,0,70,255.0,255.0,255.0
362,18.1,-8.229095821828295,5.941648812472426,-10.044302218465848,-0.38474190749889825,-0.16096674781300946,-1.0352906782709757,-0.016262654480066564,-0.009149147797460525,-0.045148316008281945,0,70,255.0,255.0,255.0
363,18.150000000000002,-8.248353613565191,5.933589006336371,-10.096123049301758,-0.3855771228539465,-0.1614261438423346,-1.0375397857123116,-0.017145959721862475,-0.009226693375545207,-0.04481598164515964,0,70,255.0,255.0,255.0
364,18.2,-8.26765427020139,5.925506133466878,-10.148055920091775,-0.38645650347108446,-0.16188941715056396,-1.0397722764354915,-0.01802926496365832,-0.009304238953629883,-0.04448364728203736,0,70,255.0,255.0,255.0
365,18.25,-8.287,5.9174,-10.2001,-0.3873800493503122,-0.16235656773769758,-1.0419881504405155,-0.018912570205452006,-0.009381784531714565,-0.04415131291891683,0,70,255.0,255.0,255.0
366,18.3,-8.306392354939021,5.909271102964058,-10.252254782534065,-0.3883083833854649,-0.16278614206778386,-1.0442068683398154,-0.018220791200655197,-0.007801188671736425,-0.04459740305307137,0,70,255.0,255.0,255.0
367,18.35,-8.325830261856044,5.901122702956439,-10.304521058575762,-0.3892021284703778,-0.1631366866048712,-1.0464478907458226,-0.01752901219585839,-0.006220592811758284,-0.045043493187225905,0,70,255.0,255.0,255.0
368,18.400000000000002,-8.345311991303557,5.892958751466787,-10.356899943350427,-0.3900612846050508,-0.1634082013489597,-1.0487112176585378,-0.016837233191061576,-0.004639996951780145,-0.04548958332138044,0,70,255.0,255.0,255.0
369,18.45,-8.364835813834045,5.884783199984759,-10.409392552083393,-0.3908858517894839,-0.16360068630004926,-1.0509968490779606,-0.016145454186264816,-0.003059401091802117,-0.045935673455534946,0,70,255.0,255.0,255.0
370,18.5,-8.3844,5.8766,-10.462,-0.39167583002367723,-0.16371414145813992,-1.053304785004091,-0.015453675181468007,-0.0014788052318237543,-0.0463817635896806,0,70,255.0,255.0,255.0
371,18.55,-8.404003093516316,5.868411442404777,-10.514722611443787,-0.3924476090521873,-0.16384820266627703,-1.0555875725292387,-0.015417485958933063,-0.003883643093660528,-0.04492973741622526,0,70,255.0,255.0,255.0
372,18.6,-8.423644730747535,5.86021317570182,-10.567557547231115,-0.3932175786195706,-0.16410250576750599,-1.0577977587457135,-0.015381296736398119,-0.006288480955497302,-0.04347771124276992,0,70,255.0,255.0,255.0
373,18.650000000000002,-8.443324821220589,5.851999187796475,-10.620501177296548,-0.3939857387258271,-0.16447705076182675,-1.0599353436535157,-0.015345107513863174,-0.008693318817334074,-0.042025685069314575,0,70,255.0,255.0,255.0
374,18.7,-8.463043274462429,5.843763466594086,-10.673549871574652,-0.39475208937095685,-0.16497183764923937,-1.062000327252645,-0.015308918291328234,-0.011098156679170678,-0.04057365889585933,0,70,255.0,255.0,255.0
375,18.75,-8.4828,5.8355,-10.7267,-0.39551663055495995,-0.16558686642974385,-1.0639927095431017,-0.015272729068793733,-0.013502994541007673,-0.03912163272240399,0,70,255.0,255.0,255.0
376,18.8,-8.502595270995707,5.82720472741683,-10.779949171690793,-0.39630118040577306,-0.1662050472671097,-1.0659868415432139,-0.016109264963729785,-0.011224238953625378,-0.040643647282083986,0,70,255.0,255.0,255.0
377,18.85,-8.522430815153822,5.8188813942362785,-10.833299952499788,-0.3971275570513329,-0.1667092903251064,-1.0680570742713102,-0.01694580085866584,-0.008945483366243082,-0.04216566184176398,0,70,255.0,255.0,255.0
378,18.900000000000002,-8.542308723814086,5.8105356973473095,-10.886756147463391,-0.39799576049163965,-0.16709959560373402,-1.0702034077273903,-0.017782336753601892,-0.006666727778860784,-0.04368767640144397,0,70,255.0,255.0,255.0
379,18.95,-8.562231088316233,5.802173333638895,-10.940321561617992,-0.39890579072669313,-0.16737596310299246,-1.0724258419114545,-0.018618872648537888,-0.004387972191478649,-0.04520969096112386,0,70,255.0,255.0,255.0
380,19.0,-8.5822,5.7938,-10.994,-0.3998576477564934,-0.16753839282288188,-1.0747243768235029,-0.01945540854347394,-0.0021092166040965754,-0.04673170552080563,0,70,255.0,255.0,255.0
381,19.05,-8.602216622500857,5.785420047927897,-11.047794301793049,-0.4007956693247359,-0.16766760826527935,-1.0770410612979104,-0.01806545418622612,-0.003059401091802063,-0.04593567345549586,0,70,255.0,255.0,255.0
382,19.1,-8.622278408637177,5.777032447353066,-11.101703442769738,-0.4016641931751161,-0.1678443329320621,-1.0793179441690526,-0.016675499828978296,-0.004009585579507551,-0.04513964139018609,0,70,255.0,255.0,255.0
383,19.150000000000002,-8.642381883523068,5.768634822814285,-11.155725432849902,-0.4024632193076338,-0.16806856682323013,-1.0815550254369293,-0.015285545471730473,-0.0049597700672130395,-0.04434360932487632,0,70,255.0,255.0,255.0
384,19.200000000000003,-8.662523572272642,5.760224798850336,-11.209858281953379,-0.40319274772228914,-0.1683403099387834,-1.08375230510154,-0.013895591114482651,-0.005909954554918526,-0.04354757725956655,0,70,255.0,255.0,255.0
385,19.25,-8.6827,5.7518,-11.2641,-0.403852778419082,-0.16865956227872195,-1.0859097831628854,-0.012505636757235816,-0.006860139042623059,-0.042751545194251506,0,70,255.0,255.0,255.0
386,19.3,-8.702908639000874,5.743358280871579,-11.318448821137013,-0.4045001422952954,-0.16901251967176745,-1.088040913265138,-0.013388918291299413,-0.007258156679196543,-0.04249365889585341,0,70,255.0,255.0,255.0
387,19.35,-8.723150750297476,5.73489841635146,-11.372903876421265,-0.405191670248212,-0.1693853779466416,-1.090159149052471,-0.01427219982536301,-0.007656174315770026,-0.04223577259745532,0,70,255.0,255.0,255.0
388,19.400000000000002,-8.74342854209364,5.726419411395551,-11.427464521137013,-0.4059273622778317,-0.16977813710334447,-1.0922644905248837,-0.015155481359426608,-0.00805419195234351,-0.04197788629905722,0,70,255.0,255.0,255.0
389,19.450000000000003,-8.763744222593205,5.717920270959761,-11.482130110568507,-0.40670721838415463,-0.170190797141876,-1.0943569376823765,-0.016038762893490204,-0.008452209588916994,-0.041720000000659126,0,70,255.0,255.0,255.0
390,19.5,-8.7841,5.7094,-11.5369,-0.4075312385671807,-0.1706233580622361,-1.0964364905249493,-0.016922044427554628,-0.008850227225488894,-0.04146211370225927,0,70,255.0,255.0,255.0
391,19.55,-8.804497621495653,5.700858028585786,-11.591773613658901,-0.40837176149408316,-0.17105031304765966,-1.0985072856415352,-0.016698872648542546,-0.008227972191452517,-0.04136969096117014,0,70,255.0,255.0,255.0
392,19.6,-8.824936990172926,5.692295487241095,-11.646750651545204,-0.409201125832035,-0.17144615528138135,-1.1005734596210663,-0.016475700869530468,-0.007605717157416141,-0.041277268220080994,0,70,255.0,255.0,255.0
393,19.650000000000002,-8.845417548102375,5.68371393160351,-11.701830882602057,-0.4100193315810362,-0.17181088476340128,-1.1026350124635433,-0.016252529090518386,-0.006983462123379764,-0.04118484547899186,0,70,255.0,255.0,255.0
394,19.700000000000003,-8.865938737354549,5.675114917310617,-11.75701407577261,-0.41082637874108685,-0.17214450149371938,-1.1046919441689655,-0.016029357311506308,-0.006361207089343388,-0.041092422737902715,0,70,255.0,255.0,255.0
395,19.75,-8.8865,5.6665,-11.8123,-0.4116222673121869,-0.1724470054723356,-1.1067442547373336,-0.015806185532494688,-0.005738952055306612,-0.04099999999681181,0,70,255.0,255.0,255.0
396,19.8,-8.90710087501652,5.657870404785272,-11.86768872422739,-0.4124128117283621,-0.17273822813759124,-1.1088099441687416,-0.015815591114512452,-0.005909954554918253,-0.04162757725949825,0,70,255.0,255.0,255.0
397,19.85,-8.92774128901082,5.649226034684158,-11.923181517397929,-0.4132038264236381,-0.17303800092782742,-1.1109070124632834,-0.015824996696530213,-0.006080957054529894,-0.04225515452218469,0,70,255.0,255.0,255.0
398,19.900000000000002,-8.948421265496867,5.640566462190407,-11.97877994845477,-0.4139953113980151,-0.17334632384304424,-1.11303545962096,-0.015834402278547977,-0.006251959554141536,-0.04288273178487113,0,70,255.0,255.0,255.0
399,19.950000000000003,-8.96914082798861,5.6318912597977695,-12.034485586341079,-0.41478726665149296,-0.17366319688324158,-1.1151952856417706,-0.01584380786056574,-0.006422962053753177,-0.043510309047557566,0,70,255.0,255.0,255.0
400,20.0,-8.9899,5.6232,-12.0903,-0.41557969218407165,-0.1739886200484195,-1.1173864905257154,-0.015853213442581726,-0.006593964553364584,-0.044137886310235075,0,70,255.0,255.0,255.0
401,20.05,-9.010698878438276,5.614492352273122,-12.146224289431544,-0.41637699159247343,-0.17431677440197665,-1.1195809376834884,-0.016038762893489714,-0.0065322095889208225,-0.04364000000068486,0,70,255.0,255.0,255.0
402,20.1,-9.03153785378379,5.605768374022272,-12.20225767886309,-0.41718356847342064,-0.1746418410073116,-1.121750490525784,-0.016224312344397702,-0.006470454624477061,-0.04314211369113464,0,70,255.0,255.0,255.0
403,20.150000000000002,-9.052417389910163,5.597028219634861,-12.258398923578868,-0.4179994228269132,-0.17496381986442436,-1.123895149052602,-0.016409861795305687,-0.006408699660033298,-0.042644227381584424,0,70,255.0,255.0,255.0
404,20.200000000000003,-9.073337950691027,5.5882720434983,-12.314646778863095,-0.41882455465295126,-0.17528271097331494,-1.1260149132639425,-0.016595411246213675,-0.006346944695589537,-0.0421463410720342,0,70,255.0,255.0,255.0
405,20.25,-9.0943,5.5795,-12.371,-0.41965896395153457,-0.1755985143339833,-1.128109783159805,-0.01678096069712076,-0.0062851897311462235,-0.04164845476247159,0,70,255.0,255.0,255.0
406,20.3,-9.115303611230372,5.570712186122238,-12.427457318046434,-0.4204792219017494,-0.17591467425449553,-1.1301783050973142,-0.016029357311472647,-0.006361207089343469,-0.04109242273790094,0,70,255.0,255.0,255.0
407,20.35,-9.136347295854023,5.5619084692267515,-12.484017367149713,-0.42126189968268185,-0.17623463504291767,-1.1322190254335953,-0.015277753925824533,-0.006437224447540715,-0.04053639071333029,0,70,255.0,255.0,255.0
408,20.400000000000002,-9.157429174862486,5.553088659270147,-12.540678757229776,-0.4220069972943319,-0.1765583966992496,-1.1342319441686475,-0.01452615054017642,-0.00651324180573796,-0.03998035868875964,0,70,255.0,255.0,255.0
409,20.450000000000003,-9.1785473692473,5.544252566209027,-12.59744009820656,-0.4227145147366995,-0.17688595922349146,-1.1362170613024711,-0.013774547154528307,-0.006589259163935206,-0.03942432666418899,0,70,255.0,255.0,255.0
410,20.5,-9.1997,5.5354,-12.6543,-0.4233844520097847,-0.17721732261564313,-1.138174376835066,-0.013022943768881134,-0.006665276522132446,-0.03886829463961661,0,70,255.0,255.0,255.0
411,20.55,-9.220885876640239,5.526530903237927,-12.711257638382722,-0.42405812080052097,-0.1775445285800407,-1.1401378419272448,-0.013923807860570049,-0.006422962053769906,-0.039670309047530605,0,70,255.0,255.0,255.0
412,20.6,-9.24210656280013,5.51764574907072,-12.768314452538066,-0.4247768327958417,-0.17785961882102014,-1.1421414077398193,-0.014824671952258964,-0.006180647585407366,-0.0404723234554446,0,70,255.0,255.0,255.0
413,20.650000000000002,-9.2633643106399,5.508745143284548,-12.825472447502047,-0.4255405879957469,-0.17816259333858145,-1.1441850742727893,-0.01572553604394788,-0.005938333117044826,-0.0412743378633586,0,70,255.0,255.0,255.0
414,20.700000000000003,-9.28466137231978,5.499829691665584,-12.882733628310685,-0.42634938640023656,-0.17845345213272462,-1.146268841526155,-0.016626400135636793,-0.005696018648682286,-0.0420763522712726,0,70,255.0,255.0,255.0
415,20.75,-9.306,5.4909,-12.9401,-0.4272032280093105,-0.17873219520344966,-1.1483927094999165,-0.017527264227323425,-0.005453704180319319,-0.04287836667918654,0,70,255.0,255.0,255.0
416,20.8,-9.327381682208673,5.481956200926054,-12.997572928422676,-0.42805629489614977,-0.17902721142534694,-1.1505183271936985,-0.016595411246246604,-0.0063469446955725,-0.04214634107209675,0,70,255.0,255.0,255.0
417,20.85,-9.348804852945465,5.4729965344903695,-13.055151222698031,-0.4288627691339352,-0.1793668896730069,-1.152607343607126,-0.015663558265169783,-0.007240185210825681,-0.04141431546500696,0,70,255.0,255.0,255.0
418,20.900000000000002,-9.370267182577917,5.464018767591657,-13.11283305276205,-0.4296226507226667,-0.17975122994642953,-1.1546597587401992,-0.01473170528409296,-0.008133425726078863,-0.040682289857917164,0,70,255.0,255.0,255.0
419,20.950000000000003,-9.391766341473582,5.45502066712863,-13.170616588550715,-0.43033593966234446,-0.18018023224561483,-1.156675572592918,-0.013799852303016138,-0.009026666241332044,-0.03995026425082737,0,70,255.0,255.0,255.0
420,21.0,-9.4133,5.446,-13.2285,-0.43100263595296834,-0.1806538965705627,-1.158654785165282,-0.01286799932194116,-0.009919906756584496,-0.039218238643737635,0,70,255.0,255.0,255.0
421,21.05,-9.434866594525063,5.436955493057856,-13.286481847926577,-0.43166869961488014,-0.1811146257185756,-1.1606208492979784,-0.013774547154529871,-0.008509259163930662,-0.03942432666411904,0,70,255.0,255.0,255.0
422,21.1,-9.456467625418016,5.427889712967802,-13.344562256669816,-0.43238009066842137,-0.18150482248695576,-1.1625972178316941,-0.014681094987118585,-0.007098611571276829,-0.039630414684500445,0,70,255.0,255.0,255.0
423,21.150000000000002,-9.478105359048433,5.418806186348821,-13.402741741449768,-0.433136809113592,-0.18182448687570327,-1.1645838907664285,-0.015587642819707297,-0.005687963978622996,-0.03983650270488184,0,70,255.0,255.0,255.0
424,21.200000000000003,-9.499782061785902,5.409708439819893,-13.461020817486478,-0.4339388549503921,-0.18207361888481807,-1.166580868102182,-0.01649419065229601,-0.004277316385969163,-0.04004259072526325,0,70,255.0,255.0,255.0
425,21.25,-9.5215,5.4006,-13.5194,-0.4347862281788215,-0.18225221851430018,-1.1685881498389548,-0.017400738484880662,-0.002866668793314986,-0.04024867874564464,0,70,255.0,255.0,255.0
426,21.3,-9.543260739691068,5.39148342684252,-13.577879679871014,-0.4356369066443335,-0.1824182857003502,-1.1705982756143778,-0.016626400135599784,-0.0037760186486865653,-0.04015635227127703,0,70,255.0,255.0,255.0
427,21.35,-9.565063045382477,5.382357413638418,-13.636459750622711,-0.4364488681923815,-0.18262982037916886,-1.1726037850660824,-0.015852061786318906,-0.004685368504058145,-0.04006402579690942,0,70,255.0,255.0,255.0
428,21.400000000000002,-9.586904981228349,5.373219687013057,-13.695139981438897,-0.43722211282296547,-0.18288682255075606,-1.1746046781940687,-0.015077723437038027,-0.005594718359429723,-0.039971699322541805,0,70,255.0,255.0,255.0
429,21.450000000000003,-9.608784611382815,5.364067973591796,-13.75392014150339,-0.43795664053608535,-0.18318929221511182,-1.176600954998337,-0.014303385087757149,-0.006504068214801303,-0.039879372848174194,0,70,255.0,255.0,255.0
430,21.5,-9.6307,5.3549,-13.8128,-0.4386524513317411,-0.18353722937223618,-1.1785926154788864,-0.01352904673847588,-0.007413418070172595,-0.03978704637381192,0,70,255.0,255.0,255.0
431,21.55,-9.652649646710662,5.345713999572062,-13.871779432589362,-0.43933567380777927,-0.1839002314800239,-1.180586048244504,-0.0137998523030519,-0.007106666241335931,-0.0399502642508967,0,70,255.0,255.0,255.0
432,21.6,-9.674633793052081,5.3365102324785205,-13.93085874083935,-0.4400324365620463,-0.1842478959963698,-1.182587641903976,-0.01407065786762792,-0.006799914412499266,-0.04011348212798147,0,70,255.0,255.0,255.0
433,21.650000000000002,-9.696653116038172,5.327289465598948,-13.990038332794658,-0.4407427395945421,-0.18458022292127385,-1.1845973964573022,-0.014341463432203938,-0.006493162583662602,-0.04027670000506625,0,70,255.0,255.0,255.0
434,21.700000000000003,-9.71870829268284,5.318052465812918,-14.049318616499978,-0.4414665829052667,-0.18489721225473604,-1.1866153119044829,-0.014612268996779958,-0.006186410754825938,-0.04043991788215103,0,70,255.0,255.0,255.0
435,21.75,-9.7408,5.3088,-14.1087,-0.44220396649422006,-0.18519886399675642,-1.1886413882455173,-0.014883074561355958,-0.005879658925989739,-0.04060313575922869,0,70,255.0,255.0,255.0
436,21.8,-9.762928673466284,5.299532574869229,-14.168182589771545,-0.44294039812456143,-0.18550078837955528,-1.190657531407628,-0.014574190652298653,-0.006197316385964817,-0.04004259072519111,0,70,255.0,255.0,255.0
437,21.85,-9.785093782409199,5.290249656447494,-14.227765286019904,-0.44366138555944995,-0.1858185956353529,-1.1926456473180365,-0.014265306743241349,-0.006514973845939896,-0.03948204569115353,0,70,255.0,255.0,255.0
438,21.900000000000002,-9.807294554618974,5.280950450591143,-14.28744668738249,-0.4443669287988856,-0.18615228576414927,-1.1946057359767432,-0.013956422834184044,-0.0068326313059149735,-0.03892150065711595,0,70,255.0,255.0,255.0
439,21.950000000000003,-9.829530217885832,5.271634163156529,-14.347225392496716,-0.4450570278428684,-0.1865018587659444,-1.1965377973837483,-0.01364753892512674,-0.007150288765890052,-0.03836095562307836,0,70,255.0,255.0,255.0
440,22.0,-9.8518,5.2623,-14.4071,-0.44573168269139823,-0.1868673146407383,-1.198441831539051,-0.013338655016068568,-0.0074679462258648854,-0.03780041058903372,0,70,255.0,255.0,255.0
441,22.05,-9.874103659424204,5.252947700951019,-14.467069408324466,-0.44642273369399216,-0.18721661500175493,-1.2003358261249812,-0.014303385087688195,-0.00650406821480097,-0.037959372848180455,0,70,255.0,255.0,255.0
442,22.1,-9.896443077311128,5.2435791417315,-14.52713371508105,-0.44716202120016707,-0.18751772146221843,-1.2022377688238692,-0.015268115159307821,-0.005540190203737055,-0.038118335107327185,0,70,255.0,255.0,255.0
443,22.150000000000002,-9.918820665485947,5.234196732036472,-14.587293317675403,-0.447949545209923,-0.18777063402212865,-1.2041476596357141,-0.016232845230927447,-0.00457631219267314,-0.03827729736647392,0,70,255.0,255.0,255.0
444,22.200000000000003,-9.941238835773847,5.224802881560963,-14.647548613513171,-0.44878530572325986,-0.18797535268148574,-1.2060654985605166,-0.017197575302547074,-0.0036124341816092262,-0.03843625962562066,0,70,255.0,255.0,255.0
445,22.25,-9.9637,5.2154,-14.7079,-0.4496693027401776,-0.18813187744028959,-1.2079912855982764,-0.018162305374163523,-0.0026485561705449356,-0.03859522188476916,0,70,255.0,255.0,255.0
446,22.3,-9.986205488836903,5.205989421326695,-14.768347776930604,-0.4505366670994519,-0.18830475161342397,-1.2099191640924505,-0.01653226899680875,-0.004266410754830497,-0.038519917882187824,0,70,255.0,255.0,255.0
447,22.35,-10.008752308346297,5.196568176626505,-14.828891853655913,-0.45132252963985847,-0.18855851851577266,-1.2118432773864953,-0.014902232619453979,-0.005884265339116059,-0.03844461387960649,0,70,255.0,255.0,255.0
448,22.400000000000002,-10.031336383437242,5.1871322212629645,-14.88953204191592,-0.4520268903613973,-0.18889317814733558,-1.2137636254804112,-0.013272196242099207,-0.007502119923401621,-0.03836930987702516,0,70,255.0,255.0,255.0
449,22.450000000000003,-10.05395363901879,5.177677510599615,-14.950268153450619,-0.4526497492640684,-0.1893087305081128,-1.2156802083741978,-0.011642159864744435,-0.009119974507687182,-0.03829400587444382,0,70,255.0,255.0,255.0
450,22.5,-10.0766,5.1682,-15.0111,-0.45319110634787174,-0.1898051755981043,-1.2175930260678556,-0.010012123487388891,-0.010737829091973294,-0.038218701871860716,0,70,255.0,255.0,255.0
451,22.55,-10.099272785228186,5.158697013742199,-15.07202748395313,-0.4537345979081865,-0.19030037854455079,-1.2195075175052281,-0.011727538925199378,-0.009070288765885802,-0.03836095562303932,0,70,255.0,255.0,255.0
452,22.6,-10.121974889303683,5.149171351762482,-15.133050870295317,-0.4543638602403917,-0.19071220447469292,-1.2214291216301596,-0.013442954363009867,-0.0074027484397983095,-0.038503209374217924,0,70,255.0,255.0,255.0
453,22.650000000000002,-10.14471060076509,5.139627182911668,-15.19417051466094,-0.4550788933444875,-0.19104065338853066,-1.22335783844265,-0.015158369800820356,-0.005735208113710817,-0.038645463125396524,0,70,255.0,255.0,255.0
454,22.700000000000003,-10.167484208150997,5.130068676040568,-15.255386772684378,-0.4558796972204737,-0.19128572528606397,-1.2252936679426993,-0.016873785238630843,-0.004067667787623325,-0.038787716876575125,0,70,255.0,255.0,255.0
455,22.75,-10.1903,5.1205,-15.3167,-0.45676627186835045,-0.19144742016729296,-1.2272366101303074,-0.01858920067643899,-0.0024001274615372825,-0.038929970627750166,0,70,255.0,255.0,255.0
456,22.8,-10.213160970250359,5.110924123704508,-15.378110287256884,-0.4576609412678233,-0.19159773420837162,-1.2291707658866418,-0.017197575302476835,-0.0036124341816095203,-0.038436259625621354,0,70,255.0,255.0,255.0
457,22.85,-10.236064934438973,5.101339216323562,-15.439616665162832,-0.45848602939859817,-0.19180866358545393,-1.2310802360928694,-0.015805949928514678,-0.004824740901681758,-0.03794254862349254,0,70,255.0,255.0,255.0
458,22.900000000000002,-10.259008413502407,5.091742247090362,-15.501217899440336,-0.4592415362606748,-0.1920802082985398,-1.2329650207489908,-0.014414324554552523,-0.006037047621753996,-0.03744883762136373,0,70,255.0,255.0,255.0
459,22.950000000000003,-10.28198792837723,5.082130185238108,-15.562912755811897,-0.4599274618540534,-0.19241236834762934,-1.2348251198550062,-0.013022699180590368,-0.007249354341826233,-0.03695512661923492,0,70,255.0,255.0,255.0
460,23.0,-10.305,5.0725,-15.6247,-0.46054380617873386,-0.19280514373272245,-1.2366605334109144,-0.011631073806627423,-0.008461661061899495,-0.036461415617109694,0,70,255.0,255.0,255.0
461,23.05,-10.328041733770386,5.062849691439767,-15.686578567019343,-0.4611256370205181,-0.19319668462196227,-1.2384814189482034,-0.011642159864744261,-0.0071999745076919905,-0.036374005874450784,0,70,255.0,255.0,255.0
462,23.1,-10.351112572940433,5.053181382943265,-15.74854806905337,-0.46170802216520834,-0.19352514118349165,-1.2402979339983595,-0.0116532459228611,-0.005938287953484486,-0.03628659613179188,0,70,255.0,255.0,255.0
463,23.150000000000002,-10.374212545225289,5.04349822872688,-15.810608287577727,-0.4622909616128043,-0.1937905134173107,-1.2421100785613828,-0.011664331980977938,-0.004676601399276982,-0.03619918638913297,0,70,255.0,255.0,255.0
464,23.200000000000003,-10.397341678340098,5.033803383006995,-15.87275900406806,-0.46287445536330607,-0.19399280132341934,-1.243917852637273,-0.011675418039094776,-0.0034149148450694786,-0.03611177664647407,0,70,255.0,255.0,255.0
465,23.25,-10.4205,5.0241,-15.935,-0.46345850341671374,-0.19413200490181767,-1.24572125622603,-0.011686504097209838,-0.0021532282908622857,-0.03602436690381161,0,70,255.0,255.0,255.0
466,23.3,-10.4436880946681,5.014389910536421,-15.997331444665756,-0.46407651065010996,-0.19428752730377982,-1.2475435583205388,-0.013033785238638027,-0.004067667787623712,-0.036867716876541945,0,70,255.0,255.0,255.0
467,23.35,-10.466908773799297,5.004669651903375,-16.059755058623697,-0.46476188194057755,-0.19453877168058006,-1.2494080279136843,-0.014381066380066214,-0.005982107284385139,-0.03771106684927228,0,70,255.0,255.0,255.0
468,23.400000000000002,-10.490165405596443,4.994934438002116,-16.12227295024877,-0.46551461728811655,-0.19488573803221834,-1.2513146650054663,-0.015728347521494403,-0.007896546781146567,-0.03855441682200261,0,70,255.0,255.0,255.0
469,23.450000000000003,-10.513461358262395,4.985179482733905,-16.184887227915894,-0.466334716692727,-0.1953284263586947,-1.2532634695958846,-0.01707562866292259,-0.009810986277907992,-0.03939776679473295,0,70,255.0,255.0,255.0
470,23.5,-10.5368,4.9754,-16.2476,-0.46722218015440886,-0.19586683666000912,-1.2552544416849394,-0.018422909804352905,-0.01172542577466884,-0.04024111676746678,0,70,255.0,255.0,255.0
471,23.55,-10.560183487557216,4.965593066414545,-16.310412454317643,-0.46810432037903227,-0.1963892061629214,-1.2572323477696086,-0.016862699180582096,-0.00916935434182201,-0.03887512661930222,0,70,255.0,255.0,255.0
472,23.6,-10.583609131862383,4.9557632094432345,-16.37332209645184,-0.46890845007246706,-0.19678377209419134,-1.2591419543468696,-0.01530248855681129,-0.006613282908975176,-0.037509136471137655,0,70,255.0,255.0,255.0
473,23.650000000000002,-10.607073032388945,4.945916819264652,-16.43632551142721,-0.4696345692347134,-0.19705053445381893,-1.2609832614167225,-0.013742277933040482,-0.004057211476128344,-0.036143146322973094,0,70,255.0,255.0,255.0
474,23.700000000000003,-10.630571288610335,4.93606028605738,-16.499419284268388,-0.47028267786577116,-0.19718949324180418,-1.2627562689791672,-0.012182067309269674,-0.0015011400432815118,-0.03477715617480853,0,70,255.0,255.0,255.0
475,23.75,-10.6541,4.9262,-16.5626,-0.4708527759656404,-0.19720064845814708,-1.2644609770342032,-0.01062185668549942,0.001054931389564695,-0.033411166026640515,0,70,255.0,255.0,255.0
476,23.8,-10.677656355103037,4.916340223805398,-16.62586513806367,-0.4714102078337561,-0.1972116480445344,-1.2661510506010312,-0.011675418039127654,-0.0014949148450574962,-0.034191776646475006,0,70,255.0,255.0,255.0
477,23.85,-10.701241898751173,4.906476710323683,-16.689215755568952,-0.47202031776955317,-0.19735013994265282,-1.2678801546988507,-0.012728979392755886,-0.004044761079679687,-0.03497238726630949,0,70,255.0,255.0,255.0
478,23.900000000000002,-10.724859264847785,4.8966030849392705,-16.752653804042403,-0.4726831057730317,-0.19761612415250238,-1.2696482893276622,-0.01378254074638412,-0.006594607314301879,-0.03575299788614398,0,70,255.0,255.0,255.0
479,23.950000000000003,-10.748511087296269,4.8867129730365715,-16.81618123501057,-0.4733985718441916,-0.19800960067408305,-1.2714554544874652,-0.014836102100012353,-0.00914445354892407,-0.03653360850597846,0,70,255.0,255.0,255.0
480,24.0,-10.7722,4.8768,-16.8798,-0.4741667159830329,-0.19853056950739476,-1.27330165017826,-0.015889663453639624,-0.011694299783545192,-0.037314219125809345,0,70,255.0,255.0,255.0
481,24.05,-10.795927892030639,4.866859638363861,-16.94351179342768,-0.47494284828594624,-0.1990682016589315,-1.2751714498262727,-0.015155628662893585,-0.00981098627792429,-0.037477766794703986,0,70,255.0,255.0,255.0
482,24.1,-10.819693673132937,4.856894749262029,-17.007317281272353,-0.4756822788493223,-0.1995116681351872,-1.2770494268577304,-0.014421593872147543,-0.007927672772303386,-0.03764131446359862,0,70,255.0,255.0,255.0
483,24.150000000000002,-10.843495508219911,4.846910040978264,-17.07121687240318,-0.476385007673161,-0.19986096893616187,-1.2789355812726328,-0.013687559081401504,-0.006044359266682483,-0.03780486213249326,0,70,255.0,255.0,255.0
484,24.200000000000003,-10.867331562204594,4.836910221796333,-17.13521097568934,-0.47705103475746247,-0.20011610406185545,-1.2808299130709797,-0.012953524290655462,-0.004161045761061581,-0.0379684098013879,0,70,255.0,255.0,255.0
485,24.25,-10.8912,4.8269,-17.1993,-0.47768036010222653,-0.200277073512268,-1.2827324222527712,-0.01221948949990681,-0.002277732255440368,-0.0381319574702772,0,70,255.0,255.0,255.0
486,24.3,-10.915099276774406,4.816882822739156,-17.2634836882256,-0.47829039902245596,-0.20041954531973635,-1.2846031500938984,-0.012182067309269316,-0.0034211400432944293,-0.03669715617480234,0,70,255.0,255.0,255.0
487,24.35,-10.939029008717087,4.806857092628203,-17.327759119341646,-0.4788985668331535,-0.20061918751659746,-1.2864021378702515,-0.012144645118631824,-0.004564547831148491,-0.035262354879327475,0,70,255.0,255.0,255.0
488,24.400000000000002,-10.962989102272564,4.796819951147672,-17.392122706344885,-0.47950486353431915,-0.20087600010285123,-1.288129385581831,-0.01210722292799433,-0.005707955619002551,-0.033827553583852615,0,70,255.0,255.0,255.0
489,24.450000000000003,-10.986979463885362,4.786768539778095,-17.456570862232084,-0.4801092891259529,-0.20118998307849772,-1.2897848932286367,-0.012069800737356837,-0.006851363406856613,-0.032392752288377756,0,70,255.0,255.0,255.0
490,24.5,-11.011,4.7767,-17.5211,-0.4807118436080548,-0.20156113644353685,-1.2913686608106687,-0.012032378546721123,-0.007994771194709482,-0.03095795099289944,0,70,255.0,255.0,255.0
491,24.55,-11.035051000871734,4.7666122706795155,-17.585707853669906,-0.48133555562422414,-0.20194161706212738,-1.2929599497981392,-0.012916102100051775,-0.0072244535489107585,-0.032693608505917404,0,70,255.0,255.0,255.0
492,24.6,-11.059134291998717,4.756506480225158,-17.65039744136108,-0.48200345381806,-0.20228358179842792,-1.2946380216612605,-0.013799825653382428,-0.006454135903112035,-0.034429266018935374,0,70,255.0,255.0,255.0
493,24.650000000000002,-11.083252082689834,4.746384554431043,-17.715173102217296,-0.4827155381895624,-0.20258703065243858,-1.2964028764000328,-0.01468354920671308,-0.0056838182573133115,-0.03616492353195334,0,70,255.0,255.0,255.0
494,24.700000000000003,-11.107406582253967,4.736248419091286,-17.780039175382345,-0.48347180873873136,-0.20285196362415925,-1.298254514014456,-0.015567272760043733,-0.004913500611514588,-0.0379005810449713,0,70,255.0,255.0,255.0
495,24.75,-11.1316,4.7261,-17.845,-0.4842722654655667,-0.20307838071359002,-1.30019293450453,-0.016450996313373878,-0.004143182965715919,-0.03963623855799092,0,70,255.0,255.0,255.0
496,24.8,-11.15583351973866,4.715940894542782,-17.910058497094774,-0.48505537848066643,-0.20328598643175905,-1.302133050713516,-0.014873524290615569,-0.00416104576104468,-0.03796840980145324,0,70,255.0,255.0,255.0
497,24.85,-11.18010422328805,4.70577138647116,-17.975211915214057,-0.48575961789462824,-0.2034944852896945,-1.3039897754846754,-0.01329605226785726,-0.00417890855637344,-0.036300581044915556,0,70,255.0,255.0,255.0
498,24.900000000000002,-11.204408166968106,4.6955914311281495,-18.040456084785944,-0.48638498370745215,-0.20370387728739642,-1.3057631088180077,-0.011718580245098953,-0.0041967713517022005,-0.03463275228837787,0,70,255.0,255.0,255.0
499,24.950000000000003,-11.228741407098777,4.685400983856757,-18.105786836238558,-0.48693147591913816,-0.2039141624248647,-1.3074530507135134,-0.010141108222340644,-0.004214634147030961,-0.03296492353184019,0,70,255.0,255.0,255.0
500,25.0,-11.2531,4.6752,-18.1712,-0.4873990945296862,-0.2041253407020995,-1.3090596011711917,-0.008563636199581559,-0.004232496942359498,-0.031297094775302625,0,70,255.0,255.0,255.0
501,25.05,-11.277481320173626,4.664988151149357,-18.23669255795099,-0.48786693045310897,-0.20435443721083044,-1.3106518473477855,-0.010149800737327675,-0.0049313634068772864,-0.032392752288444286,0,70,255.0,255.0,255.0
502,25.1,-11.301888014849093,4.654763973890196,-18.30226609778271,-0.488414074603419,-0.20461847704278724,-1.312298876400036,-0.011735965275073791,-0.005630229871395074,-0.03348840980158595,0,70,255.0,255.0,255.0
503,25.150000000000002,-11.326324049437748,4.6445257210563575,-18.367923358638926,-0.4890405269806164,-0.20491746019796994,-1.314000688327944,-0.013322129812819907,-0.006329096335912861,-0.03458406731472761,0,70,255.0,255.0,255.0
504,25.200000000000003,-11.350793389350935,4.634271645481679,-18.43366707966343,-0.489746287584701,-0.20525138667637854,-1.315757283131509,-0.014908294350566021,-0.007027962800430649,-0.03567972482786927,0,70,255.0,255.0,255.0
505,25.25,-11.3753,4.624,-18.4995,-0.4905313564156729,-0.205620256478013,-1.3175686608107309,-0.01649445888831025,-0.007726829264947943,-0.036775382341014407,0,70,255.0,255.0,255.0
506,25.3,-11.399846799566841,4.61370970085979,-18.56542407110126,-0.4913328997068835,-0.20598426472492443,-1.3193875598953773,-0.015567272760110905,-0.006833500611510011,-0.03598058104484244,0,70,255.0,255.0,255.0
507,25.35,-11.42443251731558,4.603402317968052,-18.63143809365513,-0.492088083691684,-0.206303606539164,-1.3211667189152152,-0.01464008663191156,-0.005940171958072079,-0.03518577974867047,0,70,255.0,255.0,255.0
508,25.400000000000002,-11.449054835280903,4.5930800846464175,-18.697540080658367,-0.4927969083700746,-0.20657828192073166,-1.3229061378702442,-0.013712900503712216,-0.005046843304634147,-0.034390978452498513,0,70,255.0,255.0,255.0
509,25.450000000000003,-11.473711435497483,4.582745234216523,-18.76372804510774,-0.49345937374205523,-0.20680829086962743,-1.324605816760465,-0.012785714375512871,-0.0041535146511962155,-0.03359617715632655,0,70,255.0,255.0,255.0
510,25.5,-11.4984,4.5724,-18.83,-0.4940754798076259,-0.20699363338585125,-1.3262657555858772,-0.011858528247314482,-0.003260185997758125,-0.032801375860159965,0,70,255.0,255.0,255.0
511,25.55,-11.523118681559014,4.562045845411482,-18.896354357643983,-0.49467347071936635,-0.20718050388947057,-1.327909913070679,-0.01206110822230251,-0.004214634147014098,-0.03296492353190886,0,70,255.0,255.0,255.0
512,25.6,-11.547867515888584,4.551681154237595,-18.962791127596795,-0.4952815906298562,-0.20741509680055267,-1.3295622479390683,-0.01226368819729054,-0.005169082296270071,-0.03312847120365774,0,70,255.0,255.0,255.0
513,25.650000000000002,-11.572647009438645,4.541303540357968,-19.029310718727615,-0.4958998395390954,-0.2076974121190976,-1.331222760191045,-0.012466268172278569,-0.006123530445526045,-0.033292018875406636,0,70,255.0,255.0,255.0
514,25.700000000000003,-11.597457668659139,4.530910617652228,-19.095913539905627,-0.49652821744708403,-0.2080274498451053,-1.332891449826609,-0.012668848147266598,-0.007077978594782018,-0.03345556654715552,0,70,255.0,255.0,255.0
515,25.75,-11.6223,4.5205,-19.1626,-0.49716672435382203,-0.20840520997857578,-1.3345683168457603,-0.012871428122253725,-0.00803242674403859,-0.033619114218911506,0,70,255.0,255.0,255.0
516,25.8,-11.647174474197104,4.510070117494284,-19.22937049832282,-0.4978132174156426,-0.20878171971718792,-1.3362527878219301,-0.012988294350569165,-0.007027962800447648,-0.03375972482787688,0,70,255.0,255.0,255.0
517,25.85,-11.672081419130086,4.499622665081567,-19.296225395957705,-0.49846555378887897,-0.20910800625862055,-1.337944289328548,-0.013105160578884605,-0.006023498856856706,-0.03390033543684226,0,70,255.0,255.0,255.0
518,25.900000000000002,-11.697021126964517,4.489160153921708,-19.363165044431184,-0.49912373347353106,-0.20938406960287362,-1.3396428213656144,-0.013222026807200042,-0.005019034913265765,-0.03404094604580764,0,70,255.0,255.0,255.0
519,25.950000000000003,-11.721993889865965,4.478685095174566,-19.430189795269776,-0.499787756469599,-0.20960990974994714,-1.3413483839331288,-0.013338893035515482,-0.0040145709696748225,-0.034181556654773015,0,70,255.0,255.0,255.0
520,26.0,-11.747,4.4682,-19.4973,-0.5004576227770826,-0.2097855266998411,-1.3430609770310915,-0.013455759263831801,-0.0030101070260843965,-0.03432216726373838,0,70,255.0,255.0,255.0
521,26.05,-11.772039421652565,4.457706484611382,-19.564495649064757,-0.5011136596180671,-0.20996461724177312,-1.3447589356415914,-0.012785714375547909,-0.0041535146511961045,-0.03359617715626014,0,70,255.0,255.0,255.0
522,26.1,-11.797110807591066,4.447202585436135,-19.631775288572403,-0.5017361942146374,-0.21020087816496072,-1.3464205947467176,-0.012115669487264016,-0.0052969222763078125,-0.03287018704878191,0,70,255.0,255.0,255.0
523,26.150000000000002,-11.822212482703288,4.436685443955198,-19.69913710354767,-0.5023252265667935,-0.2104943094694039,-1.3480459543464696,-0.011445624598980124,-0.006440329901419521,-0.032144196941303674,0,70,255.0,255.0,255.0
524,26.200000000000003,-11.847342771877006,4.426152201649507,-19.766579279015296,-0.5028807566745354,-0.21084491115510268,-1.349635014440848,-0.010775579710696231,-0.007583737526531229,-0.031418206833825436,0,70,255.0,255.0,255.0
525,26.25,-11.8725,4.4156,-19.8341,-0.5034027845378632,-0.211252683222057,-1.3511877750298522,-0.010105534822415052,-0.008727145151641524,-0.03069221672634015,0,70,255.0,255.0,255.0
526,26.3,-11.897683039192641,4.405027144060189,-19.90169810541816,-0.5039241441121037,-0.21164781131571803,-1.3527434696116913,-0.01074884814720286,-0.007077978594798771,-0.031535566547228215,0,70,255.0,255.0,255.0
527,26.35,-11.922892950505648,4.394436593173893,-19.96937504975269,-0.5044776693525835,-0.2119604810815369,-1.354341331684575,-0.011392161471990665,-0.005428812037956018,-0.032378916368116274,0,70,255.0,255.0,255.0
528,26.400000000000002,-11.948131342222338,4.3838324702575,-20.037132941378136,-0.5050633602593029,-0.21219069251951364,-1.355981361248503,-0.012035474796778472,-0.0037796454811132663,-0.03322226618900434,0,70,255.0,255.0,255.0
529,26.450000000000003,-11.97339982262602,4.373218898227405,-20.104973888669058,-0.5056812168322614,-0.2123384456296482,-1.3576635583034755,-0.01267878812156628,-0.0021304789242705133,-0.0340656160098924,0,70,255.0,255.0,255.0
530,26.5,-11.9987,4.3626,-20.1729,-0.5063312390714594,-0.21240374041194066,-1.3593879228494923,-0.013322101446355816,-0.0004813123674263231,-0.0349089658307804,0,70,255.0,255.0,255.0
531,26.55,-12.024033221576877,4.351978539147859,-20.240912729262607,-0.506997763933507,-0.21246813749536744,-1.3611151859116313,-0.013338893035550114,-0.0020945709696452274,-0.03418155665477442,0,70,255.0,255.0,255.0
532,26.6,-12.049399790386344,4.341351841868295,-20.30901091241685,-0.5076651283750144,-0.21261319750890517,-1.3628060785149696,-0.013355684624744414,-0.0037078295718641313,-0.033454147478768424,0,70,255.0,255.0,255.0
533,26.650000000000002,-12.07479974840737,4.330715875014799,-20.37719273093979,-0.5083333323959814,-0.21283892045255387,-1.3644606006595081,-0.013372476213938712,-0.005321088174083035,-0.03272673830276244,0,70,255.0,255.0,255.0
534,26.700000000000003,-12.10023313761893,4.3200666054408705,-20.44545636630849,-0.5090023759964083,-0.21314530632631348,-1.366078752345246,-0.01338926780313301,-0.0069343467763019395,-0.03199932912675645,0,70,255.0,255.0,255.0
535,26.75,-12.1257,4.3094,-20.5138,-0.5096722591762948,-0.21353235513018404,-1.3676605335721836,-0.013406059392325531,-0.008547605378520284,-0.03127191995075407,0,70,255.0,255.0,255.0
536,26.8,-12.151200074499855,4.298713099348373,-20.582222177531417,-0.510324800153871,-0.21393563870281032,-1.3692277867417981,-0.012695579710726424,-0.007583737526530751,-0.03141820683382406,0,70,255.0,255.0,255.0
537,26.85,-12.176731887948986,4.288007239352929,-20.650722900579918,-0.5109418171473674,-0.21429072888283712,-1.370802354255566,-0.011985100029127317,-0.0066198696745412185,-0.03156449371689405,0,70,255.0,255.0,255.0
538,26.900000000000002,-12.202293664148192,4.277284829683299,-20.71930253486271,-0.5115233101567838,-0.21459762567026444,-1.3723842361134877,-0.01127462034752821,-0.0056560018225516855,-0.031710780599964045,0,70,255.0,255.0,255.0
539,26.950000000000003,-12.227883626898263,4.266548280009112,-20.787961446097004,-0.5120692791821203,-0.2148563290650923,-1.3739734323155626,-0.010564140665929105,-0.004692133970562152,-0.03185706748303404,0,70,255.0,255.0,255.0
540,27.0,-12.2535,4.2558,-20.8567,-0.5125797242233767,-0.2150668390673207,-1.3755699428617911,-0.009853660984330048,-0.0037282661185724653,-0.032003354366105796,0,70,255.0,255.0,255.0
541,27.05,-12.279141680423708,4.24504186345865,-20.92551856061173,-0.5130950354510225,-0.21526130769339205,-1.3771736671211894,-0.010758788121503583,-0.0040504789242823015,-0.03214561600982755,0,70,255.0,255.0,255.0
542,27.1,-12.304810257817717,4.234273600719988,-20.99441748526349,-0.5136556030355272,-0.21547188695974892,-1.3787845044627738,-0.011663915258677118,-0.004372691729992138,-0.032287877653549305,0,70,255.0,255.0,255.0
543,27.150000000000002,-12.330507994999875,4.223494406252003,-21.063397129609385,-0.5142614269768903,-0.21569857686639127,-1.3804024548865443,-0.012569042395850655,-0.004694904535701974,-0.03243013929727106,0,70,255.0,255.0,255.0
544,27.200000000000003,-12.356237154788023,4.212703474522678,-21.132457849303513,-0.5149125072751122,-0.21594137741331912,-1.382027518392501,-0.01347416953302419,-0.00501711734141181,-0.03257240094099281,0,70,255.0,255.0,255.0
545,27.25,-12.382,4.2019,-21.2016,-0.5156088439301927,-0.21620028860053245,-1.3836596949806437,-0.014379296670197661,-0.005339330147120291,-0.03271466258471456,0,70,255.0,255.0,255.0
546,27.3,-12.407798003805318,4.191083446817027,-21.270823580021656,-0.5163030580420268,-0.21645913052361768,-1.3852775447734322,-0.013389267803166391,-0.005014346776288599,-0.03199932912682576,0,70,255.0,255.0,255.0
547,27.35,-12.433629480780148,4.180254357767114,-21.340127158366133,-0.5169477707105093,-0.2167017232781613,-1.3868596278933263,-0.01239923893613512,-0.004689363405456905,-0.03128399566893696,0,70,255.0,255.0,255.0
548,27.400000000000002,-12.459491955852315,4.169413545308686,-21.409508946699777,-0.5175429819356403,-0.21692806686416335,-1.3884059443403258,-0.01140921006910385,-0.004364380034625212,-0.03056866221104816,0,70,255.0,255.0,255.0
549,27.450000000000003,-12.485382953949657,4.158561821900173,-21.47896715668895,-0.5180886917174197,-0.21713816128162383,-1.3899164941144313,-0.01041918120207258,-0.004039396663793519,-0.029853328753159363,0,70,255.0,255.0,255.0
550,27.5,-12.5113,4.1477,-21.5485,-0.5185849000558476,-0.2173320065305427,-1.3913912772156418,-0.00942915233504138,-0.0037144132929602947,-0.029137995295270613,0,70,255.0,255.0,255.0
551,27.55,-12.537241504355016,4.136828349273241,-21.618106319301646,-0.5190847323808718,-0.21754217021213115,-1.3928681537850995,-0.01056414066592916,-0.004692133970579096,-0.029937067483040293,0,70,255.0,255.0,255.0
552,27.6,-12.563209419061698,4.125944968211556,-21.687787481272004,-0.5196413141224405,-0.2178012199276006,-1.394384983963946,-0.011699128996816941,-0.0056698546481978975,-0.03073613967080997,0,70,255.0,255.0,255.0
553,27.650000000000002,-12.58920658159087,4.11504741251325,-21.75754548359153,-0.5202546452805535,-0.21810915567695097,-1.3959417677521806,-0.012834117327704724,-0.006647575325816699,-0.031535211858579645,0,70,255.0,255.0,255.0
554,27.700000000000003,-12.615235829413363,4.1041332378766295,-21.827382323940714,-0.520924725855211,-0.2184659774601823,-1.397538505149804,-0.013969105658592504,-0.0076252960034355,-0.032334284046349325,0,70,255.0,255.0,255.0
555,27.75,-12.6413,4.0932,-21.8973,-0.5216515558464128,-0.2188716852772945,-1.3991751961568155,-0.015104093989478429,-0.008603016681054676,-0.0331333562341225,0,70,255.0,255.0,255.0
556,27.8,-12.667400778774617,4.082246356090009,-21.967299942771763,-0.5223660124344752,-0.21926018862785648,-1.400817840086192,-0.013474169533023404,-0.0069371173414243025,-0.032572400940926005,0,70,255.0,255.0,255.0
557,27.85,-12.693535242973068,4.0712753693866635,-22.03738131654588,-0.5229989727997151,-0.21956539701143693,-1.4024324362509082,-0.01184424507656838,-0.005271218001793929,-0.032011445647729515,0,70,255.0,255.0,255.0
558,27.900000000000002,-12.71969931778421,4.060291204638315,-22.107542718934113,-0.5235504369421321,-0.2197873104280359,-1.4040189846509648,-0.010214320620113355,-0.0036053186621635546,-0.03145049035453302,0,70,255.0,255.0,255.0
559,27.950000000000003,-12.7458889283969,4.049298026593311,-22.177782747548235,-0.5240204048617265,-0.2199259288776533,-1.4055774852863614,-0.008584396163658333,-0.001939419322533181,-0.03088953506133653,0,70,255.0,255.0,255.0
560,28.0,-12.7721,4.0383,-22.2481,-0.5244088765584979,-0.21998125236028923,-1.4071079381570983,-0.006954471707198984,-0.0002735199829027035,-0.03032857976813297,0,70,255.0,255.0,255.0
561,28.05,-12.798329780546517,4.027299826366723,-22.318493109611314,-0.5247952178812297,-0.2200410752764559,-1.4086124858701305,-0.008499181202076244,-0.0021193966637628667,-0.02985332875315584,0,70,255.0,255.0,255.0
