idx,t,px,py,pz,vx,vy,vz,ax,ay,az,yaw,mode,ledr,ledg,ledb
0,0.0,-4.5,-13.5,0.0,0.0001593277175076773,-0.001000369548382538,0.0010579439515917242,-0.018711932610116923,0.007204434580601644,-0.02949532741910069,0,70,255.0,255.0,255.0
1,0.05,-4.50001586420217,-13.500041613303742,1.568598225730207e-05,-0.0008027092499475178,-0.0006761699922554641,-0.00043734578226780696,-0.019769546088090877,0.0057635476644813145,-0.03031626193528055,0,70,255.0,255.0,255.0
2,0.1,-4.500081152269559,-13.500068817738322,-4.441869032359726e-05,-0.0018176268913014106,-0.00042401478193440656,-0.0019736822419363313,-0.020827159566064832,0.004322660748360985,-0.031137196451460413,0,70,255.0,255.0,255.0
3,0.15000000000000002,-4.500198508235865,-13.500085215521032,-0.00018236635403314766,-0.0028854252065540014,-0.00024390391741936548,-0.003551065427413849,-0.02188477304403879,0.0028817738322406555,-0.031958130967640275,0,70,255.0,255.0,255.0
4,0.2,-4.50037057613478,-13.50009440886916,-0.0004002093451617987,-0.0040061041957052896,-0.00013583739871034098,-0.005169495338700359,-0.022942386522012744,0.001440886916120327,-0.03277906548382014,0,70,255.0,255.0,255.0
5,0.25,-4.5006,-13.5001,-0.0007,-0.005179663858755275,-9.981522580733264e-05,-0.006828971975795862,-0.023999999999986706,8.673617379884035e-19,-0.03359999999999999,0,70,255.0,255.0,255.0
6,0.30000000000000004,-4.50088942386522,-13.500105591130838,-0.0010837906548382017,-0.00640610419570396,-0.00013583739871034087,-0.00852949533870036,-0.025057613477960657,-0.0014408869161203295,-0.034420934516179856,0,70,255.0,255.0,255.0
7,0.35000000000000003,-4.5012414917641355,-13.500114784478967,-0.001553633645966853,-0.007685425206551342,-0.00024390391741936559,-0.010271065427413848,-0.026115226955934608,-0.0028817738322406586,-0.03524186903235972,0,70,255.0,255.0,255.0
8,0.4,-4.5016588477304404,-13.500131182261677,-0.0021115813096764025,-0.00901762689129742,-0.00042401478193440667,-0.012053682241936332,-0.02717284043390856,-0.004322660748360988,-0.03606280354853959,0,70,255.0,255.0,255.0
9,0.45,-4.50214413579783,-13.500158386696258,-0.002759685982257302,-0.010402709249942198,-0.0006761699922554642,-0.013877345782267807,-0.02823045391188251,-0.005763547664481316,-0.03688373806471946,0,70,255.0,255.0,255.0
10,0.5,-4.5027,-13.5002,-0.0035,-0.011840672282485672,-0.001000369548382538,-0.015742056048408278,-0.029288067389856495,-0.0072044345806016406,-0.03770467258089941,0,70,255.0,255.0,255.0
11,0.55,-4.503328040336949,-13.500258422172902,-0.004333323362904498,-0.013268873967232383,-0.0013244804128980964,-0.017572672862930766,-0.027840000000011862,-0.005760000000020679,-0.035520000000000045,0,70,255.0,255.0,255.0
12,0.6000000000000001,-4.504025680673898,-13.500331244345807,-0.005255446725808996,-0.01462467228248686,-0.0015763695483846066,-0.019294056048408288,-0.02639193261016723,-0.004315565419439719,-0.03333532741910068,0,70,255.0,255.0,255.0
13,0.65,-4.504789300842374,-13.500414855432258,-0.006260908407261243,-0.015908067228249105,-0.0017560369548420681,-0.02090620560484083,-0.0249438652203226,-0.0028711308388587606,-0.031150654838201324,0,70,255.0,255.0,255.0
14,0.7000000000000001,-4.505615280673899,-13.500505644345806,-0.007344246725808997,-0.01711905880451912,-0.0018634826322704826,-0.022409121532228415,-0.023495797830477966,-0.0014266962582778,-0.028965982257301962,0,70,255.0,255.0,255.0
15,0.75,-4.5065,-13.5006,-0.0085,-0.018257647011296903,-0.0018987065806698481,-0.023802803830571033,-0.022047730440633295,1.7738322303166576e-05,-0.026781309676402743,0,70,255.0,255.0,255.0
16,0.8,-4.507440814786983,-13.500695120177548,-0.009724515893543815,-0.01938239993536348,-0.001910240949708296,-0.025195813209576604,-0.02294238652202977,-0.0004791130838410891,-0.028939065483820137,0,70,255.0,255.0,255.0
17,0.8500000000000001,-4.508438985540271,-13.500791438137808,-0.011021379450797179,-0.020551885663499882,-0.001946617889053957,-0.02669671037895305,-0.023837042603426242,-0.0009759644899853448,-0.031096821291237534,0,70,255.0,255.0,255.0
18,0.9,-4.509496748900068,-13.500890196009292,-0.012395985061278631,-0.021766104195706102,-0.0020078373987068307,-0.02830549533870036,-0.024731698684822712,-0.0014728158961295995,-0.033254577098654925,0,70,255.0,255.0,255.0
19,0.9500000000000001,-4.510616341506576,-13.50099263592052,-0.013853727114506727,-0.023025055531982152,-0.002093899478666917,-0.03002216808881854,-0.025626354766219186,-0.0019696673022738553,-0.03541233290607232,0,70,255.0,255.0,255.0
20,1.0,-4.5118,-13.5011,-0.0154,-0.024328739672328018,-0.0022048041289342156,-0.03184672862930759,-0.026521010847615573,-0.0024665187084180994,-0.03757008871348971,0,70,255.0,255.0,255.0
21,1.05,-4.51304950051512,-13.501213097116896,-0.017039013062920254,-0.02564952629131516,-0.0023145557882569244,-0.03370807429876282,-0.02631045391186994,-0.0019235476644902621,-0.036883738064719465,0,70,255.0,255.0,255.0
22,1.1,-4.514364777165019,-13.501331003102955,-0.01877023547100231,-0.026959785063515013,-0.002397158895383242,-0.03553510243577954,-0.02609989697612431,-0.001380576620562425,-0.03619738741594921,0,70,255.0,255.0,255.0
23,1.1500000000000001,-4.515745303557358,-13.501452360530564,-0.020591951347624236,-0.02825951598892759,-0.002452613450313167,-0.037327813040357746,-0.025889340040378676,-0.0008376055766345875,-0.03551103676717896,0,70,255.0,255.0,255.0
24,1.2000000000000002,-4.517190553299798,-13.501575811972115,-0.022502444816164115,-0.029548719067552884,-0.0024809194530467007,-0.03908620611249744,-0.025678783104633045,-0.00029463453270675045,-0.03482468611840871,0,70,255.0,255.0,255.0
25,1.25,-4.5187,-13.5017,-0.0245,-0.030827394299390895,-0.002482076903583842,-0.04081028165219861,-0.02546822616888733,0.00024833651122110195,-0.03413833546963846,0,70,255.0,255.0,255.0
26,1.3,-4.52027318315254,-13.50182449135486,-0.026582631854775177,-0.032099494899374914,-0.002511535897261112,-0.04248388959537213,-0.02541579783047345,-0.0014266962583119021,-0.03280598225730208,0,70,255.0,255.0,255.0
27,1.35,-4.521909905799656,-13.501952549450367,-0.028747278665193603,-0.033368974082438246,-0.002624746529415032,-0.04409087987792882,-0.025363369492059574,-0.003101729027844906,-0.0314736290449657,0,70,255.0,255.0,255.0
28,1.4000000000000001,-4.523610036870502,-13.502088361868442,-0.030990609548224447,-0.03463583184858087,-0.002821708800045603,-0.0456312524998687,-0.025310941153645693,-0.00477676179737791,-0.03014127583262932,0,70,255.0,255.0,255.0
29,1.4500000000000002,-4.525373445294232,-13.502236116191014,-0.033309293620836865,-0.035900068197802816,-0.0031024227091528238,-0.04710500746119176,-0.025258512815231816,-0.006451794566910914,-0.02880892262029294,0,70,255.0,255.0,255.0
30,1.5,-4.5272,-13.5024,-0.0357,-0.037161683130104047,-0.0034668882567366927,-0.04851214476189799,-0.02520608447681777,-0.0081268273364439,-0.027476569407956453,0,70,255.0,255.0,255.0
31,1.55,-4.529089766874721,-13.502582537463658,-0.03816085951797907,-0.038432494111180396,-0.00381530062270356,-0.049940367319748706,-0.02562635476623617,-0.005809667302230792,-0.029652332906072245,0,70,255.0,255.0,255.0
32,1.6,-4.53104359963636,-13.502779599095577,-0.040695849868223305,-0.03972431860672767,-0.004047854986959773,-0.05147737805250522,-0.02604662505565457,-0.003492507268017684,-0.03182809640418804,0,70,255.0,255.0,255.0
33,1.6500000000000001,-4.533062548960636,-13.50298539199566,-0.04331041045947802,-0.041037156616745854,-0.004164551349505329,-0.05312317696016751,-0.026466895345072974,-0.0011753472338045757,-0.034003859902303826,0,70,255.0,255.0,255.0
34,1.7000000000000002,-4.535147665523274,-13.50319412326383,-0.04600998070048849,-0.04237100814123496,-0.00416538971034023,-0.0548777640427356,-0.026887165634491374,0.0011418128004085318,-0.03617962340041962,0,70,255.0,255.0,255.0
35,1.75,-4.5373,-13.5034,-0.0488,-0.04372587318019498,-0.004050370069464477,-0.056741139300209464,-0.02730743592390983,0.0034589728346216264,-0.03835538689853535,0,70,255.0,255.0,255.0
36,1.8,-4.539519749348574,-13.5035989587905,-0.0516843300733086,-0.04505052865590856,-0.0039232616119175695,-0.058618641125633066,-0.02567878310463312,0.001625365467254673,-0.03674468611840873,0,70,255.0,255.0,255.0
37,1.85,-4.541803695654908,-13.503793854167329,-0.054660521861913204,-0.04629375149065829,-0.0038878335227390095,-0.060415607912050334,-0.024050130285356405,-0.00020824190011228035,-0.03513398533828211,0,70,255.0,255.0,255.0
38,1.9000000000000001,-4.544147767286956,-13.503989270148912,-0.05772454861386353,-0.0474555416844442,-0.003944085801928798,-0.062132039659461284,-0.022421477466079694,-0.0020418492674792333,-0.033523284558155494,0,70,255.0,255.0,255.0
39,1.9500000000000002,-4.54654789261267,-13.504189790753662,-0.060872383577209234,-0.04853589923726626,-0.004092018449486933,-0.06376793636786589,-0.02079282464680298,-0.003875456634846187,-0.03191258377802887,0,70,255.0,255.0,255.0
40,2.0,-4.549,-13.5044,-0.0641,-0.049534824149124496,-0.004331631465413416,-0.06532329803726417,-0.019164171827526277,-0.005709064002213125,-0.03030188299790204,0,70,255.0,255.0,255.0
41,2.0500000000000003,-4.551501635730985,-13.504623227374344,-0.06740422018878661,-0.05054939126519282,-0.004587652929640777,-0.06684906817771903,-0.02141851281520656,-0.004531794566881257,-0.030728922620292743,0,70,255.0,255.0,255.0
42,2.1,-4.55405681774401,-13.504857784235101,-0.0707852626841239,-0.05167667543064515,-0.004784810922101542,-0.06839619029929345,-0.02367285380288682,-0.0033545251315493982,-0.031155962242683445,0,70,255.0,255.0,255.0
43,2.15,-4.55667118189154,-13.50510072740869,-0.07424419508506792,-0.0529166766454815,-0.0049231054427957156,-0.06996466440198737,-0.025927194790567085,-0.00217725569621754,-0.031583001865074144,0,70,255.0,255.0,255.0
44,2.2,-4.559350364026048,-13.50534911372152,-0.07778208499067464,-0.05426939490970186,-0.005002536491723296,-0.07155449048580087,-0.028181535778247363,-0.0009999862608856712,-0.03201004148746485,0,70,255.0,255.0,255.0
45,2.25,-4.5621,-13.5056,-0.0814,-0.055734830223306234,-0.005023104068884282,-0.07316566855073385,-0.030435876765927294,0.0001772831744461939,-0.032437081109855215,0,70,255.0,255.0,255.0
46,2.3000000000000003,-4.564924107727485,-13.505851331712131,-0.0850987891715451,-0.05721590628331702,-0.005038126669512803,-0.07478508616349072,-0.0288071656345038,-0.0007781871995870128,-0.032339623400419557,0,70,255.0,255.0,255.0
47,2.35,-4.567820233369056,-13.506104608892263,-0.08887842740159121,-0.058615546786756616,-0.005100922788842984,-0.07639963089077581,-0.027178454503080315,-0.001733657573620211,-0.032242165690983905,0,70,255.0,255.0,255.0
48,2.4000000000000004,-4.570784305146885,-13.506362220216328,-0.09273867104586483,-0.05993375173362505,-0.005211492426874824,-0.07800930273258912,-0.02554974337165682,-0.0026891279476534175,-0.03214470798154825,0,70,255.0,255.0,255.0
49,2.45,-4.573812251283142,-13.506626554360261,-0.09667927646009228,-0.0611705211239223,-0.005369835583608325,-0.07961410168893064,-0.023921032240233335,-0.003644598321686616,-0.032047250272112596,0,70,255.0,255.0,255.0
50,2.5,-4.5769,-13.5069,-0.1007,-0.06232585495764838,-0.005575952259043486,-0.08121402775980037,-0.022292321108809632,-0.004600068695719849,-0.031949792562676715,0,70,255.0,255.0,255.0
51,2.5500000000000003,-4.580044333359076,-13.507184245777129,-0.10480062312503312,-0.06345098360153902,-0.005787840392308491,-0.08281058716831802,-0.022712824646815545,-0.0038754566348802953,-0.0319125837780289,0,70,255.0,255.0,255.0
52,2.6,-4.58324544877977,-13.507478180195847,-0.10898102770951126,-0.06459713742232993,-0.005963497922531516,-0.08440528613760326,-0.023133328184821455,-0.003150844574040748,-0.03187537499338109,0,70,255.0,255.0,255.0
53,2.6500000000000004,-4.586504397520925,-13.507779991725998,-0.11324112073147292,-0.06576431642002116,-0.006102924849712565,-0.08599812466765613,-0.02355383172282737,-0.002426232513201195,-0.031838166208733275,0,70,255.0,255.0,255.0
54,2.7,-4.589822230841386,-13.508087868837436,-0.11758080916895634,-0.06695252059461267,-0.006206121173851636,-0.08758910275847659,-0.02397433526083328,-0.0017016204523616477,-0.031800957424085466,0,70,255.0,255.0,255.0
55,2.75,-4.5932,-13.5084,-0.122,-0.06816174994610448,-0.0062730868949487295,-0.08917822041006465,-0.024394838798839635,-0.0009770083915221148,-0.03176374863943754,0,70,255.0,255.0,255.0
56,2.8000000000000003,-4.596638558836212,-13.50871488517935,-0.12649871832832257,-0.06938015931053103,-0.006322511761258072,-0.09077256516323721,-0.02434153577822229,-0.0009999862608515613,-0.03201004148746498,0,70,255.0,255.0,255.0
57,2.85,-4.600137971511869,-13.509032270324349,-0.13107746176036372,-0.07059590352392671,-0.006373085521033885,-0.09237922455881116,-0.024288232757604944,-0.0010229641301810076,-0.03225633433549242,0,70,255.0,255.0,255.0
58,2.9000000000000004,-4.60369810476942,-13.509352212879678,-0.1357368460282437,-0.07180898258629154,-0.006424808174276172,-0.09399819859678646,-0.024234929736987598,-0.0010459419995104539,-0.032502627183519865,0,70,255.0,255.0,255.0
59,2.95,-4.607318825351315,-13.509674770290003,-0.14047748686408243,-0.07301939649762547,-0.0064776797209849316,-0.09562948727716315,-0.024181626716370253,-0.0010689198688399002,-0.0327489200315473,0,70,255.0,255.0,255.0
60,3.0,-4.611,-13.51,-0.1453,-0.07422714525792855,-0.006531700161160162,-0.09727309059994119,-0.024128323695752685,-0.0010918977381693465,-0.03299521287957452,0,70,255.0,255.0,255.0
61,3.0500000000000003,-4.614741431296077,-13.510328213505472,-0.1502045035616768,-0.07542837915632863,-0.006602112562656674,-0.09889915217873335,-0.023921032240250127,-0.0017245983216911055,-0.0320472502721119,0,70,255.0,255.0,255.0
62,3.1,-4.618542665172754,-13.510660738506752,-0.1551891252490338,-0.07661924848195358,-0.0067041599933292725,-0.10047781562715237,-0.023713740784747573,-0.0023572989052128594,-0.031099287664649287,0,70,255.0,255.0,255.0
63,3.1500000000000004,-4.622403183401392,-13.510999156755291,-0.16025149515555248,-0.07779975323480338,-0.006837842453177961,-0.1020090809451983,-0.023506449329245015,-0.0029899994887346184,-0.030151325057186665,0,70,255.0,255.0,255.0
64,3.2,-4.626322467753353,-13.511345050002555,-0.16538924337471408,-0.07896989341487806,-0.007003159942202734,-0.10349294813287105,-0.023299157873742458,-0.0036227000722563723,-0.029203362449724053,0,70,255.0,255.0,255.0
65,3.25,-4.6303,-13.5117,-0.1706,-0.08012966902217762,-0.007200112460403596,-0.10492941719017068,-0.023091866418240126,-0.004255400655778112,-0.02825539984226122,0,70,255.0,255.0,255.0
66,3.3000000000000003,-4.634335715979483,-13.512065060798754,-0.17588246742497046,-0.08130632406415447,-0.007397037988107832,-0.10638282612182935,-0.023974335260833594,-0.0036216204523912784,-0.02988095742408526,0,70,255.0,255.0,255.0
67,3.35,-4.638431367797118,-13.512439175648641,-0.18123963724350112,-0.08252710254826098,-0.007562274505642725,-0.1079175129325792,-0.024856804103427055,-0.0029878402490044506,-0.031506515005909286,0,70,255.0,255.0,255.0
68,3.4000000000000004,-4.642589161625011,-13.51282076009915,-0.1866755733495466,-0.08379200447449718,-0.0076958220130082765,-0.10953347762242029,-0.025739272946020526,-0.002354060045617617,-0.03313207258773333,0,70,255.0,255.0,255.0
69,3.45,-4.646811303635269,-13.51320822969977,-0.19219433963706134,-0.08510102984286304,-0.007797680510204486,-0.11123072019135255,-0.026621741788613987,-0.0017202798422307894,-0.03475763016955736,0,70,255.0,255.0,255.0
70,3.5,-4.6511,-13.5136,-0.1978,-0.08645417865335858,-0.007867849997231356,-0.113009240639376,-0.02750421063120756,-0.0010864996388439407,-0.036383187751381496,0,70,255.0,255.0,255.0
71,3.5500000000000003,-4.655456504785992,-13.513994743299506,-0.20349522673844148,-0.08779432458704792,-0.0079217354849226,-0.11478554333394923,-0.026101626716365615,-0.0010689198688057842,-0.03466892003154768,0,70,255.0,255.0,255.0
72,3.6,-4.659878263638775,-13.514392158898684,-0.20927712577696173,-0.08906434132499515,-0.007974741984111935,-0.11647613264253076,-0.02469904280152368,-0.001051340098767628,-0.03295465231171388,0,70,255.0,255.0,255.0
73,3.6500000000000004,-4.664361770098563,-13.514792202848108,-0.21514141144626137,-0.09026422886720029,-0.008026869494799364,-0.11808100856512062,-0.023296458886681738,-0.0010337603287294715,-0.031240384591880065,0,70,255.0,255.0,255.0
74,3.7,-4.668903517705566,-13.515194831198356,-0.22108379807704062,-0.09139398721366333,-0.008078118016984881,-0.11960017110171876,-0.021893874971839804,-0.0010161805586913152,-0.029526116872046267,0,70,255.0,255.0,255.0
75,3.75,-4.6735,-13.5156,-0.2271,-0.09245361636438428,-0.008128487550668494,-0.12103362025232524,-0.020491291056998207,-0.0009986007886531034,-0.027811849152212686,0,70,255.0,255.0,255.0
76,3.8000000000000003,-4.678148664876547,-13.51600796600322,-0.23318702562126387,-0.09350037758765334,-0.008196020072191341,-0.12245900054237364,-0.021379157873764126,-0.0017027000722608246,-0.02920336244972351,0,70,255.0,255.0,255.0
77,3.85,-4.682850777647779,-13.51642018875662,-0.239347059648652,-0.0945915321517607,-0.008298757557894576,-0.12395395649729758,-0.022267024690530036,-0.0024067993558685398,-0.03059487574723432,0,70,255.0,255.0,255.0
78,3.9000000000000004,-4.687608557980738,-13.516838428508413,-0.2455835808654082,-0.09572708005670635,-0.008436700007778197,-0.12551848811709707,-0.023154891507295956,-0.003110898639476261,-0.03198638904474514,0,70,255.0,255.0,255.0
79,3.95,-4.692424225542464,-13.517264445506802,-0.25190006805477627,-0.09690702130249028,-0.008609847421842202,-0.12715259540177212,-0.024042758324061865,-0.003814997923083976,-0.033377902342255954,0,70,255.0,255.0,255.0
80,4.0,-4.6973,-13.5177,-0.2583,-0.09813135588911251,-0.008818199800086591,-0.12885627835132268,-0.024930625140827667,-0.00451909720669165,-0.03476941563976821,0,70,255.0,255.0,255.0
81,4.05,-4.702237635707818,-13.518146192687611,-0.2647854707765032,-0.0993721650623478,-0.009022184226310393,-0.13054645449655586,-0.02470174178858442,-0.0036402798422604248,-0.03283763016955855,0,70,255.0,255.0,255.0
82,4.1000000000000005,-4.707237025770108,-13.518601486074827,-0.2713530356284305,-0.10060153006797097,-0.009182227784312635,-0.13214004136827856,-0.024472858436341168,-0.0027614624778291843,-0.03090584469934885,0,70,255.0,255.0,255.0
83,4.15,-4.7122975979784885,-13.519063683118238,-0.27799786509210594,-0.10181945090598195,-0.009298330474093314,-0.13363703896649073,-0.024243975084097924,-0.001882645113397959,-0.02897405922913919,0,70,255.0,255.0,255.0
84,4.2,-4.7174187801245795,-13.519530586774433,-0.2847151297038543,-0.10302592757638074,-0.00937049229565243,-0.13503744729119246,-0.024015091731854676,-0.0010038277489667342,-0.02704227375892953,0,70,255.0,255.0,255.0
85,4.25,-4.7226,-13.52,-0.2915,-0.10422096007916741,-0.009398713248989986,-0.13634126634238372,-0.023786208379611762,-0.0001250103845355094,-0.025110488288719646,0,70,255.0,255.0,255.0
86,4.3,-4.727840792292179,-13.520470463246337,-0.29834949127272314,-0.10541096216295359,-0.009427243022569804,-0.13765918147140285,-0.023813874971835625,-0.0010161805586571923,-0.027606116872046584,0,70,255.0,255.0,255.0
87,4.3500000000000005,-4.733141119271789,-13.520943466944068,-0.3052679978376264,-0.10660234757635098,-0.009500331304855707,-0.1391018780295884,-0.023841541564059487,-0.0019073507327788909,-0.030101745455373568,0,70,255.0,255.0,255.0
88,4.4,-4.738501050105309,-13.521421239018633,-0.31226175876616813,-0.10779511631935955,-0.009617978095847694,-0.14066935601694025,-0.02386920815628335,-0.002798520906900574,-0.032597374038700506,0,70,255.0,255.0,255.0
89,4.45,-4.7439206539592185,-13.521906007395465,-0.31933701312980656,-0.10898926839197931,-0.009780183395545762,-0.14236161543345846,-0.023896874748507213,-0.0036896910810222563,-0.03509300262202744,0,70,255.0,255.0,255.0
90,4.5,-4.7494,-13.5224,-0.3265,-0.11018480379421025,-0.009986947203949917,-0.144178656279143,-0.02392454134073052,-0.004580861255143939,-0.03758863120535372,0,70,255.0,255.0,255.0
91,4.55,-4.7549391951234625,-13.522904754327044,-0.3337549641326042,-0.1113839862858309,-0.010196843683406467,-0.1460008196178332,-0.024042758324095637,-0.0038149979231180573,-0.03529790234225444,0,70,255.0,255.0,255.0
92,4.6000000000000005,-4.760538497142735,-13.523419046148895,-0.34109817302106415,-0.11258907962661982,-0.010368446996261724,-0.14770844651336845,-0.024160975307460753,-0.003049134591092162,-0.03300717347915511,0,70,255.0,255.0,255.0
93,4.65,-4.766198201600277,-13.523940960807227,-0.34852389984322185,-0.11380008381657698,-0.010501757142515685,-0.14930153696574872,-0.02427919229082587,-0.00228327125906628,-0.030716444616055834,0,70,255.0,255.0,255.0
94,4.7,-4.771918604038547,-13.524468583643705,-0.35602641777691973,-0.11501699885570241,-0.010596774122168352,-0.15078009097497402,-0.024397409274190984,-0.0015174079270403986,-0.028425715752956552,0,70,255.0,255.0,255.0
95,4.75,-4.7777,-13.525,-0.3636,-0.11623982474399609,-0.010653497935219726,-0.15214410854104435,-0.024515626257555767,-0.0007515445950145305,-0.026134986889855716,0,70,255.0,255.0,255.0
96,4.800000000000001,-4.783542427213969,-13.525533719445484,-0.3712402521968601,-0.11745309269373094,-0.010697382243818407,-0.15347354005726402,-0.024015091731837728,-0.0010038277489326322,-0.027042273758930303,0,70,255.0,255.0,255.0
97,4.8500000000000005,-4.7894448921572685,-13.526069948460345,-0.37894811007811735,-0.11864133391717988,-0.01075388071011299,-0.1548483359169374,-0.023514557206119696,-0.0012561109028507295,-0.027949560628004876,0,70,255.0,255.0,255.0
98,4.9,-4.795406143493582,-13.52660931775246,-0.38672584186094466,-0.11980454841434292,-0.010822993334103477,-0.1562684961200645,-0.023014022680401664,-0.0015083940567688265,-0.02885684749707945,0,70,255.0,255.0,255.0
99,4.95,-4.801424929886598,-13.527152458029715,-0.3945757157625146,-0.12094273618522003,-0.010904720115789872,-0.15773402066664532,-0.022513488154683636,-0.0017606772106869238,-0.029764134366154018,0,70,255.0,255.0,255.0
100,5.0,-4.8075,-13.5277,-0.4025,-0.12205589722981126,-0.010999061055172168,-0.15924490955667986,-0.022012953628964715,-0.0020129603646049793,-0.030671421235227037,0,70,255.0,255.0,255.0
101,5.050000000000001,-4.81363029602066,-13.52825236789101,-0.41050082707995594,-0.12315564293924776,-0.011093627341312962,-0.16079302015311125,-0.021976874748494055,-0.0017696910810267134,-0.031253002622027556,0,70,255.0,255.0,255.0
102,5.1000000000000005,-4.819815534228192,-13.528809160009727,-0.4185797866664669,-0.12425358470466068,-0.011176030163274842,-0.16237020981888262,-0.0219407958680234,-0.001526421797448452,-0.03183458400882806,0,70,255.0,255.0,255.0
103,5.15,-4.8260556244253925,-13.529369768182937,-0.4267383327129999,-0.1253497225260501,-0.011246269521057806,-0.16397647855399405,-0.021904716987552742,-0.0012831525138701904,-0.032416165395628575,0,70,255.0,255.0,255.0
104,5.2,-4.832350476415063,-13.52993358423743,-0.4349779191730219,-0.12644405640341594,-0.011304345414661859,-0.16561182635844546,-0.021868638107082082,-0.0010398832302919289,-0.03299774678242909,0,70,255.0,255.0,255.0
105,5.25,-4.8387,-13.5305,-0.4433,-0.12753658633675827,-0.011350257844086999,-0.16727625323223694,-0.021832559226610426,-0.0007966139467136396,-0.03357932816922915,0,70,255.0,255.0,255.0
106,5.300000000000001,-4.845104388703391,-13.531068808990462,-0.4517052394833167,-0.12864433554927843,-0.011408108390931706,-0.16892237933029153,-0.022477409274195247,-0.0015174079270745286,-0.03226571575295337,0,70,255.0,255.0,255.0
107,5.3500000000000005,-4.851564970929967,-13.531641411500743,-0.46019114325601573,-0.1297843272641778,-0.011501998636794453,-0.1705028248075323,-0.023122259321780053,-0.002238201907435405,-0.030952103336677604,0,70,255.0,255.0,255.0
108,5.4,-4.858083358804849,-13.532219609515792,-0.46875442728705635,-0.13095656148145643,-0.011631928581675244,-0.17201758966395927,-0.023767109369364863,-0.002958995887796281,-0.02963849092040184,0,70,255.0,255.0,255.0
109,5.45,-4.864661164453154,-13.532805205020562,-0.47739180754539795,-0.13216103820111427,-0.01179789822557408,-0.17346667389957246,-0.024411959416949673,-0.003679789868157157,-0.02832487850412608,0,70,255.0,255.0,255.0
110,5.5,-4.8713,-13.5334,-0.4861,-0.13339775742315138,-0.011999907568490958,-0.17485007751437184,-0.025056809464534036,-0.0044005838485180054,-0.027011266087850094,0,70,255.0,255.0,255.0
111,5.550000000000001,-4.878000949165775,-13.534005196147136,-0.4948766149867778,-0.13463501486363214,-0.012201939094970119,-0.17622146252572196,-0.024433488154695874,-0.003680677210648301,-0.027844134366154683,0,70,255.0,255.0,255.0
112,5.6000000000000005,-4.884762982051938,-13.5346195939873,-0.5037228403094708,-0.135841106238621,-0.01236797528955579,-0.17763449095098732,-0.02381016684485772,-0.00296077057277861,-0.028677002644459257,0,70,255.0,255.0,255.0
113,5.65,-4.891584540355212,-13.535241393753893,-0.5126407581387751,-0.1370160315481179,-0.012498016152247979,-0.1790891627901679,-0.023186845535019568,-0.0022408639349089186,-0.02950987092276383,0,70,255.0,255.0,255.0
114,5.7,-4.898464065772325,-13.535868795680324,-0.5216324506453861,-0.13815979079212296,-0.012592061683046682,-0.1805854780432637,-0.022563524225181417,-0.0015209572970392273,-0.030342739201068405,0,70,255.0,255.0,255.0
115,5.75,-4.9054,-13.5365,-0.5307,-0.13927238397063607,-0.012650111881951902,-0.18212343671027473,-0.02194020291534393,-0.0008010506591695499,-0.03117560747937298,0,70,255.0,255.0,255.0
116,5.800000000000001,-4.912391014633506,-13.537133606420992,-0.5398451005695727,-0.14036760499619674,-0.01269613522918844,-0.1836797705668199,-0.02186863810708184,-0.0010398832302919248,-0.03107774678243236,0,70,255.0,255.0,255.0
117,5.8500000000000005,-4.9194367008622795,-13.537769812550062,-0.5490678955061012,-0.14145924778134425,-0.012754100204981094,-0.18523121138851797,-0.021797073298819747,-0.0012787158014142955,-0.030979886085491737,0,70,255.0,255.0,255.0
118,5.9,-4.9265368797743,-13.538409215468635,-0.5583681401578436,-0.14254731232607867,-0.01282400680932987,-0.18677775917536904,-0.021725508490557655,-0.001517548372536666,-0.030882025388551115,0,70,255.0,255.0,255.0
119,5.95,-4.933691372457548,-13.539052412258137,-0.5677455898730572,-0.14363179863040004,-0.01290585504223476,-0.18831941392737309,-0.021653943682295562,-0.0017563809436590369,-0.030784164691610494,0,70,255.0,255.0,255.0
120,6.0,-4.9409,-13.5397,-0.5772,-0.14471270669430825,-0.01299964490369577,-0.1898561756445301,-0.021582378874033914,-0.001995213514781366,-0.030686303994670094,0,70,255.0,255.0,255.0
121,6.050000000000001,-4.948162992300201,-13.54035237816889,-0.5867309827349323,-0.14581456515158253,-0.013093519988269346,-0.19137945520699995,-0.02249195941693697,-0.0017597898681616037,-0.030244878504123468,0,70,255.0,255.0,255.0
122,6.1000000000000005,-4.955482214498945,-13.541009155812455,-0.5963375776661247,-0.14696190263600195,-0.013175623890511932,-0.19288066349494248,-0.023401539959840012,-0.0015243662215418455,-0.02980345301357685,0,70,255.0,255.0,255.0
123,6.15,-4.962859940547587,-13.54166974437157,-0.606018681229851,-0.14815471914756653,-0.01324595661042353,-0.19435980050835763,-0.02431112050274305,-0.0012889425749220873,-0.02936202752303023,0,70,255.0,255.0,255.0
124,6.2,-4.9702984443974865,-13.542333555287124,-0.6157731898623849,-0.14939301468627625,-0.01330451814800414,-0.1958168662472455,-0.02522070104564609,-0.0010535189283023291,-0.02892060203248361,0,70,255.0,255.0,255.0
125,6.25,-4.9778,-13.543,-0.6256,-0.1506767892521311,-0.01335130850325376,-0.19725186071160603,-0.026130281588548465,-0.0008180952816826126,-0.028479176541936768,0,70,255.0,255.0,255.0
126,6.300000000000001,-4.985365816165691,-13.543668880903438,-0.6354981684906992,-0.1519421343974747,-0.013409784817722661,-0.19867440860518107,-0.02448352422519415,-0.001520957297073393,-0.028422739201064084,0,70,255.0,255.0,255.0
127,6.3500000000000005,-4.9929928411419455,-13.544341564200119,-0.6454673938294009,-0.15312514167465052,-0.0135034042329611,-0.20009413463171247,-0.022836766861839868,-0.0022238193124641615,-0.0283663018601914,0,70,255.0,255.0,255.0
128,6.4,-5.000676958035354,-13.54501980704508,-0.6555075349227529,-0.15422581108365865,-0.013632166748969077,-0.2015110387912002,-0.021190009498485585,-0.0029266813278549294,-0.028309864519318717,0,70,255.0,255.0,255.0
129,6.45,-5.008414049952508,-13.54570536659336,-0.6656184506774034,-0.1552441426244991,-0.013796072365746592,-0.2029251210836443,-0.0195432521351313,-0.0036295433432456973,-0.028253427178446033,0,70,255.0,255.0,255.0
130,6.5,-5.0162,-13.5464,-0.6758,-0.15618013629717176,-0.013995121083293647,-0.20433638150904476,-0.017896494771775906,-0.004332405358636451,-0.028196989837572684,0,70,255.0,255.0,255.0
131,6.550000000000001,-5.0240321430370365,-13.547104898217357,-0.6860523433022718,-0.15712089725852324,-0.014195340740850923,-0.20576291037227448,-0.01973394368228301,-0.0036763809436545047,-0.02886416469161511,0,70,255.0,255.0,255.0
132,6.6000000000000005,-5.031913620933278,-13.547818987387073,-0.6963768470162726,-0.15815353066540008,-0.014362759177659102,-0.20722279797820628,-0.021571392592790083,-0.00302035652867257,-0.029531339545657526,0,70,255.0,255.0,255.0
133,6.65,-5.039849027311002,-13.54854062744811,-0.7067751790791374,-0.15927803651780226,-0.01449737639371818,-0.20871604432684024,-0.023408841503297154,-0.0023643321136906353,-0.030198514399699943,0,70,255.0,255.0,255.0
134,6.7,-5.0478429557924835,-13.549268178339432,-0.7172490074280015,-0.16049441481572976,-0.014599192389028163,-0.21024264941817625,-0.025246290413804225,-0.0017083076987087003,-0.03086568925374236,0,70,255.0,255.0,255.0
135,6.75,-5.0559,-13.55,-0.7278,-0.16180266555918266,-0.014668207163589048,-0.21180261325221444,-0.027083739324311296,-0.0010522832837267515,-0.03153286410778389,0,70,255.0,255.0,255.0
136,6.800000000000001,-5.064023211686166,-13.550734726227137,-0.7384292583002141,-0.1631102765684316,-0.01472085221888807,-0.21336194990572116,-0.025220701045645885,-0.0010535189282341317,-0.030840602032483212,0,70,255.0,255.0,255.0
137,6.8500000000000005,-5.072209475124945,-13.551472086251595,-0.7491356181055094,-0.16432473566374725,-0.01477355905641246,-0.2148866734554628,-0.023357662766980505,-0.001054754572741512,-0.03014833995718255,0,70,255.0,255.0,255.0
138,6.9,-5.080454132720642,-13.552212083162482,-0.7599173487606977,-0.16544604284512965,-0.01482632767616222,-0.21637678390143938,-0.02149462448831513,-0.0010559902172488922,-0.029456077881881888,0,70,255.0,255.0,255.0
139,6.95,-5.088752526877559,-13.552954720048913,-0.7707727196105906,-0.16647419811257877,-0.01487915807813735,-0.21783228124365095,-0.01963158620964975,-0.0010572258617562724,-0.028763815806581224,0,70,255.0,255.0,255.0
140,7.0,-5.0971,-13.5537,-0.7817,-0.1674092014660946,-0.014932050262337848,-0.2192531654820975,-0.017768547930984147,-0.0010584615062636527,-0.028071553731279675,0,70,255.0,255.0,255.0
141,7.050000000000001,-5.105493410218304,-13.554448196874098,-0.7926978234968721,-0.16834199646774747,-0.015001250383576546,-0.22066129000484067,-0.0195432521351308,-0.0017095433432842903,-0.028253427178445457,0,70,255.0,255.0,255.0
142,7.1000000000000005,-5.1139356785669445,-13.555200667606554,-0.8037662805616901,-0.16936352667960766,-0.015103004596666277,-0.22207850819994207,-0.021317956339277418,-0.0023606251803049163,-0.02843530062561124,0,70,255.0,255.0,255.0
143,7.15,-5.122431241806435,-13.555959039901962,-0.8149058258780721,-0.1704737921016752,-0.015237312901607038,-0.22350482006740177,-0.02309266054342404,-0.0030117070173255422,-0.02861717407277702,0,70,255.0,255.0,255.0
144,7.2,-5.130984536697283,-13.556724941464914,-0.8261169141296362,-0.17167279273395006,-0.01540417529839883,-0.22494022560721974,-0.02486736474757066,-0.0036627888543461686,-0.028799047519942802,0,70,255.0,255.0,255.0
145,7.25,-5.1396,-13.5575,-0.8374,-0.17296052857643227,-0.015603591787041654,-0.22638472481939603,-0.026642068951717723,-0.00431387069136685,-0.028980920967107693,0,70,255.0,255.0,255.0
146,7.300000000000001,-5.148280747440621,-13.558285286276469,-0.8487554477122984,-0.17425773756057078,-0.015802146246795136,-0.2278328900749173,-0.025246290413821475,-0.0036283076987724387,-0.028945689253742034,0,70,255.0,255.0,255.0
147,7.3500000000000005,-5.157024610607276,-13.559079643322185,-0.8601832596477307,-0.17548515761781444,-0.0159664225569189,-0.22927929374477027,-0.023850511875925247,-0.0029427447061780394,-0.028910457540376376,0,70,255.0,255.0,255.0
148,7.4,-5.16582810005362,-13.559881357229667,-0.8716833477270141,-0.17664278874816328,-0.01609642071741294,-0.23072393582895492,-0.022454733338029022,-0.0022571817135836397,-0.02887522582701072,0,70,255.0,255.0,255.0
149,7.45,-5.17468772633331,-13.560688714091432,-0.883255623870865,-0.1777306309516173,-0.016192140728277266,-0.2321668163274713,-0.021058954800132795,-0.0015716187209892404,-0.028839994113645063,0,70,255.0,255.0,255.0
150,7.5,-5.1836,-13.5615,-0.8949,-0.17874868422817655,-0.016253582589511865,-0.23360793524031942,-0.019663176262237014,-0.0008860557283948967,-0.02880476240027985,0,70,255.0,255.0,255.0
151,7.550000000000001,-5.1925620000192145,-13.562313858020026,-0.9066163856539359,-0.17973105328997374,-0.01630216462926394,-0.2350471496954909,-0.01963158620964962,-0.001057225861688074,-0.028763815806579097,0,70,255.0,255.0,255.0
152,7.6000000000000005,-5.201573079003953,-13.563130359104706,-0.9184046808473878,-0.18071184284914152,-0.016359305175680672,-0.23648431682097734,-0.019599996157062226,-0.001228395994981248,-0.02872286921287834,0,70,255.0,255.0,255.0
153,7.65,-5.210633157979085,-13.563949931179371,-0.9302647832138721,-0.18169105290567994,-0.016425004228762065,-0.23791943661677875,-0.019568406104474835,-0.0013995661282744222,-0.02868192261917759,0,70,255.0,255.0,255.0
154,7.7,-5.2197421579694785,-13.564773002169359,-0.9421965903869043,-0.182668683459589,-0.016499261788508114,-0.2393525090828951,-0.01953681605188744,-0.0015707362615675962,-0.028640976025476838,0,70,255.0,255.0,255.0
155,7.75,-5.2289,-13.5656,-0.9542,-0.18364473451086868,-0.016582077854918824,-0.24078353421932644,-0.01950522599929916,-0.001741906394860715,-0.028600029431774976,0,70,255.0,255.0,255.0
156,7.800000000000001,-5.2381072524825205,-13.566431281643432,-0.9662750096719597,-0.1846580492795398,-0.01666919523614911,-0.24221851114311946,-0.02102736474754525,-0.0017427888543506298,-0.028799047519943912,0,70,255.0,255.0,255.0
157,7.8500000000000005,-5.247367073376912,-13.567266920258998,-0.9784220169627189,-0.18574747098562322,-0.01675635674035389,-0.24366343897132084,-0.022549503495791316,-0.0017436713138405447,-0.028998065608112845,0,70,255.0,255.0,255.0
158,7.9,-5.256683268030041,-13.568106918052848,-0.9906415194174986,-0.18691299962911892,-0.016843562367533163,-0.24511831770393072,-0.024071642244037385,-0.0017445537733304594,-0.02919708369628178,0,70,255.0,255.0,255.0
159,7.95,-5.26605964178878,-13.568951277231134,-1.0029340145815189,-0.18815463521002695,-0.016930812117686933,-0.246583147340949,-0.02559378099228345,-0.0017454362328203743,-0.029396101784450714,0,70,255.0,255.0,255.0
160,8.0,-5.2755,-13.5698,-1.0153,-0.18947237772834724,-0.0170181059908152,-0.24805792788237577,-0.027115919740529293,-0.0017463186923102891,-0.029595119872619202,0,70,255.0,255.0,255.0
161,8.05,-5.285006590050701,-13.57065301540625,-1.027739575658227,-0.19077274959186402,-0.017101054426147688,-0.24951880573203236,-0.024898954800141274,-0.0015716187209892738,-0.02883999411364314,0,70,255.0,255.0,255.0
162,8.1,-5.294575427488403,-13.571509959859306,-1.0402512513017375,-0.19196227320836134,-0.017175267862914127,-0.2509419272937401,-0.02268198985975333,-0.0013969187496682646,-0.028084868354667107,0,70,255.0,255.0,255.0
163,8.15,-5.304200969900754,-13.572370396609234,-1.052833139116135,-0.19304094857783935,-0.017240746301114513,-0.25232729256749903,-0.02046502491936531,-0.0012222187783472492,-0.02732974259569105,0,70,255.0,255.0,255.0
164,8.200000000000001,-5.313877674875403,-13.57323388890611,-1.0654833512870219,-0.19400877570029793,-0.017297489740748854,-0.2536749015533092,-0.018248059978977292,-0.001047518807026234,-0.026574616836714988,0,70,255.0,255.0,255.0
165,8.25,-5.3236,-13.5741,-1.0782,-0.19486575457573707,-0.01734549818181714,-0.25498475425117056,-0.016031095038589793,-0.0008728188357051692,-0.025819491077740064,0,70,255.0,255.0,255.0
166,8.3,-5.333363987314674,-13.574968656731563,-1.090981887695134,-0.19570695235299912,-0.017406587059248958,-0.25629826592875105,-0.017616816051891804,-0.001570736261567561,-0.026720976025477152,0,70,255.0,255.0,255.0
167,8.35,-5.343172016669478,-13.57584124030378,-1.1038305778303317,-0.19662743618092623,-0.017502571807973894,-0.2576568518537183,-0.01920253706519376,-0.0022686536874299288,-0.02762246097321421,0,70,255.0,255.0,255.0
168,8.4,-5.353028052366945,-13.576719495510217,-1.1167483241179623,-0.1976272060595185,-0.017633452427991952,-0.25906051202607244,-0.02078825807849577,-0.0029665711132923207,-0.028523945920951296,0,70,255.0,255.0,255.0
169,8.450000000000001,-5.362936058709607,-13.577605167144434,-1.1297373802703956,-0.19870626198877586,-0.017799228919303127,-0.2605092464458134,-0.02237397909179778,-0.0036644885391547127,-0.02942543086868838,0,70,255.0,255.0,255.0
170,8.5,-5.3729,-13.5785,-1.1428,-0.19986460396869826,-0.01799990128190742,-0.26200305511294125,-0.02395970010509929,-0.004362405965017024,-0.03032691581642455,0,70,255.0,255.0,255.0
171,8.55,-5.382923060690602,-13.579405157667498,-1.155937673561238,-0.20105544099613337,-0.018200597336854096,-0.2634961305529632,-0.02367378099230448,-0.0036654362328499847,-0.029396101784452077,0,70,255.0,255.0,255.0
172,8.6,-5.393005305833685,-13.580319478925576,-1.1691488373769363,-0.2022319820679287,-0.018366444905192417,-0.26494266529138644,-0.023387861879509676,-0.0029684665006829694,-0.028465287752479636,0,70,255.0,255.0,255.0
173,8.65,-5.403146020631467,-13.581241221349908,-1.1824311644120162,-0.20339422718408434,-0.018497443986922393,-0.26634265932821116,-0.023101942766714866,-0.0022714967685159297,-0.02753447372050716,0,70,255.0,255.0,255.0
174,8.700000000000001,-5.413344490286167,-13.582168642516157,-1.195782327631398,-0.2045421763446002,-0.018593594582044015,-0.2676961126634372,-0.02281602365392005,-0.00157452703634889,-0.02660365968853469,0,70,255.0,255.0,255.0
175,8.75,-5.4236,-13.5831,-1.2092,-0.20567582954947633,-0.018654896690557282,-0.2690030252970646,-0.02253010454112525,-0.0008775573041818197,-0.02567284565656225,0,70,255.0,255.0,255.0
176,8.8,-5.433911769922917,-13.58403391259845,-1.2226826180599162,-0.2067912836624783,-0.018703023593336632,-0.27030921185939655,-0.022088059978951597,-0.0010475188069921006,-0.026574616836715772,0,70,255.0,255.0,255.0
177,8.85,-5.444278759995779,-13.584970443993921,-1.236231672661923,-0.2078846355473715,-0.018759648571256494,-0.27166048698073614,-0.021646015416777957,-0.0012174803098023755,-0.027476388016869264,0,70,255.0,255.0,255.0
178,8.9,-5.454699865107185,-13.585910019090162,-1.249849418233973,-0.20895588520415603,-0.018824771624316866,-0.27305685066108354,-0.0212039708546043,-0.0013874418126126565,-0.028378159197022787,0,70,255.0,255.0,255.0
179,8.950000000000001,-5.465173980145726,-13.586853062790937,-1.2635381092040154,-0.21000503263283193,-0.01889839275251776,-0.27449830290043853,-0.020761926292430646,-0.0015574033154229375,-0.029279930377176307,0,70,255.0,255.0,255.0
180,9.0,-5.4757,-13.5878,-1.2773,-0.21103207783339914,-0.018980511955859165,-0.2759848436988011,-0.020319881730256784,-0.0017273648182332957,-0.0301817015573298,0,70,255.0,255.0,255.0
181,9.05,-5.486277059617734,-13.588751191938698,-1.2911366541991,-0.2120514243539502,-0.01906730828979398,-0.27747502200945146,-0.02045397909178477,-0.0017444885391591782,-0.02942543086868373,0,70,255.0,255.0,255.0
182,9.1,-5.496905254183196,-13.589706745098747,-1.3050468719753712,-0.2130774757425776,-0.01915496080977508,-0.2789273867856695,-0.020588076453312752,-0.0017616122600850601,-0.028669160180037696,0,70,255.0,255.0,255.0
183,9.15,-5.507584918939792,-13.590666702289445,-1.3190287626520931,-0.21411023199928148,-0.019243469515802483,-0.2803419380274552,-0.02072217381484074,-0.0017787359810109429,-0.02791288949139163,0,70,255.0,255.0,255.0
184,9.200000000000001,-5.518316389130925,-13.591631106320094,-1.3330804355525432,-0.2151496931240617,-0.01933283440787618,-0.2817186757348087,-0.020856271176368728,-0.0017958597019368254,-0.027156618802745565,0,70,255.0,255.0,255.0
185,9.25,-5.5291,-13.5926,-1.3472,-0.21619585911691833,-0.019423055485996165,-0.2830575999077297,-0.020990368537897153,-0.0018129834228627628,-0.02640034811409908,0,70,255.0,255.0,255.0
186,9.3,-5.53993599160615,-13.59357331964675,-1.3613859651436853,-0.21724301892171474,-0.01950774324747731,-0.2843827001027957,-0.02089602365395886,-0.001574527036382991,-0.026603659688539064,0,70,255.0,255.0,255.0
187,9.35,-5.550824223271435,-13.594550575611091,-1.3756384394365915,-0.2182854614823142,-0.019580508189634464,-0.2857179658765836,-0.020801678770020572,-0.0013360706499032276,-0.02680697126297904,0,70,255.0,255.0,255.0
188,9.4,-5.561764459133645,-13.595531171752057,-1.3899579311576553,-0.2193231867987168,-0.019641350312467633,-0.2870633972290936,-0.02070733388608228,-0.001097614263423456,-0.02701028283741902,0,70,255.0,255.0,255.0
189,9.450000000000001,-5.5727564633305695,-13.596514511928682,-1.4043449485858133,-0.22035619487092248,-0.01969026961597681,-0.28841899416032557,-0.020612989002143988,-0.000859157876943684,-0.027213594411859002,0,70,255.0,255.0,255.0
190,9.5,-5.5838,-13.5975,-1.4188,-0.22138448569893118,-0.019727266100162,-0.28978475667027953,-0.020518644118206142,-0.0006207014904638652,-0.0274169059863012,0,70,255.0,255.0,255.0
191,9.55,-5.594894973957668,-13.5984875294743,-1.4333234852261598,-0.22241649995919668,-0.01978171872030832,-0.2911541775793665,-0.02076192629241374,-0.0015574033153888578,-0.02735993037717721,0,70,255.0,255.0,255.0
192,9.600000000000001,-5.606041852731065,-13.599478952456886,-1.447915370278263,-0.2234606783281726,-0.01988300643170089,-0.2925207497079973,-0.021005208466621336,-0.0024941051403138503,-0.027302954768053223,0,70,255.0,255.0,255.0
193,9.65,-5.617241244525629,-13.600476610702321,-1.4625755127172855,-0.2245170208058588,-0.020031129234339702,-0.2938844730561718,-0.021248490640828923,-0.0034308069652388097,-0.027245979158929234,0,70,255.0,255.0,255.0
194,9.700000000000001,-5.628493757546797,-13.601482845965172,-1.4773037701042058,-0.22558552739225546,-0.02022608712822477,-0.2952453476238902,-0.02149177281503652,-0.0043675087901638016,-0.027189003549805246,0,70,255.0,255.0,255.0
195,9.75,-5.6398,-13.6025,-1.4921,-0.22666619808736244,-0.02046788011335608,-0.29660337341115234,-0.021735054989243885,-0.005304210615088706,-0.027132027940681258,0,70,255.0,255.0,255.0
196,9.8,-5.651160112563184,-13.603529362456054,-1.5069640939516762,-0.22773098124150234,-0.020693381871281606,-0.2979605895797379,-0.02085627117635179,-0.003715859701932339,-0.02715661880274043,0,70,255.0,255.0,255.0
197,9.850000000000001,-5.662572365804307,-13.604568014561368,-1.5218960794503593,-0.22875182520499765,-0.020839466083549318,-0.29931903529142645,-0.0199774873634597,-0.002127508788775972,-0.0271812096647996,0,70,255.0,255.0,255.0
198,9.9,-5.674034562763839,-13.605611985438648,-1.5368960179732039,-0.2297287299778483,-0.02090613275015921,-0.30067871054621786,-0.019098703550567635,-0.0005391578756196612,-0.02720580052685877,0,70,255.0,255.0,255.0
199,9.950000000000001,-5.685544506482247,-13.606657304210621,-1.551963970997366,-0.2306616955600544,-0.020893381871111283,-0.3020396153441123,-0.018219919737675543,0.0010491930375367059,-0.027230391388917943,0,70,255.0,255.0,255.0
200,10.0,-5.6971,-13.6077,-1.5671,-0.23155072195161588,-0.02080121344640554,-0.3034017496851097,-0.017341135924784146,0.002637543950693072,-0.027254982250976667,0,70,255.0,255.0,255.0
201,10.05,-5.7086997757896025,-13.608737420701477,-1.5823041389671364,-0.23245157507478964,-0.02070875379456277,-0.3047634641016807,-0.018692989002165893,0.001060842123017741,-0.02721359441186397,0,70,255.0,255.0,255.0
202,10.100000000000001,-5.72034628405171,-13.609772189297646,-1.5975763119203026,-0.2334200208518325,-0.020695129234103764,-0.30612310912629614,-0.020044842079547636,-0.0005158597046575901,-0.027172206572751278,0,70,255.0,255.0,255.0
203,10.15,-5.732042904419016,-13.610808247543076,-1.6129164153899,-0.2344560592827444,-0.020760339765028522,-0.30748068475895585,-0.021396695156929334,-0.002092561532332865,-0.027130818733638585,0,70,255.0,255.0,255.0
204,10.200000000000001,-5.743793016524216,-13.611849537192338,-1.6283243459063321,-0.23555969036752542,-0.020904385387337052,-0.30883619099966,-0.022748548234311078,-0.003669263360008196,-0.02708943089452589,0,70,255.0,255.0,255.0
205,10.25,-5.7556,-13.6129,-1.6438,-0.23673091410617553,-0.021127266101029343,-0.3101896278484084,-0.024100401311692998,-0.005245965187683499,-0.027048043055414084,0,70,255.0,255.0,255.0
206,10.3,-5.767466384278409,-13.613962554738038,-1.6593433501797792,-0.23791871845934368,-0.021367602950474674,-0.31154555401353895,-0.02341177281503163,-0.004367508790129647,-0.027189003549805694,0,70,255.0,255.0,255.0
207,10.350000000000001,-5.779391297988855,-13.615036028248047,-1.6749546728684328,-0.2390720913876787,-0.021564016980042313,-0.312908528203389,-0.02272314431837026,-0.003489052392575795,-0.0273299640441973,0,70,255.0,255.0,255.0
208,10.4,-5.791373019560096,-13.616118224389043,-1.6906343204671965,-0.24019103289118068,-0.021716508189732257,-0.31427855041795866,-0.022034515821708917,-0.002610595995021974,-0.027470924538588903,0,70,255.0,255.0,255.0
209,10.450000000000001,-5.803409827420892,-13.617206947020025,-1.7063826453773074,-0.2412755429698496,-0.021825076579544512,-0.31565562065724795,-0.02134588732504755,-0.001732139597468122,-0.027611885032980513,0,70,255.0,255.0,255.0
210,10.5,-5.8155,-13.6183,-1.7222,-0.2423256216236854,-0.02188972214947907,-0.3170397389212567,-0.02065725882838554,-0.0008536831999143013,-0.027752845527371228,0,70,255.0,255.0,255.0
211,10.55,-5.827641887096766,-13.619395560346375,-1.7380864603137478,-0.24334555108783643,-0.0219328344035384,-0.3184143198441639,-0.020139919737654246,-0.0008708069624588258,-0.027230391388917488,0,70,255.0,255.0,255.0
212,10.600000000000001,-5.839834123992875,-13.620493297710155,-1.754040996605968,-0.24433961359745085,-0.021976802845724952,-0.3197627780601485,-0.019622580646922957,-0.0008879307250033502,-0.026707937250463748,0,70,255.0,255.0,255.0
213,10.65,-5.852075417340601,-13.621593254900748,-1.7700623027413138,-0.2453078091525287,-0.02202162747603873,-0.32108511356921027,-0.019105241556191685,-0.000905054487547874,-0.02618548311201003,0,70,255.0,255.0,255.0
214,10.700000000000001,-5.864364473792219,-13.622695474727562,-1.7861490725844404,-0.24625013775307003,-0.022067308294479736,-0.32238132637134953,-0.018587902465460392,-0.0009221782500923985,-0.02566302897355629,0,70,255.0,255.0,255.0
215,10.75,-5.8767,-13.6238,-1.8023,-0.24716659939907473,-0.02211384530104797,-0.3236514164665659,-0.0180705633747269,-0.0009393020126368667,-0.02514057483510168,0,70,255.0,255.0,255.0
216,10.8,-5.8890812673345305,-13.624907203876463,-1.8185140085652305,-0.24809107718930132,-0.022181059435365063,-0.3249091666098065,-0.01890854823433653,-0.0017492633600467602,-0.025169430894522015,0,70,255.0,255.0,255.0
217,10.850000000000001,-5.9015098060396465,-13.626018780911325,-1.8347909407076972,-0.2490574542225084,-0.02228877163705265,-0.32616835955601814,-0.019746533093946163,-0.0025592247074566537,-0.025198286953942352,0,70,255.0,255.0,255.0
218,10.9,-5.913987711077497,-13.627136756007957,-1.8511308685675485,-0.25006573049869596,-0.022436981906110726,-0.3274289953052008,-0.020584517953555766,-0.003369186054866519,-0.025227143013362686,0,70,255.0,255.0,255.0
219,10.950000000000001,-5.9265170774102325,-13.628263154069725,-1.8675338642849333,-0.251115906017864,-0.0226256902425393,-0.3286910738573544,-0.021422502813165396,-0.004179147402276413,-0.02525599907278302,0,70,255.0,255.0,255.0
220,11.0,-5.9391,-13.6294,-1.884,-0.25220798078001244,-0.022854896646338364,-0.3299545952124791,-0.022260487672773888,-0.004989108749686277,-0.0252848551322038,0,70,255.0,255.0,255.0
221,11.05,-5.9517378435651125,-13.630548424147774,-1.9005295054253313,-0.253298140154958,-0.023070927855016264,-0.33122901371660884,-0.021345887325047285,-0.0036521395974295524,-0.025691885032984724,0,70,255.0,255.0,255.0
222,11.100000000000001,-5.96442905184854,-13.631705978644542,-1.9171232405632452,-0.2543425695125172,-0.023220110606081323,-0.3325237837157776,-0.02043128697732068,-0.002315170445172827,-0.02609891493376565,0,70,255.0,255.0,255.0
223,11.15,-5.977171338349408,-13.632869321067423,-1.933782222988493,-0.25534126885269004,-0.023302444899533547,-0.3338389052099854,-0.019516686629594108,-0.0009782012929161494,-0.02650594483454656,0,70,255.0,255.0,255.0
224,11.200000000000001,-5.989962416566852,-13.634035108993535,-1.9505074702758276,-0.2562942381754766,-0.023317930735372937,-0.33517437819923224,-0.018602086281867505,0.00035876785934057555,-0.026912974735327486,0,70,255.0,255.0,255.0
225,11.25,-6.0028,-13.6352,-1.9673,-0.2572014774808768,-0.023266568113599492,-0.33653020268351813,-0.017687485934140046,0.0016957370115973092,-0.027320004636110173,0,70,255.0,255.0,255.0
226,11.3,-6.0156825584050155,-13.63636149953244,-1.9841607697334454,-0.2581083621908668,-0.02319922914456198,-0.3379027785237597,-0.018587902465459397,0.0009978217499031616,-0.027583028973552096,0,70,255.0,255.0,255.0
227,11.350000000000001,-6.028611586566196,-13.637520504510507,-2.001090497039324,-0.25906026772742274,-0.023166785938609175,-0.33928850558087337,-0.019488318996778744,0.0002999064882090142,-0.02784605331099402,0,70,255.0,255.0,255.0
228,11.4,-6.0415893355248675,-13.638678759722353,-2.0180898394784808,-0.2600571940905447,-0.02316923849574108,-0.34068738385485914,-0.020388735528098063,-0.00039800877348510847,-0.028109077648435933,0,70,255.0,255.0,255.0
229,11.450000000000001,-6.054618056322361,-13.639838009956133,-2.0351594546117577,-0.2610991412802326,-0.023206586815957685,-0.3420994133457169,-0.021289152059417414,-0.001095924035179256,-0.028372101985877855,0,70,255.0,255.0,255.0
230,11.5,-6.0677,-13.641,-2.0523,-0.26218610929648634,-0.023278830899259004,-0.34352459405344693,-0.02218956859073451,-0.0017938392968734618,-0.02863512632332199,0,70,255.0,255.0,255.0
231,11.55,-6.080836722814822,-13.64216637772246,-2.0695114156408887,-0.2632764110815834,-0.023380155566738715,-0.3449198721883496,-0.021422502813147292,-0.0022591474023150103,-0.027175999072783497,0,70,255.0,255.0,255.0
232,11.600000000000001,-6.094027001886678,-13.643338403313429,-2.08679077127946,-0.2643283595778011,-0.02350474563949051,-0.3462421939607253,-0.020655437035560074,-0.0027244555077565588,-0.025716871822245004,0,70,255.0,255.0,255.0
233,11.65,-6.107268919551121,-13.644517240043164,-2.1041344190975857,-0.26534195478513944,-0.023652601117514372,-0.3474915593705741,-0.019888371257972888,-0.0031897636131980912,-0.024257744571706562,0,70,255.0,255.0,255.0
234,11.700000000000001,-6.12056055814371,-13.645704051181934,-2.1215387112771413,-0.2663171967035984,-0.02382372200081032,-0.348667968417896,-0.01912130548038567,-0.0036550717186396397,-0.02279861732116807,0,70,255.0,255.0,255.0
235,11.75,-6.1339,-13.6469,-2.139,-0.26725408533317796,-0.02401810828937833,-0.34977142110269094,-0.01835423970279848,-0.004120379824081033,-0.02133949007063185,0,70,255.0,255.0,255.0
236,11.8,-6.147285750335695,-13.648105789577716,-2.1565159677029997,-0.26817799348279464,-0.024208148588495768,-0.3508817327228402,-0.018602086281867616,-0.00348123214061631,-0.02307297473533734,0,70,255.0,255.0,255.0
237,11.850000000000001,-6.160718005887095,-13.649320282235779,-2.174089617842838,-0.2691142939613647,-0.02436623150343997,-0.3520787185762247,-0.018849932860936752,-0.0028420844571515873,-0.024806459400042828,0,70,255.0,255.0,255.0
238,11.9,-6.174197386270647,-13.650541880104988,-2.191725284131176,-0.2700629867688883,-0.024492357034210925,-0.3533623786628445,-0.01909777944000588,-0.0022029367736868875,-0.026539944064748258,0,70,255.0,255.0,255.0
239,11.950000000000001,-6.187724511102799,-13.651768985316133,-2.209427300279677,-0.2710240719053653,-0.02458652518080865,-0.35473271298269954,-0.019345626019075017,-0.0015637890902221647,-0.028273428729453747,0,70,255.0,255.0,255.0
240,12.0,-6.2013,-13.653,-2.2272,-0.27199754937079584,-0.02464873594323314,-0.3561897215357898,-0.019593472598145478,-0.0009246414067572706,-0.030006913394158286,0,70,255.0,255.0,255.0
241,12.05,-6.214924275842396,-13.654233663966682,-2.245046313547112,-0.2729716149872355,-0.024699250079281553,-0.3576491969202906,-0.019369152059438028,-0.00109592403517926,-0.02837210198587392,0,70,255.0,255.0,255.0
242,12.100000000000001,-6.228596974564942,-13.655470067743453,-2.262963557349189,-0.27393446457673964,-0.024758328346751065,-0.3590269317343773,-0.01914483152073058,-0.0012672066636012496,-0.026737290577589553,0,70,255.0,255.0,255.0
243,12.15,-6.242317535366288,-13.656709639536883,-2.2809476443777092,-0.2748860981393085,-0.024825970745641676,-0.3603229259780496,-0.01892051098202314,-0.001438489292023233,-0.025102479169305247,0,70,255.0,255.0,255.0
244,12.200000000000001,-6.256085397445091,-13.657952807553539,-2.298994487604154,-0.275826515674942,-0.024902177275953386,-0.36153717965130777,-0.01869619044331569,-0.0016097719204452225,-0.023467667761020883,0,70,255.0,255.0,255.0
245,12.25,-6.2699,-13.6592,-2.3171,-0.27675571718364006,-0.024986947937686195,-0.3626696927541517,-0.01847186990460825,-0.001781054548867289,-0.021832856352736574,0,70,255.0,255.0,255.0
246,12.3,-6.283761146294719,-13.660451554555557,-2.3352611781085524,-0.27769554656826445,-0.02507485109437398,-0.36378547959599933,-0.019121305480368375,-0.0017350717186441205,-0.02279861732116945,0,70,255.0,255.0,255.0
247,12.350000000000001,-6.29767009585314,-13.661707446790412,-2.3534793527604077,-0.2786678477316769,-0.02516045510955061,-0.36494955448626865,-0.0197707410561285,-0.0016890888884209519,-0.023764378289602324,0,70,255.0,255.0,255.0
248,12.4,-6.3116284722642,-13.662967561747488,-2.371756938357986,-0.2796726206738773,-0.02524375998321608,-0.36616191742495957,-0.020420176631888602,-0.0016431060581977848,-0.02473013925803516,0,70,255.0,255.0,255.0
249,12.450000000000001,-6.32563789911684,-13.66423178446971,-2.39009634930371,-0.28070986539486575,-0.025324765715370387,-0.36742256841207216,-0.021069612207648726,-0.0015971232279746164,-0.025695900226468036,0,70,255.0,255.0,255.0
250,12.5,-6.3397,-13.6655,-2.4085,-0.2817795818946422,-0.02540347230601354,-0.3687315074476063,-0.02171904778340883,-0.001551140397751477,-0.026661661194899544,0,70,255.0,255.0,255.0
251,12.55,-6.353815938978726,-13.666772117811087,-2.4269697740186804,-0.28285419873970463,-0.025481345543213733,-0.370056884695715,-0.021265626019088383,-0.001563789090256168,-0.02635342872944903,0,70,255.0,255.0,255.0
252,12.600000000000001,-6.3679850420225,-13.668048145094899,-2.445505431609184,-0.28390614449655105,-0.025559851215039158,-0.3713668503205512,-0.02081220425476794,-0.0015764377827608591,-0.026045196263998517,0,70,255.0,255.0,255.0
253,12.65,-6.382206175576911,-13.669328113473167,-2.4641062021903473,-0.2849354191651814,-0.02563898932148982,-0.37266140432211486,-0.02035878249044751,-0.00158908647526555,-0.025736963798548017,0,70,255.0,255.0,255.0
254,12.700000000000001,-6.396478206087548,-13.670612054567624,-2.4827713151810076,-0.2859420227455958,-0.025718759862565714,-0.37394054670040605,-0.019905360726127065,-0.001601735167770241,-0.025428731333097504,0,70,255.0,255.0,255.0
255,12.75,-6.4108,-13.6719,-2.5015,-0.2869259552377941,-0.025799162838266842,-0.3752042774554246,-0.019451938961805304,-0.0016143838602749316,-0.02512049886764789,0,70,255.0,255.0,255.0
256,12.8,-6.425170297790376,-13.6731919742001,-2.520291725816728,-0.2878796584729221,-0.025879766732783995,-0.37646698162114123,-0.01869619044331542,-0.0016097719204111237,-0.025387667761017068,0,70,255.0,255.0,255.0
257,12.850000000000001,-6.439587336056861,-13.674487972829997,-2.5391469208028594,-0.2887955742821256,-0.025960140030307957,-0.3777430442315264,-0.017940441924825534,-0.001605159980547316,-0.025654836654386243,0,70,255.0,255.0,255.0
258,12.9,-6.4540492254281565,-13.675787984359847,-2.5580662528806255,-0.28967370266540465,-0.026040282730838728,-0.37903246528657986,-0.017184693406335678,-0.0016005480406835082,-0.025922005547755412,0,70,255.0,255.0,255.0
259,12.950000000000001,-6.4685540765329685,-13.677091997259796,-2.577050389972262,-0.2905140436227592,-0.026120194834376307,-0.3803352447863019,-0.01642894488784579,-0.0015959361008197003,-0.02618917444112459,0,70,255.0,255.0,255.0
260,13.0,-6.4831,-13.6784,-2.5961,-0.2913165971541892,-0.02619987634092069,-0.3816513827306924,-0.015673196369356823,-0.0015913241609558648,-0.02645634333449509,0,70,255.0,255.0,255.0
261,13.05,-6.497686069859771,-13.679711985388526,-2.6152153227144077,-0.29213916736861373,-0.026279587525643956,-0.3829551888197167,-0.0172296122076242,-0.0015971232279746506,-0.02569590022647582,0,70,255.0,255.0,255.0
262,13.100000000000001,-6.512315213750061,-13.68102796358512,-2.6343948851793817,-0.29303955837495166,-0.026359588663718157,-0.38422097275334,-0.01878602804589158,-0.0016029222949934365,-0.02493545711845655,0,70,255.0,255.0,255.0
263,13.15,-6.526991322710464,-13.682347949087454,-2.6536367862871515,-0.2940177701732029,-0.0264398797551433,-0.3854487345315623,-0.0203424438841589,-0.001608721362012222,-0.024175014010437305,0,70,255.0,255.0,255.0
264,13.200000000000001,-6.54171828778058,-13.68367195639319,-2.672939124929948,-0.29507380276336753,-0.02652046079991938,-0.38663847415438374,-0.021898859722426278,-0.001614520429031008,-0.023414570902418035,0,70,255.0,255.0,255.0
265,13.25,-6.5565,-13.685,-2.6923,-0.2962076561454456,-0.026601331798046402,-0.38779019162180406,-0.02345527556069582,-0.0016203194960498768,-0.02265412779439835,0,70,255.0,255.0,255.0
266,13.3,-6.571339022770543,-13.686332084245803,-2.711718183325641,-0.2973396720526165,-0.02668188316464276,-0.3889442630999916,-0.021825360726139276,-0.0016017351678043687,-0.023508731333102176,0,70,255.0,255.0,255.0
267,13.350000000000001,-6.5862326089428995,-13.687668172829525,-2.7311951384796154,-0.2983901922180595,-0.02676150531482684,-0.3901410647551143,-0.02019544589158273,-0.0015831508395588605,-0.024363334871806,0,70,255.0,255.0,255.0
268,13.4,-6.601176683729986,-13.689008219290344,-2.7507330019707683,-0.29935921664177473,-0.026840198248598644,-0.39138059658717217,-0.01856553105702624,-0.0015645665113133533,-0.025217938410509795,0,70,255.0,255.0,255.0
269,13.450000000000001,-6.616167172344714,-13.690352177167444,-2.770333910307948,-0.30024674532376217,-0.026917961965958175,-0.3926628585961653,-0.016935616222469696,-0.0015459821830678452,-0.02607254194921362,0,70,255.0,255.0,255.0
270,13.5,-6.6312,-13.6917,-2.79,-0.3010527782640217,-0.026994796466905432,-0.3939878507820935,-0.015305701387914095,-0.0015273978548224765,-0.026927145487916082,0,70,255.0,255.0,255.0
271,13.55,-6.646272239058061,-13.693051677628267,-2.809732743983029,-0.3018461444209162,-0.02707287981579478,-0.39531575878031927,-0.016428944887863145,-0.0015959361007514836,-0.02618917444111667,0,70,255.0,255.0,255.0
272,13.600000000000001,-6.661385550478342,-13.694407345096785,-2.82953096090216,-0.30269567275280806,-0.027154390076980586,-0.3966067682262052,-0.017552188387812195,-0.001664474346680491,-0.025451203394317258,0,70,255.0,255.0,255.0
273,13.65,-6.676542742369591,-13.695767173751168,-2.849392805829777,-0.3036013632596974,-0.02723932725046283,-0.39786087911975104,-0.018675431887761204,-0.0017330125926094957,-0.02471323234751787,0,70,255.0,255.0,255.0
274,13.700000000000001,-6.691746622840561,-13.697131334937037,-2.8693164338382626,-0.30456321594158414,-0.02732769133624153,-0.39907809146095696,-0.019798675387710254,-0.001801550838538503,-0.02397526130071846,0,70,255.0,255.0,255.0
275,13.75,-6.707,-13.6985,-2.8893,-0.3055812307984684,-0.027419482334316677,-0.40025840524982287,-0.020921918887659263,-0.0018700890844675355,-0.023237290253918186,0,70,255.0,255.0,255.0
276,13.8,-6.7223048209972145,-13.699873205241131,-2.9093420407422457,-0.3066037502637203,-0.027506597572154998,-0.40142470177873124,-0.01997885972241463,-0.00161452042906516,-0.023414570902417522,0,70,255.0,255.0,255.0
277,13.850000000000001,-6.7376595891437345,-13.701250446783336,-2.929442617911748,-0.30757911677070987,-0.0275809343772232,-0.4025998623400647,-0.019035800557169996,-0.0013589517736627848,-0.023591851550916858,0,70,255.0,255.0,255.0
278,13.9,-6.7530619467916475,-13.702631085704974,-2.949602174710126,-0.3085073303194372,-0.027642492749521273,-0.40378388693382294,-0.018092741391925397,-0.0011033831182604185,-0.02376913219941619,0,70,255.0,255.0,255.0
279,13.950000000000001,-6.76850953629304,-13.704014483084409,-2.969821154339003,-0.30938839090990244,-0.027691272689049237,-0.4049767755600063,-0.017149682226680764,-0.0008478144628580432,-0.023946412847915526,0,70,255.0,255.0,255.0
280,14.0,-6.784,-13.7054,-2.9901,-0.31022229854210537,-0.027727274195807082,-0.40617852821861444,-0.016206623061437497,-0.0005922458074558712,-0.024123693496412635,0,70,255.0,255.0,255.0
281,14.05,-6.799531676953082,-13.706787501407204,-3.0104390930479905,-0.31105085452420306,-0.027780729895571885,-0.4073854341047552,-0.016935616222470362,-0.001545982183136199,-0.024152541949216833,0,70,255.0,255.0,255.0
282,14.100000000000001,-6.815105692946722,-13.70817886776987,-3.0308385674508536,-0.3119158601643524,-0.027881872414120705,-0.40859378241353617,-0.017664609383503227,-0.0024997185588165266,-0.02418139040202103,0,70,255.0,255.0,255.0
283,14.15,-6.830723870463818,-13.709576483428929,-3.051298495329721,-0.31281731546255337,-0.028030701751453533,-0.4098035731449573,-0.018393602544536064,-0.00345345493449682,-0.024210238854825226,0,70,255.0,255.0,255.0
284,14.200000000000001,-6.846388031987278,-13.710982732725327,-3.0718189488057264,-0.31375522041880605,-0.028227217907570386,-0.4110148062990187,-0.01912259570556893,-0.004407191310177147,-0.024239087307629425,0,70,255.0,255.0,255.0
285,14.25,-6.8621,-13.7124,-3.0924,-0.3147295750331103,-0.028471420882471246,-0.4122274818757202,-0.019851588866600878,-0.005360927685857386,-0.024267935760431847,0,70,255.0,255.0,255.0
286,14.3,-6.877861271190455,-13.713829589130045,-3.1130415870657955,-0.315720831639468,-0.028698482845579326,-0.413433561802249,-0.019798675387709606,-0.0037215508384657245,-0.02397526130071785,0,70,255.0,255.0,255.0
287,14.350000000000001,-6.893672039069381,-13.715268482137185,-3.1337431122848423,-0.31670944257188127,-0.028843575966317824,-0.414625008005792,-0.019745761908818337,-0.002082173991074063,-0.023682586841003852,0,70,255.0,255.0,255.0
288,14.4,-6.909532171353078,-13.716712580579303,-3.154503843970991,-0.3176954078303499,-0.028906700244686737,-0.41580182048634934,-0.01969284842992707,-0.00044279714368246,-0.023389912381289867,0,70,255.0,255.0,255.0
289,14.450000000000001,-6.925441535757851,-13.718157786014281,-3.175323050438094,-0.31867872741487396,-0.028887855680686067,-0.416963999243921,-0.019639934951035797,0.0011965797037092009,-0.023097237921575867,0,70,255.0,255.0,255.0
290,14.5,-6.9414,-13.7196,-3.1962,-0.3196594013254534,-0.02878704227431582,-0.4181115442785069,-0.019587021472143196,0.0028359565511009155,-0.02280456346186055,0,70,255.0,255.0,255.0
291,14.55,-6.957407238285095,-13.721036542072616,-3.2171345586888305,-0.3206258189179239,-0.02868933872210986,-0.4192803186862511,-0.01906968222667701,0.0010721855371373906,-0.023946412847905947,0,70,255.0,255.0,255.0
292,14.600000000000001,-6.973462150775754,-13.722470403681388,-3.2381289834097813,-0.3215663695481211,-0.028679823720602078,-0.4205061855632975,-0.01855234298121083,-0.0006915854768261343,-0.02508826223395134,0,70,255.0,255.0,255.0
293,14.65,-6.989563444123869,-13.723905994253855,-3.259186128786315,-0.322481053216045,-0.02875849726979247,-0.4217891449096462,-0.018035003735744667,-0.002455356490789597,-0.026230111619996697,0,70,255.0,255.0,255.0
294,14.700000000000001,-7.005709824981321,-13.725347723217547,-3.2803088494419006,-0.3233698699216956,-0.02892535936968104,-0.4231291967252972,-0.017517664490278483,-0.004219127504753122,-0.02737196100604209,0,70,255.0,255.0,255.0
295,14.75,-7.0219,-13.7268,-3.3015,-0.32423281966507284,-0.029180410020267774,-0.4245263410102504,-0.01700032524481143,-0.00598289851871639,-0.02851381039208567,0,70,255.0,255.0,255.0
296,14.8,-7.038132975669169,-13.728265842579491,-3.3227609781788843,-0.32508789268883287,-0.02944016226599011,-0.4258931634527433,-0.017202595705589997,-0.004407191310177044,-0.02615908730763229,0,70,255.0,255.0,255.0
297,14.850000000000001,-7.0544089578276,-13.729742703137259,-3.344087354076038,-0.3259530792356318,-0.029621129151285484,-0.42714224974101367,-0.017404866166368566,-0.0028314841016376987,-0.023804364223178907,0,70,255.0,255.0,255.0
298,14.9,-7.070728452151449,-13.73122664240528,-3.3654732408837487,-0.3268283793054697,-0.029723310676153886,-0.42827359987506125,-0.017607136627147125,-0.0012557768930984087,-0.021449641138725613,0,70,255.0,255.0,255.0
299,14.950000000000001,-7.0870919643168655,-13.732713721115536,-3.3869127517943065,-0.32771379289834657,-0.029746706840595324,-0.4292872138548862,-0.017809407087925694,0.0003199303154409368,-0.019094918054272228,0,70,255.0,255.0,255.0
300,15.0,-7.1035,-13.7342,-3.4084,-0.32860932001426235,-0.029691317644609794,-0.43018309168048846,-0.018011677548704697,0.0018956375239803924,-0.016740194969817157,0,70,255.0,255.0,255.0
301,15.05,-7.119952859038234,-13.735682487609417,-3.4299311285956335,-0.32950261032675554,-0.029614012213917552,-0.4310830275027735,-0.017719934951022503,0.0011965797037092286,-0.019257237921583705,0,70,255.0,255.0,255.0
302,15.100000000000001,-7.136450017913845,-13.737161983769575,-3.451510400286071,-0.3303813135093646,-0.02957165967423887,-0.4321088154726469,-0.017428192353340314,0.0004975218834380648,-0.021774280873350253,0,70,255.0,255.0,255.0
303,15.15,-7.152990747270339,-13.738640236125025,-3.4731441076786917,-0.3312454295620896,-0.029564260025573746,-0.4332604555901085,-0.01713644975565813,-0.0002015359368330743,-0.024291323825116715,0,70,255.0,255.0,255.0
304,15.200000000000001,-7.169574317751223,-13.740118992320316,-3.494838543380875,-0.3320949584849305,-0.02959181326792218,-0.43453794785515854,-0.016844707157975942,-0.0009005937571042381,-0.02680836677688326,0,70,255.0,255.0,255.0
305,15.25,-7.1862,-13.7416,-3.5166,-0.3329299002778872,-0.02965431940128417,-0.4359412922677968,-0.01655296456029509,-0.001599651577375405,-0.029325409728647056,0,70,255.0,255.0,255.0
306,15.3,-7.2028675881779,-13.74308500698284,-3.538432907438583,-0.3337816660041507,-0.029751788878338348,-0.4373587265361638,-0.017517664490244226,-0.002299127504791608,-0.02737196100603209,0,70,255.0,255.0,255.0
307,15.350000000000001,-7.219578970517024,-13.74457576178444,-3.5603342447796815,-0.33468166672691163,-0.029884232151763335,-0.43867848836840007,-0.01848236442019336,-0.002998603432207811,-0.025418512283417127,0,70,255.0,255.0,255.0
308,15.4,-7.236336558767199,-13.746074013094622,-3.5822991284014876,-0.33562990244617,-0.030051649221559125,-0.43990057776450553,-0.019447064350142457,-0.00369807935962399,-0.023465063560802232,0,70,255.0,255.0,255.0
309,15.450000000000001,-7.253142764678249,-13.747581509603203,-3.604322674682196,-0.3366263731619259,-0.030254040087725736,-0.44102499472448026,-0.02041176428009159,-0.004397555287040193,-0.021511614838187268,0,70,255.0,255.0,255.0
310,15.5,-7.27,-13.7491,-3.6264,-0.33767107887417924,-0.03049140475026314,-0.4420517392483242,-0.021376464210041135,-0.005097031214456177,-0.01955816611557193,0,70,255.0,255.0,255.0
311,15.55,-7.286909588250171,-13.750630284459229,-3.6485276416500354,-0.33869872565662956,-0.030706832272737444,-0.4430660663525704,-0.01972940708797244,-0.003520069684515886,-0.021014918054276265,0,70,255.0,255.0,255.0
312,15.600000000000001,-7.303868500018061,-13.752169369092666,-3.670707820595206,-0.3396440195829765,-0.03084341171871473,-0.4441532310537518,-0.01808234996590374,-0.0019431081545755952,-0.0224716699929806,0,70,255.0,255.0,255.0
313,15.65,-7.320872617660866,-13.753713311496492,-3.6929441787153596,-0.34050696065321995,-0.030901143088195006,-0.44531323335186845,-0.016435292843835103,-0.0003661466246353603,-0.023928421931684884,0,70,255.0,255.0,255.0
314,15.700000000000001,-7.337917823535782,-13.755258169266876,-3.715240357890342,-0.34128754886736,-0.030880026381178264,-0.4465460732469203,-0.014788235721766406,0.0012108149053049301,-0.02538517387038922,0,70,255.0,255.0,255.0
315,15.75,-7.355,-13.7568,-3.7376,-0.3419857842253966,-0.030780061597664513,-0.4478517507389073,-0.013141178599697767,0.0027877764352452483,-0.026841925809089506,0,70,255.0,255.0,255.0
316,15.8,-7.37211645882142,-13.758336255180254,-3.7600253259612773,-0.34268743136933816,-0.0306848820307111,-0.4491450080535565,-0.014924707157964104,0.001019406242891227,-0.02488836677687682,0,70,255.0,255.0,255.0
317,15.850000000000001,-7.389270229410733,-13.759869961844897,-3.782512872839496,-0.34347825494119305,-0.030678120973375387,-0.450340587416595,-0.01670823571623044,-0.0007489639494627945,-0.02293480774466413,0,70,255.0,255.0,255.0
318,15.9,-7.406465770589338,-13.761405540919418,-3.805057756737076,-0.34435825494096123,-0.030759778425657375,-0.4514384888280229,-0.018491764274496714,-0.002517334141816753,-0.020981248712451515,0,70,255.0,255.0,255.0
319,15.950000000000001,-7.423707541178628,-13.762947413329291,-3.827655093756438,-0.34532743136864275,-0.030929854387557066,-0.45243871228784016,-0.020275292832763053,-0.004285704334170775,-0.019027689680238827,0,70,255.0,255.0,255.0
320,16.0,-7.441,-13.7645,-3.8503,-0.34638578422423744,-0.031188348859074448,-0.4533412577960468,-0.022058821391027994,-0.0060540745265249,-0.017074130648024433,0,70,255.0,255.0,255.0
321,16.05,-7.458346176464155,-13.766066294819762,-3.872989454504858,-0.347447548866015,-0.031449639604413576,-0.4542579014332022,-0.02041176428007467,-0.004397555287040143,-0.019591614838191464,0,70,255.0,255.0,255.0
322,16.1,-7.475743382339009,-13.767643583527741,-3.8957278880468125,-0.34842696065224493,-0.03162810438777847,-0.455300419279866,-0.01876470716912135,-0.002741036047555387,-0.022109099028358496,0,70,255.0,255.0,255.0
323,16.150000000000002,-7.493187499981787,-13.769227724825841,-3.9185215943363376,-0.34932401958292714,-0.03172374320916912,-0.45646881133603806,-0.017117650058168028,-0.001084516808070631,-0.024626583218525528,0,70,255.0,255.0,255.0
324,16.2,-7.510674411749708,-13.770814577415958,-3.941376867083907,-0.35013872565806176,-0.03173655606858553,-0.4577630776017184,-0.015470592947214824,0.0005720024314140081,-0.027144067408692383,0,70,255.0,255.0,255.0
325,16.25,-7.5282,-13.7724,-3.9643,-0.3508710788776486,-0.031666542966027715,-0.4591832180769073,-0.01382353583626239,0.0022285216708985423,-0.029661551598861635,0,70,255.0,255.0,255.0
326,16.3,-7.545761235321963,-13.773980965540696,-3.9872952560192907,-0.3515863731665998,-0.031580559551623484,-0.46060738621363867,-0.01478823572178413,0.0012108149052707706,-0.02730517387039232,0,70,255.0,255.0,255.0
327,16.35,-7.5633594412332315,-13.775558904044134,-4.010358774973258,-0.35234990244982706,-0.031545461475500636,-0.4619137354639466,-0.015752935607305868,0.00019310813964299898,-0.024948796141923003,0,70,255.0,255.0,255.0
328,16.400000000000002,-7.580997029483518,-13.777136359777218,-4.033484665917579,-0.3531616667273304,-0.031561248737659184,-0.46310226582783104,-0.016717635492827607,-0.0008245986259847729,-0.022592418413453684,0,70,255.0,255.0,255.0
329,16.45,-7.598676411822535,-13.77871587700687,-4.056667037907932,-0.3540216659991098,-0.03162792133809911,-0.46417297730529194,-0.017682335378349276,-0.0018423053916124723,-0.020236040684984538,0,70,255.0,255.0,255.0
330,16.5,-7.6164,-13.7803,-4.0799,-0.35492990026516524,-0.031745479276820435,-0.4651258698963295,-0.01864703526387057,-0.0028600121572405213,-0.01787966295651655,0,70,255.0,255.0,255.0
331,16.55,-7.634169682247991,-13.781890643017444,-4.1031791214179805,-0.3558549584675812,-0.03187612218910498,-0.46604855371224774,-0.018355292832766597,-0.0023657043341411984,-0.019027689680212418,0,70,255.0,255.0,255.0
332,16.6,-7.651985252728066,-13.783487200295726,-4.126505812060163,-0.3567654295484419,-0.03198204971023456,-0.46702863886435075,-0.018063550401662624,-0.0018713965110418755,-0.02017571640390828,0,70,255.0,255.0,255.0
333,16.650000000000002,-7.669845982084144,-13.785088436065283,-4.149882941993353,-0.3576613135077475,-0.03206326184020917,-0.46806612535263853,-0.017771807970558648,-0.0013770886879425526,-0.02132374312760415,0,70,255.0,255.0,255.0
334,16.7,-7.687751140960147,-13.786693114556561,-4.173313381284361,-0.3585426103454977,-0.03211975857902881,-0.4691610131771111,-0.017480065539454696,-0.0008827808648432648,-0.022471769851299932,0,70,255.0,255.0,255.0
335,16.75,-7.7057,-13.7883,-4.1968,-0.35940932006169296,-0.03215153992669349,-0.4703133023377686,-0.01718832310835028,-0.0003884730417437199,-0.023619796574994467,0,70,255.0,255.0,255.0
336,16.8,-7.72369203568607,-13.789908462389523,-4.220345058308787,-0.360273792963082,-0.03219495169195162,-0.47148639893736144,-0.017390592947210327,-0.001347997568581452,-0.023304067408718505,0,70,255.0,255.0,255.0
337,16.85,-7.741727547854508,-13.791520294772969,-4.243948376786098,-0.361148379356414,-0.03228633968355164,-0.47264370907864045,-0.01759286278607038,-0.002307522095419184,-0.022988338242442542,0,70,255.0,255.0,255.0
338,16.900000000000002,-7.7598070421799115,-13.79313789596165,-4.267609166109014,-0.3620330792416891,-0.03242570390149355,-0.4737852327616057,-0.01779513262493043,-0.003267046622256916,-0.02267260907616658,0,70,255.0,255.0,255.0
339,16.95,-7.777931024336874,-13.794763664766888,-4.2913266369546195,-0.362927892618907,-0.03261304434577732,-0.47491096998625704,-0.017997402463790467,-0.00422657114909458,-0.02235687990989064,0,70,255.0,255.0,255.0
340,17.0,-7.7961,-13.7964,-4.3151,-0.36383281948806806,-0.032848361016403,-0.4760209207525948,-0.018199672302649628,-0.005186095675932312,-0.02204115074361601,0,70,255.0,255.0,255.0
341,17.05,-7.8143141750077305,-13.798048307424464,-4.3389286453468685,-0.36472986968009263,-0.033072071043092365,-0.4771258505383099,-0.01768233537833152,-0.0037623053916422864,-0.022156040684989886,0,70,255.0,255.0,255.0
342,17.1,-7.832572555853907,-13.799706020612406,-4.362812680795449,-0.36560105302590123,-0.03322459155556723,-0.4782365248210938,-0.01716499845401341,-0.002338515107352261,-0.022270930626363764,0,70,255.0,255.0,255.0
343,17.150000000000002,-7.850873849196217,-13.801369580088117,-4.386752393570597,-0.3664463695254939,-0.0333059225538276,-0.4793529436009463,-0.016647661529695303,-0.0009147248230622351,-0.02238582056773764,0,70,255.0,255.0,255.0
344,17.2,-7.869216761692351,-13.803035426375885,-4.410748070897161,-0.36726581917887074,-0.033316064037873454,-0.48047510687786754,-0.01613032460537723,0.0005090654612276884,-0.02250071050911151,0,70,255.0,255.0,255.0
345,17.25,-7.8876,-13.8047,-4.4348,-0.3680594019860316,-0.03325501600770483,-0.48160301465185745,-0.015612987681057788,0.0019328557455177697,-0.022615600450486273,0,70,255.0,255.0,255.0
346,17.3,-7.906022464283011,-13.806360707912624,-4.45890836030374,-0.36883872831654496,-0.03318076413568722,-0.48273019890940166,-0.015560065539476219,0.001037219135186505,-0.022471769851282717,0,70,255.0,255.0,255.0
347,17.35,-7.92448382872987,-13.80801882277741,-4.483072900032108,-0.3696154085399792,-0.03315129409418617,-0.4838501916369858,-0.01550714339789465,0.00014158252485524055,-0.02232793925207916,0,70,255.0,255.0,255.0
348,17.400000000000002,-7.942983961035225,-13.809676583685885,-4.507293259608606,-0.37038944265633444,-0.0331666058832017,-0.48496299283460964,-0.01545422125631308,-0.0007540540854760239,-0.022184108652875605,0,70,255.0,255.0,255.0
349,17.45,-7.961522728893719,-13.811336229729573,-4.531569079456736,-0.3711608306656105,-0.03322669950273378,-0.4860686025022733,-0.015401299114731516,-0.0016496906958072249,-0.02204027805367206,0,70,255.0,255.0,255.0
350,17.5,-7.9801,-13.813,-4.5559,-0.37192957256780756,-0.03333157495278241,-0.48716702063997674,-0.015348376973149058,-0.002545327306138212,-0.021896447454466283,0,70,255.0,255.0,255.0
351,17.55,-7.998715967860228,-13.814669660925041,-4.580285913438174,-0.3727152170537311,-0.033452872414163344,-0.4882733538240857,-0.01607740246379451,-0.0023065711490989982,-0.02235687990989064,0,70,255.0,255.0,255.0
352,17.6,-8.017372129226617,-13.816345088277952,-4.604727719076123,-0.37353731281418706,-0.033562232067692314,-0.4894027086309658,-0.01680642795443996,-0.0020678149920597844,-0.022817312365315003,0,70,255.0,255.0,255.0
353,17.650000000000002,-8.036070306662891,-13.818025685168346,-4.6292265679949836,-0.37439585984917517,-0.03365965391336933,-0.49055508506061724,-0.017535453445085412,-0.0018290588350205702,-0.02327774482073936,0,70,255.0,255.0,255.0
354,17.7,-8.054812322732776,-13.819710854705827,-4.6537836112758955,-0.37529085815869556,-0.03374513795119437,-0.4917304831130397,-0.01826447893573081,-0.0015903026779813733,-0.02373817727616369,0,70,255.0,255.0,255.0
355,17.75,-8.0736,-13.8214,-4.6784,-0.3762223077427483,-0.033818684181167465,-0.49292890278823354,-0.018993504426377594,-0.001351546520942326,-0.024198609731586274,0,70,255.0,255.0,255.0
356,17.8,-8.09243446427608,-13.823092648387219,-4.703075985943567,-0.3771484034685416,-0.033887746207660226,-0.494096385794251,-0.018050324605355324,-0.001410934538767917,-0.022500710509111576,0,70,255.0,255.0,255.0
357,17.85,-8.111314054363671,-13.824788824110781,-4.727808223663407,-0.3780273402032838,-0.03395977763504426,-0.4951789738391447,-0.017107144784333058,-0.001470322556593508,-0.020802811286636875,0,70,255.0,255.0,255.0
358,17.900000000000002,-8.130236412313224,-13.826488675640737,-4.752592468411463,-0.37885911794697497,-0.03403477846331957,-0.49617666692291473,-0.016163964963310788,-0.001529710574419099,-0.019104912064162177,0,70,255.0,255.0,255.0
359,17.95,-8.149199180175184,-13.828192351447129,-4.777424475439678,-0.3796437366996149,-0.034112748692486164,-0.4970894650455609,-0.015220785142288586,-0.0015890985922446857,-0.017407012841687598,0,70,255.0,255.0,255.0
360,18.0,-8.1682,-13.8299,-4.8023,-0.38038119646120383,-0.03419368832254403,-0.49791736820708343,-0.014277605321266762,-0.0016484866100702211,-0.015709113619211124,0,70,255.0,255.0,255.0
361,18.05,-8.18723737503546,-13.831611745526091,-4.82721654278756,-0.38112316907210336,-0.03427614275519097,-0.4987651029989057,-0.015401299114713767,-0.0016496906958070711,-0.018200278053679533,0,70,255.0,255.0,255.0
362,18.1,-8.206313253318706,-13.833327615278925,-4.852178586270253,-0.38192132637267523,-0.03435865739212474,-0.4997373960124514,-0.01652499290816077,-0.0016508947815439213,-0.020691442488147943,0,70,255.0,255.0,255.0
363,18.150000000000002,-8.225430444084223,-13.83504761226871,-4.877192358359167,-0.3827756683629195,-0.034441232233345366,-0.5008342472477205,-0.01764868670160778,-0.0016520988672807714,-0.023182606922616353,0,70,255.0,255.0,255.0
364,18.2,-8.24459175656649,-13.836771739505664,-4.902264086965387,-0.38368619504283596,-0.034523867278852816,-0.502055656704713,-0.018772380495054704,-0.0016533029530176214,-0.025673771357084582,0,70,255.0,255.0,255.0
365,18.25,-8.2638,-13.8385,-4.9274,-0.3846529064124249,-0.03460656252864712,-0.5034016243834288,-0.019896074288499932,-0.0016545070387543603,-0.028164935791546775,0,70,255.0,255.0,255.0
366,18.3,-8.283056835582084,-13.840232369508415,-4.9526042429061965,-0.3856069202430315,-0.03468768277156637,-0.5047472022101219,-0.018264478935764904,-0.0015903026780155417,-0.025658177276173928,0,70,255.0,255.0,255.0
367,18.35,-8.30235933236151,-13.841968714773522,-4.977872631255583,-0.3864793543060014,-0.034765592796448676,-0.5059674421110463,-0.016632883583029875,-0.0015260983172767232,-0.023151418760801085,0,70,255.0,255.0,255.0
368,18.400000000000002,-8.32170341134989,-13.843708875284426,-5.003198898151871,-0.38727020860133454,-0.03484029260329404,-0.507062344086202,-0.015001288230294847,-0.0014618939565379048,-0.020644660245428242,0,70,255.0,255.0,255.0
369,18.45,-8.341084993558848,-13.845452690530218,-5.028576776698773,-0.38797948312903086,-0.03491178219210246,-0.508031908135589,-0.013369692877559937,-0.0013976895957990908,-0.018137901730055576,0,70,255.0,255.0,255.0
370,18.5,-8.3605,-13.8472,-5.054,-0.3886071778890905,-0.03498006156287395,-0.5088761342592074,-0.011738097524824909,-0.0013334852350601611,-0.015631143214681842,0,70,255.0,255.0,255.0
371,18.55,-8.379945682636203,-13.848950776440255,-5.079464085587658,-0.38923314995576846,-0.03505312615855572,-0.5097020881606162,-0.01330078514229387,-0.0015890985922105065,-0.017407012841671256,0,70,255.0,255.0,255.0
372,18.6,-8.399424617235258,-13.850705525626987,-5.104971688707418,-0.3899372564033199,-0.035138971422094996,-0.5106168355433746,-0.01486347275976283,-0.0018447119493608516,-0.01918288246866067,0,70,255.0,255.0,255.0
373,18.650000000000002,-8.418940710516214,-13.852464886593593,-5.130527249033351,-0.39071949723174476,-0.0352375973534918,-0.5116203764074824,-0.01642616037723179,-0.0021003253065111967,-0.02095875209565009,0,70,255.0,255.0,255.0
374,18.7,-8.438497869198113,-13.854229498373467,-5.156135206239521,-0.39157987244104303,-0.035349003952746115,-0.5127127107529394,-0.01798884799470064,-0.002355938663661524,-0.02273462172263938,0,70,255.0,255.0,255.0
375,18.75,-8.4581,-13.856,-5.1818,-0.3925183820312148,-0.035473191219857945,-0.5138938385797464,-0.0195515356121696,-0.0026115520208117027,-0.02451049134962968,0,70,255.0,255.0,255.0
376,18.8,-8.47775003387311,-13.857776524730575,-5.207525014743178,-0.3934764799338954,-0.035579812594203675,-0.5151004451474138,-0.018772380495053996,-0.0016533029530175522,-0.02375377135706901,0,70,255.0,255.0,255.0
377,18.85,-8.497446998697459,-13.859557182718529,-5.233309413914748,-0.39439562008072027,-0.035638521515159706,-0.5162692157154533,-0.017993225377938394,-0.0006950538852234017,-0.022997051364508338,0,70,255.0,255.0,255.0
378,18.900000000000002,-8.517188946585254,-13.8613395783412,-5.259151305714729,-0.3952758024716893,-0.03564931798272602,-0.5174001502838647,-0.01721407026082279,0.0002631951825707488,-0.022240331371947666,0,70,255.0,255.0,255.0
379,18.95,-8.536973929648697,-13.863121315975913,-5.28504879834314,-0.39611702710680247,-0.03561220199690263,-0.518493248852648,-0.016434915143707242,0.0012214442503648312,-0.021483611379387046,0,70,255.0,255.0,255.0
380,19.0,-8.5568,-13.8649,-5.311,-0.3969192939860599,-0.03552717355768953,-0.5195485114218034,-0.015655760026590304,0.0021796933181590372,-0.020726891386826374,0,70,255.0,255.0,255.0
381,19.05,-8.576665381871358,-13.866674324637453,-5.3370030554396335,-0.3976929303086627,-0.03545962346463064,-0.5205681312497257,-0.015289692877521062,0.000522310404196412,-0.02005790173006704,0,70,255.0,255.0,255.0
382,19.1,-8.596568987974912,-13.868447343498891,-5.363056255633593,-0.39844826327381205,-0.03547494251726989,-0.5215543015948101,-0.014923625728451817,-0.0011350725097662132,-0.01938891207330771,0,70,255.0,255.0,255.0
383,19.150000000000002,-8.616509903142783,-13.870223200041607,-5.389157928107735,-0.3991852928815079,-0.03557313071560726,-0.5225070224570565,-0.014557558579382575,-0.0027924554237288386,-0.01871992241654838,0,70,255.0,255.0,255.0
384,19.200000000000003,-8.636487212207104,-13.87200603772288,-5.415306400387918,-0.39990401913175033,-0.035754188059642776,-0.523426293836465,-0.01419149143031333,-0.0044498383376914636,-0.018050932759789046,0,70,255.0,255.0,255.0
385,19.25,-8.6565,-13.8738,-5.4415,-0.4006044420245392,-0.036018114549376395,-0.5243121157330353,-0.013825424281242338,-0.006107221251653749,-0.017381943103028874,0,70,255.0,255.0,255.0
386,19.3,-8.676547638641459,-13.87560777671962,-5.46773796349829,-0.401303798831438,-0.03627769354725917,-0.5252190298536773,-0.014148847994709174,-0.004275938663656849,-0.01889462172264944,0,70,255.0,255.0,255.0
387,19.35,-8.696630649402906,-13.877426243285903,-5.494023163550884,-0.40201932682401015,-0.03644570841574209,-0.5262015779053002,-0.014472271708176008,-0.002444656075659949,-0.020407300342270007,0,70,255.0,255.0,255.0
388,19.400000000000002,-8.71674984084362,-13.87925082149237,-5.520359381854336,-0.40275102600225565,-0.03652215915482516,-0.5272597598879043,-0.014795695421642843,-0.0006133734876630492,-0.021919978961890574,0,70,255.0,255.0,255.0
389,19.450000000000003,-8.736906021522893,-13.881076933132562,-5.546750400105192,-0.4034988963661744,-0.03650704576450839,-0.5283935758014894,-0.015119119135109679,0.0012179091003338511,-0.023432657581511137,0,70,255.0,255.0,255.0
390,19.5,-8.7571,-13.8829,-5.5732,-0.40426293791576656,-0.03640036824479178,-0.5296030256460552,-0.01544254284857649,0.003049191688330788,-0.02494533620112893,0,70,255.0,255.0,255.0
391,19.55,-8.777332863562805,-13.88471696848406,-5.599710690567212,-0.4050598743655754,-0.03629360234632524,-0.5308117493355681,-0.01643491514377501,0.0012214442503307571,-0.023403611379382183,0,70,255.0,255.0,255.0
392,19.6,-8.797606814413472,-13.886530883357496,-5.6262798901628726,-0.4059064294301441,-0.036278223819758704,-0.5319433867839936,-0.01742728743897353,-0.0006063031876692737,-0.021861886557635435,0,70,255.0,255.0,255.0
393,19.650000000000002,-8.817924333482733,-13.888346313988903,-5.652903744474927,-0.40680260310947275,-0.03635423266509217,-0.5329979379913315,-0.018419659734172054,-0.002434050625669304,-0.020320161735888687,0,70,255.0,255.0,255.0
394,19.700000000000003,-8.83828790170133,-13.890167829746872,-5.679578399191322,-0.4077483954035613,-0.03652162888232564,-0.5339754029575824,-0.019412032029370575,-0.004261798063669335,-0.01877843691414194,0,70,255.0,255.0,255.0
395,19.75,-8.8587,-13.892,-5.7063,-0.4087438063124098,-0.036780412471459085,-0.5348757816827456,-0.02040440432456947,-0.006089545501669347,-0.01723671209239086,0,70,255.0,255.0,255.0
396,19.8,-8.87916170710732,-13.893845949344131,-5.733065674232864,-0.4097047037062799,-0.037043897067443106,-0.5357579728040501,-0.018031491430235358,-0.004449838337691335,-0.0180509327597875,0,70,255.0,255.0,255.0
397,19.85,-8.899668492943217,-13.895703023284106,-5.759876475797628,-0.4105469554554334,-0.037225396305228226,-0.5366808749587244,-0.015658578535901246,-0.002810131173713324,-0.018865153427184134,0,70,255.0,255.0,255.0
398,19.900000000000002,-8.920214425225453,-13.897567122552019,-5.786734440245961,-0.41127056155987013,-0.037324910184814444,-0.5376444881467686,-0.013285665641567135,-0.0011704240097353122,-0.019679374094580773,0,70,255.0,255.0,255.0
399,19.950000000000003,-8.940793571671794,-13.899434147879951,-5.813641603129529,-0.4118755220195901,-0.03734243870620176,-0.5386488123681825,-0.010912752747233022,0.0004692831542426985,-0.02049359476197741,0,70,255.0,255.0,255.0
400,20.0,-8.9614,-13.9013,-5.8406,-0.4123618368345934,-0.03727798186939017,-0.5396938476229661,-0.008539839852899078,0.0021089903182206493,-0.021307815429371324,0,70,255.0,255.0,255.0
401,20.05,-8.982029908007911,-13.903161634139414,-5.867611412501333,-0.41285731080929383,-0.037194809383925456,-0.5407643594482383,-0.01127911913511856,0.0012179091003679517,-0.021512657581514286,0,70,255.0,255.0,255.0
402,20.1,-9.002688013813664,-13.905020223506074,-5.894676606646618,-0.41348974874810523,-0.03715619095935338,-0.5418451133811175,-0.01401839841733804,0.00032682788251525404,-0.021717499733657247,0,70,255.0,255.0,255.0
403,20.150000000000002,-9.02338116561546,-13.906877995803029,-5.9217960945412385,-0.41425915065102764,-0.03716212659567393,-0.542936109421604,-0.01675767769955752,-0.0005642533353374438,-0.02192234188580021,0,70,255.0,255.0,255.0
404,20.200000000000003,-9.044116211611502,-13.908737178733325,-5.948970388290573,-0.415165516518061,-0.03721261629288712,-0.5440373475696977,-0.019496956981777003,-0.0014553345531901412,-0.02212718403794317,0,70,255.0,255.0,255.0
405,20.25,-9.0649,-13.9106,-5.9762,-0.41620884634920535,-0.03730766005099293,-0.5451488278253982,-0.022236236263996734,-0.0023464157710428313,-0.022332026190083454,0,70,255.0,255.0,255.0
406,20.3,-9.085737060861025,-13.912468314098218,-6.00348467576181,-0.4172500530565404,-0.03742486539686,-0.5462245894030032,-0.01941203202940494,-0.0023417980636397107,-0.020698436914118167,0,70,255.0,255.0,255.0
407,20.35,-9.106622651802125,-13.914342482691596,-6.030821097615905,-0.4181500495521459,-0.03754183985735691,-0.54721867151681,-0.016587827794813145,-0.00233718035623659,-0.01906484763815288,0,70,255.0,255.0,255.0
408,20.400000000000002,-9.127549712312712,-13.916222494235866,-6.058205181589096,-0.4189088358360218,-0.03765858343248366,-0.5481310741668186,-0.013763623560221351,-0.0023325626488334694,-0.017431258362187594,0,70,255.0,255.0,255.0
409,20.450000000000003,-9.1485111818822,-13.918108337186755,-6.085632843708191,-0.41952641190816803,-0.037775096122240254,-0.5489617973530289,-0.010939419325629557,-0.0023279449414303484,-0.015797669086222307,0,70,255.0,255.0,255.0
410,20.5,-9.1695,-13.92,-6.1131,-0.4200027777685847,-0.03789137792662669,-0.5497108410754408,-0.008115215091036188,-0.002323327234027117,-0.014164079810255359,0,70,255.0,255.0,255.0
411,20.55,-9.190511448547982,-13.921897109467713,-6.140604284451432,-0.42047847696454144,-0.03798572902862289,-0.5504812829397467,-0.010912752747232397,-0.0014507168458210082,-0.01665359476198457,0,70,255.0,255.0,255.0
412,20.6,-9.211550178977836,-13.923797845727538,-6.168150202889769,-0.42109405304330794,-0.03803644961120879,-0.5513762005516393,-0.013710290403428606,-0.0005781064576148994,-0.019143109713713784,0,70,255.0,255.0,255.0
413,20.650000000000002,-9.232623185133694,-13.92570002725351,-6.19574397910239,-0.4218495060048843,-0.03804353967438438,-0.5523955939111183,-0.016507828059624814,0.00029450393059120934,-0.021632624665442995,0,70,255.0,255.0,255.0
414,20.700000000000003,-9.253737460859703,-13.927601472519655,-6.223391836876675,-0.4227448358492705,-0.03800699921814967,-0.5535394630181836,-0.019305365715821025,0.0011671143187973183,-0.02412213961717221,0,70,255.0,255.0,255.0
415,20.75,-9.2749,-13.9295,-6.2511,-0.4237800425764663,-0.03792682824250465,-0.5548078078728355,-0.022102903372014815,0.002039724707003421,-0.026611654568900356,0,70,255.0,255.0,255.0
416,20.8,-9.296115544947043,-13.931394448030934,-6.278872586432466,-0.42482003908531024,-0.03786421848865858,-0.5560742788380068,-0.01949695698174288,0.0004646654468394959,-0.02404718403795357,0,70,255.0,255.0,255.0
417,20.85,-9.31737983228654,-13.93328773439825,-6.306705290825025,-0.42572973827464056,-0.037880361697820705,-0.5572125262766309,-0.01689101059147095,-0.001110393813324429,-0.021482713507006784,0,70,255.0,255.0,255.0
418,20.900000000000002,-9.338686347152516,-13.935183796750099,-6.334591702001354,-0.42650914014445734,-0.03797525786999102,-0.5582225501887075,-0.014285064201199016,-0.0026854530734883534,-0.01891824297606,0,70,255.0,255.0,255.0
419,20.950000000000003,-9.360028574678994,-13.937086572734632,-6.362525408785122,-0.42715824469476055,-0.03814890700516954,-0.5591043505742368,-0.011679117810927083,-0.004260512333652279,-0.016353772445113213,0,70,255.0,255.0,255.0
420,21.0,-9.3814,-13.939,-6.3905,-0.42767705192555,-0.03840130910335624,-0.5598579274332189,-0.009073171420654003,-0.005835571593816147,-0.013789301914167496,0,70,255.0,255.0,255.0
421,21.05,-9.402795971663847,-13.940926698408555,-6.41851096981871,-0.4281773666942071,-0.03865339701673729,-0.5605976017082281,-0.010939419325629212,-0.004247944941425807,-0.015797669086204665,0,70,255.0,255.0,255.0
422,21.1,-9.424219291876009,-13.942864016679463,-6.446561433810134,-0.42877099385811296,-0.03882610359749883,-0.5614376943418394,-0.01280566723060442,-0.0026603182890354675,-0.01780603625824183,0,70,255.0,255.0,255.0
423,21.150000000000002,-9.445674626256245,-13.944807985746094,-6.474656412892204,-0.42945793341726757,-0.03891942884564084,-0.5623782053340524,-0.014671915135579628,-0.0010726916366451279,-0.019814403430279,0,70,255.0,255.0,255.0
424,21.200000000000003,-9.467166640424322,-13.946754636541817,-6.50280092798285,-0.4302381853716709,-0.03893337276116335,-0.5634191346848674,-0.01653816304055484,0.0005149350157452118,-0.021822770602316167,0,70,255.0,255.0,255.0
425,21.25,-9.4887,-13.9487,-6.531,-0.43111174972132305,-0.03886793534406633,-0.5645604823942841,-0.01840441094553036,0.0021025616681354387,-0.023831137774352307,0,70,255.0,255.0,255.0
426,21.3,-9.51027816839757,-13.950641158334848,-6.5592571342927,-0.4320064941378578,-0.03878619344439301,-0.5657113143290724,-0.017385365715858456,0.0011671143187973222,-0.02220213961717563,0,70,255.0,255.0,255.0
427,21.35,-9.531899800209429,-13.952579398883898,-6.587569773934443,-0.4328502862929089,-0.0387512239121866,-0.5667806963560017,-0.016366320486186553,0.00023166696945920557,-0.020573141459998955,0,70,255.0,255.0,255.0
428,21.400000000000002,-9.553562347822501,-13.954517060265525,-6.6159338464298365,-0.43364312618647644,-0.03876302674744709,-0.5677686284750723,-0.015347275256514649,-0.0007037803798789111,-0.018944143302822278,0,70,255.0,255.0,255.0
429,21.450000000000003,-9.57526326362372,-13.9564564810981,-6.644345279283487,-0.4343850138185604,-0.038821601950174485,-0.568675110686284,-0.014328230026842744,-0.0016392277292170275,-0.0173151451456456,0,70,255.0,255.0,255.0
430,21.5,-9.597,-13.9584,-6.6728,-0.43507594918916076,-0.03892694952036879,-0.5695001429896367,-0.01330918479717047,-0.002574675078555133,-0.015686146988466376,0,70,255.0,255.0,255.0
431,21.55,-9.618770554745877,-13.960349468252055,-6.70129489301049,-0.4357486567543631,-0.03904982920567409,-0.5703011409754767,-0.013599117810921428,-0.0023405123336567046,-0.016353772445130952,0,70,255.0,255.0,255.0
432,21.6,-9.64057510728628,-13.962304787784948,-6.729830670452095,-0.4364358609702529,-0.039161000753734465,-0.5711355202341498,-0.013889050824672386,-0.002106349588758276,-0.017021397901795528,0,70,255.0,255.0,255.0
433,21.650000000000002,-9.662414382453747,-13.96426537319181,-6.758409001388454,-0.43713756183683034,-0.039260464164549924,-0.5720032807656562,-0.014178983838423344,-0.0018721868438598477,-0.017689023358460104,0,70,255.0,255.0,255.0
434,21.700000000000003,-9.68428910508081,-13.96623063906578,-6.7870315548832085,-0.43785375935409526,-0.03934821943812045,-0.5729044225699959,-0.014468916852174302,-0.0016380240989614192,-0.01835664881512468,0,70,255.0,255.0,255.0
435,21.75,-9.7062,-13.9682,-6.8157,-0.43858445352204767,-0.03942426657444607,-0.5738389456471686,-0.014758849865923018,-0.0014038613540627298,-0.019024274271790986,0,70,255.0,255.0,255.0
436,21.8,-9.728147612618926,-13.970172968656927,-6.844416093665336,-0.4393188788447089,-0.039494489732904745,-0.5748121217690214,-0.01461816304052501,-0.0014050649842843542,-0.019902770602321963,0,70,255.0,255.0,255.0
437,21.85,-9.750131770645451,-13.972149449976314,-6.873181944257179,-0.44004626982610023,-0.0395647730728745,-0.5758292227074009,-0.014477476215127,-0.0014062686145059789,-0.02078126693285294,0,70,255.0,255.0,255.0
438,21.900000000000002,-9.772152122362515,-13.97412944696724,-6.901999748016353,-0.44076662646622156,-0.03963511659435535,-0.5768902484623069,-0.014336789389728993,-0.0014074722447276033,-0.021659763263383917,0,70,255.0,255.0,255.0
439,21.950000000000003,-9.794208316053052,-13.976112962638776,-6.930871701183685,-0.4414799487650731,-0.039705520297347266,-0.5779951990337393,-0.014196102564330985,-0.001408675874949228,-0.022538259593914894,0,70,255.0,255.0,255.0
440,22.0,-9.8163,-13.9781,-6.9598,-0.4421862367226546,-0.03977598418185026,-0.5791440744216984,-0.014055415738931654,-0.0014098795051705748,-0.02341675592444492,0,70,255.0,255.0,255.0
441,22.05,-9.838426994778425,-13.980090657120233,-6.9887855323281665,-0.442895827866799,-0.0398522118627091,-0.58025837194845,-0.014328230026843074,-0.0016392277291829049,-0.021155145145616817,0,70,255.0,255.0,255.0
442,22.1,-9.860589810131922,-13.982085412309791,-7.017823952519197,-0.44361905972533894,-0.039939906954768546,-0.5812595889362601,-0.014601044314754494,-0.001868575953195235,-0.018893534366788714,0,70,255.0,255.0,255.0
443,22.150000000000002,-9.882789128096201,-13.98408483893923,-7.046909606546145,-0.44435593229827447,-0.04003906945802862,-0.5821477253851288,-0.014873858602665914,-0.0020979241772075647,-0.01663192358796061,0,70,255.0,255.0,255.0
444,22.200000000000003,-9.905025630706987,-13.986089510379113,-7.076036840382062,-0.4451064455856056,-0.04014969937248931,-0.5829227812950561,-0.015146672890577332,-0.002327272401219895,-0.014370312809132505,0,70,255.0,255.0,255.0
445,22.25,-9.9273,-13.9881,-7.1052,-0.4458705995873322,-0.0402717966981506,-0.583584756666042,-0.015419487178490954,-0.0025566206252320423,-0.01210870203030634,0,70,255.0,255.0,255.0
446,22.3,-9.94961240826737,-13.990116402862135,-7.134395377022001,-0.44661780968809883,-0.04037666281625629,-0.5842503904371776,-0.014468916852174005,-0.0016380240989954699,-0.014516648815118173,0,70,255.0,255.0,255.0
447,22.35,-9.971960988826872,-13.99213690078452,-7.16362704566604,-0.44731749127254966,-0.04043559910805015,-0.5850364215475539,-0.013518346525857056,-0.0007194275727588977,-0.016924595599930006,0,70,255.0,255.0,255.0
448,22.400000000000002,-9.99434336525269,-13.994159197275836,-7.1929010257990775,-0.4479696443406846,-0.04044860557353218,-0.5859428499971707,-0.012567776199540108,0.00019916895347767442,-0.019332542384741837,0,70,255.0,255.0,255.0
449,22.450000000000003,-10.016757161119003,-13.996180995844767,-7.222223337288077,-0.4485742688925037,-0.040415682212702385,-0.5869696757860281,-0.011617205873223159,0.0011177654797142468,-0.02174048916955367,0,70,255.0,255.0,255.0
450,22.5,-10.0392,-13.9982,-7.2516,-0.4491313649280069,-0.040336829025560766,-0.5881168989141261,-0.010666635546906722,0.002036362005950587,-0.024148435954367997,0,70,255.0,255.0,255.0
451,22.55,-10.06167057215209,-14.000214931431222,-7.281035359583832,-0.44970493338078793,-0.04027313687228499,-0.589284066302834,-0.012276102564334158,0.0005113241250804595,-0.022538259593949284,0,70,255.0,255.0,255.0
452,22.6,-10.084171834560593,-14.00222858455213,-7.31052706481665,-0.4503589751844404,-0.04028569661305272,-0.590370724873521,-0.013885569581761594,-0.0010137137557896681,-0.02092808323353057,0,70,255.0,255.0,255.0
453,22.650000000000002,-10.106707810893049,-14.004244771957428,-7.340071090257552,-0.4510934903389641,-0.040374508247863955,-0.5913768746261872,-0.015495036599189028,-0.0025387516366597957,-0.019317906873111856,0,70,255.0,255.0,255.0
454,22.700000000000003,-10.129282524817006,-14.006267306241817,-7.369663410465636,-0.45190847884435925,-0.0405395717767187,-0.5923025155608322,-0.017104503616616466,-0.004063789517529923,-0.01770773051269314,0,70,255.0,255.0,255.0
455,22.75,-10.1519,-14.0083,-7.3993,-0.45280394070062574,-0.040780887199616936,-0.5931476476774564,-0.018713970634045562,-0.005588827398399943,-0.016097554152276317,0,70,255.0,255.0,255.0
456,22.8,-10.174562903124263,-14.01034547141298,-7.428977584642671,-0.4536984567887421,-0.04102678969460647,-0.5939573443514912,-0.017066672890608703,-0.004247272401181149,-0.016290312809111997,0,70,255.0,255.0,255.0
457,22.85,-10.197268472930755,-14.012401561006962,-7.458695895067364,-0.4545106079896866,-0.04120561443973506,-0.5947766789583677,-0.01541937514717184,-0.0029057174039623553,-0.016483071465947678,0,70,255.0,255.0,255.0
458,22.900000000000002,-10.220012591175115,-14.014464914894457,-7.488455413170723,-0.4552403943034593,-0.041317361435002704,-0.595605651498086,-0.01377207740373498,-0.0015641624067435616,-0.016675830122783362,0,70,255.0,255.0,255.0
459,22.950000000000003,-10.242791139612981,-14.016532179187966,-7.518256620849388,-0.45588781573006015,-0.04136203068040942,-0.596444261970646,-0.012124779660298119,-0.00022260740952476793,-0.016868588779619043,0,70,255.0,255.0,255.0
460,23.0,-10.2656,-14.0186,-7.5481,-0.45645287226948916,-0.04133962217595519,-0.5972925103760479,-0.010477481916860043,0.0011189475876938193,-0.017061347436457375,0,70,255.0,255.0,255.0
461,23.05,-10.28843621535085,-14.020665582916857,-7.577986301845487,-0.45700523946424126,-0.0412837043492717,-0.5981665562911985,-0.011617205873222519,0.001117765479645838,-0.01790048916956427,0,70,255.0,255.0,255.0
462,23.1,-10.311301473716387,-14.022728371420017,-7.607917354913899,-0.45761459285681144,-0.0412278456279906,-0.5990825592930044,-0.012756929829584995,0.0011165833715978569,-0.018739630902671167,0,70,255.0,255.0,255.0
463,23.150000000000002,-10.334198624406497,-14.024788368464746,-7.637895257059566,-0.45828093244719975,-0.04117204601211191,-0.6000405193814656,-0.01389665378594747,0.0011154012635498755,-0.019578772635778067,0,70,255.0,255.0,255.0
464,23.200000000000003,-10.35713051673107,-14.02684557700632,-7.667922106136823,-0.4590042582354062,-0.041116305501635614,-0.6010404365565822,-0.015036377742309946,0.0011142191555018942,-0.020417914368884963,0,70,255.0,255.0,255.0
465,23.25,-10.3801,-14.0289,-7.698,-0.45978457022143066,-0.041060624096561714,-0.602082310818354,-0.01617610169867012,0.0011130370474540796,-0.021257056101990912,0,70,255.0,255.0,255.0
466,23.3,-10.403109035472328,-14.030952196919586,-7.728130007975383,-0.4605685853543121,-0.04103839290831298,-0.603104430483721,-0.015184503616587084,-0.00022378951750464358,-0.01962773051268909,0,70,255.0,255.0,255.0
467,23.35,-10.426156032203698,-14.03300495331297,-7.758309085277049,-0.4613030205830894,-0.04108300304831218,-0.6040450838696229,-0.014192905534504046,-0.0015606160824633668,-0.017998404923387265,0,70,255.0,255.0,255.0
468,23.400000000000002,-10.449238511198901,-14.035061611246554,-7.788533158591022,-0.4619878759077625,-0.04119445451655932,-0.6049042709760597,-0.01320130745242101,-0.00289744264742209,-0.01636907933408544,0,70,255.0,255.0,255.0
469,23.450000000000003,-10.472353993462738,-14.037125512786764,-7.818798154603331,-0.4626231513283315,-0.041372747313054396,-0.6056819918030315,-0.012209709370337971,-0.004234269212380813,-0.01473975374478362,0,70,255.0,255.0,255.0
470,23.5,-10.4955,-14.0392,-7.8491,-0.4632088468447963,-0.04161788143779738,-0.6063782463505379,-0.011218111288255006,-0.0055710957773394965,-0.0131104281554828,0,70,255.0,255.0,255.0
471,23.55,-10.518674842759838,-14.041287229404789,-7.879436066252982,-0.4637924191185101,-0.04185872401746877,-0.6070797217739157,-0.012124779660298403,-0.004062607409516006,-0.014948588779626197,0,70,255.0,255.0,255.0
472,23.6,-10.541879997468827,-14.043384615328106,-7.909809503977913,-0.46442132481082615,-0.04202414217874898,-0.6078731052285006,-0.0130314480323418,-0.0025541190416925167,-0.016786749403769594,0,70,255.0,255.0,255.0
473,23.650000000000002,-10.565117730797898,-14.045488386549025,-7.9402249085763525,-0.46509556392174434,-0.04211413592163803,-0.6087583967142927,-0.013938116404385198,-0.001045630673869027,-0.01862491002791299,0,70,255.0,255.0,255.0
474,23.700000000000003,-10.58839030941798,-14.04759477184663,-7.970686875449863,-0.46581513645126466,-0.04212870524613589,-0.6097355962312919,-0.014844784776428595,0.000462857693954463,-0.020463070652056384,0,70,255.0,255.0,255.0
475,23.75,-10.6117,-14.0497,-8.0012,-0.46658004239938716,-0.042067850152242584,-0.6108047037794984,-0.015751453148472816,0.0019713460617780676,-0.022301231276198763,0,70,255.0,255.0,255.0
476,23.8,-10.63504839348832,-14.051801285461245,-8.031767327012693,-0.4673497381716567,-0.041990711021811435,-0.6118726824206254,-0.015036377742309072,0.0011142191554679758,-0.020417914368882933,0,70,255.0,255.0,255.0
477,23.85,-10.658434377920994,-14.053899785374604,-8.062385698811308,-0.4680836801736181,-0.041956428236695785,-0.6128464952163867,-0.014321302336145328,0.0002570922491578842,-0.018534597461567107,0,70,255.0,255.0,255.0
478,23.900000000000002,-10.681856165609512,-14.055997642557337,-8.093050407103577,-0.46878186840527125,-0.04196500179689564,-0.6137261421667821,-0.013606226929981582,-0.0006000346571522074,-0.016651280554251278,0,70,255.0,255.0,255.0
479,23.950000000000003,-10.705311968865352,-14.058096999826715,-8.12375674359723,-0.4694443028666163,-0.042016431702411004,-0.6145116232718117,-0.012891151523817838,-0.0014571615634622992,-0.014767963646935448,0,70,255.0,255.0,255.0
480,24.0,-10.7288,-14.0602,-8.1545,-0.4700709835576531,-0.042110717953241866,-0.6152029385314757,-0.012176076117654588,-0.00231428846977233,-0.012884646739616201,0,70,255.0,255.0,255.0
481,24.05,-10.752318783286885,-14.062308428750226,-8.185277025696251,-0.4706806281948529,-0.04222643189529495,-0.6158935485435848,-0.012209709370337763,-0.0023142692123511387,-0.014739753744748212,0,70,255.0,255.0,255.0
482,24.1,-10.775868090847194,-14.064422643173481,-8.216090900776864,-0.47129195449468686,-0.04234214487447698,-0.6166769139059505,-0.012243342623020938,-0.0023142499549299476,-0.016594860749880223,0,70,255.0,255.0,255.0
483,24.150000000000002,-10.799448006764065,-14.066542643221624,-8.246946263009352,-0.471904962457155,-0.04245785689078795,-0.6175530346185728,-0.012276975875704112,-0.002314230697508757,-0.01844996775501223,0,70,255.0,255.0,255.0
484,24.200000000000003,-10.823058615120624,-14.068668428846513,-8.277847750161227,-0.4725196520822573,-0.04257356794422786,-0.6185219106814518,-0.012310609128387287,-0.002314211440087566,-0.020305074760144242,0,70,255.0,255.0,255.0
485,24.25,-10.8467,-14.0708,-8.3088,-0.47313602336999366,-0.042689278034796704,-0.6195835420945872,-0.012344242381069126,-0.0023141921826663747,-0.022160181765274345,0,70,255.0,255.0,255.0
486,24.3,-10.87037247336414,-14.072936999537854,-8.339806170202305,-0.4737677490489321,-0.04278356139701439,-0.6206491234050213,-0.012924784776467132,-0.0014571423060410471,-0.02046307065209054,0,70,255.0,255.0,255.0
487,24.35,-10.894077258690224,-14.075077641931472,-8.370863498081242,-0.4744285018476404,-0.04283499226540081,-0.6216298491597964,-0.01350532717186514,-0.0006000924294157195,-0.018765959538906737,0,70,255.0,255.0,255.0
488,24.400000000000002,-10.917815807334236,-14.077219784556164,-8.401967740859025,-0.47511828176611864,-0.04284357063995597,-0.6225257193589121,-0.014085869567263145,0.0002569574472096078,-0.017068848425722934,0,70,255.0,255.0,255.0
489,24.450000000000003,-10.941589570652166,-14.079361284787238,-8.433114655757873,-0.47583708880436676,-0.04280929652067985,-0.6233367340023686,-0.014666411962661153,0.0011140073238349356,-0.015371737312539128,0,70,255.0,255.0,255.0
490,24.5,-10.9654,-14.0815,-8.4643,-0.4765849229623847,-0.042732169907572476,-0.6240628930901659,-0.015246954358056453,0.0019710572004602023,-0.013674626199355444,0,70,255.0,255.0,255.0
491,24.55,-10.989248123256553,-14.083634773098364,-8.495520693494527,-0.4773363756094306,-0.04267132251664764,-0.6247739578363232,-0.014811151523778937,0.0004628384365332535,-0.014767963646934505,0,70,255.0,255.0,255.0
492,24.6,-11.013133274391915,-14.085768389100634,-8.526778306898173,-0.4780660381147626,-0.04268588606391915,-0.6255396894548594,-0.01437534868950142,-0.0010453803273936953,-0.015861301094513565,0,70,255.0,255.0,255.0
493,24.650000000000002,-11.037054363899003,-14.087904618553726,-8.558075573554552,-0.47877391047838075,-0.042775860549387014,-0.6263600879457746,-0.013939545855223903,-0.002553599091320644,-0.01695463854209263,0,70,255.0,255.0,255.0
494,24.700000000000003,-11.061010302270727,-14.090047232004544,-8.589415226807292,-0.479459992700285,-0.04294124597305122,-0.6272351533090688,-0.013503743020946387,-0.004061817855247593,-0.01804797598967169,0,70,255.0,255.0,255.0
495,24.75,-11.085,-14.0922,-8.6208,-0.48012428478047536,-0.043182042334911755,-0.6281648855447418,-0.013067940186668903,-0.005570036619174323,-0.019141313437249785,0,70,255.0,255.0,255.0
496,24.8,-11.10902223360965,-14.094365508068694,-8.652231855819585,-0.48075874851335093,-0.04342714853639319,-0.6291030452496768,-0.012310609128352901,-0.004234211440083027,-0.018385074760147002,0,70,255.0,255.0,255.0
497,24.85,-11.133075243742121,-14.096541601665992,-8.68370967432607,-0.4813553456933107,-0.04360546347892006,-0.6300033930207565,-0.0115532780700369,-0.002898386260991732,-0.01762883608304422,0,70,255.0,255.0,255.0
498,24.900000000000002,-11.157157137069767,-14.098724941228937,-8.715231564922762,-0.48191407632035466,-0.04371698716249237,-0.6308659288579812,-0.010795947011720899,-0.0015625610819004366,-0.016872597405941436,0,70,255.0,255.0,255.0
499,24.950000000000003,-11.181266020264943,-14.10091218719459,-8.746795637012971,-0.48243494039448276,-0.043761719587110115,-0.6316906527613506,-0.010038615953404896,-0.00022673590280914042,-0.016116358728838653,0,70,255.0,255.0,255.0
500,25.0,-11.2054,-14.1031,-8.7784,-0.4829179379156951,-0.043739660752773295,-0.632477564730865,-0.00928128489508806,0.0011090892762821158,-0.01536012005173415,0,70,255.0,255.0,255.0
501,25.05,-11.229558142304848,-14.105285594626856,-8.810043083227136,-0.4834206303371399,-0.04368408333777122,-0.633245861164972,-0.010826411962702776,0.0011140073238008143,-0.015371737312538691,0,70,255.0,255.0,255.0
502,25.1,-11.253743350639603,-14.107468404235405,-8.841724595797547,-0.48400057911196537,-0.04362826002039322,-0.6340147384621189,-0.01237153903031749,0.0011189253713195125,-0.015383354573343234,0,70,255.0,255.0,255.0
503,25.150000000000002,-11.277959487821935,-14.109648416530524,-8.873444566754397,-0.48465778424017164,-0.04357219080063927,-0.6347841966223062,-0.013916666097932205,0.0011238434188382109,-0.015394971834147776,0,70,255.0,255.0,255.0
504,25.200000000000003,-11.302210416669512,-14.111825619217097,-8.90520302514083,-0.48539224572175865,-0.04351587567850939,-0.6355542356455337,-0.015461793165546921,0.0011287614663569093,-0.015406589094952317,0,70,255.0,255.0,255.0
505,25.25,-11.3265,-14.114,-8.937,-0.4862039635567263,-0.04345931465400358,-0.6363248555318013,-0.01700692023315975,0.0011336795138756073,-0.01541820635575597,0,70,255.0,255.0,255.0
506,25.3,-11.350830797170955,-14.116172113423879,-8.968835811271882,-0.4870147301380797,-0.043436518112537244,-0.637113510090437,-0.015423743020975489,-0.00022181785522233633,-0.016127975989676822,0,70,255.0,255.0,255.0
507,25.35,-11.375200153699463,-14.118344781392395,-9.00071194248374,-0.4877463378588239,-0.04348149643952581,-0.637937653130769,-0.013840565808791228,-0.00157731522432028,-0.016837745623597675,0,70,255.0,255.0,255.0
508,25.400000000000002,-11.399604111642494,-14.120521392648973,-9.032630168059654,-0.4883987867189588,-0.04359424963496927,-0.6387972846527968,-0.012257388596606966,-0.0029328125934182233,-0.017547515257518527,0,70,255.0,255.0,255.0
509,25.450000000000003,-11.424038713057017,-14.122705335937033,-9.064592262423714,-0.4889720767184846,-0.04377477769886764,-0.6396924046565209,-0.010674211384422705,-0.004288309962516167,-0.01825728489143938,0,70,255.0,255.0,255.0
510,25.5,-11.4485,-14.1249,-9.0966,-0.48946620785740114,-0.04402308063122088,-0.6406230131419409,-0.009091034172238999,-0.005643807331614015,-0.018967054525359295,0,70,255.0,255.0,255.0
511,25.55,-11.472985069011328,-14.12710755167763,-9.128654471685339,-0.4899444491105414,-0.04426584421208039,-0.6415480984732957,-0.010038615953370758,-0.004066735902766149,-0.018036358728832788,0,70,255.0,255.0,255.0
512,25.6,-11.497495234562537,-14.129325270195018,-9.1607540342675,-0.4904700694527382,-0.0444297542214975,-0.6424266490148243,-0.010986197734502517,-0.0024896644739182843,-0.01710566293230628,0,70,255.0,255.0,255.0
513,25.650000000000002,-11.522032865608086,-14.13154921287359,-9.192896361006992,-0.49104306888399163,-0.04451481065947222,-0.6432586647665265,-0.011933779515634275,-0.0009125930450704194,-0.016174967135779778,0,70,255.0,255.0,255.0
514,25.700000000000003,-11.546600331102422,-14.133775437034775,-9.225079125164324,-0.4916634474043017,-0.044521013526004544,-0.6440441457284022,-0.012881361296766035,0.000664478383777446,-0.015244271339253272,0,70,255.0,255.0,255.0
515,25.75,-11.5712,-14.136,-9.2573,-0.49233120501366817,-0.044448362821094475,-0.6447830919004516,-0.013828943077894618,0.0022415498126254763,-0.014313575542724166,0,70,255.0,255.0,255.0
516,25.8,-11.595833726783733,-14.138220079865599,-9.289557501986765,-0.49301547341975427,-0.04436410503912162,-0.6455260960163925,-0.013541793165549527,0.0011287614662887587,-0.015406589094916982,0,70,255.0,255.0,255.0
517,25.85,-11.620501308050383,-14.140437337827533,-9.321853520446266,-0.49368538433022313,-0.0443354866744656,-0.6463237508099433,-0.013254643253204437,1.597311995204121e-05,-0.0164996026471098,0,70,255.0,255.0,255.0
518,25.900000000000002,-11.645202025925164,-14.142654555856668,-9.354190787912387,-0.49434093774507476,-0.04436250772712641,-0.6471760562811036,-0.012967493340859348,-0.0010968152263846763,-0.017592616199302614,0,70,255.0,255.0,255.0
519,25.950000000000003,-11.669935162533296,-14.144874515923869,-9.386572036919006,-0.4949821336643091,-0.04444516819710407,-0.6480830124298735,-0.012680343428514257,-0.002209603572721394,-0.01868562975149543,0,70,255.0,255.0,255.0
520,26.0,-11.6947,-14.1471,-9.419,-0.49560897208792615,-0.044583468084398545,-0.6490446192562531,-0.012393193516167411,-0.003322391919057699,-0.019778643303689947,0,70,255.0,255.0,255.0
521,26.05,-11.719496023853736,-14.149332928859971,-9.451476320367604,-0.49623365721044166,-0.044725735631438,-0.6499955174611314,-0.012594211384452783,-0.0023683099625204738,-0.01825728489144074,0,70,255.0,255.0,255.0
522,26.1,-11.744323533235935,-14.151571778494846,-9.48399828394744,-0.49686839322637144,-0.0448202990806506,-0.6508703477453972,-0.012795229252738155,-0.0014142280059832486,-0.016735926479191532,0,70,255.0,255.0,255.0
523,26.150000000000002,-11.769183030691265,-14.153814163699739,-9.51656208734347,-0.4975131801357155,-0.04486715843203633,-0.6516691101090506,-0.012996247121023527,-0.0004601460494460235,-0.015214568066942326,0,70,255.0,255.0,255.0
524,26.200000000000003,-11.794075018764396,-14.156057699269756,-9.549163927159666,-0.4981680179384738,-0.0448663136855952,-0.6523918045520914,-0.013197264989308899,0.0004939359070912017,-0.01369320965469312,0,70,255.0,255.0,255.0
525,26.25,-11.819,-14.1583,-9.5818,-0.49883290663464636,-0.04481776484132721,-0.65303843107452,-0.013398282857596033,0.0014480178636284702,-0.012171851242443132,0,70,255.0,255.0,255.0
526,26.3,-11.843958177801321,-14.160539404694521,-9.61446761654282,-0.49948989773850455,-0.04476495243514036,-0.6536758341390633,-0.012881361296731423,0.0006644783838456791,-0.013324271339289078,0,70,255.0,255.0,255.0
527,26.35,-11.868948559005885,-14.162777148193081,-9.647168543763987,-0.5001210427643195,-0.044751317002942645,-0.6543708582084489,-0.012364439735866813,-0.00011906109593711194,-0.014476691436135024,0,70,255.0,255.0,255.0
528,26.400000000000002,-11.893969851309786,-14.165015189344382,-9.679905662713745,-0.5007263417120913,-0.044776858544734066,-0.6551235032826768,-0.011847518175002203,-0.0009026005757199031,-0.01562911153298097,0,70,255.0,255.0,255.0
529,26.450000000000003,-11.919020762409126,-14.16725548699712,-9.712681854442337,-0.5013057945818197,-0.044841577060514635,-0.6559337693617471,-0.011330596614137593,-0.001686140055502694,-0.016781531629826915,0,70,255.0,255.0,255.0
530,26.5,-11.9441,-14.1695,-9.7455,-0.501859401373505,-0.04494547255028434,-0.6568016564456595,-0.01081367505327524,-0.002469679535285485,-0.017933951726671005,0,70,255.0,255.0,255.0
531,26.55,-11.969206464940982,-14.171750252361948,-9.778362013461116,-0.502398751835549,-0.04506245462798536,-0.6576691459826138,-0.010760343428484198,-0.0022096035727553107,-0.016765629751500005,0,70,255.0,255.0,255.0
532,26.6,-11.994339830740536,-14.17400602873283,-9.811265940996616,-0.5029354357163535,-0.045166432907559874,-0.6584782194208094,-0.010707011803693154,-0.001949527610225136,-0.015597307776329006,0,70,255.0,255.0,255.0
533,26.650000000000002,-12.019499964069597,-14.176266678922735,-9.844208861801553,-0.5034694530159184,-0.04525740738900788,-0.6592288767602467,-0.010653680178902112,-0.0016894516476949617,-0.014428985801158006,0,70,255.0,255.0,255.0
534,26.700000000000003,-12.044686731599107,-14.178531552741761,-9.877187855070996,-0.5040008037342437,-0.045335378072329374,-0.6599211180009253,-0.010600348554111069,-0.0014293756851647872,-0.013260663825987007,0,70,255.0,255.0,255.0
535,26.75,-12.0699,-14.1808,-9.9102,-0.5045294878713295,-0.045400344957524354,-0.6605549431428455,-0.010547016929318254,-0.0011692997226346313,-0.012092341850816979,0,70,255.0,255.0,255.0
536,26.8,-12.095139962434752,-14.183071585857684,-9.943243529612706,-0.5050750949192961,-0.04546522905291368,-0.6611995819304824,-0.011277264989347035,-0.001426064092938432,-0.013693209654659477,0,70,255.0,255.0,255.0
537,26.85,-12.12040811803198,-14.1853467368756,-9.976321292249551,-0.5056572143702642,-0.0455429513668182,-0.6619242641083114,-0.012007513049375817,-0.0016828284632422327,-0.015294077458501977,0,70,255.0,255.0,255.0
538,26.900000000000002,-12.14570629241183,-14.187626094964674,-10.009437290080044,-0.5062758462242337,-0.04563351189923791,-0.6627289896763326,-0.012737761109404597,-0.0019395928335460332,-0.016894945262344474,0,70,255.0,255.0,255.0
539,26.950000000000003,-12.171036311194454,-14.189910302035832,-10.04259552527369,-0.5069309904812046,-0.04573691065017281,-0.663613758634546,-0.013468009169433378,-0.002196357203849834,-0.018495813066186976,0,70,255.0,255.0,255.0
540,27.0,-12.1964,-14.1922,-10.0758,-0.5076226471411769,-0.045853147619622885,-0.6645785709829511,-0.01419825722946122,-0.002453121574153505,-0.020096680870030248,0,70,255.0,255.0,255.0
541,27.05,-12.221798485320006,-14.194495404207315,-10.109053468088051,-0.5083088684872668,-0.04595662916036344,-0.6655485262954483,-0.013250596614134821,-0.0016861400554685439,-0.018701531629856463,0,70,255.0,255.0,255.0
542,27.1,-12.247230097131547,-14.196795023764771,-10.142353690005178,-0.5089477068025904,-0.046021761625169744,-0.6664487241459368,-0.012302935998808424,-0.0009191585367835824,-0.017306382389682677,0,70,255.0,255.0,255.0
543,27.150000000000002,-12.272692466283086,-14.199096941218567,-10.17569717787828,-0.5095391620871477,-0.0460485450140418,-0.6672791645344166,-0.011355275383482025,-0.000152177018098621,-0.01591123314950889,0,70,255.0,255.0,255.0
544,27.200000000000003,-12.298183223623086,-14.20139923911491,-10.209080443834253,-0.5100832343409386,-0.0460369793269796,-0.6680398474608877,-0.010407614768155628,0.0006148045005863402,-0.014516083909335106,0,70,255.0,255.0,255.0
545,27.25,-12.3237,-14.2037,-10.2425,-0.5105799235639633,-0.045987064563983174,-0.6687307729253502,-0.009459954152830186,0.0013817860192714138,-0.013120934669160533,0,70,255.0,255.0,255.0
546,27.3,-12.349241296285225,-14.205997997313052,-10.275952998035086,-0.5110814311316368,-0.04594025430563062,-0.6693903128877289,-0.010600348554110378,0.0004906243148307882,-0.013260663825986898,0,70,255.0,255.0,255.0
547,27.35,-12.374809093441833,-14.208294768065317,-10.309439147729737,-0.5116399584193744,-0.04593800213250009,-0.6700568393079489,-0.01174074295539057,-0.0004005373896098373,-0.013400392982813262,0,70,255.0,255.0,255.0
548,27.400000000000002,-12.40040624245583,-14.210592540161056,-10.342958798406846,-0.5122555054271759,-0.0459803080445916,-0.6707303521860102,-0.012881137356670761,-0.0012916990940504626,-0.013540122139639626,0,70,255.0,255.0,255.0
549,27.450000000000003,-12.42603559431322,-14.21289354150453,-10.376512299389304,-0.5129280721550414,-0.04606717204190514,-0.6714108515219129,-0.014021531757950954,-0.0021828607984910884,-0.013679851296465992,0,70,255.0,255.0,255.0
550,27.5,-12.4517,-14.2152,-10.4101,-0.513657658602971,-0.0461985941244407,-0.6720983373156568,-0.015161926159231065,-0.0030740225029314283,-0.013819580453292346,0,70,255.0,255.0,255.0
551,27.55,-12.477401129539102,-14.217513406540474,-10.443722539771606,-0.5143734069861875,-0.04633035361711108,-0.6728102221536432,-0.013468009169432247,-0.002196357203883813,-0.01465581306616174,0,70,255.0,255.0,255.0
