idx,t,px,py,pz,vx,vy,vz,ax,ay,az,yaw,mode,ledr,ledg,ledb
0,0.0,-1.5,-7.5,0.0,0.0003832349274224449,0.0002000077728137096,0.0023794661006943697,-0.01579881912906633,-0.004800093273751816,-0.04935359320833244,0,70,255.0,255.0,255.0
1,0.05,-1.5000006035426128,-7.499995999720179,5.76607796249973e-05,-0.0004077119333855489,-3.9996424505137254e-05,-6.544559368059037e-05,-0.01583905530325342,-0.004800074619002058,-0.048442874566665954,0,70,255.0,255.0,255.0
2,0.1,-1.5000408047234837,-7.500003999626905,-5.785627166670305e-06,-0.0012006706029028973,-0.0002799996890864962,-0.002464821355972226,-0.015879291477440514,-0.0048000559642523,-0.04753215592499946,0,70,255.0,255.0,255.0
3,0.15000000000000002,-1.5001207041330484,-7.500023999673542,-0.0001880624237708366,-0.0019956410811296007,-0.0005200020209303673,-0.004818661186180537,-0.015919527651627605,-0.004800037309502541,-0.04662143728333297,0,70,255.0,255.0,255.0
4,0.2,-1.5002404023617417,-7.500055999813452,-0.0004868928135833353,-0.002792623368065658,-0.0007600034200367503,-0.007126965084305523,-0.0159597638258147,-0.004800018654752783,-0.045710718641666474,0,70,255.0,255.0,255.0
5,0.25,-1.5004,-7.5001,-0.0009,-0.00359161746371107,-0.0010000038864056455,-0.009389733050347184,-0.016000000000001787,-0.004800000000003022,-0.04479999999999999,0,70,255.0,255.0,255.0
6,0.30000000000000004,-1.500599597638258,-7.500156000186547,-0.0014251071864166654,-0.004392623368065837,-0.0012400034200370528,-0.011606965084305523,-0.01604023617418888,-0.004799981345253265,-0.04388928135833352,0,70,255.0,255.0,255.0
7,0.35000000000000003,-1.5008392958669519,-7.500224000326458,-0.002059937576229164,-0.005195641081129959,-0.0014800020209309722,-0.013778661186180536,-0.016080472348375976,-0.004799962690503507,-0.04297856271666704,0,70,255.0,255.0,255.0
8,0.4,-1.5011191952765164,-7.500304000373095,-0.00280221437283333,-0.006000670602903434,-0.0017199996890874035,-0.01590482135597223,-0.01612070852256307,-0.00479994403575375,-0.04206784407500057,0,70,255.0,255.0,255.0
9,0.45,-1.501439396457387,-7.500396000279821,-0.0036496607796249973,-0.006807711933386265,-0.0019599964245063466,-0.017985445593680593,-0.016160944696750165,-0.004799925381003992,-0.041157125433334094,0,70,255.0,255.0,255.0
10,0.5,-1.5018,-7.5005,-0.0046,-0.00761676507257845,-0.0021999922271878024,-0.020020533899305634,-0.016201180870937255,-0.00479990672625424,-0.040246406791667605,0,70,255.0,255.0,255.0
11,0.55,-1.502201005904355,-7.500615999533631,-0.005651632033958339,-0.008421794594351821,-0.0024399898953442346,-0.022050694069097328,-0.01599999999999753,-0.0048000000000030275,-0.04096,0,70,255.0,255.0,255.0
12,0.6000000000000001,-1.5026420118087094,-7.500743999067263,-0.006805664067916679,-0.009216765072578206,-0.0026799922271881055,-0.024116533899305636,-0.0157988191290578,-0.004800093273751815,-0.0416735932083324,0,70,255.0,255.0,255.0
13,0.65,-1.5031225147608869,-7.500883998834078,-0.008063880084895845,-0.0100016765072576,-0.0029199992227194153,-0.026218053389930565,-0.015597638258118076,-0.004800186547500602,-0.04238718641666479,0,70,255.0,255.0,255.0
14,0.7000000000000001,-1.5036420118087095,-7.501035999067263,-0.009428064067916677,-0.010776528898390012,-0.0031600108819381657,-0.02835525254097212,-0.015396457387178349,-0.004800279821249389,-0.04310077962499719,0,70,255.0,255.0,255.0
15,0.75,-1.5042,-7.5012,-0.0109,-0.011541322245975436,-0.0034000272048443545,-0.03052813135243028,-0.015195276516238629,-0.004800373094998176,-0.04381437283332967,0,70,255.0,255.0,255.0
16,0.8,-1.504796378744323,-7.501376001678928,-0.012481164677749984,-0.01232019825452677,-0.0036400369985881286,-0.032718258639305185,-0.015959763825814696,-0.004800018654752781,-0.043790718641666546,0,70,255.0,255.0,255.0
17,0.8500000000000001,-1.5054326568982108,-7.501564003404492,-0.014171806152104135,-0.013137298628556907,-0.003880029070319633,-0.03490720321659694,-0.016724251135390764,-0.004799664214507385,-0.043767064450003425,0,70,255.0,255.0,255.0
18,0.9,-1.506110745679937,-7.5017640042905915,-0.015971865287583292,-0.013992623368065846,-0.004120003420038867,-0.03709496508430552,-0.01748873844496683,-0.00479930977426199,-0.0437434102583403,0,70,255.0,255.0,255.0
19,0.9500000000000001,-1.5068325563077751,-7.501976003451128,-0.017881282948708305,-0.014886172473053589,-0.004359960047745832,-0.03928154424243097,-0.0182532257545429,-0.0047989553340165945,-0.043719756066677176,0,70,255.0,255.0,255.0
20,1.0,-1.5076,-7.5022,-0.0199,-0.015817945943520137,-0.004599898953440527,-0.041466940690973245,-0.019017713064119035,-0.004798600893771231,-0.04369610187501427,0,70,255.0,255.0,255.0
21,1.05,-1.508414279118353,-7.502435993750659,-0.022027709255041737,-0.016745412387541864,-0.004839862110309482,-0.04363627137368196,-0.01808094469674997,-0.004799925380986951,-0.043077125433334175,0,70,255.0,255.0,255.0
22,1.1,-1.509273760598448,-7.50268398731477,-0.024263111323666802,-0.017626040413195137,-0.005079891491539222,-0.04577465323430666,-0.017144176329380898,-0.004801249868202672,-0.04245814899165407,0,70,255.0,255.0,255.0
23,1.1500000000000001,-1.5101761025193665,-7.502943984003553,-0.026604658764771003,-0.018459830020479955,-0.0053199870971297495,-0.04788208627284737,-0.01620740796201183,-0.004802574355418391,-0.04183917254997398,0,70,255.0,255.0,255.0
24,1.2000000000000002,-1.51111896296019,-7.503215987128223,-0.02905080413725014,-0.019246781209396317,-0.005560148927081062,-0.04995857048930406,-0.015270639594642761,-0.004803898842634112,-0.04122019610829388,0,70,255.0,255.0,255.0
25,1.25,-1.5121,-7.5035,-0.0316,-0.019986893979944232,-0.005800376981393161,-0.05200410588367676,-0.014333871227273781,-0.004805223329849853,-0.04060121966661373,0,70,255.0,255.0,255.0
26,1.3,-1.5131177047822646,-7.503796023318436,-0.034251198302083105,-0.020730152195305534,-0.006040514560170642,-0.05404865586596703,-0.01539645738717836,-0.004800279821249387,-0.041180779624997055,0,70,255.0,255.0,255.0
27,1.35,-1.5141739007079973,-7.504104047336426,-0.0370053485532287,-0.021526539718662068,-0.006280404963518099,-0.05612218384617647,-0.016459043547082938,-0.0047953363126489205,-0.04176033958338038,0,70,255.0,255.0,255.0
28,1.4000000000000001,-1.5152712442425975,-7.504424059695197,-0.03986389965333274,-0.02237605655001383,-0.006520048191435535,-0.05822468982430507,-0.017521629706987514,-0.004790392804048455,-0.042339899541763704,0,70,255.0,255.0,255.0
29,1.4500000000000002,-1.5164123918514651,-7.50475604803598,-0.042828300502291194,-0.023278702689360824,-0.006759444243922945,-0.06035617380035284,-0.018584215866892094,-0.004785449295447988,-0.04291945950014703,0,70,255.0,255.0,255.0
30,1.5,-1.5176,-7.5051,-0.0459,-0.024234478136703035,-0.0069985931209803325,-0.06251663577431976,-0.01964680202679664,-0.004780505786847536,-0.0434990194585303,0,70,255.0,255.0,255.0
31,1.55,-1.5188357017525886,-7.505455912975593,-0.049080297536625885,-0.025181978831236525,-0.007238079649002363,-0.06469710516244995,-0.018253225754542923,-0.004798955334033664,-0.04371975606667715,0,70,255.0,255.0,255.0
32,1.6,-1.5201170365695635,-7.505823823339522,-0.05236989446341846,-0.026059800712157327,-0.007478488654383699,-0.06688861138098749,-0.016859649482289206,-0.0048174048812197915,-0.04394049267482401,0,70,255.0,255.0,255.0
33,1.6500000000000001,-1.5214405205102441,-7.506203777215655,-0.055769342621898095,-0.026867943779465445,-0.007719820137124343,-0.06909115442993236,-0.015466073210035488,-0.00483585442840592,-0.04416122928297086,0,70,255.0,255.0,255.0
34,1.7000000000000002,-1.5228026696339498,-7.506595820727857,-0.059279193853585155,-0.027606408033160876,-0.007962074097224292,-0.07130473430928456,-0.01407249693778177,-0.004854303975592047,-0.04438196589111772,0,70,255.0,255.0,255.0
35,1.75,-1.5242,-7.507,-0.0629,-0.028275193473243625,-0.008205250534683546,-0.07352935101904413,-0.012678920665528365,-0.004872753522778203,-0.0446027024992649,0,70,255.0,255.0,255.0
36,1.8,-1.525629888207381,-7.507416324779188,-0.06663161155141338,-0.028925932479747913,-0.008447166843818854,-0.07572292348423311,-0.013350639594643138,-0.004803898842634133,-0.04314019610829429,0,70,255.0,255.0,255.0
37,1.85,-1.5270931530137493,-7.507844659305482,-0.07047107359309751,-0.02961025743270794,-0.00868564041894696,-0.07784337062987357,-0.014022358523757912,-0.004735044162490062,-0.041677689717323683,0,70,255.0,255.0,255.0
38,1.9000000000000001,-1.5285914737164261,-7.5082848314421815,-0.07441472985907495,-0.030328168332123706,-0.008920671260067861,-0.07989069245596549,-0.014694077452872685,-0.0046661894823459915,-0.04021518332635307,0,70,255.0,255.0,255.0
39,1.9500000000000002,-1.5301265296127358,-7.508736669052587,-0.07845892408336826,-0.03107966517799521,-0.00915225936718156,-0.08186488896250887,-0.01536579638198746,-0.004597334802201921,-0.038752676935382466,0,70,255.0,255.0,255.0
40,2.0,-1.5317,-7.5092,-0.0826,-0.03186474797032245,-0.009380404740288053,-0.08376596014950373,-0.01603751531110248,-0.004528480122057879,-0.03729017054441186,0,70,255.0,255.0,255.0
41,2.0500000000000003,-1.5333135454178868,-7.509674787907655,-0.08683565625772062,-0.03268229124977232,-0.0096132529757257,-0.0856752009006177,-0.0166642158668923,-0.004785449295448001,-0.0390794595001468,0,70,255.0,255.0,255.0
42,2.1,-1.5349687513754404,-7.510161539438551,-0.09116901116419156,-0.03353116955701168,-0.009858949669832855,-0.08767390609951842,-0.017290916422682115,-0.00504241846883812,-0.04086874845588173,0,70,255.0,255.0,255.0
43,2.15,-1.536667184624051,-7.510660897015616,-0.09560453794180221,-0.034411382892040536,-0.010117494822609511,-0.08976207574620587,-0.017917616978471926,-0.005299387642228239,-0.04265803741161667,0,70,255.0,255.0,255.0
44,2.2,-1.5384104119151079,-7.511173503061789,-0.10014670981294195,-0.03532293125485888,-0.010388888434055677,-0.09193970984068008,-0.018544317534261747,-0.005556356815618361,-0.04444732636735161,0,70,255.0,255.0,255.0
45,2.25,-1.5402,-7.5117,-0.1048,-0.03626581464546671,-0.010673130504171346,-0.09420680838294103,-0.01917101809005156,-0.005813325989008439,-0.046236615323086316,0,70,255.0,255.0,255.0
46,2.3000000000000003,-1.5420367301210725,-7.512240523590189,-0.10956736341770429,-0.037192902521162544,-0.010939821253285933,-0.09647227291329614,-0.017912496937781436,-0.004854303975574986,-0.04438196589111768,0,70,255.0,255.0,255.0
47,2.35,-1.5439182414844892,-7.512793182940317,-0.11444568175013632,-0.038057064339244856,-0.011158560901728846,-0.0986450049720528,-0.016653975785511317,-0.003895281962141543,-0.04252731645914906,0,70,255.0,255.0,255.0
48,2.4000000000000004,-1.54584138778737,-7.513355580495352,-0.11943031837371627,-0.038858300099713666,-0.011329349449500087,-0.10072500455921105,-0.015395454633241192,-0.002936259948708091,-0.04067266702718043,0,70,255.0,255.0,255.0
49,2.45,-1.5478030227268338,-7.513925318700256,-0.12451663666486414,-0.039596609802568974,-0.011452186896599655,-0.10271227167477084,-0.014136933480971076,-0.001977237935274647,-0.038818017595211814,0,70,255.0,255.0,255.0
50,2.5,-1.5498,-7.5145,-0.1297,-0.040271993447810774,-0.011527073243027552,-0.10460680631873222,-0.01287841232870085,-0.0010182159218411757,-0.03696336816324297,0,70,255.0,255.0,255.0
51,2.5500000000000003,-1.5518299340978237,-7.515078317731587,-0.13497729007146242,-0.040930098665577994,-0.011619462011128743,-0.10649970744619786,-0.013445796381987743,-0.0026773348022064137,-0.03875267693538217,0,70,255.0,255.0,255.0
52,2.6,-1.5538934826866022,-7.51566332880018,-0.14035146183526326,-0.04161657308600955,-0.011794806723248194,-0.10848207401227043,-0.01401318043527463,-0.004336453682571637,-0.04054198570752135,0,70,255.0,255.0,255.0
53,2.6500000000000004,-1.5559920642264689,-7.516259181002979,-0.14582698856333293,-0.04233141670910545,-0.012053107379385907,-0.11055390601695,-0.014580564488561525,-0.005995572562936874,-0.042331294479660546,0,70,255.0,255.0,255.0
54,2.7,-1.5581270971775574,-7.516870022137186,-0.1514083435276017,-0.043074629534865704,-0.01239436397954188,-0.1127152034602365,-0.015147948541848413,-0.007654691443302098,-0.04412060325179972,0,70,255.0,255.0,255.0
55,2.75,-1.5603,-7.5175,-0.1571,-0.043846211563290285,-0.012818576523716114,-0.11496596634212995,-0.015715332595135245,-0.009313810323667265,-0.04590991202393957,0,70,255.0,255.0,255.0
56,2.8000000000000003,-1.562512333487633,-7.518151805483462,-0.16290507629644618,-0.04465470281652522,-0.01323833070219857,-0.11722489730191227,-0.016624317534261995,-0.0074763568156308875,-0.04444732636735235,0,70,255.0,255.0,255.0
57,2.85,-1.5647662277691017,-7.518822301858964,-0.16882127090881074,-0.04550864331671649,-0.013566212205279204,-0.11941069897886519,-0.017533302473388735,-0.005638903307594525,-0.04298474071076514,0,70,255.0,255.0,255.0
58,2.9000000000000004,-1.567063955306754,-7.519506895492733,-0.17484492737295224,-0.046408033063864096,-0.013802221032958023,-0.12152337137298878,-0.018442287412515485,-0.0038014497995581464,-0.041522155054177924,0,70,255.0,255.0,255.0
59,2.95,-1.5694077885629374,-7.520200992751001,-0.1809723892247291,-0.04735287205796804,-0.01394635718523502,-0.12356291448428298,-0.019351272351642225,-0.001963996291521785,-0.040059569397590714,0,70,255.0,255.0,255.0
60,3.0,-1.5718,-7.5209,-0.1872,-0.04834316029902831,-0.013998620662110198,-0.12552932831274785,-0.02026025729076908,-0.00012654278348538106,-0.03859698374100362,0,70,255.0,255.0,255.0
61,3.0500000000000003,-1.574241531951644,-7.521600860334565,-0.19352480474275294,-0.04929909006832181,-0.014051215180078774,-0.12746470334615323,-0.017976933480970656,-0.001977237935257599,-0.03881801759521158,0,70,255.0,255.0,255.0
62,3.1,-1.5767280062369908,-7.522306663763969,-0.19994665452949384,-0.05014085364712538,-0.014196344455635957,-0.129411130072269,-0.015693609671172254,-0.0038279330870298004,-0.03903905144941953,0,70,255.0,255.0,255.0
63,3.1500000000000004,-1.5792537145465153,-7.523022037026088,-0.20646610194485834,-0.050868451035439036,-0.014434008488781755,-0.1313686084910952,-0.013410285861373834,-0.005678628238802019,-0.03926008530362748,0,70,255.0,255.0,255.0
64,3.2,-1.581812948570693,-7.523751606858806,-0.2130836995734819,-0.05148188223326277,-0.014764207279516158,-0.13333713860263177,-0.011126962051575432,-0.00752932339057422,-0.039481119157835434,0,70,255.0,255.0,255.0
65,3.25,-1.5844,-7.5245,-0.2198,-0.051981147240596576,-0.015186940827839173,-0.13531672040687873,-0.008843638241777252,-0.009380018542346394,-0.03970215301204383,0,70,255.0,255.0,255.0
66,3.3000000000000003,-1.5870111387057904,-7.5252703531782785,-0.22661570473254225,-0.05248493691018723,-0.015612808577480814,-0.13731628931347484,-0.011307948541848857,-0.0076546914433191105,-0.04028060325180003,0,70,255.0,255.0,255.0
67,3.35,-1.5896505472829354,-7.526059843085165,-0.23353211097321397,-0.05311194209478146,-0.015952409972171087,-0.13934478073205875,-0.013772258841920442,-0.005929364344291843,-0.04085905349155623,0,70,255.0,255.0,255.0
68,3.4000000000000004,-1.5923243865071854,-7.526864156402913,-0.24055066484761461,-0.053862162794379276,-0.016205745011909998,-0.14140219466263046,-0.01623656914199205,-0.004204037245264559,-0.041437503731312435,0,70,255.0,255.0,255.0
69,3.45,-1.59503881715429,-7.527678979813774,-0.2476728124813435,-0.054735599008980666,-0.016372813696697543,-0.14348853110518997,-0.018700879442063632,-0.0024787101462372917,-0.04201595397106864,0,70,255.0,255.0,255.0
70,3.5,-1.5978,-7.5285,-0.2549,-0.055732250738585634,-0.016453616026533724,-0.14560379005973728,-0.021165189742135326,-0.0007533830472100655,-0.04259440421082372,0,70,255.0,255.0,255.0
71,3.5500000000000003,-1.6006123132251944,-7.529324126952321,-0.2622331763270783,-0.05674516229093008,-0.01652155051000202,-0.14771813939994766,-0.01935127235164226,-0.001963996291521803,-0.04197956939759075,0,70,255.0,255.0,255.0
72,3.6,-1.6034730046312677,-7.5301531638953705,-0.26967130157765046,-0.057667377973749864,-0.016650015655685906,-0.14980174699949636,-0.017537354961149207,-0.00317460953583353,-0.041364734584357785,0,70,255.0,255.0,255.0
73,3.6500000000000004,-1.606377539424744,-7.53099013736226,-0.27721283866468355,-0.058498897787045,-0.016839011463585376,-0.15185461285838342,-0.01572343757065614,-0.004385222780145267,-0.040749899771124816,0,70,255.0,255.0,255.0
74,3.7,-1.6093213828121469,-7.5318380738860995,-0.28485625050114444,-0.05923972173081548,-0.01708853793370043,-0.15387673697660886,-0.013909520180163087,-0.0055958360244569945,-0.04013506495789185,0,70,255.0,255.0,255.0
75,3.75,-1.6123,-7.5327,-0.2926,-0.0598898498050613,-0.017398595066031076,-0.1558681193541726,-0.012095602789669646,-0.006806449268768583,-0.039520230144658886,0,70,255.0,255.0,255.0
76,3.8000000000000003,-1.6153100083934326,-7.533577939012439,-0.300442789959145,-0.060518413926092314,-0.01770898938251433,-0.15784315308673494,-0.013046962051570915,-0.005609323390561537,-0.039481119157834234,0,70,255.0,255.0,255.0
77,3.85,-1.6183526341919943,-7.534469901333353,-0.3083842827161845,-0.06119454601021839,-0.01795952740508723,-0.15981623126995603,-0.013998321313472175,-0.004412197512354502,-0.03944200817100958,0,70,255.0,255.0,255.0
78,3.9000000000000004,-1.6214302557938394,-7.535372894148049,-0.3164243804936516,-0.061918246057439535,-0.01815020913374978,-0.16178735390383592,-0.014949680575373443,-0.0032150716341474567,-0.039402897184184923,0,70,255.0,255.0,255.0
79,3.95,-1.6245452515971233,-7.53628392464183,-0.32456298551407914,-0.06268951406775573,-0.018281034568501976,-0.1637565209883745,-0.015901039837274703,-0.0020179457559404215,-0.03936378619736027,0,70,255.0,255.0,255.0
80,4.0,-1.6277,-7.5372,-0.3328,-0.06350835004116699,-0.01835200370934382,-0.16572373252357192,-0.016852399099175686,-0.0008208198777333031,-0.03932467521053651,0,70,255.0,255.0,255.0
81,4.05,-1.6308964532010752,-7.538119316997927,-0.341135663836342,-0.06434918200469808,-0.018434491959943084,-0.16770924825311206,-0.01678087944206814,-0.0024787101462373116,-0.04009595397106969,0,70,255.0,255.0,255.0
82,4.1000000000000005,-1.6341348586007556,-7.539044830771219,-0.3495715675576117,-0.06518643798537381,-0.01859987472396755,-0.1697333279206789,-0.016709359784960597,-0.00413660041474135,-0.04086723273160287,0,70,255.0,255.0,255.0
83,4.15,-1.6374150373998984,-7.539980686045547,-0.3581096393607104,-0.06602011798319415,-0.01884815200141722,-0.17179597152627238,-0.016637840127853052,-0.005794490683245357,-0.04163851149213605,0,70,255.0,255.0,255.0
84,4.2,-1.6407368107993607,-7.540931027546583,-0.3667518074425394,-0.06685022199815911,-0.019179323792292084,-0.1738971790698925,-0.01656632047074551,-0.007452380951749366,-0.04240979025266922,0,70,255.0,255.0,255.0
85,4.25,-1.6441,-7.5419,-0.3755,-0.0676767500302687,-0.019593390096592153,-0.1760369505515393,-0.016494800813637744,-0.009110271220253319,-0.043181069013203066,0,70,255.0,255.0,255.0
86,4.3,-1.6475041788022664,-7.542890392995857,-0.3843553546954871,-0.06848485805511381,-0.020009042777709797,-0.1781678539008167,-0.015829520180166926,-0.007515836024452477,-0.042055064957892664,0,70,255.0,255.0,255.0
87,4.3500000000000005,-1.6509479314049835,-7.543899575581774,-0.39331584705336897,-0.0692597020482854,-0.020344973699037403,-0.1802424570473286,-0.015164239546696094,-0.005921400828651607,-0.04092906090258225,0,70,255.0,255.0,255.0
88,4.4,-1.6544295946065672,-7.544923561669765,-0.40237866206350725,-0.07000128200978342,-0.02060118286057496,-0.18226075999107494,-0.014498958913225274,-0.004326965632850765,-0.039803056847271846,0,70,255.0,255.0,255.0
89,4.45,-1.6579475052054338,-7.545958365171836,-0.41154098471576367,-0.07070959793960793,-0.020777670262322478,-0.18422276273205576,-0.013833678279754456,-0.0027325304370499235,-0.03867705279196145,0,70,255.0,255.0,255.0
90,4.5,-1.6615,-7.547,-0.4208,-0.07138464983775886,-0.020874435904279953,-0.1861284652702711,-0.013168397646283081,-0.001138095241249082,-0.03755104873665127,0,70,255.0,255.0,255.0
91,4.55,-1.6650860315898586,-7.548045511018647,-0.43015331738170964,-0.07206338577484768,-0.020953336929210118,-0.18800333614362136,-0.013981039837270389,-0.0020179457559574366,-0.037443786197359594,0,70,255.0,255.0,255.0
92,4.6000000000000005,-1.6687070157793107,-7.549096066901683,-0.43960024422891286,-0.07278275382148591,-0.0210762304798757,-0.18987284389000708,-0.014793682028257713,-0.0028977962706658073,-0.03733652365806792,0,70,255.0,255.0,255.0
93,4.65,-1.6723649841738333,-7.550153867275396,-0.44914051238526104,-0.07354275397767347,-0.021243116556276698,-0.19173698850942816,-0.015606324219245021,-0.003777646785374162,-0.037229261118776245,0,70,255.0,255.0,255.0
94,4.7,-1.6760619683789038,-7.551221111766073,-0.45877385369440615,-0.0743433862434104,-0.021453995158413112,-0.19359577000188471,-0.01641896641023233,-0.004657497300082517,-0.037121998579484575,0,70,255.0,255.0,255.0
95,4.75,-1.6798,-7.5523,-0.4685,-0.07518465061869668,-0.021708866286284944,-0.1954491883673766,-0.017231608601219306,-0.005537347814790788,-0.03701473604019134,0,70,255.0,255.0,255.0
96,4.800000000000001,-1.6835804948382984,-7.553392362929556,-0.4783193757776744,-0.07602959884549582,-0.021985609505448565,-0.1973388015246981,-0.016566320470745455,-0.0055323809517537955,-0.0385697902526674,0,70,255.0,255.0,255.0
97,4.8500000000000005,-1.6874024054777743,-7.554498556811493,-0.4882351760309803,-0.07684128266577123,-0.022262104381460326,-0.19930616739264334,-0.01590103234027162,-0.0055274140887168035,-0.04012484446514343,0,70,255.0,255.0,255.0
98,4.9,-1.6912640686981004,-7.555618569228649,-0.4982512883954491,-0.07761970207952297,-0.022538350914320243,-0.2013512859712124,-0.01523574420979778,-0.0055224472256798105,-0.04167989867761947,0,70,255.0,255.0,255.0
99,4.95,-1.695163821278951,-7.556752387763872,-0.508371600506612,-0.07836485708675102,-0.022814349104028304,-0.2034741572604053,-0.014570456079323944,-0.0055174803626428185,-0.0432349528900955,0,70,255.0,255.0,255.0
100,5.0,-1.6991,-7.5579,-0.5186,-0.07907674768745537,-0.02309009895058452,-0.20567478126022193,-0.013905167948849773,-0.005512513499605881,-0.044790007102571305,0,70,255.0,255.0,255.0
101,5.050000000000001,-1.7030711890569468,-7.559061037263128,-0.5289387795075934,-0.07977021884317048,-0.023344225049000383,-0.20785745775758535,-0.013833678279754034,-0.004652530437028428,-0.04251705279196477,0,70,255.0,255.0,255.0
102,5.1000000000000005,-1.707076962309593,-7.560233705852347,-0.5393838516471665,-0.08046011551543078,-0.023555351994287366,-0.20992648653941842,-0.013762188610658298,-0.0037925473744509905,-0.04024409848135828,0,70,255.0,255.0,255.0
103,5.15,-1.7111171410337656,-7.561415855810004,-0.549929534032943,-0.08114643770423631,-0.023723479786445477,-0.21188186760572117,-0.013690698941562562,-0.002932564311873553,-0.037971144170751786,0,70,255.0,255.0,255.0
104,5.2,-1.7151915465052923,-7.56260533717844,-0.5605701442791463,-0.08182918540958703,-0.02384860842547472,-0.21372360095649362,-0.013619209272466825,-0.002072581249296115,-0.035698189860145293,0,70,255.0,255.0,255.0
105,5.25,-1.7193,-7.5638,-0.5713,-0.082508358631483,-0.02393073791137509,-0.2154516865917357,-0.0135477196033712,-0.001212598186718622,-0.0334252355495388,0,70,255.0,255.0,255.0
106,5.300000000000001,-1.7234427489339146,-7.5649986880179325,-0.5821151061919531,-0.08320952578182299,-0.02402949029854523,-0.21716736744496126,-0.014498966410228133,-0.002737497300086927,-0.03520199857948303,0,70,255.0,255.0,255.0
107,5.3500000000000005,-1.7276217452838547,-7.566204219779115,-0.5930182173803545,-0.08395825527250582,-0.024204487641383783,-0.21897188644968402,-0.01545021321708505,-0.004262396413455204,-0.03697876160942723,0,70,255.0,255.0,255.0
108,5.4,-1.7318393671668375,-7.567420407531332,-0.6040137754727797,-0.08475454710353149,-0.02445572993989075,-0.22086524360590395,-0.016401460023941966,-0.005787295526823482,-0.03875552463937143,0,70,255.0,255.0,255.0
109,5.45,-1.7360979926998803,-7.568651063522365,-0.6151062223768032,-0.08559840127490001,-0.024783217194066127,-0.22284743891362116,-0.017352706830798884,-0.00731219464019176,-0.04053228766931563,0,70,255.0,255.0,255.0
110,5.5,-1.7404,-7.5699,-0.6263,-0.08648981778661137,-0.025186949403909926,-0.22491847237283555,-0.0183039536376558,-0.008837093753559955,-0.0423090506992605,0,70,255.0,255.0,255.0
111,5.550000000000001,-1.744746615207395,-7.571169810665141,-0.6375983957245955,-0.08735967802953598,-0.025593813756815315,-0.22700907246256943,-0.01649045607932788,-0.00743748036265536,-0.041314952890093466,0,70,255.0,255.0,255.0
112,5.6000000000000005,-1.7491344565549884,-7.5724582150311885,-0.6490000788314161,-0.08813886339454416,-0.025930697440175468,-0.2290499676618449,-0.014676958520999997,-0.00603786697175079,-0.040320855080926456,0,70,255.0,255.0,255.0
113,5.65,-1.7535589902988842,-7.573761714064666,-0.660502564075939,-0.08882737388163597,-0.026197600453990392,-0.23104115797066205,-0.012863460962672112,-0.00463825358084622,-0.039326757271759445,0,70,255.0,255.0,255.0
114,5.7,-1.7580156826951865,-7.575076808732095,-0.6721033662136413,-0.08942520949081137,-0.026394522798260087,-0.23298264338902086,-0.011049963404344224,-0.00323864018994165,-0.03833265946259243,0,70,255.0,255.0,255.0
115,5.75,-1.7625,-7.5764,-0.6838,-0.0899323702220704,-0.026521464472984552,-0.23487442391692132,-0.00923646584601645,-0.0018390267990371079,-0.03733856165342475,0,70,255.0,255.0,255.0
116,5.800000000000001,-1.7670091902365053,-7.577728469321501,-0.6955905109096657,-0.0904557621000326,-0.026619254674192887,-0.2367483427047607,-0.011699209272471424,-0.0020725812492961436,-0.037618189860148823,0,70,255.0,255.0,255.0
117,5.8500000000000005,-1.771547628496192,-7.579062120096127,-0.7074750672939817,-0.09110229114931755,-0.02672872259791417,-0.23863624290293622,-0.014161952698926353,-0.0023061356995551755,-0.037897818066872896,0,70,255.0,255.0,255.0
118,5.9,-1.7761214716376257,-7.580401536210002,-0.719454368223465,-0.09187195736992523,-0.026849868244148402,-0.24053812451144796,-0.016624696125381283,-0.0025396901498142073,-0.03817744627359696,0,70,255.0,255.0,255.0
119,5.95,-1.7807368765193732,-7.5817473015492505,-0.7315291127686321,-0.09276476076185566,-0.026982691612895588,-0.2424539875302959,-0.019087439551836213,-0.0027732446000732387,-0.038457074480321034,0,70,255.0,255.0,255.0
120,6.0,-1.7854,-7.5831,-0.7437,-0.09378070132510885,-0.02712719270415572,-0.24438383195948005,-0.021550182978291144,-0.003006799050332354,-0.03873670268704377,0,70,255.0,255.0,255.0
121,6.050000000000001,-1.790115023846584,-7.58446031204885,-0.7559675606367422,-0.09480127357033591,-0.027289167546418625,-0.246317556718389,-0.01927270683079009,-0.0034721946401836856,-0.038612287669313704,0,70,255.0,255.0,255.0
122,6.1000000000000005,-1.7948782294602443,-7.5858293045842995,-0.7683316519926576,-0.09570797200818788,-0.027474412168174093,-0.24824506072641142,-0.01699523068328907,-0.003937590230035009,-0.03848787265158364,0,70,255.0,255.0,255.0
123,6.15,-1.7996839231506128,-7.587208141095326,-0.7807919630302019,-0.0965007966386648,-0.027682926569422124,-0.2501663439835473,-0.01471775453578806,-0.004402985819886332,-0.03836345763385358,0,70,255.0,255.0,255.0
124,6.2,-1.8045264112273212,-7.5885979850709,-0.7933481827118308,-0.09717974746176668,-0.027914710750162722,-0.2520814064897968,-0.012440278388287044,-0.004868381409737656,-0.03823904261612352,0,70,255.0,255.0,255.0
125,6.25,-1.8094,-7.59,-0.806,-0.0977448244774935,-0.028169764710395888,-0.2539902482451597,-0.010162802240786029,-0.005333776999588924,-0.038114627598393014,0,70,255.0,255.0,255.0
126,6.300000000000001,-1.8143003143771606,-7.591415082483099,-0.8187472465433664,-0.09827514361862187,-0.02843207514013404,-0.2559014304216843,-0.011049963404348618,-0.005158640189937134,-0.03833265946259026,0,70,255.0,255.0,255.0
127,6.3500000000000005,-1.8192282536628317,-7.592843061566672,-0.8315903247353887,-0.09884982081792837,-0.028685628729389602,-0.25782351419141875,-0.011937124567911194,-0.004983503380285346,-0.038550691326787505,0,70,255.0,255.0,255.0
128,6.4,-1.8241860357599227,-7.594283499408696,-0.8445297796557282,-0.09946885607541299,-0.028930425478162575,-0.25975649955436303,-0.012824285731473768,-0.004808366570633558,-0.03876872319098475,0,70,255.0,255.0,255.0
129,6.45,-1.8291758785713428,-7.595735958167147,-0.8575661563840452,-0.10013224939107573,-0.02916646538645296,-0.26170038651051725,-0.013711446895036342,-0.0046332297609817715,-0.03898675505518199,0,70,255.0,255.0,255.0
130,6.5,-1.8342,-7.5972,-0.8707,-0.10084000076491663,-0.02939374845426075,-0.2636551750598813,-0.014598608058598583,-0.004458092951330039,-0.03920478691938056,0,70,255.0,255.0,255.0
131,6.550000000000001,-1.8392605186447746,-7.598675358018755,-0.8839314531897938,-0.10158615195517763,-0.029622531893046155,-0.26559672159487385,-0.0152474395518407,-0.00469324460008587,-0.03845707448032084,0,70,255.0,255.0,255.0
132,6.6000000000000005,-1.844359155888429,-7.600162449149012,-0.8972590490657883,-0.10236474472010071,-0.02986307291426934,-0.2675008825079134,-0.015896271045082806,-0.004928396248841695,-0.03770936204126113,0,70,255.0,255.0,255.0
133,6.65,-1.8494975338096957,-7.60166186126989,-0.9106809183468859,-0.10317577905968589,-0.03011537151793032,-0.2693676577989999,-0.01654510253832491,-0.005163547897597522,-0.03696164960220143,0,70,255.0,255.0,255.0
134,6.7,-1.8546772744873086,-7.603174182260513,-0.9241951917519889,-0.10401925497393319,-0.030379427704029092,-0.27119704746813356,-0.017193934031567017,-0.005398699546353348,-0.03621393716314172,0,70,255.0,255.0,255.0
135,6.75,-1.8599,-7.6047,-0.9378,-0.10489517246284259,-0.03065524147256565,-0.27298905151531405,-0.017842765524808457,-0.005633851195109091,-0.03546622472408156,0,70,255.0,255.0,255.0
136,6.800000000000001,-1.8651664110437414,-7.606239485441879,-0.9514941406974593,-0.10574824856066976,-0.030917797287686392,-0.2747836831988193,-0.01628027838827788,-0.00486838140972054,-0.03631904261612765,0,70,255.0,255.0,255.0
137,6.8500000000000005,-1.8704735227834532,-7.607791141837281,-0.9652790790014587,-0.1065232003016704,-0.031142079613537706,-0.2766209557769268,-0.01471779125174733,-0.0041029116243320035,-0.037171860508173726,0,70,255.0,255.0,255.0
138,6.9,-1.8758174290012946,-7.609353055511744,-0.9791569469567286,-0.10722002768584449,-0.0313280884501196,-0.27850086924963663,-0.013155304115216782,-0.003337441838943467,-0.038024678400219794,0,70,255.0,255.0,255.0
139,6.95,-1.8811942234794239,-7.610923312790805,-0.993129876607999,-0.10783873071319207,-0.03147582379743205,-0.28042342361694883,-0.011592816978686232,-0.00257197205355493,-0.03887749629226587,0,70,255.0,255.0,255.0
140,7.0,-1.8866,-7.6125,-1.0072,-0.10837930938371311,-0.03158528565547509,-0.2823886188788633,-0.010030329842155239,-0.00180650226816631,-0.0397303141843115,0,70,255.0,255.0,255.0
141,7.050000000000001,-1.8920322371802603,-7.614081900213731,-1.0213687840203702,-0.10892485380214291,-0.031698278956203904,-0.2843565456098506,-0.011791446895036464,-0.002713229760986248,-0.03898675505517816,0,70,255.0,255.0,255.0
142,7.1000000000000005,-1.8974939529777584,-7.615670583501864,-1.0356350349283776,-0.10955845407321677,-0.03185660863157371,-0.28628729438438116,-0.013552563947917658,-0.0036199572538061706,-0.03824319592604483,0,70,255.0,255.0,255.0
143,7.15,-1.9029895501851262,-7.617268316683133,-1.0499968938262005,-0.11028011019693468,-0.03206027468158452,-0.288180865202455,-0.015313681000798853,-0.004526684746626092,-0.0374996367969115,0,70,255.0,255.0,255.0
144,7.2,-1.908523431594996,-7.618877366576267,-1.0644525018160156,-0.11108982217329663,-0.03230927710623632,-0.2900372580640723,-0.01707479805368005,-0.005433412239446015,-0.03675607766777817,0,70,255.0,255.0,255.0
145,7.25,-1.9141,-7.6205,-1.079,-0.11198759000230267,-0.03260361590552911,-0.2918564729692328,-0.018835915106561463,-0.00634013973226577,-0.036012518538642624,0,70,255.0,255.0,255.0
146,7.300000000000001,-1.9197222402352172,-7.6221377137031965,-1.093637923221062,-0.1128883362307561,-0.03289708688749502,-0.2936621343617774,-0.01719393403157543,-0.00539869954637032,-0.036213937163140746,0,70,255.0,255.0,255.0
147,7.3500000000000005,-1.925387465305513,-7.623788924155262,-1.1083663812850317,-0.11370698340546023,-0.03314348586016615,-0.2954778666855469,-0.015551952956589427,-0.004457259360474887,-0.03641535578763886,0,70,255.0,255.0,255.0
148,7.4,-1.9310915702582008,-7.625451277755726,-1.1231858777384702,-0.11444353152641504,-0.03334281282354251,-0.2973036699405413,-0.013909971881603422,-0.003515819174579453,-0.036616774412136975,0,70,255.0,255.0,255.0
149,7.45,-1.936830450140592,-7.6271224209041275,-1.1380969161279393,-0.11509798059362056,-0.033495067777624093,-0.2991395441267605,-0.012267990806617418,-0.0025743789886840196,-0.0368181930366351,0,70,255.0,255.0,255.0
150,7.5,-1.9426,-7.6288,-1.1531,-0.1156703306070768,-0.03360025072241091,-0.3009854892442048,-0.010626009731631081,-0.001632938802788697,-0.037019611661134544,0,70,255.0,255.0,255.0
151,7.550000000000001,-1.9483972018788716,-7.630482444973478,-1.168195523095383,-0.11622580127483462,-0.03370537349381907,-0.30283491694304,-0.011592816978681567,-0.002571972053537954,-0.03695749629227114,0,70,255.0,255.0,255.0
152,7.6000000000000005,-1.9542233858001896,-7.632171319877091,-1.1833834399314966,-0.11682961230494496,-0.033857447927764704,-0.30468123887343196,-0.012559624225732036,-0.0035110053042871946,-0.03689538092340774,0,70,255.0,255.0,255.0
153,7.65,-1.960080968782072,-7.633868972293964,-1.198663595219919,-0.11748176369740781,-0.03405647402424779,-0.3065244550353808,-0.013526431472782503,-0.004450038555036435,-0.03683326555454434,0,70,255.0,255.0,255.0
154,7.7,-1.9659723678426362,-7.635577749807225,-1.2140358336722274,-0.1181822554522232,-0.034302451783268344,-0.30836456542888635,-0.014493238719832971,-0.005389071805785676,-0.03677115018568093,0,70,255.0,255.0,255.0
155,7.75,-1.9719,-7.6373,-1.2295,-0.1189310875693911,-0.03459538120482635,-0.3102015700539489,-0.015460045966882663,-0.00632810505653475,-0.036709034816817976,0,70,255.0,255.0,255.0
156,7.800000000000001,-1.9778657522492975,-7.639037306402888,-1.2450559843974067,-0.11969645866990508,-0.034889419137225874,-0.3120381978660637,-0.015154798053675896,-0.005433412239445844,-0.036756077667772405,0,70,255.0,255.0,255.0
157,7.8500000000000005,-1.9838693914937295,-7.640788196336374,-1.2607038589889823,-0.12044656737475869,-0.03513872242877094,-0.31387717782072616,-0.014849550140469132,-0.004538719422356953,-0.03680312051872683,0,70,255.0,255.0,255.0
158,7.9,-1.9899101546135125,-7.6425504330684175,-1.276443741381855,-0.12118141368395198,-0.03534329107946156,-0.3157185099179363,-0.01454430222726237,-0.003644026605268063,-0.036850163369681256,0,70,255.0,255.0,255.0
159,7.95,-1.995987278488864,-7.644321779866973,-1.2922757491831518,-0.12190099759748492,-0.035503125089297746,-0.31756219415769427,-0.014239054314055609,-0.0027493337881791726,-0.03689720622063568,0,70,255.0,255.0,255.0
160,8.0,-2.0021,-7.6461,-1.3082,-0.12260531911535752,-0.03561822445827949,-0.31940823053999984,-0.013933806400848736,-0.0018546409710904488,-0.036944249071588775,0,70,255.0,255.0,255.0
161,8.05,-2.008247789123938,-7.647883529414969,-1.3242165393149918,-0.1233083640455443,-0.035728949957274284,-0.32125229159270546,-0.01418799080662159,-0.0025743789887011973,-0.036818193036635534,0,70,255.0,255.0,255.0
162,8.1,-2.0144310482248926,-7.649673494777409,-1.3403251241125747,-0.12402411819601968,-0.035875662357149604,-0.3230900498436634,-0.014442175212394435,-0.00329411700631192,-0.0366921370016823,0,70,255.0,255.0,255.0
163,8.15,-2.020650412763878,-7.651471695432364,-1.3565254392526622,-0.12475258156678372,-0.03605836165790547,-0.32492150529287367,-0.014696359618167289,-0.004013855023922668,-0.036566080966729066,0,70,255.0,255.0,255.0
164,8.200000000000001,-2.0269065182019093,-7.653279930724881,-1.3728171695951668,-0.12549375415783642,-0.03627704785954188,-0.32674665794033636,-0.014950544023940143,-0.004733593041533417,-0.036440024931775825,0,70,255.0,255.0,255.0
165,8.25,-2.0332,-7.6551,-1.3892,-0.12624763596917774,-0.03653172096205881,-0.3285655077860513,-0.015204728429712544,-0.005453331059144251,-0.036313968896822146,0,70,255.0,255.0,255.0
166,8.3,-2.03953109125495,-7.656933375937237,-1.4056738583426276,-0.12699008514791638,-0.03680278103368164,-0.33039263576311395,-0.014493238719832425,-0.00538907180576853,-0.03677115018568121,0,70,255.0,255.0,255.0
167,8.35,-2.0458984156067004,-7.65878022455399,-1.4222396445607184,-0.12769695984116097,-0.03707062814263566,-0.33224262280461947,-0.013781749009952332,-0.005324812552392811,-0.03722833147454025,0,70,255.0,255.0,255.0
168,8.4,-2.0523001943309747,-7.660640385202123,-1.4388985016074967,-0.1283682600489116,-0.03733526228892091,-0.3341154689105679,-0.013070259300072213,-0.005260553299017089,-0.03768551276339931,0,70,255.0,255.0,255.0
169,8.450000000000001,-2.0587346487034996,-7.662513697233504,-1.4556515724361831,-0.1290039857711682,-0.03759668347253738,-0.3360111740809594,-0.012358769590192093,-0.005196294045641368,-0.038142694052258376,0,70,255.0,255.0,255.0
170,8.5,-2.0652,-7.6644,-1.4725,-0.1296041370079308,-0.03785489169348505,-0.33792973831579376,-0.011647279880312,-0.0051320347922656495,-0.038599875341118306,0,70,255.0,255.0,255.0
171,8.55,-2.071695045856261,-7.666298966836079,-1.4894440273144995,-0.13020329536279,-0.03809992590799649,-0.33981716535483775,-0.012319054314055809,-0.0046693337881918255,-0.036897206220639564,0,70,255.0,255.0,255.0
172,8.6,-2.0782208893483065,-7.668209607006629,-1.5064802976445497,-0.13083604243933636,-0.03832182507230423,-0.3416194589378577,-0.012990828747799594,-0.004206632784118017,-0.035194537100160884,0,70,255.0,255.0,255.0
173,8.65,-2.0847792099122224,-7.670130763759139,-1.5236045543173513,-0.13150237823756997,-0.038520589186408286,-0.3433366190648538,-0.013662603181543402,-0.003743931780044193,-0.03349186797968214,0,70,255.0,255.0,255.0
174,8.700000000000001,-2.091371686984093,-7.672061280341101,-1.5408125406601019,-0.13220230275749073,-0.03869621825030865,-0.344968645735826,-0.014334377615287212,-0.0032812307759703687,-0.0317891988592034,0,70,255.0,255.0,255.0
175,8.75,-2.098,-7.674,-1.5581,-0.13293581599909868,-0.03884871226400532,-0.34651553895077414,-0.015006152049030552,-0.002818529771896394,-0.03008652973872472,0,70,255.0,255.0,255.0
176,8.8,-2.104665525320006,-7.675945956718445,-1.5754644323993763,-0.13368473340092293,-0.03898951533434075,-0.3480827028175366,-0.014950544023939782,-0.002813593041520834,-0.032600024931771936,0,70,255.0,255.0,255.0
177,8.85,-2.1113684270000714,-7.677898947419492,-1.5929103648610812,-0.13443087040149265,-0.039130071568157405,-0.34977554144395134,-0.014894935998849014,-0.0028086563111452746,-0.03511352012481906,0,70,255.0,255.0,255.0
178,8.9,-2.118108566020134,-7.679858959761319,-1.610444081123099,-0.13517422700080783,-0.03927038096545527,-0.35159405483001843,-0.014839327973758242,-0.0028037195807697145,-0.03762701531786627,0,70,255.0,255.0,255.0
179,8.950000000000001,-2.1248858033601317,-7.6818259814020955,-1.628071864923411,-0.1359148031988685,-0.03941044352623438,-0.353538242975738,-0.014783719948667472,-0.0027987828503941545,-0.04014051051091348,0,70,255.0,255.0,255.0
180,9.0,-2.1317,-7.6838,-1.6458,-0.13665259899567458,-0.039550259250494685,-0.3556081058811098,-0.01472811192357626,-0.0027938461200183173,-0.042654005703961495,0,70,255.0,255.0,255.0
181,9.05,-2.138550852863716,-7.685781206290144,-1.6636326430879975,-0.1373777710335189,-0.039702012754636286,-0.35767602337501536,-0.014278769590196066,-0.003276294045645807,-0.040062694052258825,0,70,255.0,255.0,255.0
182,9.1,-2.145437402651407,-7.687770603315401,-1.6815654429111249,-0.1380804759546942,-0.039877888655059264,-0.3596143752863357,-0.013829427256815888,-0.003758741971273279,-0.03747138240055625,0,70,255.0,255.0,255.0
183,9.15,-2.152358526007241,-7.689769397195587,-1.6995919211902546,-0.1387607137592005,-0.04007788695176362,-0.36142316161507093,-0.013380084923435695,-0.004241189896900769,-0.034880070748853576,0,70,255.0,255.0,255.0
184,9.200000000000001,-2.159313099575383,-7.691778794050516,-1.7177055996462558,-0.13941848444703778,-0.040302007644749345,-0.3631023823612211,-0.012930742590055501,-0.004723637822528258,-0.03228875909715091,0,70,255.0,255.0,255.0
185,9.25,-2.1663,-7.6938,-1.7359,-0.140053788018206,-0.04055025073401645,-0.36465203752478603,-0.012481400256674213,-0.0052060857481556755,-0.029697447445446556,0,70,255.0,255.0,255.0
186,9.3,-2.173318263225131,-7.695834018120982,-1.7541705952486353,-0.14067618246500493,-0.04081043364711991,-0.3661892036824024,-0.012414377615282744,-0.005201230775982857,-0.03178919885920684,0,70,255.0,255.0,255.0
187,9.35,-2.1803675623942995,-7.697881039318902,-1.7725206634944182,-0.14129522577973427,-0.041070373811614734,-0.3678309574107067,-0.012347354973891278,-0.005196375803810038,-0.03388095027296706,0,70,255.0,255.0,255.0
188,9.4,-2.1874477299509034,-7.6999410514563325,-1.790955434115884,-0.14191091796239405,-0.04133007122750092,-0.3695772987096991,-0.01228033233249981,-0.00519152083163722,-0.03597270168672734,0,70,255.0,255.0,255.0
189,9.450000000000001,-2.1945585983383378,-7.7020140423958425,-1.8094801364915667,-0.14252325901298427,-0.041589525894778455,-0.3714282275793795,-0.012213309691108341,-0.005186665859464401,-0.03806445310048763,0,70,255.0,255.0,255.0
190,9.5,-2.2017,-7.7041,-1.8281,-0.14313224893150486,-0.04184873781344735,-0.37338374401974783,-0.01214628704971532,-0.005181810887291527,-0.04015620451424695,0,70,255.0,255.0,255.0
191,9.55,-2.2088720942357623,-7.706198721225933,-1.8468185759174625,-0.14375749910646413,-0.04209625265688852,-0.3753431618953768,-0.012863719948654461,-0.004718782850355445,-0.0382205105109097,0,70,255.0,255.0,255.0
192,9.600000000000001,-2.2160763477713963,-7.708309239408991,-1.865632703111202,-0.14441862092637034,-0.0423206160984829,-0.37720579507083885,-0.0135811528475936,-0.004255754813419364,-0.03628481650757246,0,70,255.0,255.0,255.0
193,9.65,-2.2233145541891486,-7.710430396979084,-1.88453754234621,-0.14511561439122347,-0.042521828138230466,-0.378971643546134,-0.014298585746532715,-0.0037927267764832984,-0.03434912250423528,0,70,255.0,255.0,255.0
194,9.700000000000001,-2.230588507071267,-7.712561036366117,-1.9035282543874794,-0.1458484795010236,-0.04269988877613123,-0.3806407073212624,-0.015016018645471856,-0.0033296987395472167,-0.03241342850089804,0,70,255.0,255.0,255.0
195,9.75,-2.2379,-7.7147,-1.9226,-0.14661721625577068,-0.04285479801218519,-0.38221298639622375,-0.015733451544411192,-0.002866670702611096,-0.030477734497559528,0,70,255.0,255.0,255.0
196,9.8,-2.245250159831821,-7.716846296975287,-1.9417495010815167,-0.14738182110913264,-0.042996555725314634,-0.38378214873609157,-0.014850742590067766,-0.002803637822566795,-0.03228875909715019,0,70,255.0,255.0,255.0
197,9.850000000000001,-2.252637446520118,-7.718999603045131,-1.9609797240607763,-0.14810229051477747,-0.04313516179444187,-0.3854418623059388,-0.013968033635724339,-0.002740604942522494,-0.034099783696740854,0,70,255.0,255.0,255.0
198,9.9,-2.2600596532925037,-7.721159760627331,-1.9802951964992768,-0.1487786244727051,-0.04327061621956689,-0.3871921271057656,-0.013085324681380944,-0.0026775720624781945,-0.035910808296331455,0,70,255.0,255.0,255.0
199,9.950000000000001,-2.267514573376593,-7.7233266121396875,-1.9997004459585188,-0.14941082298291558,-0.04340291900068969,-0.3890329431355719,-0.012202615727037517,-0.0026145391824338934,-0.03772183289592212,0,70,255.0,255.0,255.0
200,10.0,-2.275,-7.7255,-2.0192,-0.14999888604540884,-0.043532070137810276,-0.39096431039535784,-0.011319906772694122,-0.0025515063023894835,-0.03953285749551494,0,70,255.0,255.0,255.0
201,10.05,-2.2825144664369525,-7.727680090872917,-2.038797019756473,-0.1505872164570041,-0.043677524441856734,-0.39290424316025796,-0.012213309691116083,-0.003266665859468797,-0.038064453100488095,0,70,255.0,255.0,255.0
202,10.100000000000001,-2.2900594661481324,-7.729868348410484,-2.058489200645697,-0.15122021701452049,-0.04385873672375716,-0.3947707557054067,-0.013106712609538045,-0.003981825416548111,-0.03659604870546125,0,70,255.0,255.0,255.0
203,10.15,-2.2976372326408363,-7.732066560511591,-2.0782728716566847,-0.1518978877179579,-0.04407570698351154,-0.396563848030804,-0.014000115527959973,-0.004696984973627399,-0.035127644310434455,0,70,255.0,255.0,255.0
204,10.200000000000001,-2.3052499994223608,-7.734276515075131,-2.0981443617784485,-0.15262022856731647,-0.0443284352211199,-0.39828352013645013,-0.014893518446381933,-0.005412144530706713,-0.03365923991540762,0,70,255.0,255.0,255.0
205,10.25,-2.3129,-7.7365,-2.1181,-0.15338723956259612,-0.04461692143658221,-0.39992977202234486,-0.01578692136480364,-0.006127304087786001,-0.03219083552038038,0,70,255.0,255.0,255.0
206,10.3,-2.3205887744203695,-7.738738139533044,-2.1381368198925936,-0.1541573130628528,-0.044901346507264586,-0.4015448786228768,-0.015016018645463303,-0.005249698739508667,-0.032413428500896395,0,70,255.0,255.0,255.0
207,10.350000000000001,-2.3283150888873525,-7.740989403312936,-2.158254673356439,-0.15488884142714246,-0.04514189131053308,-0.40317111487243457,-0.014245115926122964,-0.0043720933912313326,-0.03263602148141241,0,70,255.0,255.0,255.0
208,10.4,-2.3360770161441504,-7.7432515973263065,-2.1784541168739873,-0.1555818246554651,-0.04533855584638771,-0.404808480771018,-0.013474213206782654,-0.0034944880429540297,-0.03285861446192841,0,70,255.0,255.0,255.0
209,10.450000000000001,-2.3438726289339664,-7.745522527559785,-2.1987357069276907,-0.15623626274782074,-0.045491340114828485,-0.4064569763186274,-0.012703310487442315,-0.0026168826946766956,-0.03308120744244443,0,70,255.0,255.0,255.0
210,10.5,-2.3517,-7.7478,-2.2191,-0.15685215570420932,-0.045600244115855386,-0.40811660151526247,-0.01193240776810156,-0.0017392773463993927,-0.03330380042296133,0,70,255.0,255.0,255.0
211,10.55,-2.35955763588157,-7.750082550994907,-2.239547700673156,-0.1574555312915878,-0.045709089529076645,-0.4097962423482346,-0.012202615727037406,-0.002614539182450916,-0.03388183289592411,0,70,255.0,255.0,255.0
212,10.600000000000001,-2.367445778302458,-7.75237163833777,-2.2600801059285516,-0.1580724172769131,-0.045861698034100486,-0.4115047848048549,-0.012472823685973251,-0.003489801018502439,-0.03445986536888689,0,70,255.0,255.0,255.0
213,10.65,-2.3753651027825606,-7.75466945018318,-2.280698660847369,-0.15870281366018513,-0.04605806963092689,-0.4132422288851233,-0.012743031644909088,-0.004365062854553931,-0.03503789784184966,0,70,255.0,255.0,255.0
214,10.700000000000001,-2.383316284841776,-7.756978174685727,-2.3014048105107916,-0.15934672044140397,-0.04629820431955587,-0.4150085745890399,-0.013013239603844933,-0.005240324690605454,-0.03561593031481244,0,70,255.0,255.0,255.0
215,10.75,-2.3913,-7.7593,-2.3222,-0.16000413762056964,-0.046582102099987435,-0.4168038219166046,-0.013283447562780992,-0.00611558652665678,-0.036193962787775646,0,70,255.0,255.0,255.0
216,10.8,-2.399316682053351,-7.761636456487326,-2.3430851774147854,-0.16066056177079863,-0.04687029537642195,-0.41859815198418426,-0.012973518446377947,-0.00541214453072364,-0.03557923991541151,0,70,255.0,255.0,255.0
217,10.850000000000001,-2.4073657979028167,-7.763986443335979,-2.3640593029293586,-0.16130148946520745,-0.047123316553059805,-0.4203617459081458,-0.012663589329974903,-0.0047087025347905005,-0.03496451704304738,0,70,255.0,255.0,255.0
218,10.9,-2.415446572725607,-7.766348201940968,-2.3851208397365395,-0.1619269207037961,-0.047341165629901,-0.422094603688489,-0.01235366021357187,-0.004005260538857386,-0.03434979417068326,0,70,255.0,255.0,255.0
219,10.950000000000001,-2.4235582316989324,-7.768719973697306,-2.406268251029147,-0.16253685548656463,-0.04752384260694554,-0.4237967253252141,-0.012043731097168824,-0.003301818542924247,-0.033735071298319125,0,70,255.0,255.0,255.0
220,11.0,-2.4317,-7.7711,-2.4275,-0.163131293813513,-0.04767134748419342,-0.4254681108183209,-0.01173380198076579,-0.002598376546990966,-0.03312034842595413,0,70,255.0,255.0,255.0
221,11.05,-2.4398716359050296,-7.773486823055788,-2.4488147896677055,-0.1637422216252182,-0.04780172896523511,-0.4271231497150307,-0.012703310487442124,-0.0026168826946767147,-0.03308120744243581,0,70,255.0,255.0,255.0
222,11.100000000000001,-2.448075030086278,-7.775880188318314,-2.4702122823540176,-0.1644016248622572,-0.04793303575366109,-0.42877623156256456,-0.013672818994118457,-0.0026353888423624634,-0.033042066458917496,0,70,255.0,255.0,255.0
223,11.15,-2.4563126063150107,-7.778280142052943,-2.491692380206476,-0.16510950352463002,-0.04806526784947136,-0.43042735636092244,-0.014642327500794756,-0.0026538949900482113,-0.03300292547539918,0,70,255.0,255.0,255.0
224,11.200000000000001,-2.4645867883624963,-7.7806867305250496,-2.5132549853726234,-0.1658658576123367,-0.04819842525266591,-0.43207652411010444,-0.01561183600747109,-0.00267240113773396,-0.032963784491880865,0,70,255.0,255.0,255.0
225,11.25,-2.4729,-7.7831,-2.5349,-0.1666706871253771,-0.04833250796324476,-0.4337237348101105,-0.016581344514147167,-0.0026909072854197635,-0.032924643508360774,0,70,255.0,255.0,255.0
226,11.3,-2.4812535743265327,-7.785520251289521,-2.556627663914394,-0.16745855172832702,-0.04848278876264507,-0.43538924915568994,-0.014933239603849223,-0.003320324690592855,-0.033695930314816824,0,70,255.0,255.0,255.0
227,11.350000000000001,-2.4896444817520744,-7.787948803390769,-2.578439567654575,-0.16816401108576207,-0.04866454043230405,-0.43709332784159227,-0.01328513469355128,-0.003949742095765946,-0.034467217121272875,0,70,255.0,255.0,255.0
228,11.4,-2.4980686020143503,-7.790387229847256,-2.6003376394375586,-0.16878706519768216,-0.04887776297222167,-0.4388359708678172,-0.011637029783253393,-0.004579159500939016,-0.0352385039277289,0,70,255.0,255.0,255.0
229,11.450000000000001,-2.506521814851084,-7.792837104202496,-2.622323807480362,-0.1693277140640874,-0.04912245638239795,-0.44061717823436514,-0.00998892487295545,-0.0052085769061121084,-0.03600979073418495,0,70,255.0,255.0,255.0
230,11.5,-2.515,-7.7953,-2.6444,-0.1697859576849777,-0.049398620662832876,-0.4424369499412357,-0.00834081996265712,-0.005837994311285066,-0.036781077540640084,0,70,255.0,255.0,255.0
231,11.55,-2.5235004667888417,-7.797776971786128,-2.6665673546747204,-0.17024757146147326,-0.049675115984188,-0.4442478536622098,-0.01012373109716467,-0.005221818542919623,-0.03565507129832282,0,70,255.0,255.0,255.0
232,11.600000000000001,-2.532026242905426,-7.800266998118612,-2.6888238470276864,-0.17079833079469417,-0.04992080251712485,-0.44600245707106806,-0.011906642231672222,-0.0046056427745541795,-0.03452906505600556,0,70,255.0,255.0,255.0
233,11.65,-2.54058178562759,-7.802768538558033,-2.7111666620432917,-0.17143823568464048,-0.05013568026164342,-0.44770076016781035,-0.013689553366179708,-0.003989467006188758,-0.03340305881368834,0,70,255.0,255.0,255.0
234,11.700000000000001,-2.5491715522331693,-7.805280052664969,-2.733592984705932,-0.17216728613131216,-0.05031974921774372,-0.44934276295243686,-0.01547246450068726,-0.003373291237823315,-0.032277052571371076,0,70,255.0,255.0,255.0
235,11.75,-2.5578,-7.8078,-2.7561,-0.17298548213470918,-0.050473009385425746,-0.45092846542494747,-0.017255375635195636,-0.0027571154694577826,-0.031151046329054743,0,70,255.0,255.0,255.0
236,11.8,-2.5664701585181016,-7.81032706156597,-2.778685317386727,-0.17380716242577607,-0.05060874730060554,-0.45248333619547076,-0.015611836007479795,-0.0026724011377339918,-0.031043784491876635,0,70,255.0,255.0,255.0
237,11.850000000000001,-2.5751793466262214,-7.812860804134784,-2.8013482442346835,-0.17454666573545718,-0.050740249499199155,-0.4540328438741352,-0.013968296379763954,-0.002587686806010201,-0.030936522654698526,0,70,255.0,255.0,255.0
238,11.9,-2.583923455475291,-7.815401015920614,-2.8240885123892756,-0.17520399206375248,-0.05086751598120656,-0.4555769884609406,-0.012324756752048171,-0.0025029724742864127,-0.03082926081752042,0,70,255.0,255.0,255.0
239,11.950000000000001,-2.5926983762162403,-7.817947485137629,-2.8469058536959126,-0.175779141410662,-0.050990546746627785,-0.4571157699558872,-0.010681217124332329,-0.002418258142562622,-0.03072199898034231,0,70,255.0,255.0,255.0
240,12.0,-2.6015,-7.8205,-2.8698,-0.17627211377618573,-0.05110934179546283,-0.45864918835897484,-0.009037677496617658,-0.0023335438108387785,-0.03061473714316154,0,70,255.0,255.0,255.0
241,12.05,-2.6103252991387538,-7.823058781949993,-2.8927713757783744,-0.17674777883542506,-0.05124989481338671,-0.4602188015559085,-0.009988924872955454,-0.0032885769061165053,-0.03216979073418378,0,70,255.0,255.0,255.0
242,12.100000000000001,-2.61917557058969,-7.825625785342251,-2.9158231760335838,-0.1772710062634813,-0.05143819948607448,-0.4618661674323933,-0.01094017224929325,-0.004243610001394232,-0.03372484432520602,0,70,255.0,255.0,255.0
243,12.15,-2.6280531924712487,-7.828203397759513,-2.9389592883996065,-0.1778417960603544,-0.05167425581352613,-0.4635912859884291,-0.011891419625631013,-0.005198643096671925,-0.035279897916228195,0,70,255.0,255.0,255.0
244,12.200000000000001,-2.636960542901872,-7.830794006784517,-2.9621836005104196,-0.17846014822604442,-0.05195806379574167,-0.46539415722401606,-0.012842667001968809,-0.006153676191949651,-0.036834951507250434,0,70,255.0,255.0,255.0
245,12.25,-2.6459,-7.8334,-2.9855,-0.1791260627605513,-0.052289623432721095,-0.46727478113915405,-0.013793914378307681,-0.007108709287227233,-0.038390005098271285,0,70,255.0,255.0,255.0
246,12.3,-2.654873444926885,-7.836022610634058,-3.0089107794997783,-0.17980972223252586,-0.052599673445847255,-0.46913745758089515,-0.013552464500675085,-0.00529329123781875,-0.036117052571371266,0,70,255.0,255.0,255.0
247,12.350000000000001,-2.6638807710150214,-7.83865845449621,-3.0324118516309846,-0.1804813092106188,-0.05281895255650298,-0.4708864863962912,-0.013311014623042487,-0.0034778731884102672,-0.03384410004447125,0,70,255.0,255.0,255.0
248,12.4,-2.672921374639715,-7.841302993041334,-3.055997534012301,-0.18114082369483012,-0.05294746076468828,-0.47252186758534226,-0.0130695647454099,-0.0016624551390018484,-0.03157114751757131,0,70,255.0,255.0,255.0
249,12.450000000000001,-2.6819946521762734,-7.843951687724304,-3.079662144262413,-0.18178826568515982,-0.05298519807040316,-0.4740436011480484,-0.012828114867777301,0.00015296291040663417,-0.029298194990671295,0,70,255.0,255.0,255.0
250,12.5,-2.6911,-7.8466,-3.1034,-0.18242363518160784,-0.05293216447364761,-0.4754516870844093,-0.012586664990145158,0.001968380959815219,-0.02702524246376914,0,70,255.0,255.0,255.0
251,12.55,-2.700236921153708,-7.849245175513775,-3.127207106222516,-0.1830533322344699,-0.05289541140321641,-0.476847368120512,-0.01260121712433695,-0.0004982581425671336,-0.028801998980336866,0,70,255.0,255.0,255.0
252,12.600000000000001,-2.709405345350226,-7.851891596672907,-3.151086217442483,-0.18368375689404157,-0.052981990287904325,-0.47833188698244306,-0.012615769258528742,-0.0029648972449494862,-0.030578755496904593,0,70,255.0,255.0,255.0
253,12.65,-2.7186053089698903,-7.8545454300751505,-3.1750417755511906,-0.18431490916032275,-0.05319190112771135,-0.47990524367020243,-0.012630321392720533,-0.005431536347331751,-0.032355512013472254,0,70,255.0,255.0,255.0
254,12.700000000000001,-2.7278368483930366,-7.857212842318263,-3.199078222439933,-0.1849467890333136,-0.053525143922637505,-0.4815674381837903,-0.012644873526912325,-0.007898175449714103,-0.034132268530039984,0,70,255.0,255.0,255.0
255,12.75,-2.7371,-7.8599,-3.2232,-0.185579396513014,-0.053981718672682755,-0.4833184705232064,-0.01265942566110323,-0.010364814552096258,-0.03590902504660409,0,70,255.0,255.0,255.0
256,12.8,-2.746394870458286,-7.862611087310841,-3.247410395610161,-0.18621694882959103,-0.05444268094128422,-0.48508906993705286,-0.012842667001977452,-0.008073676191962122,-0.034914951507253086,0,70,255.0,255.0,255.0
257,12.850000000000001,-2.7557218475840766,-7.865342358812161,-3.2717080785990897,-0.18686366321321177,-0.05478908629187898,-0.4868099656739318,-0.013025908342851672,-0.005782537831827985,-0.03392087796790208,0,70,255.0,255.0,255.0
258,12.9,-2.7650813894807245,-7.868088086658062,-3.296090563782938,-0.1875195396638762,-0.05502093472446702,-0.4884811577338431,-0.013209149683725887,-0.0034913994716939296,-0.03292680442855111,0,70,255.0,255.0,255.0
259,12.950000000000001,-2.7744739542515817,-7.870842543002642,-3.3205553659778575,-0.18818457818158435,-0.05513822623904837,-0.4901026461167869,-0.013392391024600107,-0.001200261111559792,-0.0319327308892001,0,70,255.0,255.0,255.0
260,13.0,-2.7839,-7.8736,-3.3451,-0.1888587787663362,-0.055140960835623,-0.491674430822763,-0.013575632365474766,0.001090877248574429,-0.030938657349849574,0,70,255.0,255.0,255.0
261,13.05,-2.7933595970131497,-7.87635607524286,-3.369722511336843,-0.18951887244716753,-0.05510986483164847,-0.4932283521312762,-0.01282811486777783,0.00015296291040669315,-0.0312181949906754,0,70,255.0,255.0,255.0
262,13.100000000000001,-2.8028512643134693,-7.879111768078446,-3.394423068161162,-0.19014159025311397,-0.05512566454458233,-0.4947962503218306,-0.012080597370080893,-0.0007849514277610426,-0.03149773263150123,0,70,255.0,255.0,255.0
263,13.15,-2.812373133107213,-7.881869423292601,-3.41920236931706,-0.1907269321841756,-0.055188359974424575,-0.4963781253944263,-0.011333079872383984,-0.001722865765928745,-0.03177727027232704,0,70,255.0,255.0,255.0
264,13.200000000000001,-2.8219233346006383,-7.88463138567117,-3.4440611136486385,-0.19127489824035238,-0.05529795112117521,-0.4979739773490633,-0.010585562374687047,-0.0026607801040964807,-0.032056807913152865,0,70,255.0,255.0,255.0
265,13.25,-2.8315,-7.8874,-3.469,-0.19178548842164433,-0.05545443798483421,-0.49958380618574155,-0.009838044876990804,-0.0035986944422640166,-0.03233634555397602,0,70,255.0,255.0,255.0
266,13.3,-2.841101941489116,-7.8901774117177155,-3.49401955904247,-0.1922995613817416,-0.055645859732133034,-0.5011975215378418,-0.010724873526899449,-0.004058175449688856,-0.03221226853003332,0,70,255.0,255.0,255.0
267,13.350000000000001,-2.8507306951620492,-7.892964968874054,-3.519119648756265,-0.19285797577433428,-0.0558602555298031,-0.5028050330387449,-0.011611702176808094,-0.004517656457113697,-0.03208819150609061,0,70,255.0,255.0,255.0
268,13.4,-2.8603884780904245,-7.895763820171535,-3.544299958948824,-0.1934607315994224,-0.05609762537784441,-0.5044063406884509,-0.01249853082671671,-0.00497713746453852,-0.03196411448214791,0,70,255.0,255.0,255.0
269,13.450000000000001,-2.870077507345867,-7.898575114312677,-3.5695601794275897,-0.19410782885700595,-0.056357969276256956,-0.5060014444869597,-0.013385359476625355,-0.00543661847196336,-0.031840037458205205,0,70,255.0,255.0,255.0
270,13.5,-2.8798,-7.9014,-3.5949,-0.19479926754708493,-0.056641287225040735,-0.5075903444342713,-0.014272188126534413,-0.005896099479388295,-0.031715960434258506,0,70,255.0,255.0,255.0
271,13.55,-2.8895574370303865,-7.904239077886281,-3.62031925249328,-0.1954908820258635,-0.05691469623981465,-0.5091815617173578,-0.01339239102460884,-0.005040261111567911,-0.031932730889199235,0,70,255.0,255.0,255.0
272,13.600000000000001,-2.8993483550383345,-7.907090756425341,-3.6458183368137824,-0.19613850664954582,-0.05714531333619753,-0.5107836175231912,-0.012512593922683266,-0.004184422743747527,-0.03214950134413997,0,70,255.0,255.0,255.0
273,13.65,-2.909170554531089,-7.909952896021261,-3.6713977948876444,-0.19674214141813184,-0.05733313851418939,-0.5123965118517717,-0.011632796820757723,-0.0033285843759271734,-0.03236627179908069,0,70,255.0,255.0,255.0
274,13.700000000000001,-2.9190218360158964,-7.912823357078121,-3.697058168641005,-0.1973017863316216,-0.05747817177379025,-0.5140202447030994,-0.01075299971883215,-0.002472746008106789,-0.03258304225402143,0,70,255.0,255.0,255.0
275,13.75,-2.9289,-7.9157,-3.7228,-0.19781744139001506,-0.05758041311500007,-0.5156548160771739,-0.009873202616906163,-0.0016169076402862692,-0.03279981270896215,0,70,255.0,255.0,255.0
276,13.8,-2.938803510389338,-7.9185814767371605,-3.7486234309844138,-0.1983289105148049,-0.05768735530861006,-0.5172762315927268,-0.010585562374687206,-0.002660780104113373,-0.03205680791315259,0,70,255.0,255.0,255.0
277,13.850000000000001,-2.948733484684612,-7.921469605424582,-3.7745270039886103,-0.19887599762748379,-0.05784649112541141,-0.5188604968684892,-0.01129792213246825,-0.003704652567940477,-0.03131380311734302,0,70,255.0,255.0,255.0
278,13.9,-2.9586917037852176,-7.924366995743422,-3.800508861500599,-0.19945870272805175,-0.05805782056540411,-0.520407611904461,-0.012010281890249268,-0.004748525031767543,-0.030570798321533484,0,70,255.0,255.0,255.0
279,13.950000000000001,-2.968679948590549,-7.927276257374841,-3.8265671460083928,-0.20007702581650874,-0.058321343628588165,-0.5219175767006425,-0.012722641648030313,-0.005792397495594648,-0.029827793525723918,0,70,255.0,255.0,255.0
280,14.0,-2.9787,-7.9302,-3.8527,-0.20073096689285475,-0.05863706031496357,-0.5233903912570333,-0.013435001405810887,-0.006836269959421604,-0.029084788729915267,0,70,255.0,255.0,255.0
281,14.05,-2.988753321412263,-7.933139815165077,-3.878906223569068,-0.20140147591491567,-0.05894388252574777,-0.5248655119117365,-0.013385359476625424,-0.005436618471946311,-0.029920037458208714,0,70,255.0,255.0,255.0
282,14.100000000000001,-2.9988401062232173,-7.936093221876335,-3.905187247231781,-0.2020695028405173,-0.0591807221621582,-0.5263823950028543,-0.013335717547439962,-0.004036966984471018,-0.030755286186502164,0,70,255.0,255.0,255.0
283,14.15,-3.0089602303280403,-7.939056721005054,-3.93154515910996,-0.20273504766965966,-0.059347579224194875,-0.5279410405303867,-0.0132860756182545,-0.0026373154969957747,-0.03159053491479558,0,70,255.0,255.0,255.0
284,14.200000000000001,-3.0191135696219087,-7.942026813422515,-3.957982047325427,-0.20339811040234276,-0.05944445371185778,-0.5295414484943338,-0.013236433689069037,-0.001237664009520482,-0.03242578364308903,0,70,255.0,255.0,255.0
285,14.25,-3.0293,-7.945,-3.9845,-0.20405869103856655,-0.059471345625146915,-0.5311836188946957,-0.013186791759883132,0.00016198747795481694,-0.033261032371379784,0,70,255.0,255.0,255.0
286,14.3,-3.039519203961611,-7.9479736626025295,-4.011100474739318,-0.20470518582553454,-0.05948111458840082,-0.5328297207603303,-0.012672999718835946,-0.0005527460081112258,-0.03258304225400258,0,70,255.0,255.0,255.0
287,14.350000000000001,-3.04977009042252,-7.950948707070078,-4.037782407084269,-0.20532599101045015,-0.05952662022595804,-0.534441923120096,-0.012159207677788761,-0.0012674794941772685,-0.03190505213662538,0,70,255.0,255.0,255.0
288,14.4,-3.060051374902622,-7.9539269202363645,-4.064544102059563,-0.20592110659331342,-0.05960786253781855,-0.5360202259739928,-0.011645415636741593,-0.001982212980243286,-0.031227062019248204,0,70,255.0,255.0,255.0
289,14.450000000000001,-3.0703617729218164,-7.956910088935099,-4.091383864689904,-0.20649053257412434,-0.05972484152398237,-0.5375646293220208,-0.011131623595694407,-0.002696946466309329,-0.030549071901871002,0,70,255.0,255.0,255.0
290,14.5,-3.0807,-7.9599,-4.1183,-0.20703426895288285,-0.05987755718444948,-0.5390751331641798,-0.010617831554647239,-0.003411679952375235,-0.02987108178449116,0,70,255.0,255.0,255.0
291,14.55,-3.0910650627412934,-7.962898334424807,-4.145291077473665,-0.20756978078294946,-0.060059659120648416,-0.5405676050469354,-0.010802641648017633,-0.003872397495581976,-0.029827793525732282,0,70,255.0,255.0,255.0
292,14.600000000000001,-3.1014571320867064,-7.965906349843352,-4.172356724431144,-0.20811453311768463,-0.060264796934007686,-0.5420579125167531,-0.010987451741388026,-0.004333115038788717,-0.029784505266973405,0,70,255.0,255.0,255.0
293,14.65,-3.111876670061473,-7.968925198049492,-4.199496832651792,-0.2086685259570883,-0.060492970624527284,-0.5435460555736327,-0.011172261834758414,-0.004793832581995442,-0.029741217008214527,0,70,255.0,255.0,255.0
294,14.700000000000001,-3.1223241386908263,-7.97195603083709,-4.22671129391496,-0.20923175930116047,-0.060744180192207224,-0.5450320342175744,-0.011357071928128808,-0.005254550125202183,-0.02969792874945565,0,70,255.0,255.0,255.0
295,14.75,-3.1328,-7.975,-4.254,-0.20980423314990115,-0.0610184256370475,-0.5465158484485781,-0.011541882021499639,-0.00571526766840913,-0.029654640490695883,0,70,255.0,255.0,255.0
296,14.8,-3.1433045450732173,-7.978057799698246,-4.281363215366022,-0.21037569104266549,-0.061288248928996376,-0.5480198590519236,-0.011316433689073509,-0.005077664009545715,-0.030505783643119257,0,70,255.0,255.0,255.0
297,14.850000000000001,-3.1538373812306566,-7.981128293556517,-4.3088026951911536,-0.21093587651880852,-0.061526192038002074,-0.5495664268128901,-0.011090985356647381,-0.0044400603506823,-0.03135692679554263,0,70,255.0,255.0,255.0
298,14.9,-3.1643979448514874,-7.984209887565664,-4.336320567333272,-0.21148478957833022,-0.0617322549640646,-0.5511555517314778,-0.01086553702422126,-0.0038024566918189073,-0.032208069947965975,0,70,255.0,255.0,255.0
299,14.950000000000001,-3.1749856723148793,-7.987300987716541,-4.363918959650261,-0.21202243022123063,-0.061906437707183966,-0.5527872338076867,-0.01064008869179513,-0.003164853032955492,-0.03305921310038935,0,70,255.0,255.0,255.0
300,15.0,-3.1856,-7.9904,-4.3916,-0.21254879844750976,-0.06204874026736015,-0.5544614730415167,-0.010414640359369676,-0.002527249374092211,-0.033910356252814466,0,70,255.0,255.0,255.0
301,15.05,-3.19624075696584,-7.993505666782208,-4.419364861062247,-0.21308745504638657,-0.062179345163370196,-0.5561209587453831,-0.011131623595703,-0.0026969464663092716,-0.03246907190184023,0,70,255.0,255.0,255.0
302,15.100000000000001,-3.206909342990669,-7.99661807593058,-4.447210894804247,-0.21366196080708008,-0.06231843491399108,-0.5577083802317008,-0.011848606832036321,-0.0028666435585263323,-0.031027787550865996,0,70,255.0,255.0,255.0
303,15.15,-3.217607550532578,-7.99973765168785,-4.475134498015123,-0.2142723157295902,-0.06246600951922282,-0.5592237375004697,-0.012565590068369619,-0.0030363406507433865,-0.02958650319989181,0,70,255.0,255.0,255.0
304,15.200000000000001,-3.2283371720496588,-8.002864818296748,-4.503132067484001,-0.21491851981391702,-0.06262206897906542,-0.56066703055169,-0.013282573304702942,-0.003206037742960447,-0.028145218848917578,0,70,255.0,255.0,255.0
305,15.25,-3.2391,-8.006,-4.5312,-0.21560057306006053,-0.06278661329351887,-0.5620382593853614,-0.013999556541037794,-0.0033757348351770577,-0.026703934497943393,0,70,255.0,255.0,255.0
306,15.3,-3.249897227063424,-8.009143533172923,-4.559335740384996,-0.2162824887717896,-0.06295437041752804,-0.5634003059665461,-0.013277071928124851,-0.0033345501251894833,-0.027777928749441842,0,70,255.0,255.0,255.0
307,15.350000000000001,-3.2607276468066684,-8.012295402721161,-4.587540925591865,-0.21692828025287303,-0.06312006830603782,-0.5648160522603056,-0.01255458731521191,-0.003293365415201909,-0.02885192300094029,0,70,255.0,255.0,255.0
308,15.4,-3.271589453018201,-8.015455505682937,-4.615818240606236,-0.2175379475033108,-0.06328370695904822,-0.5662854982666401,-0.011832102702298992,-0.0032521807052143356,-0.0299259172524387,0,70,255.0,255.0,255.0
309,15.450000000000001,-3.282480839486489,-8.018623739096476,-4.644170370413738,-0.21811149052310294,-0.06344528637655925,-0.5678086439855495,-0.011109618089386049,-0.003210995995226761,-0.03099991150393715,0,70,255.0,255.0,255.0
310,15.5,-3.2934,-8.0218,-4.6726,-0.2186489093122494,-0.0636048065585709,-0.5693854894170338,-0.010387133476473132,-0.003169811285239188,-0.03207390575543734,0,70,255.0,255.0,255.0
311,15.55,-3.304345534780465,-8.024984200526097,-4.701108977397773,-0.2191745898664559,-0.06376317316652577,-0.5709658173884301,-0.010640088691786702,-0.003164853032955639,-0.031139213100412264,0,70,255.0,255.0,255.0
312,15.600000000000001,-3.3153176697826585,-8.028176313184776,-4.7296958028282985,-0.21971291818142807,-0.06392129186186646,-0.5724994107270751,-0.010893043907100271,-0.00315989478067209,-0.03020452044538719,0,70,255.0,255.0,255.0
313,15.65,-3.3263170373946203,-8.031376325580407,-4.758358139559935,-0.22026389425716594,-0.06407916264459297,-0.5739862694329687,-0.011145999122413831,-0.003154936528388541,-0.02926982779036215,0,70,255.0,255.0,255.0
314,15.700000000000001,-3.337344270004388,-8.03458422531736,-4.787093650861049,-0.22082751809366946,-0.06423678551470532,-0.5754263935061114,-0.011398954337727401,-0.003149978276104992,-0.02833513513533708,0,70,255.0,255.0,255.0
315,15.75,-3.3484,-8.0378,-4.8159,-0.22140378969093866,-0.06439416047220348,-0.5768197829465026,-0.011651909553040518,-0.003145020023821221,-0.027400442480316478,0,70,255.0,255.0,255.0
316,15.8,-3.359484633814718,-8.041023664722692,-4.844775550023913,-0.22197915176238261,-0.06455293691637258,-0.5782084244797335,-0.011362573304716501,-0.003206037742943125,-0.028145218848918508,0,70,255.0,255.0,255.0
317,15.850000000000001,-3.370597674062698,-8.044255344539737,-4.873721463094948,-0.22254004702141034,-0.0647147642464978,-0.5796343048313944,-0.011073237056392484,-0.003267055462065029,-0.028889995217520534,0,70,255.0,255.0,255.0
318,15.9,-3.381738397403319,-8.04749519199544,-4.902739601154026,-0.22308647546802185,-0.06487964246257909,-0.5810974240014856,-0.01078390080806848,-0.0033280731811869304,-0.029634771586122537,0,70,255.0,255.0,255.0
319,15.950000000000001,-3.3929060804959597,-8.050743359634094,-4.931831826142071,-0.22361843710221715,-0.06504757156461649,-0.5825977819900067,-0.010494564559744462,-0.0033890909003088344,-0.030379547954724567,0,70,255.0,255.0,255.0
320,16.0,-3.4041,-8.054,-4.961,-0.2241359319239963,-0.06521855155260996,-0.584135378796958,-0.010205228311420234,-0.003450108619430403,-0.03112432432332657,0,70,255.0,255.0,255.0
321,16.05,-3.415319929960664,-8.057265140583144,-4.990245622506578,-0.22466880308401646,-0.0653850791679764,-0.5856884846926391,-0.011109618089385943,-0.0032109959952267364,-0.030999911503919893,0,70,255.0,255.0,255.0
322,16.1,-3.4265676339665503,-8.060538308656279,-5.019568744791916,-0.2252468937329349,-0.06553965115213264,-0.58723536994735,-0.012014007867351654,-0.0029718833710230697,-0.03087549868451322,0,70,255.0,255.0,255.0
323,16.150000000000002,-3.437845372992106,-8.063818906437838,-5.048969055823965,-0.22587020387075163,-0.06568226750507869,-0.5887760345610905,-0.012918397645317364,-0.0027327707468194026,-0.030751085865106546,0,70,255.0,255.0,255.0
324,16.2,-3.4491554080117734,-8.067106336146264,-5.0784462445706735,-0.22653873349746664,-0.06581292822681457,-0.5903104785338606,-0.013822787423283009,-0.0024936581226157528,-0.03062667304569988,0,70,255.0,255.0,255.0
325,16.25,-3.4605,-8.0704,-5.108,-0.2272524826130799,-0.06593163331734028,-0.5918387018656606,-0.014727177201248498,-0.002254545498412641,-0.030502260226294098,0,70,255.0,255.0,255.0
326,16.3,-3.4718804463426296,-8.07369977294473,-5.137629959949778,-0.22795363590155399,-0.06606674641170408,-0.5933576367497018,-0.013318954337714286,-0.003149978276139244,-0.030255135135351805,0,70,255.0,255.0,255.0
327,16.35,-3.4832941900711027,-8.077007420835152,-5.1673355577373945,-0.22858437804685133,-0.06624663114495422,-0.5948642153791959,-0.011910731474180074,-0.004045411053865847,-0.03000801004440951,0,70,255.0,255.0,255.0
328,16.400000000000002,-3.4947377106282618,-8.080325182253207,-5.197116175550122,-0.22914470904897202,-0.06647128751709068,-0.5963584377541427,-0.010502508610645861,-0.00494084383159245,-0.029760884953467216,0,70,255.0,255.0,255.0
329,16.45,-3.5062074874569467,-8.083655295780842,-5.226971195575231,-0.22963462890791592,-0.06674071552811345,-0.5978403038745425,-0.00909428574711175,-0.005836276609318989,-0.029513759862524937,0,70,255.0,255.0,255.0
330,16.5,-3.5177,-8.087,-5.2569,-0.23005413762368312,-0.06705491517802258,-0.5993098137403953,-0.007686062883575984,-0.006731709387045703,-0.029266634771581757,0,70,255.0,255.0,255.0
331,16.55,-3.529212684668821,-8.090360567637932,-5.286901737694311,-0.23046065330976626,-0.06735593518520633,-0.6007529683085535,-0.008574564559748556,-0.005309090900304006,-0.028459547954745,0,70,255.0,255.0,255.0
332,16.6,-3.5407468057490408,-8.093734408003115,-5.316974624258509,-0.230911594079658,-0.06758582426805297,-0.6021557685358698,-0.009463066235921127,-0.003886472413562307,-0.027652461137908247,0,70,255.0,255.0,255.0
333,16.650000000000002,-3.5523045844948506,-8.097117964549332,-5.347116641975552,-0.23140695993335836,-0.06774458242656256,-0.6035182144223443,-0.0103515679120937,-0.0024638539268206083,-0.02684537432107149,0,70,255.0,255.0,255.0
334,16.7,-3.563888242160439,-8.100507680730367,-5.377325773128394,-0.23194675087086733,-0.06783220966073504,-0.6048403059679769,-0.011240069588266208,-0.001041235440079012,-0.026038287504234793,0,70,255.0,255.0,255.0
335,16.75,-3.5755,-8.1039,-5.4076,-0.232530966892185,-0.06784870597057045,-0.6061220431727676,-0.012128571264439003,0.0003813830466629087,-0.02523120068739715,0,70,255.0,255.0,255.0
336,16.8,-3.5871416149820896,-8.10729235650354,-5.437938289272981,-0.23313175085937818,-0.06785351284746939,-0.607422490016094,-0.011902787423287538,-0.0005736581226204155,-0.02678667304565894,0,70,255.0,255.0,255.0
337,16.85,-3.5988129869327374,-8.110686147152387,-5.468343545228576,-0.23372124563451377,-0.0679060717828325,-0.6088007104773336,-0.011677003582136074,-0.0015286992919037396,-0.028342145403920726,0,70,255.0,255.0,255.0
338,16.900000000000002,-3.61051355139234,-8.114083759549464,-5.49881965654768,-0.2342994512175918,-0.06800638277665977,-0.6102567045564862,-0.011451219740984609,-0.0024837404611870637,-0.029897617762182516,0,70,255.0,255.0,255.0
339,16.95,-3.6222427439012947,-8.117487581297695,-5.529370511911188,-0.2348663676086122,-0.0681544458289512,-0.6117904722535518,-0.011225435899833162,-0.0034387816304703197,-0.03145309012044419,0,70,255.0,255.0,255.0
340,17.0,-3.634,-8.1209,-5.56,-0.23542199480757509,-0.0683502609397068,-0.6134020135685305,-0.010999652058681697,-0.004393822799753644,-0.03300856247870598,0,70,255.0,255.0,255.0
341,17.05,-3.6457848554028223,-8.124322806347907,-5.590710705213769,-0.23597234325272,-0.06855801342493287,-0.6150130716270616,-0.011014285747114983,-0.00391627660928952,-0.031433759862537845,0,70,255.0,255.0,255.0
342,17.1,-3.6575972465200124,-8.127755403387335,-5.621499994827194,-0.2365234233822866,-0.06874188860063575,-0.6165453895547844,-0.011028919435548267,-0.003438730418825395,-0.02985895724636971,0,70,255.0,255.0,255.0
343,17.150000000000002,-3.6694372099357917,-8.13119659725281,-5.652363931833734,-0.23707523519627485,-0.06890188646681543,-0.6179989673516986,-0.011043553123981554,-0.0029611842283612704,-0.028284154630201574,0,70,255.0,255.0,255.0
344,17.2,-3.68130478223438,-8.134645194078857,-5.6832985792268484,-0.23762777869468474,-0.06903800702347188,-0.6193738050178045,-0.011058186812414838,-0.00248363803789718,-0.02670935201403355,0,70,255.0,255.0,255.0
345,17.25,-3.6932,-8.1381,-5.7143,-0.23818105387751629,-0.06915025027060513,-0.6206699025531021,-0.011072820500847902,-0.002006091847433278,-0.025134549397864525,0,70,255.0,255.0,255.0
346,17.3,-3.705122963406622,-8.141560418104834,-5.7453652898719465,-0.23873887612974395,-0.06927443345279283,-0.6219492234756554,-0.011240069588257963,-0.00296123544007453,-0.02603828750426712,0,70,255.0,255.0,255.0
347,17.35,-3.717074026987214,-8.145028239298272,-5.776495675462655,-0.2393050608363421,-0.06944637381461259,-0.6232737313035288,-0.011407318675668026,-0.0039163790327157826,-0.02694202561066972,0,70,255.0,255.0,255.0
348,17.400000000000002,-3.729053608864496,-8.14850585143929,-5.807693416117389,-0.23987960799731076,-0.06966607135606441,-0.6246434260367224,-0.011574567763078088,-0.004871522625357035,-0.02784576371707232,0,70,255.0,255.0,255.0
349,17.45,-3.7410621271611846,-8.151995642386872,-5.838960771181415,-0.2404625176126499,-0.06993352607714828,-0.626058307675236,-0.011741816850488139,-0.00582666621799822,-0.028749501823474855,0,70,255.0,255.0,255.0
350,17.5,-3.7531,-8.1555,-5.8703,-0.24105378968235955,-0.07024873797786423,-0.6275183762190697,-0.0119090659378982,-0.006781809810639694,-0.029653239929876563,0,70,255.0,255.0,255.0
351,17.55,-3.765167290970691,-8.159020321232747,-5.901712935298446,-0.24163215222830284,-0.07055225276389272,-0.628998034470327,-0.011225435899833193,-0.005358781630499989,-0.02953309012041494,0,70,255.0,255.0,255.0
352,17.6,-3.7772626455311324,-8.162554039419573,-5.933199703322193,-0.2421763332723429,-0.07078461614091423,-0.6304716852311112,-0.010541805861768186,-0.003935753450360284,-0.029412940310953314,0,70,255.0,255.0,255.0
353,17.650000000000002,-3.789384354606227,-8.166097596990022,-5.964760003696717,-0.24268633281447968,-0.07094582810892876,-0.6319393285014224,-0.009858175823703179,-0.002512725270220579,-0.02929279050149169,0,70,255.0,255.0,255.0
354,17.7,-3.801530709120881,-8.169647436373648,-5.996393536047493,-0.24316215085471318,-0.0710358886679363,-0.6334009642812604,-0.00917454578563822,-0.0010896970900809745,-0.029172640692030072,0,70,255.0,255.0,255.0
355,17.75,-3.8137,-8.1732,-6.0281,-0.24360378739304345,-0.07105479781793686,-0.6348565925706254,-0.008490915747571659,0.0003333310900586195,-0.029052490882571114,0,70,255.0,255.0,255.0
356,17.8,-3.8258910727106135,-8.17675269696417,-6.059878968934274,-0.24404451495704318,-0.07106055549163294,-0.6362986386430405,-0.009138186812418611,-0.0005636380379016831,-0.028629352014029934,0,70,255.0,255.0,255.0
357,17.85,-3.8381049908882585,-8.180306803023436,-6.091729511248581,-0.24451760607428533,-0.07111116162172704,-0.6377195277720284,-0.009785457877265565,-0.0014606071658619857,-0.028206213145488757,0,70,255.0,255.0,255.0
358,17.900000000000002,-3.8503433727105967,-8.183864560600616,-6.123650569095752,-0.24502306074476976,-0.07120661620821914,-0.6391192599575893,-0.010432728942112519,-0.0023575762938222882,-0.027783074276947577,0,70,255.0,255.0,255.0
359,17.95,-3.862607836355289,-8.187428212118533,-6.155641084628615,-0.24556087896849657,-0.07134691925110925,-0.6404978351997233,-0.011080000006959426,-0.003254545421782527,-0.02735993540840643,0,70,255.0,255.0,255.0
360,18.0,-3.8749,-8.191,-6.1877,-0.2461310607454657,-0.07153207075039739,-0.64185525349843,-0.011727271071805934,-0.0041515145497423855,-0.026936796539863472,0,70,255.0,255.0,255.0
361,18.05,-3.887221218186854,-8.194581690910569,-6.219826388964465,-0.2467177879435231,-0.07173352526959016,-0.6431994109575135,-0.011741816850488274,-0.0039066662179684875,-0.02682950182347721,0,70,255.0,255.0,255.0
362,18.1,-3.899571790915835,-8.198173148486683,-6.252019851683489,-0.24730524243051455,-0.07192273737219423,-0.6445382036807777,-0.011756362629170614,-0.003661817886194589,-0.02672220710709094,0,70,255.0,255.0,255.0
363,18.150000000000002,-3.9119517545513878,-8.201773760607512,-6.28428011992028,-0.24789342420644012,-0.07209970705820963,-0.6458716316682227,-0.011770908407852955,-0.003416969554420691,-0.026614912390704678,0,70,255.0,255.0,255.0
364,18.2,-3.9243611454579606,-8.205382915152228,-6.316606925438046,-0.24848233327129982,-0.0722644343276363,-0.6471996949198481,-0.011785454186535293,-0.00317212122264681,-0.026507617674318418,0,70,255.0,255.0,255.0
365,18.25,-3.9368,-8.209,-6.349,-0.24907196962509365,-0.0724169191804743,-0.6485223934356543,-0.011799999965215857,-0.0029272728908724677,-0.026400322957931266,0,70,255.0,255.0,255.0
366,18.3,-3.94926805454197,-8.212624539393554,-6.38145947520787,-0.2496443332688651,-0.07256534342999803,-0.6498637175269031,-0.011094545785640876,-0.003009697090076503,-0.027252640692019638,0,70,255.0,255.0,255.0
367,18.35,-3.9617638454484037,-8.216256603029832,-6.41398708201747,-0.2501814242036578,-0.07271788888948195,-0.6512476575048562,-0.010389091606065895,-0.0030921212892805385,-0.02810495842610801,0,70,255.0,255.0,255.0
368,18.400000000000002,-3.974285609083853,-8.219896396969336,-6.446584951223135,-0.25068324242947165,-0.07287455555892608,-0.652674213369514,-0.009683637426490914,-0.003174545488484574,-0.02895727616019638,0,70,255.0,255.0,255.0
369,18.45,-3.9868315818128672,-8.223544127272557,-6.479255213619198,-0.2511497879463068,-0.0730353434383304,-0.6541433851208759,-0.008978183246915981,-0.0032569696876886033,-0.02980959389428469,0,70,255.0,255.0,255.0
370,18.5,-3.9994,-8.2272,-6.512,-0.2515810607541632,-0.07320025252769494,-0.6556551727589425,-0.008272729067340556,-0.0033393938868924167,-0.03066191162837395,0,70,255.0,255.0,255.0
371,18.55,-4.011989763645268,-8.230864151515217,-6.544820510204057,-0.25201687898102043,-0.07336510101041266,-0.6571537189348626,-0.009160000006947135,-0.003254545421816467,-0.029279935408435324,0,70,255.0,255.0,255.0
372,18.6,-4.024602427290552,-8.234536439393985,-6.577714220246637,-0.25249706075485795,-0.0735257070698766,-0.6585831662997861,-0.010047270946553713,-0.003169696956740517,-0.027897959188496697,0,70,255.0,255.0,255.0
373,18.650000000000002,-4.037240209113203,-8.238216651515149,-6.610677675187188,-0.2530216060756758,-0.07368207070608672,-0.6599435148537124,-0.010934541886160292,-0.003084848491664568,-0.026515982968558068,0,70,255.0,255.0,255.0
374,18.7,-4.049905327290569,-8.241904575757543,-6.643707420085157,-0.2535905149434739,-0.07383419191904303,-0.6612347645966419,-0.011821812825766807,-0.003000000026588624,-0.02513400674861954,0,70,255.0,255.0,255.0
375,18.75,-4.0626,-8.2456,-6.6768,-0.2542037873582525,-0.07398207070874557,-0.6624569155285743,-0.012709083765372942,-0.0029151515615124524,-0.02375203052867736,0,70,255.0,255.0,255.0
376,18.8,-4.075325690876961,-8.249302854545581,-6.7099528839759,-0.2548161508070504,-0.07413425252834956,-0.6636654067336494,-0.01178545418654274,-0.003172121222646588,-0.024587617674320418,0,70,255.0,255.0,255.0
377,18.85,-4.088080845389388,-8.253013639394219,-6.743167236995987,-0.2553823327769068,-0.07429928283101024,-0.6649156772960064,-0.01086182460771254,-0.003429090883780724,-0.025423204819963477,0,70,255.0,255.0,255.0
378,18.900000000000002,-4.100863154463336,-8.256732996970065,-6.776445148028124,-0.2559023332678217,-0.07447716161672763,-0.6662077272156457,-0.00993819502888234,-0.0036860605449148594,-0.026258791965606536,0,70,255.0,255.0,255.0
379,18.95,-4.113670309024856,-8.260461569697275,-6.809788706040171,-0.256376152279795,-0.07466788888550172,-0.667541556492567,-0.009014565450052206,-0.003943030206048977,-0.027094379111249532,0,70,255.0,255.0,255.0
380,19.0,-4.1265,-8.2642,-6.8432,-0.25680378981282687,-0.0748714646373325,-0.6689171651267706,-0.00809093587121934,-0.004199999867182336,-0.02792996625688904,0,70,255.0,255.0,255.0
381,19.05,-4.139350672846888,-8.26794843030246,-6.876680753892343,-0.25723051779078027,-0.07505788887620342,-0.6703126541305492,-0.008978183246914562,-0.0032569696876541964,-0.027889593894255247,0,70,255.0,255.0,255.0
382,19.1,-4.152223791151891,-8.271705003029139,-6.910231231769421,-0.25770160813751836,-0.07519716160609793,-0.6717061245161962,-0.009865430622609786,-0.002313939508126057,-0.02784922153162146,0,70,255.0,255.0,255.0
383,19.150000000000002,-4.165121573033452,-8.275467360604587,-6.943851332700328,-0.25821706085304125,-0.07528928282701602,-0.6730975762837114,-0.01075267799830501,-0.0013709093285979176,-0.027808849168987668,0,70,255.0,255.0,255.0
384,19.200000000000003,-4.17804623661001,-8.279233145453356,-6.977540955754158,-0.2587768759373488,-0.07533425253895772,-0.6744870094330949,-0.011639925374000232,-0.00042787914906977816,-0.02776847680635388,0,70,255.0,255.0,255.0
385,19.25,-4.191,-8.283,-7.0113,-0.25938105339044115,-0.075332070741923,-0.6758744239643467,-0.012527172749694948,0.0005151510304588491,-0.027728104443712986,0,70,255.0,255.0,255.0
386,19.3,-4.203984417735491,-8.286766624244581,-7.0451281004547335,-0.25998977802982753,-0.07534619196682635,-0.6772439767441548,-0.011821812825758993,-0.0010800000265930314,-0.027054006748611484,0,70,255.0,255.0,255.0
387,19.35,-4.216998390003045,-8.29053594848923,-7.079023835926337,-0.26056323467301706,-0.07544007074458231,-0.678579824639208,-0.011116452901823039,-0.002675151083644912,-0.026379909053509978,0,70,255.0,255.0,255.0
388,19.400000000000002,-4.230040153402857,-8.294311960611587,-7.112985521170576,-0.26110142332000985,-0.07561370707519084,-0.6798819676495058,-0.010411092977887086,-0.004270302140696793,-0.025705811358408475,0,70,255.0,255.0,255.0
389,19.450000000000003,-4.243107944535112,-8.298098648489296,-7.14701147094321,-0.2616043439708058,-0.07586710095865198,-0.6811504057750488,-0.009705733053951131,-0.005865453197748673,-0.02503171366330697,0,70,255.0,255.0,255.0
390,19.5,-4.2562,-8.3019,-7.1811,-0.262071996625405,-0.07620025239496571,-0.6823851390158364,-0.009000373130017447,-0.007460604254800773,-0.024357615968204627,0,70,255.0,255.0,255.0
391,19.55,-4.26931485621115,-8.305718672719212,-7.215250044288729,-0.2625223700899072,-0.0765333432564877,-0.6836234388928233,-0.00901456545006889,-0.00586303020607839,-0.025174379111271263,0,70,255.0,255.0,255.0
392,19.6,-4.2824522488359245,-8.309552003013943,-7.249463024525236,-0.2629734531704119,-0.07678655541557355,-0.6849025769269635,-0.009028757770120332,-0.004265456157356006,-0.025991142254337896,0,70,255.0,255.0,255.0
393,19.650000000000002,-4.295612213355124,-8.313395996949064,-7.2837409826173785,-0.26342524586691923,-0.0769598888722233,-0.6862225531182571,-0.009042950090171776,-0.002667882108633622,-0.026807905397404533,0,70,255.0,255.0,255.0
394,19.700000000000003,-4.3087947852495505,-8.317246660589458,-7.318085960473014,-0.26387774817942905,-0.07705334362643693,-0.6875833674667041,-0.009057142410223219,-0.0010703080599112381,-0.027624668540471166,0,70,255.0,255.0,255.0
395,19.75,-4.322,-8.3211,-7.3525,-0.2643309601079415,-0.07706691967821443,-0.6889850199723042,-0.009071334730275549,0.000527265988811032,-0.028441431683537743,0,70,255.0,255.0,255.0
396,19.8,-4.3352281574199125,-8.324953084878565,-7.386984522390355,-0.2648007416105481,-0.07706443500722088,-0.6903902676845515,-0.00971992537398708,-0.0004278791490694902,-0.02776847680635121,0,70,255.0,255.0,255.0
397,19.85,-4.348480614653258,-8.328807239455005,-7.421538465972725,-0.2653029526453402,-0.07710970759312138,-0.6917618676529393,-0.010368516017698611,-0.0013830242869500124,-0.02709552192916467,0,70,255.0,255.0,255.0
398,19.900000000000002,-4.361758993176649,-8.332664851592158,-7.456160148359919,-0.265837593212318,-0.0772027374359159,-0.6930998198774679,-0.011017106661410142,-0.0023381694248305347,-0.026422567051978135,0,70,255.0,255.0,255.0
399,19.950000000000003,-4.3750649144666935,-8.336528309152875,-7.490847887164741,-0.2664046633114812,-0.07734352453560443,-0.6944041243581371,-0.011665697305121674,-0.003293314562711057,-0.0257496121747916,0,70,255.0,255.0,255.0
400,20.0,-4.3884,-8.3404,-7.5256,-0.2670041629428301,-0.07753206889218699,-0.6956747810949471,-0.012314287948831382,-0.004248459700591067,-0.025076657297608662,0,70,255.0,255.0,255.0
401,20.05,-4.401765314109205,-8.344281787766526,-7.560415066149855,-0.2676026634678995,-0.07773691671464475,-0.69692749036897,-0.011625733053946954,-0.003945453197718969,-0.02503171366330754,0,70,255.0,255.0,255.0
402,20.1,-4.415159692551044,-8.348173439166047,-7.595292711583869,-0.2681667362482248,-0.07792661421195889,-0.6981779524612779,-0.010937178159062524,-0.0036424466948468707,-0.02498677002900642,0,70,255.0,255.0,255.0
403,20.150000000000002,-4.428581413938281,-8.352074196682302,-7.630232823942955,-0.2686963812838058,-0.07810116138412944,-0.6994261673718707,-0.010248623264178096,-0.003339440191974772,-0.0249418263947053,0,70,255.0,255.0,255.0
404,20.200000000000003,-4.442028756883679,-8.35598330279904,-7.665235290868028,-0.26919159857464264,-0.07826055823115637,-0.7006721351007484,-0.009560068369293667,-0.003036433689102674,-0.02489688276040418,0,70,255.0,255.0,255.0
405,20.25,-4.4555,-8.3599,-7.7003,-0.26965238812073516,-0.07840480475303968,-0.7019158556479111,-0.008871513474408399,-0.002733427186230042,-0.024851939126102174,0,70,255.0,255.0,255.0
406,20.3,-4.46899378614327,-8.363823764055333,-7.735427213010227,-0.2701006045178514,-0.0785478981341931,-0.7031797708395752,-0.009057142410240629,-0.0029903080599067914,-0.025704668540456957,0,70,255.0,255.0,255.0
407,20.35,-4.4825102151425655,-8.367755003880815,-7.770618687691805,-0.2705581023617592,-0.07870383555903036,-0.7044863225019569,-0.009242771346072858,-0.003247188933583541,-0.026557397954811737,0,70,255.0,255.0,255.0
408,20.400000000000002,-4.496049751070227,-8.371694361678632,-7.805876555868268,-0.2710248816524587,-0.07887261702755145,-0.7058355106350563,-0.009428400281905088,-0.00350406980726029,-0.027410127369166516,0,70,255.0,255.0,255.0
409,20.450000000000003,-4.509612857998591,-8.375642479650963,-7.841202949363156,-0.27150094238994976,-0.0790542425397564,-0.7072273352388736,-0.009614029217737317,-0.00376095068093704,-0.0282628567835213,0,70,255.0,255.0,255.0
410,20.5,-4.5232,-8.3796,-7.8766,-0.27198628457423235,-0.07924871209564517,-0.7086617963134084,-0.009799658153567314,-0.004017831554613882,-0.029115586197877796,0,70,255.0,255.0,255.0
411,20.55,-4.536811541317717,-8.383567156012145,-7.912068881809242,-0.27247491846069927,-0.07943149074857914,-0.7100814262727255,-0.009745697305107902,-0.0032933145627450098,-0.027669612174806502,0,70,255.0,255.0,255.0
412,20.6,-4.550447446878696,-8.387542545310698,-7.94760693764892,-0.27296085430474315,-0.07957804355191968,-0.7114287575308892,-0.009691736456648491,-0.0025687975708761374,-0.026223638151735208,0,70,255.0,255.0,255.0
413,20.650000000000002,-4.564107581780819,-8.391524356603176,-7.983210552583979,-0.2734440921063641,-0.07968837050566677,-0.7127037900878991,-0.009637775608189078,-0.001844280579007265,-0.024777664128663918,0,70,255.0,255.0,255.0
414,20.700000000000003,-4.57779181112196,-8.395510778597105,-8.01887611167936,-0.2739246318655621,-0.07976247160982042,-0.7139065239437555,-0.009583814759729666,-0.0011197635871383923,-0.023331690105592624,0,70,255.0,255.0,255.0
415,20.75,-4.5915,-8.3995,-8.0546,-0.274402473582337,-0.0798003468643806,-0.7150369590984583,-0.009529853911268926,-0.00039524659526912753,-0.021885716082521434,0,70,255.0,255.0,255.0
416,20.8,-4.605232048585863,-8.403490811896084,-8.090379659752811,-0.27487972163935104,-0.07983813887148915,-0.7161585240695312,-0.00956006836929353,-0.0011164336890725816,-0.02297688276039144,0,70,255.0,255.0,255.0
417,20.85,-4.618987997342651,-8.407484414876395,-8.12621676171252,-0.27535848041926636,-0.07991199023328786,-0.7173346473744975,-0.009590282827318131,-0.0018376207828760354,-0.02406804943826145,0,70,255.0,255.0,255.0
418,20.900000000000002,-4.632767921806505,-8.411482611908658,-8.162114033795826,-0.2758387499220829,-0.08002190094977675,-0.7185653290133573,-0.009620497285342734,-0.002558807876679489,-0.025159216116131457,0,70,255.0,255.0,255.0
419,20.950000000000003,-4.646571897513574,-8.415487205960616,-8.198074203919422,-0.2763205301478006,-0.08016787102095581,-0.7198505689861108,-0.009650711743367337,-0.003279994970482943,-0.026250382794001464,0,70,255.0,255.0,255.0
420,21.0,-4.6604,-8.4195,-8.2341,-0.2768038210964196,-0.08034990044682502,-0.7211903672927574,-0.009680926201391049,-0.004001182064286235,-0.027341549471873172,0,70,255.0,255.0,255.0
421,21.05,-4.674252264338829,-8.423522396403511,-8.270193279179525,-0.27728619498189777,-0.08054395376545646,-0.7225324774491424,-0.009614029217736063,-0.00376095068097135,-0.026342856783527133,0,70,255.0,255.0,255.0
422,21.1,-4.688128563750704,-8.427554195183728,-8.306352415501006,-0.27776522401819326,-0.08072599551492217,-0.7238246529711101,-0.009547132234081077,-0.003520719297656465,-0.02534416409518109,0,70,255.0,255.0,255.0
423,21.150000000000002,-4.702028730993163,-8.431594795762184,-8.34257491223273,-0.2782409082053059,-0.08089602569522211,-0.7250668938586606,-0.009480235250426091,-0.0032804879143415798,-0.024345471406835052,0,70,255.0,255.0,255.0
424,21.200000000000003,-4.7159525988237485,-8.435643597560428,-8.378858272642967,-0.27871324754323584,-0.08105404430635632,-0.7262592001117938,-0.009413338266771105,-0.0030402565310266947,-0.023346778718489013,0,70,255.0,255.0,255.0
425,21.25,-4.7299,-8.4397,-8.4152,-0.27918224203198305,-0.0812000513483248,-0.7274015717305095,-0.009346441283116569,-0.0028000251477117155,-0.022348086030146597,0,70,255.0,255.0,255.0
426,21.3,-4.7438708940588175,-8.443763602489867,-8.451598423529095,-0.2796554984330542,-0.08134604606669593,-0.7285435661339029,-0.009583814759728963,-0.003039763587133696,-0.023331690105593786,0,70,255.0,255.0,255.0
427,21.35,-4.757865747654536,-8.447834804388702,-8.488055176283456,-0.280140623507956,-0.08150402770703817,-0.7297347407410689,-0.009821188236341356,-0.003279502026555676,-0.024315294181040975,0,70,255.0,255.0,255.0
428,21.400000000000002,-4.771885154220844,-8.451914205042604,-8.524572717273266,-0.28063761725668834,-0.0816739962693515,-0.7309750955520071,-0.01005856171295375,-0.003519240465977657,-0.025298898256488164,0,70,255.0,255.0,255.0
429,21.450000000000003,-4.7859297071914355,-8.456002403797672,-8.56115350550872,-0.2811464796792514,-0.08185595175363594,-0.7322646305667176,-0.010295935189566143,-0.0037589789053996373,-0.026282502331935353,0,70,255.0,255.0,255.0
430,21.5,-4.8,-8.4601,-8.5978,-0.281667210775645,-0.08204989415989145,-0.7336033457852007,-0.01053330866618074,-0.0039987173448208235,-0.02726610640738336,0,70,255.0,255.0,255.0
431,21.55,-4.814096159425897,-8.464207193637021,-8.634513826704097,-0.28217181128588414,-0.08223186196777317,-0.7349412580152354,-0.009650711743384553,-0.003279994970448453,-0.02625038279400121,0,70,255.0,255.0,255.0
432,21.6,-4.828216445631153,-8.468322587261467,-8.671293279365178,-0.28263228194998347,-0.08237789365693629,-0.7362283840646009,-0.008768114820588365,-0.0025612725960760824,-0.02523465918061906,0,70,255.0,255.0,255.0
433,21.650000000000002,-4.84235865212346,-8.472444384067401,-8.708135818674213,-0.28304862276794296,-0.08248798922738079,-0.7374647239332972,-0.007885517897792179,-0.001842550221703712,-0.02421893556723691,0,70,255.0,255.0,255.0
434,21.700000000000003,-4.8565205724105125,-8.476570787248892,-8.745038905322167,-0.28342083373976273,-0.08256214867910668,-0.7386502776213246,-0.007002920974995991,-0.0011238278473313414,-0.02320321195385476,0,70,255.0,255.0,255.0
435,21.75,-4.8707,-8.4807,-8.782,-0.28374891486544257,-0.08260037201211393,-0.7397850451286827,-0.006120324052199866,-0.00040510547295879995,-0.022187488340470907,0,70,255.0,255.0,255.0
436,21.8,-4.8848956682375935,-8.484830822962055,-8.819017469654518,-0.28408925642341654,-0.08263850606221368,-0.7409234018051576,-0.007493338266758551,-0.001120256531031282,-0.023346778718523725,0,70,255.0,255.0,255.0
437,21.85,-4.899110069820854,-8.488964446565436,-8.856093306255831,-0.2844982486921184,-0.08271239766521706,-0.7421197230005352,-0.008866352481317235,-0.0018354075891037639,-0.024506069096576544,0,70,255.0,255.0,255.0
438,21.900000000000002,-4.913346637285318,-8.493102658687791,-8.893230408029888,-0.2849758916715483,-0.08282204682112405,-0.7433740087148153,-0.010239366695875921,-0.002550558647176246,-0.025665359474629362,0,70,255.0,255.0,255.0
439,21.950000000000003,-4.927608803166521,-8.497247247206765,-8.930431673202628,-0.2855221853617061,-0.08296745352993469,-0.744686258947998,-0.011612380910434605,-0.003265709705248728,-0.02682464985268218,0,70,255.0,255.0,255.0
440,22.0,-4.9419,-8.5014,-8.9677,-0.28613712976259176,-0.08314861779164891,-0.7460564737000834,-0.012985395124992749,-0.003980860763320604,-0.027983940230731363,0,70,255.0,255.0,255.0
441,22.05,-4.95622276762373,-8.505562314514764,-9.005037094677837,-0.2867671630204552,-0.08334211378336691,-0.7474131347641484,-0.012215935189545302,-0.003758978905399132,-0.026282502331866884,0,70,255.0,255.0,255.0
442,22.1,-4.970576075085433,-8.509734026476789,-9.042439895611501,-0.2873587232815463,-0.08352451568218883,-0.7486847239332701,-0.011446475254097855,-0.00353709704747766,-0.024581064433002404,0,70,255.0,255.0,255.0
443,22.150000000000002,-4.984957998735272,-8.513914581181432,-9.079904149206246,-0.287911810545865,-0.08369582348811466,-0.7498712412074487,-0.010677015318650408,-0.0033152151895561883,-0.022879626534137925,0,70,255.0,255.0,255.0
444,22.200000000000003,-4.9993666149234075,-8.518103423924051,-9.117425601867332,-0.28842642481341135,-0.08385603720114444,-0.750972686586684,-0.00990755538320296,-0.0030933333316347164,-0.021178188635273446,0,70,255.0,255.0,255.0
445,22.25,-5.0138,-8.5223,-9.155,-0.2889025660841853,-0.08400515682127814,-0.751989060070976,-0.00913809544775468,-0.002871451473713038,-0.01947675073640731,0,70,255.0,255.0,255.0
446,22.3,-5.028256461267489,-8.526503918978895,-9.192624551634143,-0.2893540914947544,-0.08415303880430498,-0.7530080591382334,-0.00892292097500835,-0.0030438278473609495,-0.021283211953892715,0,70,255.0,255.0,255.0
447,22.35,-5.042735229837415,-8.530715447527408,-9.230302311298171,-0.28979485818168615,-0.08430953960601424,-0.7541173812663653,-0.008707746502262019,-0.003216204221008861,-0.023089673171378118,0,70,255.0,255.0,255.0
448,22.400000000000002,-5.057235767773597,-8.534935016586475,-9.268037795145128,-0.2902248661449806,-0.08447465922640589,-0.7553170264553714,-0.00849257202951569,-0.003388580594656772,-0.02489613438886352,0,70,255.0,255.0,255.0
449,22.450000000000003,-5.071757537139853,-8.539163057097028,-9.305835519328058,-0.29064411538463775,-0.08464839766547992,-0.7566069947052516,-0.00827739755676936,-0.0035609569683046835,-0.026702595606348925,0,70,255.0,255.0,255.0
450,22.5,-5.0863,-8.5434,-9.3437,-0.29105260590065757,-0.08483075492323634,-0.7579872860160063,-0.008062223084020825,-0.0037333333419525827,-0.028509056823833312,0,70,255.0,255.0,255.0
451,22.55,-5.100862587306316,-8.54764600956966,-9.381634298785594,-0.29144847100051957,-0.08500573099941637,-0.7593706286829199,-0.007772380910459638,-0.0032657097052484364,-0.026824649852714242,0,70,255.0,255.0,255.0
452,22.6,-5.115444605564908,-8.551900183413577,-9.419635659195816,-0.29182984399170353,-0.08515732589376118,-0.7606697510012778,-0.007482538736898451,-0.00279808606854429,-0.025140242881595172,0,70,255.0,255.0,255.0
453,22.650000000000002,-5.130045330170342,-8.55616135247267,-9.457699870213245,-0.29219672487420945,-0.0852855396062708,-0.7618846529710797,-0.007192696563337262,-0.0023304624318401437,-0.023455835910476102,0,70,255.0,255.0,255.0
454,22.700000000000003,-5.1446640365171845,-8.560428347687841,-9.49582272082045,-0.2925491136480373,-0.08539037213694521,-0.7630153345923254,-0.006902854389776076,-0.001862838795135997,-0.021771428939357032,0,70,255.0,255.0,255.0
455,22.75,-5.1593,-8.5647,-9.534,-0.292887010313187,-0.0854718234857844,-0.7640617958650152,-0.006613012216212688,-0.0013952151584316619,-0.020087021968236307,0,70,255.0,255.0,255.0
456,22.8,-5.17395318950725,-8.568975242742477,-9.57222865322349,-0.293252024503172,-0.08553603719803532,-0.7650934261301012,-0.007987555383189912,-0.0011733333316049168,-0.0211781886352041,0,70,255.0,255.0,255.0
457,22.85,-5.188626347902957,-8.57325341881828,-9.610510251918567,-0.29368576585150596,-0.08558915681894488,-0.7661796147285357,-0.009362098550167137,-0.0009514515047781716,-0.022269355302171896,0,70,255.0,255.0,255.0
458,22.900000000000002,-5.2033229115450395,-8.577533973522849,-9.648847524001901,-0.29418823435818875,-0.08563118234851314,-0.7673203616603185,-0.01073664171714436,-0.0007295696779514266,-0.023360521969139694,0,70,255.0,255.0,255.0
459,22.950000000000003,-5.2180463167914155,-8.58181635215161,-9.687243197390156,-0.2947594300232204,-0.08566211378674005,-0.7685156669254496,-0.012111184884121586,-0.0005076878511246814,-0.02445168863610749,0,70,255.0,255.0,255.0
460,23.0,-5.2328,-8.5861,-9.7257,-0.2953993528466009,-0.0856819511336256,-0.769765530523929,-0.013485728051096935,-0.00028580602429728597,-0.025542855303072542,0,70,255.0,255.0,255.0
461,23.05,-5.2475862546646885,-8.590385019460438,-9.764219888320453,-0.2960394309867973,-0.08573012020844076,-0.7710236667966656,-0.012117397556759515,-0.0016409569683089457,-0.024782595606387393,0,70,255.0,255.0,255.0
462,23.1,-5.262402802823268,-8.594674141313297,-9.80280173312992,-0.29661109260227686,-0.0858460468304565,-0.7722437900845679,-0.010749067062422096,-0.0029961079123206054,-0.024022335909702243,0,70,255.0,255.0,255.0
463,23.150000000000002,-5.277246223649505,-8.598970753435937,-9.841443633779164,-0.2971143376930396,-0.08602973099967282,-0.7734259003876358,-0.009380736568084677,-0.004351258856332265,-0.023262076213017093,0,70,255.0,255.0,255.0
464,23.200000000000003,-5.292113096317161,-8.603278243705716,-9.880143689618938,-0.2975491662590854,-0.08628117271608973,-0.7745699977058695,-0.008012406073747258,-0.005706409800343925,-0.022501816516331943,0,70,255.0,255.0,255.0
465,23.25,-5.307,-8.6076,-9.9189,-0.2979155783004142,-0.08660037197970719,-0.775676082039269,-0.006644075579408604,-0.007061560744355377,-0.021741556819648622,0,70,255.0,255.0,255.0
466,23.3,-5.321904191833999,-8.611938279415769,-9.957710993494706,-0.2982542515496438,-0.08691948196819511,-0.7767639066832442,-0.00690285438977503,-0.005702838795161228,-0.021771428939357663,0,70,255.0,255.0,255.0
467,23.35,-5.3368256408039745,-8.61629081592853,-9.99657641556176,-0.29860586373939174,-0.08717065585922332,-0.7778532249332047,-0.007161633200141456,-0.004344116845967078,-0.0218013010590667,0,70,255.0,255.0,255.0
468,23.400000000000002,-5.351764993856948,-8.6206542127334,-10.03549634088146,-0.298970414869658,-0.08735389365279181,-0.7789440367891509,-0.007420412010507882,-0.002985394896772928,-0.021831173178775743,0,70,255.0,255.0,255.0
469,23.450000000000003,-5.366722897939949,-8.625025073025515,-10.07447084413411,-0.2993479049404425,-0.08746919534890062,-0.7800363422510823,-0.0076791908208743076,-0.0016266729475787785,-0.021861045298484785,0,70,255.0,255.0,255.0
470,23.5,-5.3817,-8.6294,-10.1135,-0.2997383339517453,-0.08751656094754971,-0.7811301413189994,-0.00793796963124116,-0.000267950998384614,-0.02189091741819471,0,70,255.0,255.0,255.0
471,23.55,-5.396696977999316,-8.633776262876482,-10.15258413770073,-0.3001435628146292,-0.08753595191878744,-0.7822407064703562,-0.008271184884113408,-0.0005076878511243422,-0.022531688636075672,0,70,255.0,255.0,255.0
472,23.6,-5.411714633960842,-8.63815379497259,-10.191724604623053,-0.3005654524401567,-0.08756732973266215,-0.783383310182607,-0.008604400136985655,-0.0007474247038640703,-0.023172459853956634,0,70,255.0,255.0,255.0
473,23.650000000000002,-5.426753800922709,-8.642533195630458,-10.230923002695008,-0.3010040028283278,-0.08761069438917383,-0.7845579524557518,-0.008937615389857904,-0.0009871615566037985,-0.0238132310718376,0,70,255.0,255.0,255.0
474,23.700000000000003,-5.441815311923052,-8.646915064192218,-10.270180933844642,-0.30145921397914244,-0.08766604588832252,-0.7857646332897908,-0.009270830642730151,-0.0012268984093435267,-0.02445400228971856,0,70,255.0,255.0,255.0
475,23.75,-5.4569,-8.6513,-10.3095,-0.30193108589260076,-0.08773338423010818,-0.7870033526847237,-0.009604045895601487,-0.0014666352620826828,-0.025094773507599477,0,70,255.0,255.0,255.0
476,23.8,-5.472008696168741,-8.655688669078309,-10.348881255702375,-0.30241949719183475,-0.08781671035666735,-0.7882412674353226,-0.009932406073758676,-0.0018664098002843467,-0.02442181651636214,0,70,255.0,255.0,255.0
477,23.85,-5.4871422233526665,-8.660082004181115,-10.38832356594604,-0.30292432649997664,-0.08792002521013663,-0.7894455343363599,-0.010260766251915862,-0.0022661843384860106,-0.023748859525124802,0,70,255.0,255.0,255.0
478,23.900000000000002,-5.50230140245222,-8.66448100474477,-10.42782524833852,-0.30344557381702636,-0.08804332879051596,-0.7906161533878352,-0.010589126430073051,-0.0026659588766876742,-0.023075902533887464,0,70,255.0,255.0,255.0
479,23.950000000000003,-5.51748705436785,-8.668886670205618,-10.467384620487332,-0.3039832391429839,-0.08818662109780538,-0.7917531245897487,-0.01091748660823024,-0.0030657334148893383,-0.022402945542650127,0,70,255.0,255.0,255.0
480,24.0,-5.5327,-8.6733,-10.507,-0.30453732247784937,-0.08834990213200487,-0.7928564479421002,-0.011245846786385627,-0.003465507953090863,-0.02172998855141106,0,70,255.0,255.0,255.0
481,24.05,-5.547940237325723,-8.677721860810289,-10.546670039489774,-0.30505844841803076,-0.08852520665452236,-0.7939462237883476,-0.009599190820869173,-0.0035466729476086433,-0.02186104529848496,0,70,255.0,255.0,255.0
482,24.1,-5.5632044726285,-8.682152588302948,-10.586394731592792,-0.3054972415599363,-0.08870456942676574,-0.7950425524719487,-0.00795253485535272,-0.003627837942126424,-0.02199210204555886,0,70,255.0,255.0,255.0
483,24.150000000000002,-5.578488589268414,-8.686592385390462,-10.626174403950925,-0.30585370190356603,-0.08888799044873501,-0.7961454339929035,-0.0063058788898362654,-0.0037090029366442048,-0.022123158792632762,0,70,255.0,255.0,255.0
484,24.200000000000003,-5.593788470605552,-8.691041454985315,-10.666009384206038,-0.3061278294489199,-0.08907546972043016,-0.7972548683512121,-0.004659222924319812,-0.0037901679311619853,-0.022254215539706666,0,70,255.0,255.0,255.0
485,24.25,-5.6091,-8.6955,-10.7059,-0.30631962419599795,-0.0892670072418512,-0.7983708555468741,-0.0030125669588030313,-0.00387133292567976,-0.022385272286780555,0,70,255.0,255.0,255.0
486,24.3,-5.624420754528367,-8.699967887680534,-10.745846586338537,-0.3065307091360365,-0.08944246302522837,-0.7994938374112868,-0.005430830642739205,-0.003146898409406974,-0.022534002289723357,0,70,255.0,255.0,255.0
487,24.35,-5.6397550861333405,-8.704443642607092,-10.785849507682798,-0.30686270726027187,-0.0895816970827919,-0.8006242557758465,-0.007849094326675379,-0.0024224638931341874,-0.022682732292666156,0,70,255.0,255.0,255.0
488,24.400000000000002,-5.655109040474131,-8.708925453693384,-10.825909135857794,-0.3073156185687041,-0.08968470941454179,-0.8017621106405534,-0.010267358010611552,-0.0016980293768614008,-0.022831462295608958,0,70,255.0,255.0,255.0
489,24.450000000000003,-5.670488663209947,-8.713411509853117,-10.866025842688522,-0.30788944306133303,-0.08975150002047805,-0.8029074020054074,-0.012685621694547726,-0.0009735948605886146,-0.022980192298551756,0,70,255.0,255.0,255.0
490,24.5,-5.6859,-8.7179,-10.9062,-0.3085841807381588,-0.08978206890060064,-0.8040601298704085,-0.015103885378484616,-0.00024916034431554657,-0.023128922301494548,0,70,255.0,255.0,255.0
491,24.55,-5.701347144560811,-8.722389788467572,-10.946431615156081,-0.30928271503782656,-0.08981694124457916,-0.8051984265665121,-0.012837486608225448,-0.0011457334148254133,-0.022402945542649443,0,70,255.0,255.0,255.0
492,24.6,-5.716826382838142,-8.726882441268684,-10.986719237676022,-0.30986792939898133,-0.08989664224208319,-0.8063004244246735,-0.010571087837966278,-0.00204230648533528,-0.021676968783804342,0,70,255.0,255.0,255.0
493,24.650000000000002,-5.732332048835068,-8.731380199836007,-11.027061052617919,-0.31033982382162323,-0.09002117189311269,-0.8073661234448926,-0.008304689067707108,-0.002938879555845147,-0.020950992024959238,0,70,255.0,255.0,255.0
494,24.700000000000003,-5.747858476554662,-8.735885305602222,-11.067455245039877,-0.3106983983057521,-0.0901905301976677,-0.8083955236271694,-0.0060382902974479395,-0.0038354526263550135,-0.020225015266114137,0,70,255.0,255.0,255.0
495,24.75,-5.7634,-8.7404,-11.1079,-0.310943652851368,-0.09040471715574819,-0.8093886249715039,-0.0037718915271880427,-0.0047320256968641505,-0.019499038507264643,0,70,255.0,255.0,255.0
496,24.8,-5.778952267228393,-8.744925758449172,-11.14839415303714,-0.31115443071265564,-0.09061777199644884,-0.8103844563226774,-0.004659222924318941,-0.0037901679311617676,-0.020334215539675793,0,70,255.0,255.0,255.0
497,24.85,-5.794516182514097,-8.749460992318173,-11.18893914161313,-0.31140957514379985,-0.09078373394886437,-0.8114220465254715,-0.00554655432144984,-0.0028483101654593846,-0.021169392572086942,0,70,255.0,255.0,255.0
498,24.900000000000002,-5.810093964185604,-8.754003346962586,-11.22953705367055,-0.3117090861448007,-0.09090260301299478,-0.8125013955798861,-0.006433885718580739,-0.0019064523997570013,-0.022004569604498096,0,70,255.0,255.0,255.0
499,24.950000000000003,-5.825687830571408,-8.758550467738,-11.270189977151981,-0.312052963715658,-0.09097437918884008,-0.8136225034859212,-0.007321217115711638,-0.0009645946340546183,-0.022839746636909245,0,70,255.0,255.0,255.0
500,25.0,-5.8413,-8.7631,-11.3109,-0.3124412078563718,-0.09099906247640023,-0.814785370243577,-0.008208548512842473,-2.2736868351969086e-05,-0.02367492366931856,0,70,255.0,255.0,255.0
501,25.05,-5.85693258652562,-8.767650377735736,-11.351668572695361,-0.31286756211155636,-0.0910239707696246,-0.8159517481427738,-0.008845621694540028,-0.0009735948606226421,-0.022980192298551916,0,70,255.0,255.0,255.0
502,25.1,-5.872587287105475,-8.772203189458622,-11.392494595871469,-0.3133257700258258,-0.0910964219624625,-0.8170833894734323,-0.00948269487623758,-0.001924452852893315,-0.022285460927785276,0,70,255.0,255.0,255.0
503,25.150000000000002,-5.888265694422521,-8.776760812313643,-11.433376332699897,-0.31381583159918014,-0.09121641605491393,-0.8181802942355524,-0.010119768057935135,-0.002875310845163988,-0.021590729557018632,0,70,255.0,255.0,255.0
504,25.200000000000003,-5.903969401159711,-8.781325623445776,-11.474312046352217,-0.3143377468316193,-0.0913839530469789,-0.8192424624291341,-0.010756841239632688,-0.003826168837434661,-0.02089599818625199,0,70,255.0,255.0,255.0
505,25.25,-5.9197,-8.7859,-11.5153,-0.3148915157231434,-0.0915990329386574,-0.8202698940541775,-0.011393914421331086,-0.0047770268297053775,-0.020201266815481844,0,70,255.0,255.0,255.0
506,25.3,-5.935458186669132,-8.790485530607885,-11.556338756181416,-0.3154233208411131,-0.09181434492505805,-0.8212805511062182,-0.00987829029745615,-0.0038354526263206213,-0.020225015266144907,0,70,255.0,255.0,255.0
507,25.35,-5.951241069064008,-8.795080649847337,-11.597428074900998,-0.315879344752889,-0.09198257820128945,-0.8222923955807919,-0.008362666173581213,-0.002893878422935865,-0.020248763716807974,0,70,255.0,255.0,255.0
508,25.400000000000002,-5.967044858124318,-8.799683003782844,-11.638568015529872,-0.3162595874584712,-0.09210373276735165,-0.823305427477899,-0.0068470420497062775,-0.0019523042195511084,-0.020272512167471037,0,70,255.0,255.0,255.0
509,25.450000000000003,-5.982865764789753,-8.804290238478902,-11.679758637439166,-0.31656404895785967,-0.09217780862324458,-0.8243196467975391,-0.005331417925831341,-0.0010107300161663522,-0.0202962606181341,0,70,255.0,255.0,255.0
510,25.5,-5.9987,-8.8089,-11.721,-0.3167927292510544,-0.09220480576896828,-0.8253350535397124,-0.003815793801956957,-6.915581278144067e-05,-0.02032000906879361,0,70,255.0,255.0,255.0
511,25.55,-6.0145450667978535,-8.813510699832722,-11.762292402578975,-0.3170231545239962,-0.09223064953014003,-0.8263660474323551,-0.005401217115715818,-0.0009645946340884798,-0.02091974663691226,0,70,255.0,255.0,255.0
512,25.6,-6.030403636638495,-8.81812381115203,-11.803637104524542,-0.317332850962626,-0.09230126523237712,-0.8274270282034036,-0.006986640429474679,-0.001860033455395519,-0.021519484205030907,0,70,255.0,255.0,255.0
513,25.650000000000002,-6.04627967308021,-8.822741572554978,-11.845035605180623,-0.3177218185669437,-0.09241665287567957,-0.8285179958528582,-0.008572063743233539,-0.0027554722767025577,-0.02211922177314956,0,70,255.0,255.0,255.0
514,25.700000000000003,-6.062177139681285,-8.827366222638618,-11.886489403891138,-0.31819005733694933,-0.0925768124600474,-0.8296389503807186,-0.0101574870569924,-0.003650911098009597,-0.02271895934126821,0,70,255.0,255.0,255.0
515,25.75,-6.0781,-8.832,-11.928,-0.31873756727264285,-0.09278174398548053,-0.8307898917869849,-0.011742910370750703,-0.004546349919315906,-0.023318696909386816,0,70,255.0,255.0,255.0
516,25.8,-6.094051146139458,-8.836644470061223,-11.969568433502687,-0.31930006106290204,-0.09299105695439844,-0.831943259164375,-0.010756841239615941,-0.0038261688374003795,-0.02281599818621273,0,70,255.0,255.0,255.0
517,25.85,-6.1100291843820145,-8.841298505544541,-12.011193907000838,-0.31981325139660444,-0.09316436086922057,-0.8330714916056062,-0.00977077210848118,-0.0031059877554848532,-0.022313299463038647,0,70,255.0,255.0,255.0
518,25.900000000000002,-6.126031649554844,-8.845960305997243,-12.052875163747647,-0.32027713827375015,-0.09330165572994693,-0.8341745891106788,-0.008784702977346417,-0.0023858066735693265,-0.02181060073986456,0,70,255.0,255.0,255.0
519,25.950000000000003,-6.142056076485114,-8.850628070966632,-12.094610946996303,-0.3206917216943391,-0.09340294153657751,-0.8352525516795928,-0.007798633846211655,-0.0016656255916538002,-0.021307902016690475,0,70,255.0,255.0,255.0
520,26.0,-6.1581,-8.8553,-12.1364,-0.3210570016583713,-0.0934682182891123,-0.8363053793123478,-0.006812564715076963,-0.0009454445097377695,-0.020805203293518204,0,70,255.0,255.0,255.0
521,26.05,-6.174161548644317,-8.859974619922385,-12.178241063410287,-0.32140860122439435,-0.09351712265225991,-0.8373329159101391,-0.007251417925844545,-0.0010107300161662956,-0.02029626061813338,0,70,255.0,255.0,255.0
522,26.1,-6.190241225833449,-8.864651766669816,-12.22013286747212,-0.32178214345095574,-0.09356929129072893,-0.8383350053741612,-0.007690271136612127,-0.0010760155225948216,-0.01978731794274856,0,70,255.0,255.0,255.0
523,26.150000000000002,-6.206340128700423,-8.869331603456049,-12.262074139828808,-0.3221776283380556,-0.09362472420451938,-0.839311647704414,-0.00812912434737971,-0.0011413010290233477,-0.019278375267363736,0,70,255.0,255.0,255.0
524,26.200000000000003,-6.222459354378264,-8.874014293494854,-12.304063608123665,-0.32259505588569376,-0.09368342139363127,-0.8402628429008976,-0.008567977558147291,-0.0012065865354518738,-0.018769432591978913,0,70,255.0,255.0,255.0
525,26.25,-6.2386,-8.8787,-12.3461,-0.32303442609387023,-0.09374538285806457,-0.841188590963612,-0.009006830768915286,-0.0012718720418803953,-0.018260489916593237,0,70,255.0,255.0,255.0
526,26.3,-6.2547626592832755,-8.88338905024923,-12.38818251285617,-0.323465534039518,-0.09382045243656277,-0.8421170771950596,-0.008237487056996774,-0.0017309110980479778,-0.018878959341309995,0,70,255.0,255.0,255.0
527,26.35,-6.2709459122841915,-8.888082427776204,-12.430312223110693,-0.32385817479956996,-0.09391847396786937,-0.8430764868977431,-0.00746814334507826,-0.0021899501542155604,-0.019497428766026753,0,70,255.0,255.0,255.0
528,26.400000000000002,-6.287147835643472,-8.892781280178564,-12.472490676937134,-0.3242123483740259,-0.09403944745198432,-0.8440668200716623,-0.006698799633159747,-0.0026489892103831432,-0.02011589819074351,0,70,255.0,255.0,255.0
529,26.450000000000003,-6.303366506001836,-8.897486755053949,-12.51471942050905,-0.3245280547628859,-0.09418337288890768,-0.8450880767168174,-0.0059294559212412345,-0.0031080282665507256,-0.02073436761546027,0,70,255.0,255.0,255.0
530,26.5,-6.3196,-8.9022,-12.557,-0.32480529396615,-0.0943502502786394,-0.8461402568332083,-0.005160112209322776,-0.003567067322718054,-0.021352837040171657,0,70,255.0,255.0,255.0
531,26.55,-6.335847014222585,-8.906921979080698,-12.599333685165034,-0.325081262617538,-0.09452906760149772,-0.847206775309629,-0.005878633846199054,-0.003585625591614883,-0.021307902016655157,0,70,255.0,255.0,255.0
532,26.6,-6.352108725029785,-8.911652922225375,-12.641720640085111,-0.3253931573507699,-0.09470881283780089,-0.8482710470348738,-0.006597155483075333,-0.003604183860511712,-0.021262966993138652,0,70,255.0,255.0,255.0
533,26.650000000000002,-6.368386928725693,-8.916392875829702,-12.68416075242267,-0.3257409781658456,-0.0948894859875489,-0.8493330720089428,-0.007315677119951611,-0.003622742129408541,-0.02121803196962215,0,70,255.0,255.0,255.0
534,26.700000000000003,-6.384683421614401,-8.921141886289353,-12.726653909840156,-0.3261247250627651,-0.09507108705074176,-0.8503928502318361,-0.00803419875682789,-0.0036413003983053705,-0.021173096946105648,0,70,255.0,255.0,255.0
535,26.75,-6.401,-8.9259,-12.7692,-0.32654439804152835,-0.09525361602737945,-0.8514503817035532,-0.008752720393703228,-0.003659858667202087,-0.021128161922586486,0,70,255.0,255.0,255.0
536,26.8,-6.417338083826387,-8.930667033427982,-12.811798746483694,-0.3269774154903246,-0.09542327715744568,-0.8524958215664173,-0.00856797755814682,-0.0031265865354473212,-0.02068943259197517,0,70,255.0,255.0,255.0
537,26.85,-6.4336975875966695,-8.935441883322303,-12.854449216548867,-0.32740119579734306,-0.09556627468092417,-0.8535193249627507,-0.008383234722590411,-0.0025933144036925553,-0.020250703261363856,0,70,255.0,255.0,255.0
538,26.900000000000002,-6.450078049453759,-8.940223216502632,-12.897150313372194,-0.32781573896258365,-0.09568260859781495,-0.8545208918925538,-0.008198491887034002,-0.0020600422719377893,-0.019811973930752538,0,70,255.0,255.0,255.0
539,26.950000000000003,-6.466479007540566,-8.94500969978864,-12.939900940130348,-0.32822104498604643,-0.09577227890811797,-0.8555005223558261,-0.008013749051477594,-0.0015267701401830234,-0.019373244600141223,0,70,255.0,255.0,255.0
540,27.0,-6.4829,-8.9498,-12.9827,-0.3286171138677314,-0.09583528561183324,-0.8564582163525678,-0.00782900621591942,-0.0009934980084280731,-0.018934515269528163,0,70,255.0,255.0,255.0
541,27.05,-6.499340650471867,-8.954593087207376,-13.025546528900191,-0.3290090754211607,-0.09588982376870868,-0.8574019384246935,-0.007849455921253324,-0.0011880282665891278,-0.018814367615496506,0,70,255.0,255.0,255.0
542,27.1,-6.515800924583538,-8.959389144485419,-13.068440093719424,-0.3294020594598568,-0.09595408843849215,-0.8583396531141175,-0.007869905626587227,-0.0013825585247501826,-0.01869421996146485,0,70,255.0,255.0,255.0
543,27.150000000000002,-6.532280873459274,-8.964188658159774,-13.111380394088561,-0.32979606598381944,-0.09602807962118369,-0.85927136042084,-0.00789035533192113,-0.0015770887829112373,-0.018574072307433194,0,70,255.0,255.0,255.0
544,27.200000000000003,-6.54878054822334,-8.968992114556086,-13.154367129638466,-0.3301910949930489,-0.09611179731678328,-0.8601970603448609,-0.007910805037255032,-0.0017716190410722922,-0.018453924653401538,0,70,255.0,255.0,255.0
545,27.25,-6.5653,-8.9738,-13.1974,-0.330587146487545,-0.0962052415252909,-0.8611167528861801,-0.00793125474258849,-0.001966149299233222,-0.01833377699936989,0,70,255.0,255.0,255.0
546,27.3,-6.581839314286145,-8.978612617742513,-13.240479137915537,-0.33098628282503045,-0.09629742776772862,-0.8620564247348163,-0.008034198756827406,-0.0017213003982758234,-0.01925309694607479,0,70,255.0,255.0,255.0
547,27.35,-6.598398714069181,-8.983429538736022,-13.283606408573437,-0.3313905663632278,-0.0963773715651185,-0.8630420625807875,-0.008137142771066322,-0.0014764514973184249,-0.020172416892779692,0,70,255.0,255.0,255.0
548,27.400000000000002,-6.614978456709146,-8.988250150858274,-13.326784110273572,-0.3317999971021371,-0.09644507291746048,-0.8640736664240942,-0.008240086785305238,-0.0012316025963610261,-0.021091736839484593,0,70,255.0,255.0,255.0
549,27.450000000000003,-6.631578799566075,-8.993073841987018,-13.370014541315806,-0.3322145750417583,-0.09650053182475458,-0.8651512362647361,-0.008343030799544154,-0.0009867536954036276,-0.022011056786189497,0,70,255.0,255.0,255.0
550,27.5,-6.6482,-8.9979,-13.4133,-0.33263430018209145,-0.09654374828700084,-0.866274772102713,-0.008445974813783064,-0.0007419047944462465,-0.02293037673289522,0,70,255.0,255.0,255.0
551,27.55,-6.664842092383554,-9.002728441822569,-13.456641719437663,-0.33304579327872297,-0.09660046516036656,-0.8673803626360388,-0.008013749051476976,-0.0015267701401829982,-0.02129324460013693,0,70,255.0,255.0,255.0
552,27.6,-6.681504219139737,-9.00756070057049,-13.500036671986829,-0.33343567508723915,-0.09669642530101914,-0.8684040965627268,-0.0075815232891708875,-0.00231163548591975,-0.019656112467378636,0,70,255.0,255.0,255.0
553,27.650000000000002,-6.698185299704144,-9.012398738407128,-13.54348076481716,-0.3338039456076401,-0.09683162870895855,-0.8693459738827767,-0.007149297526864799,-0.0030965008316565013,-0.018018980334620346,0,70,255.0,255.0,255.0
554,27.700000000000003,-6.714884253512367,-9.017244517495842,-13.586969905098329,-0.33415060483992565,-0.09700607538418479,-0.8702059945961887,-0.00671707176455871,-0.003881366177393253,-0.016381848201862056,0,70,255.0,255.0,255.0
555,27.75,-6.7316,-9.0221,-13.6305,-0.3344756527840959,-0.09721976532669788,-0.8709841587029628,-0.006284846002252653,-0.00466623152313006,-0.014744716069104769,0,70,255.0,255.0,255.0
