idx,t,px,py,pz,vx,vy,vz,ax,ay,az,yaw,mode,ledr,ledg,ledb
0,0.0,10.5,10.5,0.0,-0.0008518194674654589,-0.0006702091464913249,0.0025868140524541797,0.02302183360962673,-0.0015574902420533061,-0.07424176862945016,0,70,255.0,255.0,255.0
1,0.05,10.49998613449917,10.499963872470726,3.632530588835046e-05,0.0002961630449676251,-0.000788296207383896,-0.0011380655358710775,0.022897466887696626,-0.003165992193649539,-0.07475341490356013,0,70,255.0,255.0,255.0
2,0.1,10.500029512665563,10.49991982996097,-0.00011423292548219943,0.001437927221304204,-0.000986808365856279,-0.004888527437901833,0.022773100165766523,-0.004774494145245772,-0.0752650611776701,0,70,255.0,255.0,255.0
3,0.15000000000000002,10.500129823582366,10.499863851215848,-0.0004529538097969247,0.002573473061544278,-0.0012657456219084733,-0.00866457165363809,0.022648733443836423,-0.006382996096842005,-0.07577670745178007,0,70,255.0,255.0,255.0
4,0.2,10.50028675633278,10.499791914980486,-0.0009811164627411,0.0037028005656878464,-0.0016251079755404793,-0.01246619818307984,0.02252436672190632,-0.007991498048438237,-0.07628835372589003,0,70,255.0,255.0,255.0
5,0.25,10.5005,10.4997,-0.0017,0.004825909733734909,-0.002064895426752297,-0.01629340702622709,0.022399999999976217,-0.009600000000034473,-0.0767999999999999,0,70,255.0,255.0,255.0
6,0.30000000000000004,10.50076924366722,10.499584085019515,-0.002610883537258901,0.005942800565685469,-0.002585107975543927,-0.02014619818307984,0.022275633278046113,-0.011208501951630706,-0.07731164627410994,0,70,255.0,255.0,255.0
7,0.35000000000000003,10.501094176417634,10.499440148784155,-0.003715046190203076,0.007053473061539521,-0.0031857456219153675,-0.024024571653638086,0.02215126655611601,-0.012817003903226935,-0.07782329254821999,0,70,255.0,255.0,255.0
8,0.4,10.501474487334438,10.49926417003903,-0.0050137670745178005,0.00815792722129707,-0.0038668083658666198,-0.027928527437901834,0.02202689983418591,-0.014425505854823165,-0.07833493882233003,0,70,255.0,255.0,255.0
9,0.45,10.501909865500828,10.499052127529275,-0.006508325305888351,0.009256163044958113,-0.004628296207397685,-0.03185806553587109,0.021902533112255807,-0.016034007806419396,-0.07884658509644007,0,70,255.0,255.0,255.0
10,0.5,10.5024,10.4988,-0.0082,0.01034818053252265,-0.00547020914650856,-0.03581318594754584,0.02177816639032573,-0.017642509758015644,-0.07935823137054998,0,70,255.0,255.0,255.0
11,0.55,10.502944890831952,10.498505387451209,-0.010089591156852753,0.011452634692281052,-0.0062952718904577725,-0.03976514173180959,0.022400000000010335,-0.015359999999952835,-0.07871999999999994,0,70,255.0,255.0,255.0
12,0.6000000000000001,10.503545781663902,10.498172374902419,-0.012175982313705504,0.012588180532523686,-0.007006209146503844,-0.04368518594754584,0.02302183360969494,-0.013077490241890028,-0.0780817686294499,0,70,255.0,255.0,255.0
13,0.65,10.504204227079878,10.497806668628023,-0.014457577892131876,0.013754818053250545,-0.007603020914646775,-0.04757331859475458,0.02364366721937954,-0.010794980483827224,-0.07744353725889988,0,70,255.0,255.0,255.0
14,0.7000000000000001,10.504921781663903,10.49741397490242,-0.016932782313705503,0.01495254725446164,-0.008085707194886566,-0.051429539673435824,0.024265500829064143,-0.008512470725764417,-0.07680530588834984,0,70,255.0,255.0,255.0
15,0.75,10.5057,10.497,-0.0196,0.01618136813615696,-0.008454267987223218,-0.055253849183589554,0.024887334438748715,-0.006229960967701648,-0.07616707451779936,0,70,255.0,255.0,255.0
16,0.8,10.506539993004974,10.496568765175645,-0.0224579518353301,0.017414660665174928,-0.008809804462625862,-0.05906523488968179,0.024444366721970038,-0.00799149804840414,-0.07628835372588987,0,70,255.0,255.0,255.0
17,0.8500000000000001,10.507441096926751,10.49611755160617,-0.025506624554974926,0.018625804808353966,-0.009253417792063633,-0.06288268455617856,0.024001399005191364,-0.009753035129106632,-0.07640963293398037,0,70,255.0,255.0,255.0
18,0.9,10.508402204346044,10.495641955448871,-0.028746321356954697,0.019814800565694065,-0.009785107975536524,-0.06670619818307982,0.02355843128841269,-0.011514572209809122,-0.07653091214207089,0,70,255.0,255.0,255.0
19,0.9500000000000001,10.509422207843558,10.495137572861047,-0.03217734543928965,0.020981647937195234,-0.010404875013044546,-0.07053577577038564,0.023115463571634014,-0.013276109290511614,-0.0766521913501614,0,70,255.0,255.0,255.0
20,1.0,10.5105,10.4946,-0.0358,0.022126346922857466,-0.011112718904587688,-0.07437141731809596,0.022672495854855396,-0.015037646371214089,-0.0767734705582519,0,70,255.0,255.0,255.0
21,1.05,10.511634337148152,10.49402595184621,-0.03961460150182686,0.023240722647034393,-0.01184151025902949,-0.07821391870946327,0.021902533112221737,-0.014114007806457964,-0.07692658509644024,0,70,255.0,255.0,255.0
22,1.1,10.512823430629085,10.493416618672901,-0.043621519466394816,0.024316600234079642,-0.012524119685233486,-0.08206407582773999,0.021132570369588082,-0.01319036924170184,-0.07707969963462857,0,70,255.0,255.0,255.0
23,1.1500000000000001,10.51406535553594,10.49277430957649,-0.04782113668004936,0.025353979683993205,-0.013160547183199676,-0.08592188867292613,0.020362607626954424,-0.012266730676945715,-0.07723281417281691,0,70,255.0,255.0,255.0
24,1.2000000000000002,10.515358186961866,10.492101333653386,-0.052213835929135935,0.026352860996775085,-0.013750792752928058,-0.0897873572450217,0.01959264488432077,-0.01134309211218959,-0.07738592871100525,0,70,255.0,255.0,255.0
25,1.25,10.5167,10.4914,-0.0568,0.02731324417242528,-0.014294856394418631,-0.09366048154402663,0.018822682141687058,-0.010419453547433455,-0.07753904324919325,0,70,255.0,255.0,255.0
26,1.3,10.51808985840242,10.49067222743952,-0.06157964215736248,0.028294448746693433,-0.014816154501248466,-0.0975190902724652,0.02042550082903894,-0.010432470725759969,-0.07680530588834952,0,70,255.0,255.0,255.0
27,1.35,10.51953078055691,10.489918373702228,-0.06655129757944583,0.029355794255329175,-0.01533810346699463,-0.10134101213286159,0.022028319516390824,-0.01044548790408648,-0.07607156852750581,0,70,255.0,255.0,255.0
28,1.4000000000000001,10.521026773510192,10.489138406245173,-0.07171313192284795,0.030497280698332515,-0.015860703291657115,-0.10512624712521579,0.023631138203742706,-0.010458505082412995,-0.07533783116666208,0,70,255.0,255.0,255.0
29,1.4500000000000002,10.522581844308982,10.488332292525413,-0.07706331084416672,0.03171890807570345,-0.01638395397523593,-0.10887479524952781,0.02523395689109459,-0.010471522260739507,-0.07460409380581835,0,70,255.0,255.0,255.0
30,1.5,10.5242,10.4875,-0.0826,0.03302067638744197,-0.016907855517731066,-0.11258665650579762,0.026836775578446603,-0.010484539439066076,-0.0738703564449753,0,70,255.0,255.0,255.0
31,1.55,10.525883829242176,10.486641138395711,-0.08832202986872326,0.03431748236619474,-0.01745387173597062,-0.11630172020067604,0.025035463571663717,-0.011356109290516114,-0.07473219135016154,0,70,255.0,255.0,255.0
32,1.6,10.52763024714328,10.485753886518195,-0.09423089021582194,0.03552422274460835,-0.018043466446782678,-0.12005987564081379,0.02323415156488083,-0.012227679141966154,-0.07559402625534777,0,70,255.0,255.0,255.0
33,1.6500000000000001,10.529434750423299,10.484836065442822,-0.10032873562855898,0.03664089752268282,-0.018676639650167238,-0.12386112282621083,0.021432839558097945,-0.013099248993416192,-0.076455861160534,0,70,255.0,255.0,255.0
34,1.7000000000000002,10.53129283580221,10.48388549624497,-0.10661772069419735,0.037667506700418144,-0.0193533913461243,-0.12770546175686717,0.01963152755131506,-0.013970818844866232,-0.07731769606572024,0,70,255.0,255.0,255.0
35,1.75,10.5332,10.4829,-0.1131,0.03860405027781432,-0.02007372153465386,-0.13159289243278285,0.01783021554453207,-0.014842388696316322,-0.07817953097090657,0,70,255.0,255.0,255.0
36,1.8,10.53515322462888,10.48187841897764,-0.1197770383677445,0.03953962178853479,-0.020776358554867248,-0.13548202892483063,0.01959264488428657,-0.01326309211221922,-0.07738592871100489,0,70,255.0,255.0,255.0
37,1.85,10.53715543086997,10.480823680225,-0.1266475415572665,0.04056331476624298,-0.02140003074587578,-0.13933148530388334,0.021355074224041072,-0.011683795528122118,-0.07659232645110321,0,70,255.0,255.0,255.0
38,1.9000000000000001,10.539211024796622,10.47973973198354,-0.13370952556291626,0.041675129210938903,-0.02194473810767946,-0.14314126156994098,0.023117503563795577,-0.010104498944025016,-0.07579872419120152,0,70,255.0,255.0,255.0
39,1.9500000000000002,10.541324412482181,10.47863052249472,-0.14096100637904402,0.04287506512262254,-0.022410480640278282,-0.1469113577230035,0.02487993290355008,-0.008525202359927913,-0.07500512193129984,0,70,255.0,255.0,255.0
40,2.0,10.5435,10.4775,-0.1484,0.04416312250129391,-0.02279725834367225,-0.15064177376307097,0.02664236224330485,-0.0069459057758309295,-0.07421151967139838,0,70,255.0,255.0,255.0
41,2.0500000000000003,10.545740872242305,10.476350785693727,-0.15602501666029883,0.04546003047965476,-0.02318469404458492,-0.15436216410000142,0.025233956891128853,-0.008551522260675834,-0.07460409380581882,0,70,255.0,255.0,255.0
42,2.1,10.548044829376838,10.475180192581803,-0.16383654355511215,0.04668651819040679,-0.023652410569739834,-0.15810218314365287,0.02382555153895287,-0.010157138745520725,-0.07499666794023926,0,70,255.0,255.0,255.0
43,2.15,10.550408350390219,10.473984206623015,-0.1718355621197761,0.04784258563355004,-0.02420040791913699,-0.1618618308940253,0.022417146186776885,-0.011762755230365615,-0.07538924207465972,0,70,255.0,255.0,255.0
44,2.2,10.552827914269068,10.472758813776153,-0.1800230537896267,0.04892823280908449,-0.0248286860927764,-0.16564110735111884,0.021008740834600886,-0.01336837171521052,-0.07578181620908016,0,70,255.0,255.0,255.0
45,2.25,10.5553,10.4715,-0.1884,0.04994345971701013,-0.025537245090658047,-0.16944001251493337,0.019600335482424902,-0.014973988200055549,-0.07617439034350038,0,70,255.0,255.0,255.0
46,2.3000000000000003,10.557821686401901,10.470204838247447,-0.19696689499106038,0.05092425629285363,-0.026260865266781095,-0.1732293146751639,0.019631527551314965,-0.013970818844866261,-0.07539769606571975,0,70,255.0,255.0,255.0
47,2.35,10.560392451622675,10.468874749447785,-0.20572228422228497,0.05190661247214163,-0.026934326975144675,-0.17697978212150536,0.01966271962020503,-0.012967649489676984,-0.07462100178793914,0,70,255.0,255.0,255.0
48,2.4000000000000004,10.563012373642504,10.467512241524398,-0.21466422595797946,0.05289052825487413,-0.027557630215748793,-0.18069141485395782,0.019693911689095088,-0.011964480134487697,-0.07384430751015851,0,70,255.0,255.0,255.0
49,2.45,10.565681530441553,10.466119822400673,-0.22379077846244924,0.05387600364105114,-0.028130774988593447,-0.1843642128725212,0.01972510375798515,-0.01096131077929842,-0.07306761323237788,0,70,255.0,255.0,255.0
50,2.5,10.5684,10.4647,-0.2331,0.05486303863067264,-0.028653761293678633,-0.18799817617719555,0.019756295826874992,-0.00995814142410903,-0.07229091895459705,0,70,255.0,255.0,255.0
51,2.5500000000000003,10.571168382150098,10.46325466131648,-0.24259060337546004,0.05588294434893265,-0.02916384488828115,-0.19163257719934298,0.021039932903524978,-0.010445202359991631,-0.07308512193129985,0,70,255.0,255.0,255.0
52,2.6,10.573989364132458,10.46178320962706,-0.25226391955574823,0.05696703192102514,-0.029698281529677798,-0.19530668837032553,0.022323569980174953,-0.010932263295874229,-0.07387932490800261,0,70,255.0,255.0,255.0
53,2.6500000000000004,10.576866155039767,10.460284427279399,-0.2621219340483065,0.05811530134695014,-0.030257071217868577,-0.19902050969014326,0.02360720705682494,-0.01141932423175683,-0.07467352788470541,0,70,255.0,255.0,255.0
54,2.7,10.579801963964716,10.458757096621161,-0.27216663236057653,0.05932775262670764,-0.030840213952853482,-0.2027740411587961,0.024890844133474914,-0.011906385167639429,-0.07546773086140819,0,70,255.0,255.0,255.0
55,2.75,10.5828,10.4572,-0.2824,0.06060438576029762,-0.03144770973463252,-0.20656728277628408,0.0261744812101245,-0.012393446103522165,-0.07626193383811075,0,70,255.0,255.0,255.0
56,2.8000000000000003,10.585862384997705,10.455612516486635,-0.2928234915070998,0.061879966311415534,-0.032043755180100095,-0.21036837652746387,0.02484874083459186,-0.01144837171518101,-0.07578181620908055,0,70,255.0,255.0,255.0
57,2.85,10.588986891847496,10.45399641204398,-0.30343643755472216,0.06308925984375681,-0.03259254690615062,-0.21414546439719212,0.023523000459059227,-0.010503297326839864,-0.07530169858005036,0,70,255.0,255.0,255.0
58,2.9000000000000004,10.592170206198434,10.45235404935801,-0.3142376378487948,0.06423226635732146,-0.033094084912784094,-0.21789854638546893,0.022197260083526585,-0.009558222938498711,-0.07482158095102016,0,70,255.0,255.0,255.0
59,2.95,10.59540901369958,10.450687791114692,-0.32522589209524494,0.06530898585210948,-0.03354836920000049,-0.22162762249229417,0.020871519707993953,-0.008613148550157565,-0.07434146332198996,0,70,255.0,255.0,255.0
60,3.0,10.5987,10.449,-0.3364,0.06631941832812084,-0.03395539976779985,-0.22533269271766787,0.019545779332461044,-0.007668074161816474,-0.07386134569295999,0,70,255.0,255.0,255.0
61,3.0500000000000003,10.60204047785908,10.447292072736985,-0.3477586305961411,0.06730119040538285,-0.034373134391326984,-0.22900591669080136,0.01972510375801917,-0.009041310779268714,-0.073067613232379,0,70,255.0,255.0,255.0
62,3.1,10.605430268477559,10.445561542197021,-0.359299930225363,0.06829192870392276,-0.03485953084572672,-0.23263945404090577,0.019904428183577294,-0.010414547396720944,-0.07227388077179801,0,70,255.0,255.0,255.0
63,3.1500000000000004,10.608869820166495,10.443804975288561,-0.37102191455651445,0.06929163322374059,-0.035414589130999076,-0.23623330476798118,0.02008375260913542,-0.011787784014173184,-0.07148014831121702,0,70,255.0,255.0,255.0
64,3.2,10.612359581236955,10.442018938920071,-0.38292259925844396,0.0703003039648363,-0.03603830924714404,-0.23978746887202748,0.020263077034693544,-0.013161020631625414,-0.07068641585063604,0,70,255.0,255.0,255.0
65,3.25,10.6159,10.4402,-0.395,0.07131794092720992,-0.036730691194161606,-0.24330194635304475,0.020442401460251336,-0.014534257249077476,-0.0698926833900555,0,70,255.0,255.0,255.0
66,3.3000000000000003,10.619491703565966,10.438345592565431,-0.4072531861083363,0.07235527206705329,-0.037439707254580276,-0.24683995670933134,0.021050844133483664,-0.013826385167669082,-0.0716277308614072,0,70,255.0,255.0,255.0
67,3.35,10.623136034242266,10.436456619167943,-0.419685441543826,0.07342302534055829,-0.03811332971092851,-0.25046471943918547,0.021659286806715985,-0.013118513086260695,-0.07336277833275888,0,70,255.0,255.0,255.0
68,3.4000000000000004,10.626834513135584,10.43453484948774,-0.43230110392514765,0.07452120074772489,-0.03875155856320635,-0.25417623454260724,0.02226772947994831,-0.012410641004852303,-0.07509782580411059,0,70,255.0,255.0,255.0
69,3.45,10.630588661352599,10.432582053205024,-0.4451045108709795,0.07564979828855312,-0.03935439381141375,-0.25797450201959654,0.02287617215318063,-0.011702768923443916,-0.07683287327546227,0,70,255.0,255.0,255.0
70,3.5,10.6344,10.4306,-0.4581,0.07680881796304295,-0.03992183545555073,-0.26185952187015343,0.02348461482641273,-0.010994896842035529,-0.07856792074681396,0,70,255.0,255.0,255.0
71,3.5500000000000003,10.638269507877052,10.428590357001292,-0.47129022497051426,0.07796572132640216,-0.04046003659035631,-0.2657302564718736,0.022791519707955208,-0.010533148550187285,-0.0762614633219896,0,70,255.0,255.0,255.0
72,3.6,10.642195994553374,10.426554381131208,-0.4846711035993334,0.07908796993383847,-0.04097515031056947,-0.2694856682023524,0.02209842458949769,-0.010071400258339046,-0.07395500589716528,0,70,255.0,255.0,255.0
73,3.6500000000000004,10.646177727291171,10.424493226760479,-0.4982368697428955,0.08017556378535193,-0.04146717661619021,-0.2731257570615901,0.021405329471040162,-0.009609651966490803,-0.07164854847234092,0,70,255.0,255.0,255.0
74,3.7,10.650212973352644,10.422408048259832,-0.5119817572576384,0.0812285028809425,-0.04193611550721854,-0.2766505230495865,0.020712234352582647,-0.009147903674642565,-0.0693420910475166,0,70,255.0,255.0,255.0
75,3.75,10.6543,10.4203,-0.5259,0.08224678722061018,-0.042381966983654464,-0.2800599661663417,0.020019139234124683,-0.008686155382794325,-0.06703563362268872,0,70,255.0,255.0,255.0
76,3.8000000000000003,10.658437464925823,10.4181697794294,-0.5399875140096072,0.08325384262733149,-0.042832146384013475,-0.2834550174031748,0.02026307703472732,-0.009321020631566049,-0.06876641585063395,0,70,255.0,255.0,255.0
77,3.85,10.662625587544234,10.416016256307223,-0.5542469440588408,0.08427309492408291,-0.043314069046811066,-0.2869366077514051,0.02050701483532995,-0.009955885880337769,-0.07049719807857917,0,70,255.0,255.0,255.0
78,3.9000000000000004,10.666864977699731,10.413837843470345,-0.5686826171032711,0.08530454411086448,-0.04382773497204725,-0.2905047372110327,0.020750952635932587,-0.010590751129109493,-0.07222798030652441,0,70,255.0,255.0,255.0
79,3.95,10.671156245236821,10.411632953755646,-0.5832988600984674,0.08634819018767619,-0.044373144159722024,-0.29415940578205757,0.02099489043653522,-0.011225616377881211,-0.07395876253446963,0,70,255.0,255.0,255.0
80,4.0,10.6755,10.4094,-0.5981,0.08740403315451802,-0.04495029660983536,-0.2979006134644796,0.021238828237138185,-0.011860481626652652,-0.07568954476241263,0,70,255.0,255.0,255.0
81,4.05,10.679896632419656,10.407137725281101,-0.6130893189910575,0.0884589081642761,-0.04553937787358778,-0.30166567391542654,0.02095617215318517,-0.011702768923443841,-0.0749128732754647,0,70,255.0,255.0,255.0
82,4.1000000000000005,10.68434565526969,10.404846193639894,-0.6282659201653036,0.08949965036983654,-0.046120573502179754,-0.3053919007920261,0.020673516069232154,-0.011545056220235026,-0.07413620178851675,0,70,255.0,255.0,255.0
83,4.15,10.688846361909901,10.402525799358136,-0.6436278618440211,0.09052625977119932,-0.04669388349561129,-0.30907929409427826,0.02039085998527914,-0.011387343517026215,-0.07335953030156883,0,70,255.0,255.0,255.0
84,4.2,10.693398045700073,10.400176936717585,-0.6591732023484922,0.09153873636836445,-0.04725930785388237,-0.31272785382218293,0.020108203901326126,-0.011229630813817403,-0.0725828588146209,0,70,255.0,255.0,255.0
85,4.25,10.698,10.3978,-0.6749,0.09253708016133191,-0.04781684657699301,-0.31633757997574025,0.019825547817372557,-0.011071918110608425,-0.07180618732767163,0,70,255.0,255.0,255.0
86,4.3,10.70265200539556,10.395395319446193,-0.6908064100261632,0.09355052471557992,-0.048370342121625026,-0.31991428693511986,0.02071223435254814,-0.01106790367467222,-0.07126209104751409,0,70,255.0,255.0,255.0
87,4.3500000000000005,10.707355791377006,10.392962969133201,-0.7068909752799454,0.09460830359658674,-0.048923636944460246,-0.3234637890804917,0.021598920887723735,-0.011063889238736014,-0.07071799476735653,0,70,255.0,255.0,255.0
88,4.4,10.712113574660666,10.39050295909711,-0.7231523355206457,0.0957104168043523,-0.049476731045498636,-0.32698608641185556,0.022485607422899317,-0.011059874802799807,-0.07017389848719899,0,70,255.0,255.0,255.0
89,4.45,10.716927571962886,10.388015299374015,-0.7395891305075641,0.09685686433887666,-0.05002962442474022,-0.3304811789292116,0.0233722939580749,-0.011055860366863601,-0.06962980220704144,0,70,255.0,255.0,255.0
90,4.5,10.7218,10.3855,-0.7562,0.09804764620015978,-0.05058231708218498,-0.3339490666325597,0.02425898049325015,-0.011051845930927118,-0.06908570592688301,0,70,255.0,255.0,255.0
91,4.55,10.726732145998099,10.382956996934125,-0.7729842409042896,0.0992269929734043,-0.05113925363990519,-0.3374291783440934,0.022914890436530992,-0.011225616377881019,-0.07011876253446667,0,70,255.0,255.0,255.0
92,4.6000000000000005,10.731721579222294,10.380385929827304,-0.7899437787149158,0.10033913524381288,-0.05170487871997309,-0.3409609428860064,0.021570800379811815,-0.011399386824834925,-0.07115181914205035,0,70,255.0,255.0,255.0
93,4.65,10.736764939447434,10.377786364253422,-0.8070811960733968,0.1013840730113855,-0.05227919232238868,-0.3445443602582985,0.02022671032309266,-0.011573157271788826,-0.072184875749634,0,70,255.0,255.0,255.0
94,4.7,10.741858866448384,10.375157865786358,-0.8243990756212519,0.10236180627612215,-0.05286219444715197,-0.3481794304609698,0.018882620266373502,-0.01174692771874273,-0.07321793235721766,0,70,255.0,255.0,255.0
95,4.75,10.747,10.3725,-0.8419,0.10327233503802284,-0.053453885094262944,-0.35186615349402023,0.017538530209654568,-0.011920698165696464,-0.07425098896480042,0,70,255.0,255.0,255.0
96,4.800000000000001,10.752185810612035,10.36981269281731,-0.8595854263566779,0.10416550339079833,-0.054032643318750795,-0.3555369996885059,0.018188203901364584,-0.011229630813817316,-0.07258285881462416,0,70,255.0,255.0,255.0
97,4.8500000000000005,10.757417091733824,10.367097311557586,-0.8774523098603924,0.1050911554281593,-0.054576848175644684,-0.35912443937548266,0.01883787759307459,-0.010538563461938181,-0.07091472866444792,0,70,255.0,255.0,255.0
98,4.9,10.762695467549594,10.364355583889203,-0.8954964801857677,0.10604929115010578,-0.05508649966494461,-0.3626284725549507,0.01948755128478459,-0.009847496110059046,-0.0692465985142717,0,70,255.0,255.0,255.0
99,4.95,10.768022562243576,10.36158923748055,-0.9137137670074288,0.10703991055663777,-0.05556159778665058,-0.3660490992269098,0.020137224976494596,-0.00915642875817991,-0.06757846836409546,0,70,255.0,255.0,255.0
100,5.0,10.7734,10.3588,-0.9321,0.10806301364775525,-0.05600214254076259,-0.3693863193913602,0.020786898668204268,-0.008465361406300609,-0.06591033821391834,0,70,255.0,255.0,255.0
101,5.050000000000001,10.778829411553762,10.355989031796637,-0.9506524536689994,0.10911899346341149,-0.056442173085091814,-0.37272682290188414,0.02145229395804483,-0.009135860366867941,-0.06770980220703689,0,70,255.0,255.0,255.0
102,5.1000000000000005,10.784312453842416,10.353155223942357,-0.9693741818435162,0.11020824304355975,-0.05691572857744939,-0.3761572996120639,0.022117689247885382,-0.009806359327435262,-0.0695092662001554,0,70,255.0,255.0,255.0
103,5.15,10.789850790354194,10.350296900189761,-0.9882696831835335,0.11133076238820003,-0.057422809017835336,-0.37967774952189964,0.022783084537725932,-0.010476858288002582,-0.07130873019327391,0,70,255.0,255.0,255.0
104,5.2,10.795446084577312,10.347412384291442,-1.0073434563490338,0.11248655149733233,-0.05796341440624964,-0.38328817263139126,0.023448479827566485,-0.011147357248569903,-0.07310819418639243,0,70,255.0,255.0,255.0
105,5.25,10.8011,10.3445,-1.0266,0.11367561037095666,-0.05853754474269232,-0.3869885689405388,0.02411387511740748,-0.011817856209137334,-0.07490765817950962,0,70,255.0,255.0,255.0
106,5.300000000000001,10.806813343172925,10.341558379996142,-1.0460423589673258,0.11484652275555099,-0.05912666434088933,-0.39069170870395703,0.02272262026636487,-0.011746927718742705,-0.07321793235721719,0,70,255.0,255.0,255.0
107,5.3500000000000005,10.812583492896513,10.338587392672986,-1.065667762765544,0.11594787239759316,-0.0597122375145666,-0.39431036217626053,0.021331365415322285,-0.011675999228348076,-0.07152820653492478,0,70,255.0,255.0,255.0
108,5.4,10.818406971033639,10.33558721535176,-1.0854719870800995,0.11697965929708322,-0.06029426426372413,-0.39784452935744946,0.019940110564279703,-0.011605070737953449,-0.06983848071263238,0,70,255.0,255.0,255.0
109,5.45,10.824280299447178,10.332558025353691,-1.1054508075964369,0.11794188345402112,-0.06087274458836194,-0.40129421024752376,0.018548855713237118,-0.01153414224755882,-0.06814875489033997,0,70,255.0,255.0,255.0
110,5.5,10.8302,10.3295,-1.1256,0.11883454486840693,-0.06144767848848002,-0.40465940484648344,0.017157600862194866,-0.011463213757164137,-0.06645902906804668,0,70,255.0,255.0,255.0
111,5.550000000000001,10.836163615754547,10.326413448218796,-1.1459165104616995,0.11971891551437515,-0.06201116955136266,-0.4080103422822872,0.0182172249765331,-0.01107642875814115,-0.06757846836410143,0,70,255.0,255.0,255.0
112,5.6000000000000005,10.842172774571532,10.323299205365696,-1.1664019670943089,0.12065626736606025,-0.06255532136429413,-0.4114172516828936,0.019276849090871316,-0.010689643759118168,-0.06869790766015617,0,70,255.0,255.0,255.0
113,5.65,10.848230125511247,10.320158238403197,-1.1870591684960685,0.12164660042346226,-0.06308013392727446,-0.41488013304830273,0.020336473205209534,-0.010302858760095188,-0.0698173469562109,0,70,255.0,255.0,255.0
114,5.7,10.854338317633974,10.3169915142938,-1.207890913265219,0.12268991468658119,-0.06358560724030365,-0.4183989863785147,0.021396097319547752,-0.009916073761072206,-0.07093678625226563,0,70,255.0,255.0,255.0
115,5.75,10.8605,10.3138,-1.2289,0.12378621015541705,-0.06407174130338168,-0.42197381167352926,0.02245572143388519,-0.009529288762048727,-0.07205622554831992,0,70,255.0,255.0,255.0
116,5.800000000000001,10.866716993808895,10.310584627128677,-1.250088399185878,0.1248858151869526,-0.0645406574536481,-0.425554922166897,0.02152847982753657,-0.009227357248608365,-0.0711881941863857,0,70,255.0,255.0,255.0
117,5.8500000000000005,10.872987808817356,10.30734618586423,-1.2714547688572218,0.12593905813817072,-0.06499447702824253,-0.4290926310921679,0.020601238221187968,-0.00892542573516801,-0.0703201628244515,0,70,255.0,255.0,255.0
118,5.9,10.879310126921373,10.304085431035448,-1.2929969389356266,0.1269459390090714,-0.06543320002716492,-0.43258693844934204,0.019673996614839366,-0.008623494221727654,-0.06945213146251729,0,70,255.0,255.0,255.0
119,5.95,10.885681630016926,10.300803117471109,-1.3147127393426876,0.12790645779965465,-0.06585682645041528,-0.4360378442384196,0.018746755008490764,-0.0083215627082873,-0.06858410010058309,0,70,255.0,255.0,255.0
120,6.0,10.8921,10.2975,-1.3366,0.12882061450992047,-0.06626535629799364,-0.43944534845940036,0.017819513402141718,-0.008019631194846943,-0.06771606873864622,0,70,255.0,255.0,255.0
121,6.050000000000001,10.898563609009878,10.294176043266502,-1.35865709279479,0.12972982373780495,-0.06670620063405391,-0.442841969050125,0.01854885571323731,-0.009614142247563429,-0.06814875489033866,0,70,255.0,255.0,255.0
122,6.1000000000000005,10.90507359015904,10.290828051177384,-1.3808845574768058,0.13067550008124423,-0.06722677052274999,-0.44626022394843423,0.01927819802433289,-0.011208653300279887,-0.06858144104203108,0,70,255.0,255.0,255.0
123,6.15,10.911631766803263,10.287452037455017,-1.4032834757614268,0.13165764354023823,-0.06782706596408189,-0.4497001131543281,0.02000754033542847,-0.012803164352996343,-0.0690141271937235,0,70,255.0,255.0,255.0
124,6.2,10.918239962298323,10.284044015821765,-1.4258549293640315,0.13267625411478706,-0.06850708695804962,-0.4531616366678066,0.020736882646524048,-0.014397675405712802,-0.06944681334541594,0,70,255.0,255.0,255.0
125,6.25,10.9249,10.2806,-1.4486,0.13373133180489064,-0.06926683350465318,-0.4566447944888697,0.02146622495761963,-0.015992186458429813,-0.06987949949710659,0,70,255.0,255.0,255.0
126,6.300000000000001,10.931613370151592,10.277117599805319,-1.4715192296349633,0.13480288986182068,-0.07001054001013966,-0.460117201632604,0.021396097319581697,-0.013756073761029042,-0.0690167862522652,0,70,255.0,255.0,255.0
127,6.3500000000000005,10.938380230546482,10.273600809426233,-1.4946110012355567,0.1358709415368488,-0.0706424408807561,-0.46354647311409625,0.021325969681543766,-0.011519961063628313,-0.06815407300742383,0,70,255.0,255.0,255.0
128,6.4,10.945200405865577,10.27005521914449,-1.5178731580186686,0.13693548682997506,-0.07116253611650249,-0.46693260893334637,0.021255842043505835,-0.009283848366227582,-0.06729135976258246,0,70,255.0,255.0,255.0
129,6.45,10.952073720789782,10.266486419241831,-1.541303543201187,0.1379965257411994,-0.07157082571737886,-0.4702756090903545,0.021185714405467904,-0.007047735668826853,-0.0664286465177411,0,70,255.0,255.0,255.0
130,6.5,10.959,10.2629,-1.5649,0.13905405827052184,-0.07186730968338516,-0.47357547358512053,0.021115586767429972,-0.0048116229714257885,-0.06556593327289928,0,70,255.0,255.0,255.0
131,6.550000000000001,10.965978910383752,10.259299957512225,-1.588661188665359,0.14009861681491975,-0.07214763932537896,-0.47688122441945757,0.02066675500848611,-0.006401562708325726,-0.06666410010058216,0,70,255.0,255.0,255.0
132,6.6000000000000005,10.973009487655027,10.255683911117682,-1.612589037580969,0.14112073377137047,-0.07250746595421774,-0.4802418835951788,0.020217923249542254,-0.007991502445225635,-0.06776226692826502,0,70,255.0,255.0,255.0
133,6.65,10.980090609734424,10.252047885967023,-1.6366862921638996,0.14212040913987398,-0.07294678956990151,-0.4836574511122841,0.019769091490598398,-0.009581442182125543,-0.06886043375594789,0,70,255.0,255.0,255.0
134,6.7,10.987221154542548,10.248387907210912,-1.6609556978312203,0.14309764292043028,-0.07346561017243029,-0.48712792697077356,0.019320259731654542,-0.011171381919025454,-0.06995860058363075,0,70,255.0,255.0,255.0
135,6.75,10.9944,10.2447,-1.6854,0.14405243511303942,-0.07406392776180404,-0.49065331117064714,0.018871427972710242,-0.012761321655925029,-0.07105676741131095,0,70,255.0,255.0,255.0
136,6.800000000000001,11.0016261883134,10.240980970145777,-1.7100208157036028,0.14499464287851954,-0.07469490268834511,-0.4941659006895654,0.018816882646494237,-0.012477675405717554,-0.0694468133454185,0,70,255.0,255.0,255.0
137,6.8500000000000005,11.008899418833414,10.23723074610304,-1.7348152484405688,0.14593412337768885,-0.0753116953023758,-0.497597992505189,0.01876233732027823,-0.012194029155510086,-0.06783685927952605,0,70,255.0,255.0,255.0
138,6.9,11.016219555196729,10.233450036987415,-1.7597792733257334,0.14687087661054737,-0.07591430560389612,-0.500949586617518,0.018707791994062226,-0.011910382905302616,-0.06622690521363363,0,70,255.0,255.0,255.0
139,6.95,11.023586461040031,10.229639551914527,-1.784908865473932,0.14780490257709505,-0.07650273359290606,-0.5042206830265524,0.018653246667846225,-0.011626736655095149,-0.06461695114774119,0,70,255.0,255.0,255.0
140,7.0,11.031,10.2258,-1.8102,0.14873620127733198,-0.07707697926940563,-0.5074112817322921,0.01859870134163022,-0.011343090404887457,-0.06300699708184698,0,70,255.0,255.0,255.0
141,7.050000000000001,11.038460336362654,10.221932161904663,-1.835649948520232,0.14968281167100872,-0.0776327499212474,-0.5105991728222817,0.01926571440543837,-0.010887735668783576,-0.06450864651773698,0,70,255.0,255.0,255.0
142,7.1000000000000005,11.045968837011323,10.218037104470156,-1.8612611686567584,0.15066277271787581,-0.07816575283628399,-0.5138621463840658,0.01993272746924651,-0.010432380932679702,-0.06601029595362695,0,70,255.0,255.0,255.0
143,7.15,11.053527169478663,10.214115966083314,-1.8870374145331685,0.15167608441793334,-0.07867598801451538,-0.5172002024176444,0.02059974053305465,-0.00997702619657583,-0.06751194538951691,0,70,255.0,255.0,255.0
144,7.2,11.061137001297332,10.210169885130984,-1.9129824402730526,0.15272274677118128,-0.07916345545594157,-0.5206133409230175,0.021266753596862788,-0.009521671460471958,-0.06901359482540688,0,70,255.0,255.0,255.0
145,7.25,11.0688,10.2062,-1.9391,0.15380275977761962,-0.07962815516056256,-0.5241015619001851,0.021933766660670484,-0.009066316724368195,-0.07051524426129685,0,70,255.0,255.0,255.0
146,7.300000000000001,11.076517266235985,10.20220718223557,-1.9653929902154705,0.15488211043742933,-0.08008609762664835,-0.5276134080213082,0.021240259731717916,-0.009251381919063986,-0.06995860058362577,0,70,255.0,255.0,255.0
147,7.3500000000000005,11.084287633121301,10.198191236016342,-1.9918608769323998,0.1559267857507914,-0.08055329335246895,-0.5310974219585477,0.02054675280276536,-0.009436447113759773,-0.06940195690595469,0,70,255.0,255.0,255.0
148,7.4,11.092109366888625,10.194151698679326,-2.018502268541594,0.1569367857177059,-0.08102974233802433,-0.5345536037119036,0.019853245873812802,-0.009621512308455562,-0.06884531322828362,0,70,255.0,255.0,255.0
149,7.45,11.099980733770632,10.190088107561541,-2.0453157734338587,0.15791211033817268,-0.08151544458331451,-0.5379819532813761,0.019159738944860248,-0.009806577503151349,-0.06828866955061254,0,70,255.0,255.0,255.0
150,7.5,11.1079,10.186,-2.0723,0.1588527596121919,-0.08201040008833946,-0.5413824706669648,0.018466232015907247,-0.009991642697846581,-0.0677320258729388,0,70,255.0,255.0,255.0
151,7.550000000000001,11.115865798693404,10.181887109153061,-2.0994532906178875,0.15978074657928487,-0.0825028595721631,-0.5447391950924821,0.018653246667812033,-0.009706736655099354,-0.06653695114775252,0,70,255.0,255.0,255.0
152,7.6000000000000005,11.123878230503472,10.177749951464486,-2.126772923613644,0.1607180842789731,-0.0829810737538494,-0.5480361657817401,0.018840261319716813,-0.00942183061235213,-0.06534187642256624,0,70,255.0,255.0,255.0
153,7.65,11.131937762966844,10.173589239199378,-2.154255911300457,0.16166477271125657,-0.08344504263339833,-0.5512733827347387,0.019027275971621595,-0.009136924569604908,-0.06414680169737998,0,70,255.0,255.0,255.0
154,7.7,11.14004486362014,10.169405684622848,-2.1818992659915133,0.16262081187613525,-0.08389476621080988,-0.5544508459514781,0.019214290623526375,-0.008852018526857684,-0.0629517269721937,0,70,255.0,255.0,255.0
155,7.75,11.1482,10.1652,-2.2097,0.16358620177360922,-0.08433024448608407,-0.557568555431958,0.01940130527543138,-0.008567112484109685,-0.06175665224700566,0,70,255.0,255.0,255.0
156,7.800000000000001,11.156403538990407,10.160972381152186,-2.237656247312982,0.1645549032454167,-0.08478246408469776,-0.5606938116087683,0.019346753596867126,-0.009521671460437711,-0.06325359482540309,0,70,255.0,255.0,255.0
157,7.8500000000000005,11.16465544486481,10.156720958125717,-2.265770628613026,0.16552087713329594,-0.08528241163212784,-0.5638939149144984,0.019292201918302877,-0.01047623043676572,-0.06475053740380049,0,70,255.0,255.0,255.0
158,7.9,11.172955581244006,10.152443344523158,-2.29404688625658,0.16648412343724697,-0.08583008712837432,-0.5671688653491483,0.019237650239738623,-0.01143078941309373,-0.0662474799821979,0,70,255.0,255.0,255.0
159,7.95,11.181303811748801,10.148137153947065,-2.322488762600089,0.1674446421572698,-0.08642549057343722,-0.5705186629127181,0.019183098561174373,-0.012385348389421739,-0.0677444225605953,0,70,255.0,255.0,255.0
160,8.0,11.1897,10.1438,-2.3511,0.1684024332933644,-0.08706862196731649,-0.5739433076052078,0.019128546882609676,-0.013339907365749637,-0.06924136513899448,0,70,255.0,255.0,255.0
161,8.05,11.198144045344966,10.139430566238204,-2.3798833201301894,0.169359640439052,-0.08769528408903976,-0.5773815584724477,0.019159738944893957,-0.011726577503180846,-0.06828866955059922,0,70,255.0,255.0,255.0
162,8.1,11.20663599003729,10.13503181603265,-2.4088373619342542,0.1703184071878538,-0.08824127971763457,-0.5807721745602678,0.019190931007178235,-0.01011324764061211,-0.06733597396220398,0,70,255.0,255.0,255.0
163,8.15,11.215175912057136,10.130607782707992,-2.437959743673226,0.17127873353976983,-0.08870660885310096,-0.5841151558686681,0.019222123069462516,-0.00849991777804332,-0.0663832783738087,0,70,255.0,255.0,255.0
164,8.200000000000001,11.223763889384653,10.12616249958889,-2.4672480836081316,0.17224061949480007,-0.08909127149543891,-0.5874105023976487,0.019253315131746798,-0.006886587915474528,-0.06543058278541343,0,70,255.0,255.0,255.0
165,8.25,11.2324,10.1217,-2.4967,0.1732040650529445,-0.08939526764464843,-0.5906582141472094,0.019284507194030187,-0.005273258052905683,-0.06447788719701641,0,70,255.0,255.0,255.0
166,8.3,11.241084279629735,10.117222953895006,-2.526313672166263,0.17416653499838258,-0.08970039955914262,-0.5938919545014397,0.019214290623492225,-0.006932018526861717,-0.064871726972196,0,70,255.0,255.0,255.0
167,8.35,11.24981659498603,10.112728577743692,-2.5560895236499563,0.1751254941152937,-0.0900884694973346,-0.597145386844429,0.019144074052954263,-0.008590779000817693,-0.06526556674737556,0,70,255.0,255.0,255.0
168,8.4,11.258596770527458,10.108212724644876,-2.586028539050519,0.176080942403678,-0.0905594774592244,-0.6004185111761773,0.0190738574824163,-0.01024953947477373,-0.06565940652255513,0,70,255.0,255.0,255.0
169,8.450000000000001,11.26742463071259,10.103671247697374,-2.6161317029673876,0.1770328798635354,-0.09111342344481199,-0.6037113274966847,0.01900364091187834,-0.011908299948729764,-0.06605324629773471,0,70,255.0,255.0,255.0
170,8.5,11.2763,10.0991,-2.6464,0.17798130649486582,-0.09175030745409737,-0.6070238358059507,0.01893342434133949,-0.013567060422685628,-0.06644708607291339,0,70,255.0,255.0,255.0
171,8.55,11.285222836136096,10.09449601818178,-2.676833991204759,0.17893421956742867,-0.09239911767440007,-0.6103306235217886,0.01918309856117402,-0.012385348389421518,-0.065824422560601,0,70,255.0,255.0,255.0
172,8.6,11.294193630018594,10.089861072992589,-2.7074325434659183,0.17989961635098323,-0.09298884229303953,-0.6136062780620107,0.019432772781008543,-0.01120363635615745,-0.06520175904828865,0,70,255.0,255.0,255.0
173,8.65,11.303213005833042,10.085198118712505,-2.7381941001246997,0.1808774968455295,-0.09351948131001579,-0.6168507994266175,0.019682447000843074,-0.010021924322893342,-0.06457909553597627,0,70,255.0,255.0,255.0
174,8.700000000000001,11.312281587764996,10.080510109621615,-2.76911710452232,0.18186786105106756,-0.09399103472532887,-0.6200641876156084,0.019932121220677605,-0.00884021228962923,-0.06395643202366388,0,70,255.0,255.0,255.0
175,8.75,11.3214,10.0758,-2.8002,0.18287070896759727,-0.09440350253897872,-0.6232464426289838,0.020181795440511685,-0.00765850025636472,-0.06333376851135153,0,70,255.0,255.0,255.0
176,8.8,11.330568375825887,10.071069773377873,-2.8314415630147027,0.1838565867319029,-0.09481512974327375,-0.6264175514114033,0.01925331513171232,-0.008806587915435865,-0.06351058278542591,0,70,255.0,255.0,255.0
177,8.85,11.3397848849396,10.066317530285955,-2.862841902486368,0.1847960404807685,-0.0952841613305223,-0.6295975009075263,0.01832483482291299,-0.00995467557450697,-0.0636873970595003,0,70,255.0,255.0,255.0
178,8.9,11.349047206140373,10.061540400505104,-2.8944014604506836,0.18568907021419417,-0.09581059730072444,-0.6327862911173533,0.017396354514113626,-0.011102763233578113,-0.0638642113335747,0,70,255.0,255.0,255.0
179,8.950000000000001,11.35835301822743,10.056735513816168,-2.9261206789433327,0.18653567593217987,-0.09639443765388013,-0.6359839220408838,0.016467874205314263,-0.012250850892649259,-0.06404102560764909,0,70,255.0,255.0,255.0
180,9.0,11.3677,10.0519,-2.958,0.18733585763472563,-0.09703568238998936,-0.6391903936781183,0.015539393896514708,-0.013398938551719697,-0.06421783988172436,0,70,255.0,255.0,255.0
181,9.05,11.377086860560365,10.047032088306727,-2.9900397567364316,0.18815143350493727,-0.0976683633525006,-0.6423991708326044,0.01708364091195056,-0.011908299948729552,-0.06413324629772106,0,70,255.0,255.0,255.0
182,9.1,11.386516430223006,10.042134405863585,-3.022239846588607,0.18904422172592067,-0.09822651238486231,-0.6456037183078903,0.018627887927386354,-0.01041766134573946,-0.06404865271371776,0,70,255.0,255.0,255.0
183,9.15,11.395992569605468,10.037210679267078,-3.054600058072568,0.19001422229767592,-0.09871012948707453,-0.6488040361039762,0.020172134942822207,-0.008927022742749313,-0.06396405912971445,0,70,255.0,255.0,255.0
184,9.200000000000001,11.405519139325287,10.032264635113714,-3.0871201797043524,0.19106143522020294,-0.09911921465913726,-0.6520001242208618,0.021716381958258056,-0.0074363841397591685,-0.06387946554571115,0,70,255.0,255.0,255.0
185,9.25,11.4151,10.0273,-3.1198,0.19218586049350167,-0.09945376790105045,-0.6551919826585473,0.02326062897369363,-0.005945745536768632,-0.0637948719617043,0,70,255.0,255.0,255.0
186,9.3,11.424737781932665,10.022319473395212,-3.1526394100395727,0.19331367924836088,-0.09977541684671136,-0.6583857652581813,0.021852121220673017,-0.0069202122896676295,-0.06395643202365378,0,70,255.0,255.0,255.0
187,9.35,11.434430194168375,10.0173216462597,-3.185638711159203,0.19437107261556896,-0.1001457891300172,-0.6615876258609127,0.020443613467652454,-0.007894679042566593,-0.06411799208560325,0,70,255.0,255.0,255.0
188,9.4,11.44417371543776,10.012304082426583,-3.2187983072590485,0.19535804059512607,-0.10056488475096803,-0.6647975644667415,0.01903510571463184,-0.00886914579546559,-0.06427955214755272,0,70,255.0,255.0,255.0
189,9.450000000000001,11.453964824471427,10.007264345728977,-3.252118602239263,0.19627458318703217,-0.10103270370956378,-0.668015581075668,0.017626597961611225,-0.009843612548364588,-0.0644411122095022,0,70,255.0,255.0,255.0
190,9.5,11.4638,10.0022,-3.2856,0.1971207003912872,-0.10154924600580446,-0.6712416756876919,0.01621809020859022,-0.010818079301263217,-0.06460267227145433,0,70,255.0,255.0,255.0
191,9.55,11.473676411708992,9.99710921811242,-3.3192426031052813,0.19793784950163312,-0.10207796926065238,-0.6744577681346697,0.016467874205245984,-0.010330850892653457,-0.06404102560765973,0,70,255.0,255.0,255.0
192,9.600000000000001,11.483593993103495,9.991992609097608,-3.3530453087745813,0.19876748781181183,-0.10258233109506983,-0.677645778248458,0.01671765820190175,-0.009843622484043699,-0.06347937894386513,0,70,255.0,255.0,255.0
193,9.65,11.493553368643502,9.986851391026587,-3.3870067128912402,0.1996096153218233,-0.10306233150905676,-0.6808057060290562,0.016967442198557503,-0.009356394075433956,-0.06291773228007055,0,70,255.0,255.0,255.0
194,9.700000000000001,11.503555162789008,9.981686781970378,-3.4211254113386005,0.20046423203166755,-0.10351797050261322,-0.6839375514764651,0.01721722619521327,-0.008869165666824198,-0.06235608561627596,0,70,255.0,255.0,255.0
195,9.75,11.5136,9.9765,-3.4554,0.2013313379413446,-0.10394924807573919,-0.687041314590684,0.01746701019186858,-0.008381937258214567,-0.06179443895248227,0,70,255.0,255.0,255.0
196,9.8,11.523688571231377,9.971291654155106,-3.489829377539306,0.20221492274509886,-0.10439270611068757,-0.6901351622031389,0.017876381958300776,-0.0093563841397205,-0.0619594655457135,0,70,255.0,255.0,255.0
197,9.850000000000001,11.53382183341765,9.966059917349863,-3.5244136537424757,0.20311897613717472,-0.10488488648971125,-0.6932372611452553,0.018285753724732966,-0.010330831021226432,-0.062124492138944734,0,70,255.0,255.0,255.0
198,9.9,11.544000809988235,9.960802353467066,-3.5591532411759923,0.20404349811757214,-0.1054257892128102,-0.6963476114170334,0.018695125491165147,-0.011305277902732332,-0.06228951873217597,0,70,255.0,255.0,255.0
199,9.950000000000001,11.554226524372543,9.955516526389513,-3.59404855240634,0.20498848868629121,-0.10601541427998448,-0.699466213018473,0.019104497257597337,-0.012279724784238265,-0.0624545453254072,0,70,255.0,255.0,255.0
200,10.0,11.5645,9.9502,-3.6291,0.2059539478433319,-0.10665376169123401,-0.7025930659495742,0.019513869024029296,-0.01325417166574383,-0.06261957191864109,0,70,255.0,255.0,255.0
201,10.05,11.574822103365506,9.944851365267157,-3.664307886737499,0.20693045951797281,-0.10727920629658746,-0.7057215830527778,0.01954659796160647,-0.011763612548393887,-0.06252111220950009,0,70,255.0,255.0,255.0
202,10.100000000000001,11.585193073225913,9.93947332150294,-3.699672076255521,0.20790860763949257,-0.10783012294607341,-0.7088451771705242,0.01957932689918365,-0.010273053431043946,-0.062422652500359097,0,70,255.0,255.0,255.0
203,10.15,11.595612991403568,9.934069595105147,-3.7351923224047936,0.20888839220789115,-0.10830651163969186,-0.7119638483028137,0.019612055836760824,-0.008782494313694055,-0.062324192791218105,0,70,255.0,255.0,255.0
204,10.200000000000001,11.606081939720816,9.928643912471568,-3.770868379036045,0.20986981322316867,-0.10870837237744281,-0.715077596449646,0.019644784774338,-0.007291935196344114,-0.0622257330820771,0,70,255.0,255.0,255.0
205,10.25,11.6166,9.9232,-3.8067,0.21085287068532493,-0.10903570515932627,-0.7181864216110213,0.019677513711914507,-0.005801376078993337,-0.06212727337293433,0,70,255.0,255.0,255.0
206,10.3,11.627167015306608,9.917740484776273,-3.8426870755107028,0.21182323918300303,-0.10935446870297183,-0.7212985055857515,0.019137226195208516,-0.006949165666828521,-0.06235608561626709,0,70,255.0,255.0,255.0
207,10.350000000000001,11.637781873678705,9.91226359663838,-3.878830041235446,0.21276659330484582,-0.10973062172600913,-0.7244220301726481,0.018596938678502525,-0.008096955254663706,-0.06258489785959985,0,70,255.0,255.0,255.0
208,10.4,11.648443224397495,9.90676646611235,-3.9151294692048366,0.21368293305085326,-0.11016416422843818,-0.7275569953717114,0.018056651161796552,-0.009244744842498851,-0.0628137101029326,0,70,255.0,255.0,255.0
209,10.450000000000001,11.65914971674419,9.901246223724211,-3.951585931449486,0.21457225842102545,-0.11065509621025901,-0.7307034011829413,0.01751636364509056,-0.010392534430334034,-0.06304252234626535,0,70,255.0,255.0,255.0
210,10.5,11.6699,9.8957,-3.9882,0.21543456941536232,-0.11120341767147159,-0.7338612476063379,0.016976076128384587,-0.011540324018169179,-0.06327133458959633,0,70,255.0,255.0,255.0
211,10.55,11.680693035408066,9.890125895627751,-4.024971811219694,0.216288583750012,-0.11175091889153103,-0.7370043946042134,0.017184497257601985,-0.010359724784208574,-0.06245454532542548,0,70,255.0,255.0,255.0
212,10.600000000000001,11.691529032059277,9.884525891943541,-4.061899758802702,0.21715301914112256,-0.11223939014989247,-0.7401067021388805,0.017392918386819382,-0.009179125550247969,-0.061637756061254635,0,70,255.0,255.0,255.0
213,10.65,11.702408511006453,9.878902940445455,-4.098981800775862,0.2180278755886939,-0.11266883144655583,-0.7431681702103389,0.017601339516036776,-0.007998526316287405,-0.06082096679708381,0,70,255.0,255.0,255.0
214,10.700000000000001,11.71333199330242,9.873259992631581,-4.136215895166016,0.21891315309272621,-0.1130392427815212,-0.7461887988185889,0.017809760645254174,-0.0068179270823267996,-0.06000417753291297,0,70,255.0,255.0,255.0
215,10.75,11.7243,9.8676,-4.1736,0.21980885165321934,-0.11335062415478851,-0.7491685879636302,0.018018181774470232,-0.005637327848366458,-0.05918738826874037,0,70,255.0,255.0,255.0
216,10.8,11.735312843061129,9.86192473271272,-4.211132879610524,0.22070242581693966,-0.11367385573090627,-0.7521559159974004,0.017724784774341536,-0.007291935196343903,-0.06030573308206348,0,70,255.0,255.0,255.0
217,10.850000000000001,11.746369998084193,9.856231235587451,-4.248816523553752,0.2215813301306535,-0.1140798176744229,-0.7551991612718366,0.01743138777421284,-0.008946542544321348,-0.061424077895386585,0,70,255.0,255.0,255.0
218,10.9,11.757470731576694,9.850515372105821,-4.286653727691719,0.22244556459436093,-0.11456850998533841,-0.758298323786939,0.017137990774084153,-0.010601149892298734,-0.06254242270870965,0,70,255.0,255.0,255.0
219,10.950000000000001,11.768614310046129,9.844773005749461,-4.3246472878864575,0.2232951292080619,-0.11513993266365279,-0.7614534035427075,0.016844593773955457,-0.01225575724027618,-0.06366076752203276,0,70,255.0,255.0,255.0
220,11.0,11.7798,9.839,-4.3628,0.22413002397175644,-0.11579408570936602,-0.7646644005391421,0.016551196773826993,-0.013910364588253121,-0.06477911233535494,0,70,255.0,255.0,255.0
221,11.05,11.791027592347419,9.833193573521362,-4.401113470338215,0.2249817129822294,-0.11644965818483144,-0.7678599414061826,0.017516363645091074,-0.012312534430363398,-0.06304252234626515,0,70,255.0,255.0,255.0
222,11.100000000000001,11.802298975603948,9.827356365706649,-4.439584546982295,0.22588166033626556,-0.11702533915240237,-0.7709686527737687,0.018481530516355156,-0.010714704272473674,-0.06130593235717536,0,70,255.0,255.0,255.0
223,11.15,11.813616562686772,9.821492371131253,-4.478208888457267,0.2268298660338649,-0.1175211286120788,-0.7739905346419002,0.0194466973876192,-0.009116874114584006,-0.05956934236808563,0,70,255.0,255.0,255.0
224,11.200000000000001,11.824982766513063,9.815605584370573,-4.51698215328816,0.22782633007502748,-0.11793702656386076,-0.7769255870105772,0.02041186425888328,-0.0075190439566942815,-0.05783275237899584,0,70,255.0,255.0,255.0
225,11.25,11.8364,9.8097,-4.5559,0.22887105245975323,-0.11827303300774823,-0.7797738098797998,0.021377031130147328,-0.005921213798804836,-0.05609616238990878,0,70,255.0,255.0,255.0
226,11.3,11.847869587549198,9.803778573201829,-4.594959639036621,0.22989872225413815,-0.11859151152977654,-0.7826283183778705,0.019729760645249093,-0.006817927082327104,-0.05808417753291749,0,70,255.0,255.0,255.0
227,11.350000000000001,11.85938849950001,9.797840101585953,-4.634164488517074,0.23084402852427816,-0.11895482571598096,-0.7855822276330916,0.018082490160350857,-0.007714640365849372,-0.06007219267592619,0,70,255.0,255.0,255.0
228,11.4,11.870952617676222,9.791882343369162,-4.673519518479217,0.23170697127017323,-0.11936297556636147,-0.7886355376454631,0.016435219675452684,-0.008611353649371607,-0.062060207818934836,0,70,255.0,255.0,255.0
229,11.450000000000001,11.882557823901623,9.785903056768246,-4.713029698960907,0.23248755049182343,-0.11981596108091812,-0.7917882484149852,0.014787949190554449,-0.009508066932893874,-0.06404822296194354,0,70,255.0,255.0,255.0
230,11.5,11.8942,9.7799,-4.7527,0.23318576618922868,-0.12031378225965085,-0.7950403599416574,0.013140678705656716,-0.010404780216415888,-0.0660362381049504,0,70,255.0,255.0,255.0
231,11.55,11.90587645745579,9.77387133367132,-4.792533573515305,0.2338873980012191,-0.12083229569606742,-0.7982827850823321,0.014924593773960096,-0.0103357572402462,-0.06366076752203056,0,70,255.0,255.0,255.0
232,11.600000000000001,11.917590226396012,9.76781682794954,-4.832526298949415,0.23467822556662468,-0.12134735798367549,-0.8014064366938606,0.016708508842263475,-0.010266734264076514,-0.06128529693911074,0,70,255.0,255.0,255.0
233,11.65,11.929345766608341,9.761736655392099,-4.8726722376258715,0.23555824888544544,-0.12185896912247506,-0.8044113147762431,0.018492423910566793,-0.01019771128790683,-0.05890982635619098,0,70,255.0,255.0,255.0
234,11.700000000000001,11.941147537880447,9.755630988556439,-4.912965450868221,0.23652746795768137,-0.12236712911246617,-0.8072974193294796,0.02027633897887017,-0.010128688311737143,-0.05653435577327114,0,70,255.0,255.0,255.0
235,11.75,11.953,9.7495,-4.9534,0.23758588278333245,-0.12287183795364877,-0.8100647503535701,0.022060254047173933,-0.010059665335567236,-0.05415888519034695,0,70,255.0,255.0,255.0
236,11.8,11.964906182627645,9.743344092112888,-4.993971666902163,0.2386476857409839,-0.12335930568595521,-0.8128165412928038,0.020411864258883326,-0.009439043956689876,-0.05591275237900109,0,70,255.0,255.0,255.0
237,11.850000000000001,11.976863394915942,9.737164586615886,-5.034683115685272,0.2396270692092208,-0.12381574234931778,-0.8156560255914702,0.01876347447059272,-0.008818422577812518,-0.057666619567655224,0,70,255.0,255.0,255.0
238,11.9,11.988867515890412,9.73096303506244,-5.0755387310173,0.24052403318804316,-0.12424114794373645,-0.8185832032495693,0.017115084682302172,-0.00819780119893518,-0.0594204867563093,0,70,255.0,255.0,255.0
239,11.950000000000001,12.000914424576589,9.724740989005994,-5.1165428975662195,0.241338577677451,-0.1246355224692113,-0.8215980742671012,0.015466694894011566,-0.00757717982005782,-0.061174353944963435,0,70,255.0,255.0,255.0
240,12.0,12.013,9.7185,-5.1577,0.24207070267744432,-0.12499886592574223,-0.8247006386440657,0.013818305105721018,-0.006956558441179594,-0.06292822113362018,0,70,255.0,255.0,255.0
241,12.05,12.025121212033625,9.712241097877124,-5.19901335887605,0.24278585903485123,-0.12536248156009505,-0.8278270497464545,0.014787949190554586,-0.007588066932932045,-0.06212822296193162,0,70,255.0,255.0,255.0
242,12.100000000000001,12.037279393940223,9.705963225586915,-5.240482038309504,0.2435494975964998,-0.12575767261903545,-0.830913460940259,0.015757593275388154,-0.008219575424684496,-0.061328224790243066,0,70,255.0,255.0,255.0
243,12.15,12.04947696983001,9.699664804358145,-5.282104038304931,0.24436161836239004,-0.1261844391025635,-0.8339598722254788,0.016727237360221688,-0.008851083916436924,-0.060528226618554545,0,70,255.0,255.0,255.0
244,12.200000000000001,12.061716363813199,9.69334425541958,-5.323877358866908,0.24522222133252197,-0.12664278101067913,-0.8369662836021144,0.017696881445055254,-0.009482592408189374,-0.05972822844686599,0,70,255.0,255.0,255.0
245,12.25,12.074,9.687,-5.3658,0.24613130650689552,-0.1271326983433824,-0.8399326950701654,0.01866652552988768,-0.010114100899941247,-0.058928230275181015,0,70,255.0,255.0,255.0
246,12.3,12.08632976923786,9.680630716378618,-5.407870097593644,0.24705687811961458,-0.12763876807367436,-0.842867259721377,0.01835633897887447,-0.010128688311737077,-0.05845435577328235,0,70,255.0,255.0,255.0
247,12.350000000000001,12.09870542932317,9.674236111036455,-5.450086331076721,0.24796694040478298,-0.1281455671745561,-0.8457781306474937,0.018046152427861263,-0.010143275723532907,-0.05798048127138367,0,70,255.0,255.0,255.0
248,12.4,12.111126204789548,9.667816147504986,-5.492447515762975,0.2488614933624007,-0.12865309564602764,-0.8486653078485155,0.01773596587684807,-0.010157863135328737,-0.05750660676948502,0,70,255.0,255.0,255.0
249,12.450000000000001,12.123591320170616,9.661370789315676,-5.534952466966154,0.2497405369924678,-0.129161353488089,-0.8515287913244423,0.01742577932583486,-0.010172450547124567,-0.05703273226758635,0,70,255.0,255.0,255.0
250,12.5,12.1361,9.6549,-5.5776,0.2506040712949842,-0.1296703407007401,-0.854368581075274,0.017115592774820776,-0.010187037958919953,-0.05655885776569303,0,70,255.0,255.0,255.0
251,12.55,12.148651711014935,9.648404036608405,-5.6203894507493795,0.25146662848670404,-0.13016244614521358,-0.8572159113680403,0.01738669489397289,-0.009497179820018822,-0.057334353944958324,0,70,255.0,255.0,255.0
252,12.600000000000001,12.161246888767103,9.641884330267262,-5.663322237383622,0.2523427407843815,-0.13062005868274199,-0.8601020164697699,0.017657797013125007,-0.008807321681117688,-0.05810985012422363,0,70,255.0,255.0,255.0
253,12.65,12.173886211011805,9.635342605621915,-5.706400298643173,0.25323240818801657,-0.13104317831332532,-0.8630268963804627,0.01792889913227711,-0.00811746354221658,-0.0588853463034889,0,70,255.0,255.0,255.0
254,12.700000000000001,12.186570355504339,9.628780587317708,-5.749625573268483,0.25413563069760925,-0.13143180503696364,-0.8659905511001188,0.018200001251429225,-0.007427605403315447,-0.0596608424827542,0,70,255.0,255.0,255.0
255,12.75,12.1993,9.6222,-5.793,0.25505240831315945,-0.13178593885365691,-0.8689929806287381,0.018471103370581332,-0.006737747264414562,-0.06043633866201592,0,70,255.0,255.0,255.0
256,12.8,12.212075386702402,9.615601937187758,-5.836524899408842,0.25595660793355124,-0.13214344734547212,-0.8719970948064601,0.01769688144508893,-0.007562592408193603,-0.05972822844686493,0,70,255.0,255.0,255.0
257,12.850000000000001,12.224895015608418,9.6089849678945,-5.8801991193888,0.25682209645766835,-0.1325421980944763,-0.8749658034734247,0.01692265951959653,-0.008387437551972644,-0.059020118231713936,0,70,255.0,255.0,255.0
258,12.9,12.237756951163231,9.602347030007357,-5.924020889664339,0.25764887388551083,-0.1329821911006694,-0.8778991066296316,0.016148437594104153,-0.009212282695751656,-0.05831200801656297,0,70,255.0,255.0,255.0
259,12.950000000000001,12.250659257812028,9.59568606141348,-5.9679884399599175,0.2584369402170788,-0.13346342636405145,-0.8807970042750809,0.015374215668611751,-0.010037127839530697,-0.05760389780141198,0,70,255.0,255.0,255.0
260,13.0,12.2636,9.589,-6.0121,0.25918629545237204,-0.13398590388462242,-0.8836594964097727,0.014599993743118489,-0.010861972983309043,-0.056895787586261015,0,70,255.0,255.0,255.0
261,13.05,12.276577942175457,9.582287414640556,-6.056354151615256,0.2599389397790968,-0.13451176447288413,-0.886507709406119,0.01550577932587275,-0.010172450547158308,-0.0570327322675892,0,70,255.0,255.0,255.0
262,13.100000000000001,12.289594648799229,9.575549398154742,-6.100750885061182,0.2607368733849593,-0.13500314893933826,-0.8893627696365317,0.01641156490862701,-0.009482928111007575,-0.0571696769489174,0,70,255.0,255.0,255.0
263,13.15,12.302652384335271,9.568787674348652,-6.145290542699477,0.26158009626995954,-0.13546005728398486,-0.8922246771010107,0.01731735049138124,-0.008793405674856864,-0.05730662163024558,0,70,255.0,255.0,255.0
264,13.200000000000001,12.315753413247544,9.562003967028375,-6.18997346689185,0.2624686084340974,-0.13588248950682394,-0.8950934317995562,0.0182231360741355,-0.00810388323870613,-0.05744356631157377,0,70,255.0,255.0,255.0
265,13.25,12.3289,9.5552,-6.2348,0.2634024098773731,-0.13627044560785548,-0.8979690337321681,0.019128921656891062,-0.007414360802554976,-0.057580510992901957,0,70,255.0,255.0,255.0
266,13.3,12.342093644595773,9.54837720425002,-6.279770494130138,0.26433563295007945,-0.13664149476300225,-0.9008520675690596,0.01820000125136144,-0.007427605403315641,-0.05774084248275724,0,70,255.0,255.0,255.0
267,13.350000000000001,12.355332789194671,9.541535839486533,-6.324885340366482,0.2652224100025093,-0.13701320614818704,-0.9037431179804439,0.017271080845831815,-0.007440850004076305,-0.057901173972612525,0,70,255.0,255.0,255.0
268,13.4,12.368615111495684,9.534675872598033,-6.370144939537757,0.26606274103466265,-0.13738557976340987,-0.9066421849663209,0.016342160440302227,-0.007454094604836969,-0.0580615054624678,0,70,255.0,255.0,255.0
269,13.450000000000001,12.3819382891978,9.527797270473023,-6.4155496924726885,0.26685662604653954,-0.13775861560867073,-0.9095492685266906,0.015413240034772603,-0.007467339205597634,-0.05822183695232308,0,70,255.0,255.0,255.0
270,13.5,12.3953,9.5209,-6.4611,0.26760406503813994,-0.1381323136839696,-0.9124643686615532,0.014484319629243458,-0.007480583806356744,-0.05838216844217925,0,70,255.0,255.0,255.0
271,13.55,12.40869867944146,9.513983768359363,-6.506795871864198,0.26835052842058627,-0.13852225647511518,-0.915364020317643,0.01537421566861107,-0.008117127839466151,-0.057603897801411806,0,70,255.0,255.0,255.0
272,13.600000000000001,12.422135794422093,9.507047243899127,-6.552635753472899,0.2691414866050011,-0.13894402646791623,-0.9182247584416945,0.01626411170797868,-0.00875367187257556,-0.05682562716064436,0,70,255.0,255.0,255.0
273,13.65,12.435613569681994,9.500088835259211,-6.598617699149499,0.2699769395913842,-0.13939762366237274,-0.9210465830337075,0.017154007747346264,-0.009390215905684944,-0.056047356519876954,0,70,255.0,255.0,255.0
274,13.700000000000001,12.449134229961263,9.493106951079529,-6.644739763217401,0.2708568873797357,-0.13988304805848473,-0.9238294940936822,0.018043903786713875,-0.010026759938794351,-0.05526908587910951,0,70,255.0,255.0,255.0
275,13.75,12.4627,9.4861,-6.691,0.2717813299700555,-0.14040029965625217,-0.9265734916216185,0.01893379982608101,-0.010663303971903737,-0.05449081523833943,0,70,255.0,255.0,255.0
276,13.8,12.476312437638388,9.479066922312528,-6.737397218413077,0.2727102533675618,-0.14091747933651902,-0.9293238511603664,0.01822313607417038,-0.010023883238770006,-0.05552356631157648,0,70,255.0,255.0,255.0
277,13.850000000000001,12.489970433116964,9.472008784916957,-6.783933245741932,0.2736036435774726,-0.1414026879801292,-0.9321258482527762,0.017512472322259744,-0.009384462505636276,-0.05655631738481353,0,70,255.0,255.0,255.0
278,13.9,12.503672209776344,9.464927186365125,-6.830610663864248,0.2744615005997878,-0.14185592558708265,-0.9349794828988478,0.016801808570349137,-0.008745041772502566,-0.05758906845805055,0,70,255.0,255.0,255.0
279,13.950000000000001,12.517415990957149,9.457823725208863,-6.877432054657711,0.27528382443450744,-0.14227719215737944,-0.9378847550985813,0.016091144818438503,-0.008105621039368835,-0.0586218195312876,0,70,255.0,255.0,255.0
280,14.0,12.5312,9.4507,-6.9244,0.2760706150816316,-0.14266648769101953,-0.9408416648519765,0.015380481066527896,-0.007466200306234683,-0.059654570604519286,0,70,255.0,255.0,255.0
281,14.05,12.545022770004985,9.443557342390525,-6.971516054483501,0.27684045810916413,-0.1430398261788153,-0.9437885750408975,0.015413240034773157,-0.007467339205596701,-0.05822183695232235,0,70,255.0,255.0,255.0
282,14.100000000000001,12.558884073110057,9.436396016433036,-7.018777663559381,0.27761193908510895,-0.1434132216115792,-0.9466638485472089,0.015445999003018419,-0.00746847810495872,-0.05678910330012541,0,70,255.0,255.0,255.0
283,14.15,12.572783991212637,9.429216019280283,-7.066181245393511,0.278385058009466,-0.14378667398931116,-0.9494674853709101,0.01547875797126368,-0.007469617004320739,-0.055356369647928526,0,70,255.0,255.0,255.0
284,14.200000000000001,12.586722606210145,9.42201734808502,-7.113723218151762,0.2791598148822353,-0.14416018331201128,-0.9521994855120017,0.01551151693950894,-0.007470755903682758,-0.05392363599573159,0,70,255.0,255.0,255.0
285,14.25,12.6007,9.4148,-7.1614,0.2799362097034168,-0.14453374957967946,-0.9548598489704833,0.015544275907753757,-0.007471894803044776,-0.05249090234353293,0,70,255.0,255.0,255.0
286,14.3,12.614716482341672,9.407563708125373,-7.2092089636529275,0.28072791419577864,-0.14492321594822472,-0.9575058486760486,0.016123903786717984,-0.008106759938764805,-0.05334908587907973,0,70,255.0,255.0,255.0
287,14.350000000000001,12.62877327444281,9.400307149350896,-7.257151300020552,0.28154860008208865,-0.14534442557355595,-0.9601947575583913,0.016703531665682208,-0.008741625074484834,-0.05420726941462653,0,70,255.0,255.0,255.0
288,14.4,12.642871825373113,9.393028736513736,-7.305229154561713,0.2823982673623468,-0.1457973784556732,-0.9629265756175113,0.017283159544646414,-0.009376490210204839,-0.055065452950173295,0,70,255.0,255.0,255.0
289,14.450000000000001,12.657013584202279,9.38572688245105,-7.353444672735249,0.2832769160365533,-0.14628207459457646,-0.9657013028534086,0.017862787423610638,-0.010011355345924868,-0.055923636485720095,0,70,255.0,255.0,255.0
290,14.5,12.6712,9.3784,-7.4018,0.28418454610470784,-0.14679851399026567,-0.9685189392660832,0.0184424153025744,-0.01064622048164443,-0.05678182002126331,0,70,255.0,255.0,255.0
291,14.55,12.685432100628327,9.371047025107986,-7.450296890904793,0.28509588510773304,-0.14731531002829087,-0.9713560302548975,0.018011144818434216,-0.01002562103936401,-0.05670181953130591,0,70,255.0,255.0,255.0
292,14.600000000000001,12.699709229118703,9.363668986163372,-7.498935536358416,0.2859856605865513,-0.1478010760942021,-0.974189121219214,0.017579874334294032,-0.009405021597083589,-0.056621819041348505,0,70,255.0,255.0,255.0
293,14.65,12.714030307294914,9.356267434664765,-7.547715736359639,0.28685387254116246,-0.14825581218799924,-0.9770182121590323,0.017148603850153862,-0.008784422154803191,-0.05654181855139111,0,70,255.0,255.0,255.0
294,14.700000000000001,12.728394256980751,9.348843922110774,-7.5966372909072435,0.2877005209715667,-0.1486795183096824,-0.9798433030743531,0.01671733336601368,-0.008163822712522771,-0.05646181806143371,0,70,255.0,255.0,255.0
295,14.75,12.7428,9.3414,-7.6457,0.2885256058777638,-0.14907219445925152,-0.9826643939651757,0.016286062881874397,-0.007543223270242372,-0.05638181757147809,0,70,255.0,255.0,255.0
296,14.8,12.757246315145014,9.333936991442686,-7.6949034727279,0.2893205453732976,-0.14944754393859966,-0.9854700303043563,0.015511516939474824,-0.0074707559036828455,-0.055843635995744906,0,70,255.0,255.0,255.0
297,14.850000000000001,12.77173140908238,9.326455305995612,-7.74424655454579,0.2900767575717113,-0.1498192700496198,-0.9882487575647503,0.014736970997075249,-0.007398288537123319,-0.05530545442001172,0,70,255.0,255.0,255.0
298,14.9,12.786253345447236,9.318955124827196,-7.7937278999997295,0.29079424247300506,-0.15018737279231198,-0.9910005757463575,0.013962425054675704,-0.007325821170563795,-0.054767272844278556,0,70,255.0,255.0,255.0
299,14.950000000000001,12.800810187874728,9.311436629105852,-7.843346163635779,0.2914730000771789,-0.1505518521666762,-0.9937254848491781,0.013187879112276129,-0.007253353804004268,-0.054229091268545374,0,70,255.0,255.0,255.0
300,15.0,12.8154,9.3039,-7.8931,0.2921130303842327,-0.1509127081727124,-0.996423484873212,0.012413333169875695,-0.007180886437445189,-0.05369090969281043,0,70,255.0,255.0,255.0
301,15.05,12.830021838791613,9.296345009121271,-7.9429884181836075,0.2927739333990701,-0.15129451421729762,-0.9991158485276753,0.014022787423618621,-0.008091355345963449,-0.05400363648572207,0,70,255.0,255.0,255.0
302,15.100000000000001,12.844678734551785,9.288769789854182,-7.99301184545843,0.2935153091265946,-0.15172184370730876,-1.0018238485217843,0.015632241677361547,-0.009001824254481709,-0.054316363278633706,0,70,255.0,255.0,255.0
303,15.15,12.85937471091615,9.281172066026452,-8.043171063641447,0.29433715756680623,-0.1521946966427458,-1.0045474848555387,0.017241695931104417,-0.009912293162999936,-0.05462909007154533,0,70,255.0,255.0,255.0
304,15.200000000000001,12.874113791520346,9.273549561465813,-8.093466854549643,0.295239478719705,-0.15271307302360876,-1.0072867575289388,0.018851150184847343,-0.010822762071518197,-0.05494181686445697,0,70,255.0,255.0,255.0
305,15.25,12.8889,9.2659,-8.1439,0.29622227258529094,-0.15327697284989764,-1.0100416665419842,0.020460604438590213,-0.01173323098003709,-0.05525454365736415,0,70,255.0,255.0,255.0
306,15.3,12.903735929688532,9.258222172072225,-8.194470854537673,0.29719972103040676,-0.15382239919221152,-1.0127865755849534,0.018637333366043826,-0.01008382271251833,-0.054541818061403895,0,70,255.0,255.0,255.0
307,15.350000000000001,12.91861845271048,9.25051913458767,-8.2451780636205,0.2980860059218954,-0.15428535512114946,-1.015495848348125,0.01681406229349744,-0.00843441444499957,-0.05382909246544363,0,70,255.0,255.0,255.0
308,15.4,12.933543010888162,9.242795011067,-8.296019845434488,0.2988811272597565,-0.1546658406367115,-1.018169484831498,0.014990791220951115,-0.006785006177480867,-0.05311636686948339,0,70,255.0,255.0,255.0
309,15.450000000000001,12.948505046043897,9.235053925030886,-8.346994418165654,0.29958508504399045,-0.15496385573889757,-1.020807485035073,0.013167520148404726,-0.005135597909962107,-0.052403641273523136,0,70,255.0,255.0,255.0
310,15.5,12.9635,9.2273,-8.3981,0.30019787927459696,-0.15517940042770773,-1.0234098489588501,0.01134424907585796,-0.0034861896424436267,-0.051690915677559346,0,70,255.0,255.0,255.0
311,15.55,12.978524842454258,9.219535902589827,-8.449335363665702,0.30081118247930033,-0.1553998890138682,-1.026009849132503,0.013187879112275907,-0.005333353803974665,-0.05230909126854862,0,70,255.0,255.0,255.0
312,15.600000000000001,12.993582654606293,9.211758471795145,-8.500701500059577,0.30151666718582454,-0.1557127358081052,-1.028640758085705,0.015031509148693853,-0.007180517965505703,-0.0529272668595379,0,70,255.0,255.0,255.0
313,15.65,13.008678045531203,9.20396308970555,-8.5521999546206,0.3023143333941697,-0.15611794081041874,-1.0313025758184564,0.016875139185111736,-0.009027682127036675,-0.05354544245052715,0,70,255.0,255.0,255.0
314,15.700000000000001,13.023815624304074,9.196145138410634,-8.603832272787749,0.3032041811043357,-0.15661550402080887,-1.0339953023307578,0.01871876922152968,-0.010874846288567714,-0.054163618041516426,0,70,255.0,255.0,255.0
315,15.75,13.039,9.1883,-8.6556,0.3041862103163227,-0.15720542543927551,-1.0367189376226082,0.020562399257948893,-0.012722010450098242,-0.054781793632509235,0,70,255.0,255.0,255.0
316,15.8,13.054234300494443,9.180424617568464,-8.707504490799517,0.30517154905239263,-0.15779404475231595,-1.0394620278850328,0.01885115018484764,-0.010822762071518327,-0.05494181686447384,0,70,255.0,255.0,255.0
317,15.850000000000001,13.069515728864344,9.17252217823175,-8.759546336141199,0.30607132533480746,-0.15828770164642736,-1.0422131193090558,0.01713990111174639,-0.008923513692938412,-0.05510184009643844,0,70,255.0,255.0,255.0
318,15.9,13.08484000698703,9.164597430110803,-8.811725936083118,0.30688553916356726,-0.15868639612160976,-1.0449722118946765,0.015428652038645196,-0.007024265314358566,-0.05526186332840304,0,70,255.0,255.0,255.0
319,15.950000000000001,13.100202856739807,9.15665512132657,-8.864043690683356,0.307614190538672,-0.1589901281778632,-1.047739305641896,0.013717402965543943,-0.005125016935778652,-0.055421886560367645,0,70,255.0,255.0,255.0
320,16.0,13.1156,9.1487,-8.9165,0.3082572794601216,-0.15919889781518765,-1.0505144005507134,0.012006153892442306,-0.003225768557199249,-0.05558190979232869,0,70,255.0,255.0,255.0
321,16.05,13.13102835556798,9.140735227136314,-8.969094673136226,0.3088866213111419,-0.15940793197686667,-1.0532620393273595,0.013167520148370054,-0.005135597909962658,-0.054323641273515105,0,70,255.0,255.0,255.0
322,16.1,13.14648962993633,9.132757615277852,-9.021825155375637,0.30957403147495866,-0.1597124576061839,-1.0559467646780651,0.014328886404297803,-0.0070454272627260665,-0.05306537275470152,0,70,255.0,255.0,255.0
323,16.150000000000002,13.161986726520688,9.124762389851234,-9.074688301046935,0.3103195099515717,-0.1601124747031393,-1.0585685766028297,0.01549025266022555,-0.008955256615489474,-0.05180710423588794,0,70,255.0,255.0,255.0
324,16.2,13.177522548736697,9.11674477628308,-9.127680964478818,0.3111230567409812,-0.16060798326773285,-1.0611274751016537,0.016651618916153216,-0.010865085968252747,-0.05054883571707444,0,70,255.0,255.0,255.0
325,16.25,13.1931,9.1087,-9.1808,0.31198467184318707,-0.16119898329996457,-1.063623460174537,0.01781298517208052,-0.012774915321016156,-0.04929056719825198,0,70,255.0,255.0,255.0
326,16.3,13.208721077233644,9.100624873886282,-9.234043216655575,0.3128499657030275,-0.16179022734020504,-1.0661138148055314,0.016798769221534546,-0.010874846288601487,-0.05032361804152503,0,70,255.0,255.0,255.0
327,16.35,13.224384151390344,9.092522560656839,-9.287412242356258,0.31366454876534056,-0.16228646792882473,-1.0686558219786895,0.01578455327098857,-0.008974777256186818,-0.05135666888479807,0,70,255.0,255.0,255.0
328,16.400000000000002,13.24008668693022,9.08439781048426,-9.34090965972915,0.3144284210301263,-0.16268770506582372,-1.0712494816940112,0.014770337320442596,-0.007074708223772149,-0.05238971972807112,0,70,255.0,255.0,255.0
329,16.45,13.255826148313396,9.076255373541118,-9.394538051401359,0.3151415824973848,-0.16299393875120194,-1.0738947939514965,0.013756121369896693,-0.0051746391913576155,-0.05342277057134409,0,70,255.0,255.0,255.0
330,16.5,13.2716,9.0681,-9.4483,0.3158040331671159,-0.16320516898495943,-1.0765917587511455,0.012741905419348498,-0.0032745701589422804,-0.054455821414617134,0,70,255.0,255.0,255.0
331,16.55,13.28740653549744,9.059934877318563,-9.50219726024147,0.31646551587673993,-0.1634151586623266,-1.0792907014505193,0.013717402965611228,-0.005125016935744657,-0.05350188656033835,0,70,255.0,255.0,255.0
332,16.6,13.303247364502296,9.051756942094787,-9.55622827519934,0.3171757734636771,-0.1637176706785339,-1.0819419474071794,0.014692900511873958,-0.006975463712547033,-0.05254795170605957,0,70,255.0,255.0,255.0
333,16.650000000000002,13.31912492575843,9.043561568211727,-9.610390660036478,0.31793480592792733,-0.1641127050335813,-1.0845454966211254,0.015668398058136686,-0.008825910489349411,-0.051594016851780784,0,70,255.0,255.0,255.0
334,16.7,13.33504165800971,9.035344129552447,-9.66468202991574,0.31874261326949066,-0.16460026172746883,-1.0871013490923576,0.01664389560439935,-0.010676357266151655,-0.050640081997502064,0,70,255.0,255.0,255.0
335,16.75,13.351,9.0271,-9.7191,0.3195991954883673,-0.1651803407601965,-1.0896095048208756,0.01761939315066252,-0.012526804042953366,-0.04968614714322328,0,70,255.0,255.0,255.0
336,16.8,13.367001580776593,9.018826016839467,-9.773642942378546,0.320455970790036,-0.16576513801047665,-1.092115379392384,0.01665161891608545,-0.010865085968252485,-0.050548835717103925,0,70,255.0,255.0,255.0
337,16.85,13.383044790600476,9.010524870964016,-9.828312256846385,0.3212643573799759,-0.16626684935702177,-1.0946643883925862,0.01568384468150838,-0.009203367893551603,-0.05141152429098457,0,70,255.0,255.0,255.0
338,16.900000000000002,13.399127210036063,9.002200716668826,-9.88311010012495,0.32202435525818685,-0.16668547479983184,-1.0972565318214824,0.01471607044693131,-0.007541649818850723,-0.052274212864865215,0,70,255.0,255.0,255.0
339,16.95,13.415246419647767,8.993857708249093,-9.938038628935676,0.32273596442466895,-0.16702101433890681,-1.0998918096790724,0.013748296212354308,-0.005879931744149959,-0.0531369014387458,0,70,255.0,255.0,255.0
340,17.0,13.4314,8.9855,-9.9931,0.32339918487942226,-0.1672734679742468,-1.1025702219653566,0.01278052197777546,-0.004218213669449522,-0.05399959001262111,0,70,255.0,255.0,255.0
341,17.05,13.447586341396189,8.977130655323567,-10.048295770244351,0.324062600963114,-0.16750828929576783,-1.1052557809799557,0.01375612136989474,-0.0051746391913916195,-0.05342277057134303,0,70,255.0,255.0,255.0
342,17.1,13.463807073095804,8.968748374049156,-10.10362509741513,0.32477479701641176,-0.16779093189338598,-1.107912499022491,0.014731720762014016,-0.006131064713333716,-0.05284595113006495,0,70,255.0,255.0,255.0
343,17.150000000000002,13.480064634097326,8.96035076511296,-10.159086539463734,0.3255357730393154,-0.16812139576710122,-1.1105403760929624,0.015707320154133293,-0.007087490235275814,-0.05226913168878686,0,70,255.0,255.0,255.0
344,17.2,13.49636146339923,8.951935437451176,-10.214678654341554,0.32634552903182507,-0.16849968091691353,-1.1131394121913696,0.016682919546252502,-0.008043915757217843,-0.051692312247508816,0,70,255.0,255.0,255.0
345,17.25,13.5127,8.9435,-10.2704,0.3272040649939406,-0.168925787342823,-1.115709607317713,0.01765851893836956,-0.009000341279160384,-0.05111549280623073,0,70,255.0,255.0,255.0
346,17.3,13.529081853638647,8.935042561866265,-10.326249176644057,0.32806162535751066,-0.16936970480645505,-1.1182534966878055,0.01664389560443363,-0.008756357266122002,-0.05064008199746901,0,70,255.0,255.0,255.0
347,17.35,13.545505317016307,8.926563232839367,-10.38222495349311,0.328868454554384,-0.16980142306943521,-1.12077361551746,0.0156292722704977,-0.00851237325308362,-0.05016467118870727,0,70,255.0,255.0,255.0
348,17.400000000000002,13.561967853574643,8.918062622879333,-10.438326142020133,0.32962455258456047,-0.17022094213176342,-1.1232699638066763,0.01461464893656177,-0.008268389240045238,-0.049689260379945546,0,70,255.0,255.0,255.0
349,17.45,13.578466926755317,8.9095413419462,-10.494551553698098,0.3303299194480402,-0.1706282619934397,-1.1257425415554545,0.013600025602625913,-0.008024405227006873,-0.04921384957118385,0,70,255.0,255.0,255.0
350,17.5,13.595,8.901,-10.5509,0.330984555144823,-0.1710233826544641,-1.1281913487637947,0.01258540226868865,-0.007780421213968491,-0.048738438762415015,0,70,255.0,255.0,255.0
351,17.55,13.611565444049221,8.892439097211373,-10.607370723179427,0.33164289760684823,-0.17141289147841696,-1.1306422322688239,0.013748296212319672,-0.00779993174414555,-0.04929690143874873,0,70,255.0,255.0,255.0
352,17.6,13.628165258838973,8.883858694593382,-10.663964688612447,0.332359384766055,-0.17180337582887867,-1.1331210389076698,0.014911190155950693,-0.007819442274322609,-0.04985536411508244,0,70,255.0,255.0,255.0
353,17.650000000000002,13.644802351604113,8.875258743369708,-10.720683292455757,0.3331340166224433,-0.1721948357058492,-1.135627768680332,0.016074084099581713,-0.007838952804499666,-0.05041382679141615,0,70,255.0,255.0,255.0
354,17.7,13.661479629579501,8.866639194764023,-10.777527930866043,0.33396679317601313,-0.17258727110932862,-1.1381624215868111,0.017236978043212652,-0.007858463334676723,-0.05097228946774982,0,70,255.0,255.0,255.0
355,17.75,13.6782,8.858,-10.8345,0.33485771442676454,-0.17298068203931688,-1.1407249976271068,0.018399871986842786,-0.007877973864853782,-0.05153075214408176,0,70,255.0,255.0,255.0
356,17.8,13.69496517016447,8.849341049288249,-10.891600730638247,0.3357347842150919,-0.17337872927986867,-1.1433055742368967,0.01668291954625125,-0.008043915757218037,-0.051692312247510586,0,70,255.0,255.0,255.0
357,17.85,13.71177204762781,8.840661988787105,-10.948830692057111,0.3365260063813897,-0.17378507361503867,-1.1458942288518579,0.014965967105659712,-0.008209857649582292,-0.05185387235093942,0,70,255.0,255.0,255.0
358,17.900000000000002,13.728616340008912,8.831962403641835,-11.006190288156853,0.3372313809256579,-0.17419971504482692,-1.1484909614719907,0.013249014665068174,-0.008375799541946545,-0.052015432454368245,0,70,255.0,255.0,255.0
359,17.95,13.745493754926674,8.823241878997711,-11.063679922837728,0.3378509078478965,-0.17462265356923334,-1.1510957720972945,0.01153206222447676,-0.008541741434310787,-0.052176992557797064,0,70,255.0,255.0,255.0
360,18.0,13.7624,8.8145,-11.1213,0.33838458714810554,-0.175053889188258,-1.1537086607277705,0.009815109783884335,-0.00870768332667482,-0.052338552661227666,0,70,255.0,255.0,255.0
361,18.05,13.779332275292894,8.805736705635637,-11.179050354267595,0.33892196553276926,-0.1754721914021009,-1.1562954707835815,0.011680025602663529,-0.008024405227040744,-0.051133849571210616,0,70,255.0,255.0,255.0
362,18.1,13.796293750649792,8.796953350258207,-11.236928543159118,0.33955258970837193,-0.1758563297109621,-1.1588220456848917,0.013544941421442722,-0.007341127127406669,-0.049929146481193565,0,70,255.0,255.0,255.0
363,18.150000000000002,13.813289088360246,8.788151642062957,-11.294931554916843,0.34027645967491355,-0.1762063041148416,-1.1612883854317009,0.015409857240221914,-0.006657849027772593,-0.048724443391176514,0,70,255.0,255.0,255.0
364,18.2,13.830322950713798,8.77933328924514,-11.353056377783044,0.34109357543239405,-0.17652211461373934,-1.1636944900240092,0.017274773059000978,-0.005974570928138566,-0.047519740301159547,0,70,255.0,255.0,255.0
365,18.25,13.8474,8.7705,-11.4113,0.3420039369808136,-0.1768037612076554,-1.1660403594618167,0.019139688877779282,-0.005291292828503824,-0.046315037211142496,0,70,255.0,255.0,255.0
366,18.3,13.864523328663958,8.761652928169205,-11.46966025229138,0.3429133536538384,-0.17708450511173415,-1.1683765426287884,0.01723697804321211,-0.005938463334647013,-0.047132289467722556,0,70,255.0,255.0,255.0
367,18.35,13.881689749773022,8.752791010180072,-11.52813833530643,0.34372763478513485,-0.1773976075411201,-1.170753588408589,0.015334267208644937,-0.006585633840790202,-0.047949541724302616,0,70,255.0,255.0,255.0
368,18.400000000000002,13.898894506550109,8.743912628106335,-11.586736292175786,0.3444467803747029,-0.1777430684958132,-1.1731714968012186,0.013431556374077766,-0.007232804346933391,-0.048766793980882676,0,70,255.0,255.0,255.0
369,18.45,13.916132842218131,8.735016164021737,-11.645456166030094,0.3450707904225426,-0.17812088797581344,-1.1756302678066772,0.011528845539510729,-0.007879974853076534,-0.049584046237462674,0,70,255.0,255.0,255.0
370,18.5,13.9334,8.7261,-11.7043,0.34559966492865396,-0.17853106598112084,-1.178129901424965,0.009626134704942668,-0.00852714535921928,-0.05040129849404451,0,70,255.0,255.0,255.0
371,18.55,13.950692810051281,8.717162781687547,-11.763269436566892,0.3461286198518886,-0.1789577881509591,-1.1806463587012614,0.011532062224442124,-0.00854174143431079,-0.05025699255780296,0,70,255.0,255.0,255.0
372,18.6,13.968014450258122,8.708204209021508,-11.822364515615181,0.34675287115109815,-0.17938524012455195,-1.1831556006807455,0.01343798974394158,-0.0085563375094023,-0.0501126866215614,0,70,255.0,255.0,255.0
373,18.650000000000002,13.985369685439323,8.699224245511695,-11.881584876380021,0.34747241882628277,-0.17981342190189933,-1.1856576273634176,0.015343917263441035,-0.008570933584493812,-0.04996838068531985,0,70,255.0,255.0,255.0
374,18.7,14.002763280413681,8.690222854667923,-11.940930158096572,0.3482872628774422,-0.18024233348300128,-1.1881524387492772,0.017249844782940355,-0.008585529659585322,-0.04982407474907831,0,70,255.0,255.0,255.0
375,18.75,14.0202,8.6812,-12.0004,0.3491974033045767,-0.18067197486785788,-1.1906400348383255,0.01915577230243759,-0.008600125734676611,-0.049679768812842084,0,70,255.0,255.0,255.0
376,18.8,14.037683031130923,8.67215594508061,-12.059994001441055,0.3501081669386127,-0.181084342284429,-1.1931180225661755,0.017274773059000176,-0.007894570928167645,-0.04943974030115576,0,70,255.0,255.0,255.0
377,18.85,14.055209249194494,8.663092153733896,-12.11971160223286,0.3509248806104767,-0.18146143196067466,-1.195584008868441,0.015393773815562763,-0.007189016121658677,-0.04919971178946944,0,70,255.0,255.0,255.0
378,18.900000000000002,14.072773951692604,8.654010389846878,-12.17955220230414,0.351647544320169,-0.18180324389659486,-1.1980379937451227,0.013512774572125349,-0.006483461315149711,-0.04895968327778312,0,70,255.0,255.0,255.0
379,18.95,14.09037243612714,8.644912417306577,-12.23951520158361,0.35227615806768925,-0.18210977809218962,-1.2004799771962191,0.01163177532868807,-0.005777906508640795,-0.04871965476609681,0,70,255.0,255.0,255.0
380,19.0,14.108,8.6358,-12.2996,0.35281072185303775,-0.1823810345474589,-1.2029099592217323,0.009750776085249768,-0.005072351702130717,-0.04847962625441227,0,70,255.0,255.0,255.0
381,19.05,14.125653465425032,8.62667423799002,-12.359805757668898,0.3533427123936568,-0.18265684271133834,-1.2053135510340294,0.01152884553951046,-0.0059599748530464805,-0.047664046237467506,0,70,255.0,255.0,255.0
382,19.1,14.143335752963912,8.617533576042907,-12.420130675453391,0.3539636064069888,-0.18297703203276358,-1.2076763638454793,0.013306914993771152,-0.006847598003962244,-0.046848466220522744,0,70,255.0,255.0,255.0
383,19.150000000000002,14.161051307790276,8.608375795100782,-12.480572714403433,0.3546734038930339,-0.18334160251173456,-1.2099983976560815,0.015084984448031843,-0.007735221154878007,-0.04603288620357798,0,70,255.0,255.0,255.0
384,19.200000000000003,14.178804575077761,8.599198676105773,-12.541129835568986,0.35547210485179204,-0.18375055414825137,-1.212279652465837,0.016863053902292535,-0.00862284430579377,-0.04521730618663322,0,70,255.0,255.0,255.0
385,19.25,14.1966,8.59,-12.6018,0.3563597092832631,-0.18420388694231393,-1.214520128274745,0.018641123356552214,-0.00951046745670947,-0.04440172616969029,0,70,255.0,255.0,255.0
386,19.3,14.214440707168954,8.580778302959311,-12.66258216788336,0.3572569834867504,-0.18465628687022131,-1.2167797732977146,0.01724984478293903,-0.008585529659585575,-0.04598407474908976,0,70,255.0,255.0,255.0
387,19.35,14.232324538949864,8.571535142094476,-12.72347929595359,0.35808469376155705,-0.1850624399082725,-1.2191185357496541,0.015858566209325846,-0.0076605918624616815,-0.04756642332848924,0,70,255.0,255.0,255.0
388,19.400000000000002,14.2502480171463,8.562272829749983,-12.784495340082142,0.35884284010768297,-0.18542234605646749,-1.2215364156305637,0.014467287635712662,-0.006735654065337786,-0.04914877190788871,0,70,255.0,255.0,255.0
389,19.450000000000003,14.268207663561823,8.552993678270328,-12.845634256140466,0.3595314225251283,-0.1857360053148063,-1.224033412940443,0.01307600906209948,-0.0058107162682138926,-0.05073112048728819,0,70,255.0,255.0,255.0
390,19.5,14.2862,8.5437,-12.9069,0.36015044101389293,-0.18600341768328887,-1.2266095276792923,0.011684730488486395,-0.004885778471090063,-0.052313469066687546,0,70,255.0,255.0,255.0
391,19.55,14.304222105899154,8.534393350172731,-12.968295170797674,0.3607333536593232,-0.18627000980778216,-1.229183355775111,0.01163177532872197,-0.0057779065086402195,-0.050639654766059625,0,70,255.0,255.0,255.0
392,19.6,14.322273291236632,8.52507225557919,-13.029816940732262,0.36131361854676514,-0.1865812083341529,-1.2316734931558984,0.011578820168957548,-0.006670034546190376,-0.048965840465431704,0,70,255.0,255.0,255.0
393,19.650000000000002,14.340353423624533,8.515734485899284,-13.091461125268015,0.36189123567621895,-0.1869370132624012,-1.2340799398216542,0.011525865009193123,-0.007562162583740532,-0.04729202616480378,0,70,255.0,255.0,255.0
394,19.700000000000003,14.358462370674955,8.506377810812916,-13.15322353986918,0.36246620504768445,-0.18733742459252697,-1.2364026957723788,0.0114729098494287,-0.008454290621290689,-0.04561821186417587,0,70,255.0,255.0,255.0
395,19.75,14.3766,8.497,-13.2151,0.3630385266611617,-0.1877824423245302,-1.2386417610080718,0.011419954689663836,-0.009346418658840117,-0.04394439756355162,0,70,255.0,255.0,255.0
396,19.8,14.394766869234425,8.487599496349763,-13.277087548925952,0.36364960187596085,-0.18823167389864606,-1.2408708036018274,0.013023053902301142,-0.008622844305793576,-0.04521730618667059,0,70,255.0,255.0,255.0
397,19.85,14.412966296103608,8.478177435588762,-13.339188141117372,0.36434083205139184,-0.18864472675510957,-1.243163491626739,0.014626153114938447,-0.007899269952747036,-0.04649021480978956,0,70,255.0,255.0,255.0
398,19.900000000000002,14.431202288355577,8.468735626652881,-13.401404958845813,0.3651122171874547,-0.18902160089392075,-1.2455198250828063,0.01622925232757575,-0.007175695599700496,-0.047763123432908526,0,70,255.0,255.0,255.0
399,19.950000000000003,14.449478853738363,8.459275878477998,-13.463741184382839,0.3659637572841494,-0.18936229631507964,-1.2479398039700298,0.017832351540213058,-0.006452121246653956,-0.049036032056027495,0,70,255.0,255.0,255.0
400,20.0,14.4678,8.4498,-13.5262,0.36689545234147597,-0.18966681301858615,-1.2504234282884088,0.019435450752850247,-0.005728546893607023,-0.050308940679141045,0,70,255.0,255.0,255.0
401,20.05,14.486168017163143,8.440309464428214,-13.588783433498522,0.36780423883684865,-0.18995529459763166,-1.2529014298175696,0.016916009062056557,-0.005810716268213901,-0.04881112048729077,0,70,255.0,255.0,255.0
402,20.1,14.504578324348943,8.430804402065757,-13.651488894798266,0.36858705324768165,-0.19024788464540757,-1.2553045403371381,0.014396567371262863,-0.00589288564282078,-0.0473133002954405,0,70,255.0,255.0,255.0
403,20.150000000000002,14.52302462295317,8.421284607489195,-13.714312639348746,0.36924389557397497,-0.19054458316191375,-1.2576327598471138,0.011877125680469173,-0.005975055017427658,-0.045815480103590225,0,70,255.0,255.0,255.0
404,20.200000000000003,14.5415006143716,8.411749875275085,-13.777250922599483,0.36977476581572855,-0.19084539014715032,-1.259886088347497,0.00935768398967548,-0.006057224392034538,-0.04431765991173995,0,70,255.0,255.0,255.0
405,20.25,14.56,8.4022,-13.8403,0.37017966397294244,-0.1911503056011172,-1.2620645258382877,0.006838242298879749,-0.006139393766640966,-0.04281983971989334,0,70,255.0,255.0,255.0
406,20.3,14.578518662113002,8.39263464593738,-13.903457117079958,0.37058944277665024,-0.1914671477108156,-1.2642274771278896,0.009552909849432151,-0.00653429062129463,-0.04369821186418436,0,70,255.0,255.0,255.0
407,20.35,14.597061206500625,8.383052956148207,-13.966723479689575,0.3711349549578857,-0.19180373466324666,-1.2664343470247061,0.012267577399984552,-0.006929187475948295,-0.044576584008475376,0,70,255.0,255.0,255.0
408,20.400000000000002,14.615634419831748,8.373453943390343,-14.030101283759217,0.3718162005166487,-0.1921600664584104,-1.2686851355287372,0.014982244950536953,-0.0073240843306019605,-0.045454956152766395,0,70,255.0,255.0,255.0
409,20.450000000000003,14.63424508877525,8.363836620421653,-14.093592725219239,0.3726331794529394,-0.1925361430963069,-1.270979842639983,0.017696912501089356,-0.007718981185255625,-0.04633332829705741,0,70,255.0,255.0,255.0
410,20.5,14.6529,8.3542,-14.1572,0.3735858917667576,-0.19293196457693598,-1.273318468358443,0.020411580051641565,-0.008113878039908817,-0.047211700441346593,0,70,255.0,255.0,255.0
411,20.55,14.671603734384856,8.344543151822268,-14.220924898181647,0.374541990056554,-0.19334411455910078,-1.2756766616708775,0.017832351540213374,-0.008372121246683364,-0.047116032056026214,0,70,255.0,255.0,255.0
412,20.6,14.690352049648565,8.334865373341419,-14.284767586443435,0.37536912692077895,-0.19376917670160435,-1.2780300715640458,0.01525312302878518,-0.008630364453457913,-0.047020363670705834,0,70,255.0,255.0,255.0
413,20.650000000000002,14.709138497719842,8.325166018949435,-14.348727825614398,0.37606730235943253,-0.19420715100444658,-1.2803786980379481,0.012673894517356989,-0.008888607660232462,-0.04692469528538545,0,70,255.0,255.0,255.0
414,20.700000000000003,14.727956630527416,8.3154444430383,-14.412805376523576,0.3766365163725147,-0.1946580374676276,-1.2827225410925844,0.010094666005928796,-0.00914685086700701,-0.04682902690006507,0,70,255.0,255.0,255.0
415,20.75,14.7468,8.3057,-14.477,0.37707676896002545,-0.19512183609114728,-1.2850616007279547,0.0075154374945012314,-0.009405094073781095,-0.04673335851474647,0,70,255.0,255.0,255.0
416,20.8,14.765664000347575,8.295932746773552,-14.541311290193457,0.37749859699712984,-0.19555639405279168,-1.2873858761886159,0.009357683989674407,-0.007977224391995665,-0.04623765991170287,0,70,255.0,255.0,255.0
417,20.85,14.784551394905126,8.286145550486122,-14.605738174536693,0.37801253735899293,-0.19591955853034684,-1.289685366719125,0.011199930484847583,-0.006549354710210235,-0.04574196130865927,0,70,255.0,255.0,255.0
418,20.900000000000002,14.803466789288889,8.276341980811917,-14.670279413783202,0.3786185900456146,-0.19621132952381273,-1.291960072319482,0.01304217698002076,-0.005121485028424805,-0.04524626270561567,0,70,255.0,255.0,255.0
419,20.950000000000003,14.8224147891151,8.266525607425141,-14.734933768686476,0.379316755056995,-0.19643170703318935,-1.2942099929896866,0.014884423475193935,-0.003693615346639375,-0.04475056410257207,0,70,255.0,255.0,255.0
420,21.0,14.8414,8.2567,-14.7997,0.380107032393134,-0.19658069105847667,-1.2964351287297393,0.016726669970364316,-0.002265745664852714,-0.04425486549952673,0,70,255.0,255.0,255.0
421,21.05,14.860425864224842,8.246867461083529,-14.864577141044528,0.38091962195492046,-0.1967343092297296,-1.298651833574654,0.01577691250109251,-0.0038789811852639527,-0.044413328297060066,0,70,255.0,255.0,255.0
422,21.1,14.879491170730935,8.237025224714094,-14.929565315409798,0.38168472364324324,-0.19696858917700308,-1.3008764615594453,0.0148271550318207,-0.005492216705675191,-0.044571791094593395,0,70,255.0,255.0,255.0
423,21.150000000000002,14.898593545124609,8.227169257802894,-14.994664919252806,0.38240233745810254,-0.19728353090029713,-1.3031090126841134,0.013877397562548893,-0.007105452226086431,-0.04473025389212673,0,70,255.0,255.0,255.0
424,21.200000000000003,14.917730613012187,8.217295527261129,-15.059876348730544,0.38307246339949813,-0.1976791343996117,-1.3053494869486582,0.012927640093277083,-0.008718687746497669,-0.04488871668966007,0,70,255.0,255.0,255.0
425,21.25,14.9369,8.2074,-15.1252,0.3836951014674302,-0.19815539967494683,-1.307597884353079,0.011977882624005343,-0.010331923266907683,-0.04504717948718806,0,70,255.0,255.0,255.0
426,21.3,14.95609974275306,8.197479808892336,-15.190636145628435,0.3842949151831793,-0.1986423690282947,-1.3098467895127615,0.012014666005959553,-0.009146850867006756,-0.04490902690010472,0,70,255.0,255.0,255.0
427,21.35,14.975329522171137,8.187536750657504,-15.256184563824121,0.3848965680680262,-0.1990700847616475,-1.3120887870430895,0.01205144938791376,-0.007961778467105829,-0.044770874313021375,0,70,255.0,255.0,255.0
428,21.400000000000002,14.994589430212683,8.177573787976504,-15.32184490920559,0.3855000601219707,-0.19943854687500528,-1.3143238769440637,0.01208823276986797,-0.006776706067204902,-0.04463272172593803,0,70,255.0,255.0,255.0
429,21.450000000000003,15.013879558836152,8.167593883530335,-15.387616836391372,0.386105391345013,-0.19974775536836803,-1.3165520592156834,0.012125016151822179,-0.005591633667303974,-0.04449456913885469,0,70,255.0,255.0,255.0
430,21.5,15.0332,8.1576,-15.4535,0.3867125617371529,-0.19999771024173565,-1.318773333857949,0.012161799533775497,-0.0044065612674024646,-0.04435641655176781,0,70,255.0,255.0,255.0
431,21.55,15.052551164762917,8.14759410334713,-15.519494276441735,0.38734071731237635,-0.2002482146570866,-1.3210010083743067,0.01296442347516279,-0.005613615346634555,-0.044750564102538,0,70,255.0,255.0,255.0
432,21.6,15.071934740584522,8.137574172655892,-15.585600429293725,0.3880090040846692,-0.20055907177639912,-1.3232483902682028,0.013767047416550084,-0.006820669425866645,-0.04514471165330819,0,70,255.0,255.0,255.0
433,21.650000000000002,15.09135273402467,8.12753719029109,-15.651819443924849,0.38871742205403137,-0.20093028159967324,-1.3255154795396376,0.014569671357937375,-0.008027723505098734,-0.04553885920407838,0,70,255.0,255.0,255.0
434,21.700000000000003,15.110807151643211,8.117480138617525,-15.718152305703983,0.38946597122046295,-0.201361844126909,-1.3278022761886108,0.015372295299324669,-0.009234777584330825,-0.04593300675484857,0,70,255.0,255.0,255.0
435,21.75,15.1303,8.1074,-15.7846,0.3902546515839638,-0.20185375935810632,-1.3301087802151221,0.01617491924071146,-0.010441831663563717,-0.046327154305613405,0,70,255.0,255.0,255.0
436,21.8,15.14983239819527,8.097294977719148,-15.851162748604633,0.3910302155673134,-0.20233277234335872,-1.3323891769900047,0.01484764009327291,-0.00871868774653157,-0.04488871668969059,0,70,255.0,255.0,255.0
437,21.85,15.169401915490777,8.08716815871893,-15.917837719000987,0.3917394155932911,-0.2027256281327595,-1.3345976518840912,0.01352036094583436,-0.006995543829499424,-0.04345027907376778,0,70,255.0,255.0,255.0
438,21.900000000000002,15.189005233688645,8.077023850859135,-15.98462131509503,0.39238225166189683,-0.20303232672630867,-1.3367342048973816,0.01219308179839581,-0.0052723999124672785,-0.042011841457844964,0,70,255.0,255.0,255.0
439,21.950000000000003,15.208639034591009,8.06686636199956,-16.051509940792716,0.3929587237731307,-0.20325286812400623,-1.338798836029876,0.01086580265095726,-0.003549255995435132,-0.040573403841922144,0,70,255.0,255.0,255.0
440,22.0,15.2283,8.0567,-16.1185,0.39346883192699256,-0.20338725232585217,-1.340791545281574,0.009538523503519691,-0.0018261120784031082,-0.03913496622600121,0,70,255.0,255.0,255.0
441,22.05,15.247985642456001,8.04652758577628,-16.185589129139743,0.3939624204183762,-0.2035246959694941,-1.3427862836656939,0.01020501615182675,-0.003671633667273859,-0.04065456913879475,0,70,255.0,255.0,255.0
442,22.1,15.267696797452379,8.036345992468393,-16.252779894702332,0.39448933354217525,-0.20375441569257954,-1.3448570021954536,0.010871508800133808,-0.00551715525614461,-0.042174172051588285,0,70,255.0,255.0,255.0
443,22.150000000000002,15.287435131220759,8.026150606272363,-16.32007609569505,0.39504957129838963,-0.20407641149510858,-1.3470037008708529,0.011538001448440867,-0.00736267684501536,-0.04369377496438182,0,70,255.0,255.0,255.0
444,22.200000000000003,15.307202309992759,8.015936813384222,-16.387481531125182,0.3956431336870193,-0.2044906833770811,-1.3492263796918917,0.012204494096747925,-0.009208198433886112,-0.04521337787717536,0,70,255.0,255.0,255.0
445,22.25,15.327,8.0057,-16.455,0.3962700207080644,-0.20499723133849712,-1.3515250386585704,0.012870986745055824,-0.011053720022756064,-0.04673298078995991,0,70,255.0,255.0,255.0
446,22.3,15.346829831980733,7.995437079175728,-16.5226343348364,0.396928102759174,-0.20550444377867344,-1.3538416883471913,0.013452295299328839,-0.009234777584296847,-0.045933006754874474,0,70,255.0,255.0,255.0
447,22.35,15.366693294699713,7.985151071407498,-16.59038350218969,0.3976152502379973,-0.2059207090969268,-1.356118339334058,0.014033603853601856,-0.0074158351458376275,-0.04513303271978904,0,70,255.0,255.0,255.0
448,22.400000000000002,15.386591841428329,7.974846524051401,-16.658245502124778,0.3983314631445342,-0.20624602729325722,-1.3583549916191704,0.014614912407874872,-0.005596892707378409,-0.044333058684703594,0,70,255.0,255.0,255.0
449,22.450000000000003,15.406526925437962,7.964527984463536,-16.726218334706576,0.3990767414787848,-0.20648039836766466,-1.3605516452025284,0.015196220962147889,-0.003777950268919191,-0.04353308464961816,0,70,255.0,255.0,255.0
450,22.5,15.4265,7.9542,-16.7943,0.399851085240749,-0.20662382232014914,-1.3627083000841318,0.015777529516421307,-0.001959007830459658,-0.042733110614531,0,70,255.0,255.0,255.0
451,22.55,15.446511829621073,7.943865697520803,-16.862488731514652,0.4006131685449333,-0.20676152891579738,-1.364838962945544,0.014705802650948459,-0.003549255995469314,-0.04249340384195577,0,70,255.0,255.0,255.0
452,22.6,15.466560423748772,7.933522521901616,-16.93078369653891,0.40132166550584386,-0.20697874791969606,-1.3669576404683275,0.01363407578547561,-0.00513950416047897,-0.04225369706938053,0,70,255.0,255.0,255.0
453,22.650000000000002,15.486643103065939,7.923166497522029,-16.999184295805847,0.40197657612348087,-0.20727547933184529,-1.369064332652482,0.012562348920002762,-0.006729752325488626,-0.0420139902968053,0,70,255.0,255.0,255.0
454,22.700000000000003,15.506757188255401,7.912793648761627,-17.06768993004852,0.4025779003978442,-0.20765172315224495,-1.371159039498008,0.011490622054529914,-0.008320000490498282,-0.04177428352423006,0,70,255.0,255.0,255.0
455,22.75,15.5269,7.9024,-17.1363,0.40312563832893383,-0.20810747938089505,-1.373241761004905,0.010418895189055366,-0.009910248655507159,-0.041534576751647734,0,70,255.0,255.0,255.0
456,22.8,15.547069249534978,7.891982530741061,-17.205013939104987,0.403643223061079,-0.2085854405581303,-1.3753144598706242,0.010284494096751915,-0.009208198433902604,-0.04137337787711104,0,70,255.0,255.0,255.0
457,22.85,15.567264210305197,7.881542040986038,-17.273831311654664,0.40415408773860906,-0.2090282992242853,-1.377379098792616,0.010150093004448465,-0.00850614821229805,-0.04121217900257434,0,70,255.0,255.0,255.0
458,22.900000000000002,15.58748454630793,7.871080285860484,-17.342751714651854,0.40465823236152393,-0.2094360553793601,-1.3794356777708814,0.010015691912145014,-0.007804097990693495,-0.041050980128037644,0,70,255.0,255.0,255.0
459,22.950000000000003,15.607729921540441,7.860599020489953,-17.41177474509936,0.4051556569298235,-0.2098087090233547,-1.3814841968054201,0.009881290819841564,-0.007102047769088942,-0.04088978125350095,0,70,255.0,255.0,255.0
460,23.0,15.628,7.8501,-17.4809,0.40564636144350796,-0.210146260156269,-1.3835246558962313,0.009746889727535901,-0.006399997547484881,-0.04072858237895893,0,70,255.0,255.0,255.0
461,23.05,15.648295172239017,7.839584979514951,-17.550127512065398,0.40617393921075035,-0.210448708851679,-1.3855831975719477,0.011356220962157005,-0.005697950268914943,-0.041613084649689484,0,70,255.0,255.0,255.0
462,23.1,15.668618735030439,7.82905571415423,-17.619459056842423,0.40678198353972367,-0.2107160551831605,-1.3876859643612003,0.01296555219677811,-0.004995902990345005,-0.04249758692042003,0,70,255.0,255.0,255.0
463,23.150000000000002,15.688974711702352,7.818513959036034,-17.688896845586743,0.40747049443042815,-0.2109482991507135,-1.3898329562639897,0.014574883431399212,-0.004293855711775067,-0.04338208919115058,0,70,255.0,255.0,255.0
464,23.200000000000003,15.709367125582842,7.807961469278559,-17.75844308955405,0.40823947188286364,-0.21114544075433803,-1.3920241732803154,0.016184214666020318,-0.003591808433205128,-0.044266591461881125,0,70,255.0,255.0,255.0
465,23.25,15.7298,7.7974,-17.8281,0.40908891589703017,-0.21130747999403404,-1.3942596154101778,0.017793545900642638,-0.0028897611546345736,-0.04515109373261694,0,70,255.0,255.0,255.0
466,23.3,15.750275661508958,7.78683035119913,-17.897868812633423,0.40991702009590925,-0.21149172403516214,-1.3964807498415988,0.01533062205452099,-0.004480000490489223,-0.043694283524224865,0,70,255.0,255.0,255.0
467,23.35,15.770789649573052,7.776249502397036,-17.96774686097565,0.4106219781024823,-0.21175548004308298,-1.3986290437626006,0.012867698208399343,-0.006070239826343872,-0.04223747331583279,0,70,255.0,255.0,255.0
468,23.400000000000002,15.79133580688267,7.765653477995376,-18.03773050300118,0.4112037899167492,-0.21209874801779655,-1.4007044971731824,0.010404774362277696,-0.007660479162198521,-0.04078066310744071,0,70,255.0,255.0,255.0
469,23.450000000000003,15.811907976128188,7.7550383023958105,-18.10781609668447,0.41166245553871006,-0.21252152795930282,-1.4027071100733444,0.00794185051615605,-0.00925071849805317,-0.039323852899048634,0,70,255.0,255.0,255.0
470,23.5,15.8325,7.7444,-18.178,0.41199797496836477,-0.21302381986760185,-1.404636882463087,0.00547892667003147,-0.010840957833908815,-0.03786704269065311,0,70,255.0,255.0,255.0
471,23.55,15.853107781725152,7.733736015688521,-18.24827963740092,0.41233398040561253,-0.2135203950076763,-1.4065578030616892,0.007961290819877788,-0.00902204776906805,-0.03896978125343155,0,70,255.0,255.0,255.0
472,23.6,15.873735466677353,7.72304947625762,-18.318656699254973,0.41279410405035255,-0.21392602464450866,-1.4085338605884303,0.010443654969724107,-0.007203137704227284,-0.04007251981620999,0,70,255.0,255.0,255.0
473,23.650000000000002,15.894389260766978,7.712344928982457,-18.38913394240857,0.41337834590258493,-0.21424070877809903,-1.4105650550433104,0.012926019119570427,-0.005384227639386519,-0.04117525837898844,0,70,255.0,255.0,255.0
474,23.700000000000003,15.915075369904404,7.701626921138196,-18.459714123708107,0.41408670596230956,-0.21446444740844733,-1.412651386426329,0.015408383269416745,-0.003565317574545753,-0.04227799694176688,0,70,255.0,255.0,255.0
475,23.75,15.9358,7.6909,-18.5304,0.41491918422952656,-0.2145972405355536,-1.4147928547374866,0.017890747419262887,-0.0017464075097046727,-0.04338073550453281,0,70,255.0,255.0,255.0
476,23.8,15.956567611590437,7.680167186046783,-18.601193437762905,0.415771058281657,-0.21473069593412675,-1.4169360379116471,0.01618421466595341,-0.0035918084332217147,-0.04234659146188554,0,70,255.0,255.0,255.0
477,23.85,15.977375683717538,7.669425392572484,-18.672092742004462,0.4165376056961219,-0.21495642137887577,-1.4190275138836752,0.014477681912643932,-0.005437209356738757,-0.041312447419238264,0,70,255.0,255.0,255.0
478,23.900000000000002,15.998219950049423,7.658670006074793,-18.74309532736457,0.4172188264729214,-0.21527441686980064,-1.4210672826535709,0.012771149159334454,-0.007282610280255798,-0.040278303376590996,0,70,255.0,255.0,255.0
479,23.950000000000003,16.0190961442542,7.647896413051401,-18.81419860848312,0.41781472061205543,-0.21568468240690136,-1.4230553442213345,0.011064616406024977,-0.00912801120377284,-0.03924415933394373,0,70,255.0,255.0,255.0
480,24.0,16.04,7.6371,-18.8854,0.4183252881135239,-0.2161872179901779,-1.424991698586965,0.009358083652714733,-0.010973412127288862,-0.03821001529129475,0,70,255.0,255.0,255.0
481,24.05,16.060928171913105,7.626277640124344,-18.956697811547464,0.41880578646774635,-0.2166928212558119,-1.4269300452917237,0.009861850516183964,-0.009250718498070418,-0.03932385289905015,0,70,255.0,255.0,255.0
482,24.1,16.081880998452494,7.615432153452444,-19.02809393272718,0.4193114731651423,-0.21711228983998496,-1.4289240838768702,0.010365617379653195,-0.007528024868851974,-0.040437690506805554,0,70,255.0,255.0,255.0
483,24.150000000000002,16.102859739035335,7.6045678467183695,-19.09959114813316,0.41984234820571165,-0.2174456237426971,-1.4309738143424044,0.010869384243122426,-0.005805331239633531,-0.041551528114560955,0,70,255.0,255.0,255.0
484,24.200000000000003,16.123865653078784,7.593689026656198,-19.17119224235943,0.42039841158945457,-0.21769282296394832,-1.4330792366883263,0.011373151106591657,-0.0040826376104150875,-0.042665365722316356,0,70,255.0,255.0,255.0
485,24.25,16.1449,7.5828,-19.2429,0.42097966331637077,-0.21785388750373863,-1.4352403509146359,0.011876917970057743,-0.002359943981196988,-0.043779203330064576,0,70,255.0,255.0,255.0
486,24.3,16.165963700757157,7.571903853455839,-19.314716116047233,0.42156579584735787,-0.21800201904263178,-1.4373917809214332,0.01156838326942475,-0.0035653175745287763,-0.04227799694182648,0,70,255.0,255.0,255.0
487,24.35,16.187056322472486,7.560998793617742,-19.386637927086824,0.42213650164331323,-0.2182104192611915,-1.4394681506088185,0.011259848568791754,-0.0047706911678605645,-0.040776790553588384,0,70,255.0,255.0,255.0
488,24.400000000000002,16.208177093809237,7.550081807051725,-19.458661680102793,0.4226917807042371,-0.21847908815941783,-1.441469459976792,0.010951313868158761,-0.005976064761192353,-0.03927558416535029,0,70,255.0,255.0,255.0
489,24.450000000000003,16.229325243430658,7.539149880323805,-19.530783622079177,0.4232316330301291,-0.21880802573731076,-1.4433957090253537,0.010642779167525767,-0.007181438354524141,-0.03777437777711219,0,70,255.0,255.0,255.0
490,24.5,16.2505,7.5282,-19.603,0.42375605862098953,-0.21919723199487023,-1.445246897754503,0.010334244466888798,-0.008386811947855843,-0.03627317138886532,0,70,255.0,255.0,255.0
491,24.55,16.271701025058274,7.517230146052299,-19.67530812426361,0.42429103014281233,-0.21958710257366063,-1.4470868310225715,0.01106461640602402,-0.00720801120375974,-0.03732415933387722,0,70,255.0,255.0,255.0
492,24.6,16.29292971165756,7.506242272076587,-19.74770955892555,0.424862520261592,-0.21991803311524621,-1.4489793136878908,0.011794988345159239,-0.006029210459663636,-0.03837514727888912,0,70,255.0,255.0,255.0
493,24.650000000000002,16.314187885727716,7.495239325074728,-19.820206931455687,0.4254705289773283,-0.220190023619627,-1.4509243457504604,0.01252536028429446,-0.004850409715567532,-0.03942613522390102,0,70,255.0,255.0,255.0
494,24.700000000000003,16.335477373198582,7.484224252048577,-19.892802869323884,0.4261150562900214,-0.22040307408680299,-1.452921927210281,0.01325573222342968,-0.003671608971471429,-0.040477123168912915,0,70,255.0,255.0,255.0
495,24.75,16.3568,7.4732,-19.9655,0.4267961021996712,-0.22055718451677417,-1.4549720580673517,0.01398610416256263,-0.0024928082273760754,-0.04152811111392474,0,70,255.0,255.0,255.0
496,24.8,16.378156999009747,7.462168362334967,-20.038300186898347,0.42747808358139994,-0.22072157066271939,-1.457028894988258,0.013293151106585811,-0.004082637610432616,-0.040745365722319696,0,70,255.0,255.0,255.0
497,24.85,16.39954723089726,7.451126518075909,-20.111202237211,0.42812541731032977,-0.22096544827781744,-1.4590465946395836,0.012600198050608993,-0.0056724669934891565,-0.03996262033071465,0,70,255.0,255.0,255.0
498,24.900000000000002,16.4209689632799,7.440070492649365,-20.18420419407448,0.42873810338646084,-0.22128881736206832,-1.4610251570213293,0.011907244994632174,-0.007262296376545697,-0.039179874939109606,0,70,255.0,255.0,255.0
499,24.950000000000003,16.44242046377503,7.428996311481883,-20.257304100625312,0.429316141809793,-0.221691677915472,-1.462964582133495,0.011214291938655356,-0.008852125759602238,-0.03839712954750456,0,70,255.0,255.0,255.0
500,25.0,16.4639,7.4179,-20.3305,0.42985953258032633,-0.2221740299380285,-1.46486486997608,0.010521338882679476,-0.010441955142658221,-0.03761438415590135,0,70,255.0,255.0,255.0
501,25.05,16.485406178902736,7.406778804607832,-20.403790328143007,0.43038863553158146,-0.22266261477545837,-1.466749589024407,0.01064277916752472,-0.00910143835453632,-0.037774377777175516,0,70,255.0,255.0,255.0
502,25.1,16.506938964753395,7.395634855619778,-20.47717509223046,0.43092381049707884,-0.22308417377348216,-1.4686423077537976,0.010764219452369965,-0.00776092156641442,-0.03793437139844969,0,70,255.0,255.0,255.0
503,25.150000000000002,16.528498661152682,7.384471504327807,-20.550654692246408,0.43146505747681846,-0.22343870693209983,-1.470543026164252,0.010885659737215208,-0.006420404778292519,-0.03809436501972386,0,70,255.0,255.0,255.0
504,25.200000000000003,16.550085571701317,7.373292102023891,-20.624229528174904,0.4320123764708004,-0.22372621425131142,-1.47245174425577,0.011007100022060453,-0.005079887990170619,-0.03825435864099803,0,70,255.0,255.0,255.0
505,25.25,16.5717,7.3621,-20.6979,0.4325657674790245,-0.22394669573111686,-1.4743684620283515,0.011128540306903911,-0.0037393712020481473,-0.03841435226227041,0,70,255.0,255.0,255.0
506,25.3,16.5933422853793,7.350898019233704,-20.771666500529623,0.4331273742922829,-0.22413197023545445,-1.4762927489141278,0.011335732223432074,-0.0036716089714547975,-0.038557123168780905,0,70,255.0,255.0,255.0
507,25.35,16.615012910089163,7.33968685944498,-20.84552939386717,0.4336993407013677,-0.22431385662826234,-1.4782241743452296,0.011542924139960237,-0.0036038467408614477,-0.038699894075291404,0,70,255.0,255.0,255.0
508,25.400000000000002,16.63671239210937,7.328466690039404,-20.919489036939904,0.4342816667062789,-0.2244923549095406,-1.480162738321657,0.0117501160564884,-0.0035360845102680974,-0.038842664981801896,0,70,255.0,255.0,255.0
509,25.450000000000003,16.658441249419717,7.317237680422551,-20.993545786675096,0.4348743523070166,-0.22466746507928917,-1.4821084408434098,0.011957307973016564,-0.0034683222796747476,-0.03898543588831239,0,70,255.0,255.0,255.0
510,25.5,16.6802,7.306,-21.0677,0.43547739750358055,-0.22483918713750806,-1.4840612819104881,0.012164499889543823,-0.0034005600490809584,-0.039128206794826426,0,70,255.0,255.0,255.0
511,25.55,16.70198867958006,7.294753118457351,-21.141951669738496,0.4360618672992856,-0.22504950428272494,-1.4859994153190499,0.011214291938655738,-0.0050121257595938445,-0.03839712954764457,0,70,255.0,255.0,255.0
512,25.6,16.723805394889972,7.283493706600302,-21.21629933230087,0.43659882669744615,-0.22534039971346745,-1.4879009948652526,0.010264083987767653,-0.006623691470106731,-0.037666052300462716,0,70,255.0,255.0,255.0
513,25.650000000000002,16.745647770409846,7.272217735514578,-21.290741159993985,0.4370882756980623,-0.22571187342973562,-1.4897660205490963,0.00931387603687957,-0.008235257180619618,-0.03693497505328086,0,70,255.0,255.0,255.0
514,25.700000000000003,16.767513430619818,7.260921176285903,-21.36527532512474,0.4375302143011341,-0.22616392543152944,-1.4915944923705808,0.008363668085991484,-0.009846822891132503,-0.036203897806099006,0,70,255.0,255.0,255.0
515,25.75,16.7894,7.2496,-21.4399,0.4379246425066615,-0.22669655571884884,-1.493386410329706,0.007413460135101246,-0.011458388601644387,-0.0354728205589101,0,70,255.0,255.0,255.0
516,25.8,16.811306196300457,7.238251906936894,-21.51461402051639,0.43833715651059063,-0.2272060126336444,-1.4951815898097023,0.009087100022063256,-0.008919887990178097,-0.03633435864092897,0,70,255.0,255.0,255.0
517,25.85,16.833235110350966,7.226881514153812,-21.589418876929376,0.43883335250886785,-0.22758854451786664,-1.4970198461937991,0.010760739909025267,-0.0063813873787118055,-0.03719589672294783,0,70,255.0,255.0,255.0
518,25.900000000000002,16.855190926251247,7.215495167902282,-21.664316723084173,0.43941323050149317,-0.2278441513715156,-1.498901179481997,0.012434379795987275,-0.0038428867672455156,-0.0380574348049667,0,70,255.0,255.0,255.0
519,25.950000000000003,16.87717782810102,7.204099214433836,-21.739309712825982,0.4400767904884666,-0.22797283319459122,-1.5008255896742957,0.014108019682949287,-0.001304386155779224,-0.038918972886985564,0,70,255.0,255.0,255.0
520,26.0,16.8992,7.1927,-21.8144,0.4408240324697881,-0.2279745899870935,-1.5027930767706952,0.01578165956991029,0.0012341144556884398,-0.039780510968995486,0,70,255.0,255.0,255.0
521,26.05,16.921260135218123,7.181301653795075,-21.889589048195962,0.4415655066583594,-0.22798244518269326,-1.5047622254421262,0.013877307972943571,-0.001548322279678777,-0.03898543588824451,0,70,255.0,255.0,255.0
522,26.1,16.94335496370617,7.16989943678445,-21.964875559981646,0.44221176326708245,-0.22812942221506138,-1.5066916203595198,0.011972956375976852,-0.004330759015045994,-0.03819036080749354,0,70,255.0,255.0,255.0
523,26.150000000000002,16.965479724585165,7.158486392876289,-22.040257547669352,0.4427628022959571,-0.22841552108419788,-1.5085812615228757,0.010068604779010134,-0.007113195750413212,-0.03739528572674257,0,70,255.0,255.0,255.0
524,26.200000000000003,16.987629656976107,7.147055565978751,-22.11573302357137,0.4432186237449835,-0.2288407417901027,-1.510431148932194,0.008164253182043415,-0.009895632485780428,-0.036600210645991595,0,70,255.0,255.0,255.0
525,26.25,17.0098,7.1356,-22.1913,0.4435792276141615,-0.2294050843327759,-1.5122412825874747,0.006259901585076388,-0.012678069221146782,-0.03580513556523357,0,70,255.0,255.0,255.0
526,26.3,17.031987662827063,7.124115077882806,-22.26695698669976,0.4439448168559399,-0.22996820663558287,-1.5140415084217613,0.008363668086058892,-0.009846822891131927,-0.03620389780623157,0,70,255.0,255.0,255.0
527,26.35,17.054196234824342,7.112605538708383,-22.342704483144047,0.44441559442276746,-0.23038976662188912,-1.515861672368098,0.010467434587041396,-0.007015576561117074,-0.03660266004722958,0,70,255.0,255.0,255.0
528,26.400000000000002,17.07643097540809,7.101078460592558,-22.418543486238445,0.4449915603146441,-0.2306697642916946,-1.5177017744264845,0.012571201088023898,-0.004184330231102219,-0.03700142228822757,0,70,255.0,255.0,255.0
529,26.450000000000003,17.09869714399456,7.089540921651155,-22.494474992888563,0.4456727145315698,-0.23080819964499935,-1.5195618145969207,0.014674967589006402,-0.001353083901087366,-0.037400184529225576,0,70,255.0,255.0,255.0
530,26.5,17.121,7.078,-22.5705,0.4464590570735447,-0.2308050726818033,-1.521441792879407,0.016778734089987424,0.0014781624289279538,-0.03779894677022888,0,70,255.0,255.0,255.0
531,26.55,17.14334281347362,7.066460434673702,-22.646619005004982,0.4472312259178698,-0.23080072827497458,-1.5233117408708374,0.0141080196830163,-0.0013043861557786537,-0.03699897288698785,0,70,255.0,255.0,255.0
532,26.6,17.165720896996447,7.0549176083820155,-22.722830507442183,0.4478698590418464,-0.23093551129738119,-1.5251416901681059,0.011437305276045175,-0.004086934740485261,-0.03619899900374681,0,70,255.0,255.0,255.0
533,26.650000000000002,17.188127573782467,7.043364564753477,-22.799132507376893,0.4483749564454743,-0.2312094217490231,-1.5269316407712121,0.00876659086907405,-0.006869483325191869,-0.03539902512050578,0,70,255.0,255.0,255.0
534,26.700000000000003,17.210556167045656,7.031794347416626,-22.875523004874402,0.4487465181287538,-0.23162245962990036,-1.5286815926801565,0.0060958764621029254,-0.009652031909898476,-0.03459905123726474,0,70,255.0,255.0,255.0
535,26.75,17.233,7.0202,-22.952,0.4489845440916847,-0.2321746249400129,-1.5303915458949386,0.003425162055133324,-0.012434580494605552,-0.03379907735402021,0,70,255.0,255.0,255.0
536,26.8,17.255454683278458,7.008576783422384,-23.02856219328031,0.4492262794726125,-0.23273288026452257,-1.5321035280949356,0.006244253181980448,-0.009895632485780634,-0.03468021064585437,0,70,255.0,255.0,255.0
537,26.85,17.277924977189866,6.996928827763554,-23.10521108708724,0.44960896940988276,-0.23316418818859097,-1.533859566959524,0.009063344308827572,-0.007356684476955716,-0.03556134393768853,0,70,255.0,255.0,255.0
538,26.900000000000002,17.30041792946205,6.985262480393532,-23.18194888425401,0.4501326139034953,-0.23346854871221814,-1.5356596624887044,0.011882435435674696,-0.004817736468130798,-0.036442477229522686,0,70,255.0,255.0,255.0
539,26.950000000000003,17.322940587822824,6.97358408868234,-23.258777787613855,0.45079721295345027,-0.23364596183540406,-1.5375038146824764,0.01470152656252182,-0.00227878845930588,-0.03732361052135685,0,70,255.0,255.0,255.0
540,27.0,17.3455,6.9619,-23.3357,0.4516027665597474,-0.23369642755814873,-1.5393920235408403,0.0175206176893683,0.0002601595495188569,-0.038204743813199826,0,70,255.0,255.0,255.0
541,27.05,17.36810085341256,6.9502148316367585,-23.412717021873775,0.45240765619170503,-0.2337237506669375,-1.5412821467494011,0.014674967588937587,-0.0013530839010699632,-0.03740018452923194,0,70,255.0,255.0,255.0
542,27.1,17.390738394244085,6.938526280563764,-23.489827544208868,0.45307026331864114,-0.23383173594825574,-1.5431320419937633,0.011829317488506871,-0.002966327351658783,-0.03659562524526405,0,70,255.0,255.0,255.0
543,27.150000000000002,17.41340550836934,6.926830313672389,-23.567029555607082,0.4535905879405558,-0.2340203834021034,-1.5449417092739275,0.008983667388076155,-0.004579570802247603,-0.035791065961296165,0,70,255.0,255.0,255.0
544,27.200000000000003,17.43609508166306,6.915122897854011,-23.644321044670196,0.4539686300574488,-0.2342896930284805,-1.5467111485898932,0.006138017287645441,-0.006192814252836423,-0.03498650667732828,0,70,255.0,255.0,255.0
545,27.25,17.4588,6.9034,-23.7217,0.45420438966932036,-0.23463966482738705,-1.5484403599416605,0.0032923671872144844,-0.007806057703424907,-0.03418194739336222,0,70,255.0,255.0,255.0
546,27.3,17.481515503071318,6.891658290030583,-23.79916491922459,0.454439095760555,-0.23502811706772067,-1.5501598849074294,0.006095876462171774,-0.007732031909919755,-0.03459905123739766,0,70,255.0,255.0,255.0
547,27.35,17.504246245833787,6.87989724998139,-23.876716336077276,0.4548139773155375,-0.23541286801837905,-1.5519002650654004,0.008899385737129064,-0.007658006116414604,-0.03501615508143311,0,70,255.0,255.0,255.0
548,27.400000000000002,17.5269992370606,6.868117064916906,-23.954355293317672,0.45532903433426797,-0.23579391767936214,-1.553661500415573,0.011702895012086354,-0.007583980322909453,-0.03543325892546855,0,70,255.0,255.0,255.0
549,27.450000000000003,17.549781485524942,6.856317919901613,-24.032082833705374,0.4559842668167462,-0.23617126605067,-1.5554435909579472,0.014506404287043643,-0.007509954529404302,-0.035850362769504,0,70,255.0,255.0,255.0
550,27.5,17.5726,6.8445,-24.1099,0.4567796747629723,-0.23654491313230253,-1.5572465366925232,0.0173099135619994,-0.007435928735897157,-0.036267466613532306,0,70,255.0,255.0,255.0
551,27.55,17.59545953430219,6.832664008240913,-24.187807301227853,0.4575799607660853,-0.2368837810621828,-1.5590383136208938,0.014701526562520469,-0.006118788459313488,-0.03540361052129447,0,70,255.0,255.0,255.0
552,27.6,17.618355822420778,6.820812719510679,-24.265803111482015,0.4582498274192244,-0.23715679197823386,-1.5607868977446528,0.012093139563041536,-0.004801648182729819,-0.03453975442905663,0,70,255.0,255.0,255.0
553,27.650000000000002,17.641282343388276,6.808949426659987,-24.343885271122247,0.4587892747223895,-0.23736394588045578,-1.5624922890637998,0.009484752563562604,-0.00348450790614615,-0.0336758983368188,0,70,255.0,255.0,255.0
554,27.700000000000003,17.664232576237186,6.797077422539529,-24.42205162050832,0.4591983026755807,-0.23750524276884852,-1.5641544875783346,0.006876365564083671,-0.00216736762956248,-0.03281204224458096,0,70,255.0,255.0,255.0
555,27.75,17.6872,6.7852,-24.5003,0.45947691127879786,-0.23758068264341203,-1.5657734932882574,0.0042679785646022594,-0.0008502273529780169,-0.0319481861523343,0,70,255.0,255.0,255.0
556,27.8,17.710179959719948,6.773319277005763,-24.578629075863986,0.4597370611751024,-0.23766075868355677,-1.5673988606089992,0.006138017287576707,-0.0023528142528112853,-0.033066506677333525,0,70,255.0,255.0,255.0
557,27.85,17.733175264483116,6.761432671975894,-24.657040817994673,0.4600907130075555,-0.23781596406869318,-1.569080143955991,0.008008056010551155,-0.0038554011526445537,-0.03418482720233274,0,70,255.0,255.0,255.0
558,27.900000000000002,17.756190589386307,6.749536428443143,-24.73553802219336,0.4605378667761575,-0.23804629879882122,-1.5708173433292325,0.009878094733525602,-0.005357988052477822,-0.035303147727331965,0,70,255.0,255.0,255.0
559,27.950000000000003,17.77923060952633,6.737626789940261,-24.81412348426137,0.46107852248090814,-0.23835176287394094,-1.5726104587287242,0.01174813345650005,-0.006860574952311091,-0.03642146825233119,0,70,255.0,255.0,255.0
560,28.0,17.8023,6.7257,-24.8928,0.46171268012180744,-0.23873235629405234,-1.5744594901544657,0.013618172179473476,-0.00836316185214403,-0.03753978877732855,0,70,255.0,255.0,255.0
561,28.05,17.825402226818024,6.7137532837360325,-24.971569195316192,0.4623677945334722,-0.23912918420359103,-1.5762942439431364,0.012586404287116068,-0.007509954529403316,-0.035850362769501105,0,70,255.0,255.0,255.0
562,28.1,17.848535919646768,6.701787792585742,-25.05042801653931,0.4629713205505191,-0.23948335174699267,-1.578044526431416,0.01155463639475866,-0.006656747206662603,-0.034160936761673664,0,70,255.0,255.0,255.0
563,28.150000000000002,17.8716984990665,6.689805659567435,-25.12937224010433,0.4635232581729481,-0.2397948589242573,-1.579710337619304,0.01052286850240125,-0.0058035398839218905,-0.03247151075384622,0,70,255.0,255.0,255.0
564,28.200000000000003,17.894887385657487,6.677809017699419,-25.208397642446233,0.4640236074007592,-0.24006370573538488,-1.5812916775068004,0.009491100610043842,-0.004950332561181177,-0.030782084746018772,0,70,255.0,255.0,255.0
565,28.25,17.9181,6.6658,-25.2875,0.46447236823395244,-0.24028989218037544,-1.582788546093906,0.008459332717684731,-0.004097125238440746,-0.029092658738193222,0,70,255.0,255.0,255.0
566,28.3,17.941334333007948,6.653780388050103,-25.366676542871247,0.4649037606909982,-0.24049450450207582,-1.5842881636184736,0.008796365564145963,-0.004087367629574778,-0.03089204224451268,0,70,255.0,255.0,255.0
567,28.35,17.964590656929804,6.641750557681133,-25.445930315848106,0.46535200479036704,-0.24069862894333294,-1.5858777503183574,0.009133398410607195,-0.00407761002070881,-0.032691425750832136,0,70,255.0,255.0,255.0
