idx,t,px,py,pz,vx,vy,vz,ax,ay,az,yaw,mode,ledr,ledg,ledb
0,0.0,-1.5000000000000013,-6.000000000000005,4.1843104616990316e-18,0.0,0.0,0.002996822226478341,4.440892098500626e-14,1.7763568394002505e-13,-0.11117881484318907,0.0,70.0,255.0,1.0,2.0
1,0.05,-1.5000000000000013,-6.000000000000005,0.00014984111132392122,2.220446049250313e-15,8.881784197001252e-15,-0.0025621185156811128,2.220446049250313e-14,8.881784197001252e-14,-0.1666708704093849,0.0,70.0,255.0,1.0,2.0
2,0.1,-1.500000000000001,-6.000000000000004,-0.0002562118515681071,2.220446049250313e-15,8.881784197001252e-15,-0.013670264814460154,-2.220446049250313e-14,-8.881784197001252e-14,-0.22196822226478355,0.0,70.0,255.0,1.0,2.0
3,0.15000000000000002,-1.500000000000001,-6.000000000000004,-0.0012171853701220942,0.0,0.0,-0.02475894074215947,-2.886579864025407e-13,-1.1546319456101628e-12,-0.22157881484320066,0.0,70.0,255.0,1.0,2.0
4,0.2,-1.500000000000001,-6.000000000000004,-0.002732105925784054,-2.6645352591003757e-14,-1.0658141036401503e-13,-0.03582814629878022,-2.6645352591003757e-13,-1.0658141036401503e-12,-0.2211879513218554,0.0,70.0,255.0,1.0,2.0
5,0.25,-1.5000000000000038,-6.000000000000015,-0.004800000000000117,-2.6645352591003757e-14,-1.0658141036401503e-13,-0.04687773587434501,2.6645352591003757e-13,1.0658141036401503e-12,-0.22078871522690321,0.0,70.0,255.0,1.0,2.0
6,0.30000000000000004,-1.5000000000000038,-6.000000000000015,-0.007419879513218555,0.0,0.0,-0.05790701782147054,2.6645352591003757e-13,1.0658141036401503e-12,-0.22037888196153826,0.0,70.0,255.0,1.0,2.0
7,0.35000000000000003,-1.5000000000000038,-6.000000000000015,-0.010590701782147171,0.0,0.0,-0.06891562407049884,0.0,0.0,-0.21997742126976866,0.0,70.0,255.0,1.0,2.0
8,0.4,-1.5000000000000038,-6.000000000000015,-0.014311441920268439,0.0,0.0,-0.07990475994844741,0.0,0.0,-0.21961462811589533,0.0,70.0,255.0,1.0,2.0
9,0.45,-1.5000000000000038,-6.000000000000015,-0.018581177776991913,0.0,0.0,-0.09087708688208837,0.0,0.0,-0.21932059522817016,0.0,70.0,255.0,1.0,2.0
10,0.5,-1.5000000000000038,-6.000000000000015,-0.023399150608477276,0.0,0.0,-0.10183681947126443,0.0,0.0,-0.2191375494994513,0.0,70.0,255.0,1.0,2.0
11,0.55,-1.5000000000000038,-6.000000000000015,-0.028764859724118356,0.0,0.0,-0.1127908418320335,0.0,0.0,-0.21907924298296966,0.0,70.0,255.0,1.0,2.0
12,0.6000000000000001,-1.5000000000000038,-6.000000000000015,-0.034678234791680626,0.0,0.0,-0.12374474376956139,0.0,0.0,-0.219064943036823,0.0,70.0,255.0,1.0,2.0
13,0.65,-1.5000000000000038,-6.000000000000015,-0.041139334101074496,0.0,0.0,-0.1346973361357158,0.0,0.0,-0.2189589088061901,0.0,70.0,255.0,1.0,2.0
14,0.7000000000000001,-1.5000000000000038,-6.000000000000015,-0.048147968405252206,0.0,0.0,-0.1456406346501804,0.0,0.0,-0.21863138372204827,0.0,70.0,255.0,1.0,2.0
15,0.75,-1.5000000000000038,-6.000000000000015,-0.055703397566092536,0.0,0.0,-0.15656047450792063,0.0,0.0,-0.21795385794625144,0.0,70.0,255.0,1.0,2.0
16,0.8,-1.5000000000000038,-6.000000000000015,-0.06380401585604427,0.0,0.0,-0.16743602044480554,0.0,0.0,-0.2168750909392267,0.0,70.0,255.0,1.0,2.0
17,0.8500000000000001,-1.5000000000000038,-6.000000000000015,-0.07244699961057309,0.0,0.0,-0.1782479836018433,0.0,0.0,-0.21552634970648799,0.0,70.0,255.0,1.0,2.0
18,0.9,-1.5000000000000038,-6.000000000000015,-0.0816288142162286,0.0,0.0,-0.18898865541545434,0.0,0.0,-0.2141478718574799,0.0,70.0,255.0,1.0,2.0
19,0.9500000000000001,-1.5000000000000038,-6.000000000000015,-0.09134586515211852,0.0,0.0,-0.1996627707875913,0.0,0.0,-0.21298613095589725,0.0,70.0,255.0,1.0,2.0
20,1.0,-1.5000000000000038,-6.000000000000015,-0.10159509129498773,0.0,0.0,-0.21028726851104407,0.0,0.0,-0.21228300939153538,0.0,70.0,255.0,1.0,2.0
21,1.05,-1.5000000000000038,-6.000000000000015,-0.11237459200322293,0.0,0.0,-0.22089107172674483,0.0,0.0,-0.21215419279393272,0.0,70.0,255.0,1.0,2.0
22,1.1,-1.5000000000000038,-6.000000000000015,-0.12368419846766221,0.0,0.0,-0.23150268779043734,0.0,0.0,-0.21246247865004952,0.0,70.0,255.0,1.0,2.0
23,1.1500000000000001,-1.5000000000000038,-6.000000000000015,-0.13552486078226667,0.0,0.0,-0.24213731959174978,0.0,0.0,-0.21293594409022704,0.0,70.0,255.0,1.0,2.0
24,1.2000000000000002,-1.5000000000000038,-6.000000000000015,-0.1478979304268372,0.0,0.0,-0.25279628219946004,0.0,0.0,-0.21329803184831353,0.0,70.0,255.0,1.0,2.0
25,1.25,-1.5000000000000038,-6.000000000000015,-0.16080448900221267,0.0,0.0,-0.26346712277658113,0.0,0.0,-0.21328613245964745,0.0,70.0,255.0,1.0,2.0
26,1.3,-1.5000000000000038,-6.000000000000015,-0.1742446427044953,0.0,0.0,-0.2741248954454248,0.0,0.0,-0.21276156445846628,0.0,70.0,255.0,1.0,2.0
27,1.35,-1.5000000000000038,-6.000000000000015,-0.18821697854675515,0.0,0.0,-0.28474327922242776,0.0,0.0,-0.211791847581419,0.0,70.0,255.0,1.0,2.0
28,1.4000000000000001,-1.5000000000000038,-6.000000000000015,-0.20271897062673808,0.0,0.0,-0.2953040802035667,0.0,0.0,-0.2105402398935058,0.0,70.0,255.0,1.0,2.0
29,1.4500000000000002,-1.5000000000000038,-6.000000000000015,-0.21774738656711182,0.0,0.0,-0.30579730321177834,0.0,0.0,-0.20917502836416413,0.0,70.0,255.0,1.0,2.0
30,1.5,-1.5000000000000038,-6.000000000000015,-0.2332987009479159,0.0,0.0,-0.3162215830399831,0.0,0.0,-0.20785246076987784,0.0,70.0,255.0,1.0,2.0
31,1.55,-1.5000000000000038,-6.000000000000015,-0.24936954487111013,0.0,0.0,-0.3265825492887661,0.0,0.0,-0.20667181044442817,0.0,70.0,255.0,1.0,2.0
32,1.6,-1.5000000000000038,-6.000000000000015,-0.2659569558767925,0.0,0.0,-0.3368887640844259,0.0,0.0,-0.20568556225970258,0.0,70.0,255.0,1.0,2.0
33,1.6500000000000001,-1.5000000000000038,-6.000000000000015,-0.2830584212795527,0.0,0.0,-0.3471511055147364,0.0,0.0,-0.20494934342202842,0.0,70.0,255.0,1.0,2.0
34,1.7000000000000002,-1.5000000000000038,-6.000000000000015,-0.30067206642826616,0.0,0.0,-0.35738369842662876,0.0,0.0,-0.2045208290540168,0.0,70.0,255.0,1.0,2.0
35,1.75,-1.5000000000000038,-6.000000000000015,-0.3187967911222156,0.0,0.0,-0.36760318842013806,0.0,0.0,-0.20446001513681478,0.0,70.0,255.0,1.0,2.0
36,1.8,-1.5000000000000038,-6.000000000000015,-0.33743238527027997,0.0,0.0,-0.37782969994031024,0.0,0.0,-0.20477273222534453,0.0,70.0,255.0,1.0,2.0
37,1.85,-1.5000000000000038,-6.000000000000015,-0.3565797611162466,0.0,0.0,-0.3880804616426725,0.0,0.0,-0.2053032926571663,0.0,70.0,255.0,1.0,2.0
38,1.9000000000000001,-1.5000000000000038,-6.000000000000015,-0.3762404314345472,0.0,0.0,-0.39836002920602687,0.0,0.0,-0.20578247965850616,0.0,70.0,255.0,1.0,2.0
39,1.9500000000000002,-1.5000000000000038,-6.000000000000015,-0.3964157640368493,0.0,0.0,-0.40865870960852313,0.0,0.0,-0.20592990716802317,0.0,70.0,255.0,1.0,2.0
40,2.0,-1.5000000000000038,-6.000000000000015,-0.41710630239539953,0.0,0.0,-0.4189530199228292,0.0,0.0,-0.20547148800685866,0.0,70.0,255.0,1.0,2.0
41,2.0500000000000003,-1.5000000000000038,-6.000000000000015,-0.4383110660291322,0.0,0.0,-0.429205858409209,0.0,0.0,-0.20428294829989424,0.0,70.0,255.0,1.0,2.0
42,2.1,-1.5000000000000038,-6.000000000000015,-0.46002688823632043,0.0,0.0,-0.4393813147528186,0.0,0.0,-0.2025502181606076,0.0,70.0,255.0,1.0,2.0
43,2.15,-1.5000000000000038,-6.000000000000015,-0.4822491975044141,0.0,0.0,-0.44946088022526975,0.0,0.0,-0.20063346521669856,0.0,70.0,255.0,1.0,2.0
44,2.2,-1.5000000000000038,-6.000000000000015,-0.5049729762588474,0.0,0.0,-0.45944466127448846,0.0,0.0,-0.19890509005939805,0.0,70.0,255.0,1.0,2.0
45,2.25,-1.5000000000000038,-6.000000000000015,-0.5281936636318629,0.0,0.0,-0.46935138923120956,0.0,0.0,-0.19772601418772684,0.0,70.0,255.0,1.0,2.0
46,2.3000000000000003,-1.5000000000000038,-6.000000000000015,-0.5519081151819684,0.0,0.0,-0.47921726269326115,0.0,0.0,-0.19728204800169014,0.0,70.0,255.0,1.0,2.0
47,2.35,-1.5000000000000038,-6.000000000000015,-0.576115389901189,0.0,0.0,-0.4890795940313786,0.0,0.0,-0.19744501884956245,0.0,70.0,255.0,1.0,2.0
48,2.4000000000000004,-1.5000000000000038,-6.000000000000015,-0.6008160745851062,0.0,0.0,-0.4989617645782174,0.0,0.0,-0.197934475325523,0.0,70.0,255.0,1.0,2.0
49,2.45,-1.5000000000000038,-6.000000000000015,-0.6260115663590108,0.0,0.0,-0.5088730415639309,0.0,0.0,-0.19846315916777213,0.0,70.0,255.0,1.0,2.0
50,2.5,-1.5000000000000038,-6.000000000000015,-0.6517033787414993,0.0,0.0,-0.5188080804949946,0.0,0.0,-0.1987524738902402,0.0,70.0,255.0,1.0,2.0
51,2.5500000000000003,-1.5000000000000038,-6.000000000000015,-0.6778923744085102,0.0,0.0,-0.5287482889529549,0.0,0.0,-0.19864331190787565,0.0,70.0,255.0,1.0,2.0
52,2.6,-1.5000000000000038,-6.000000000000015,-0.7045782076367948,0.0,0.0,-0.5386724116857822,0.0,0.0,-0.1981569791683957,0.0,70.0,255.0,1.0,2.0
53,2.6500000000000004,-1.5000000000000038,-6.000000000000015,-0.7317596155770885,0.0,0.0,-0.5485639868697945,0.0,0.0,-0.1973796824322971,0.0,70.0,255.0,1.0,2.0
54,2.7,-1.5000000000000038,-6.000000000000015,-0.7594346063237742,0.0,0.0,-0.5584103799290119,0.0,0.0,-0.1963965856238037,0.0,70.0,255.0,1.0,2.0
55,2.75,-1.5000000000000038,-6.000000000000015,-0.7876006535699897,0.0,0.0,-0.5682036454321748,0.0,0.0,-0.19530008092719653,0.0,70.0,255.0,1.0,2.0
56,2.8000000000000003,-1.5000000000000038,-6.000000000000015,-0.8162549708669917,0.0,0.0,-0.5779403880217315,0.0,0.0,-0.19415645261862124,0.0,70.0,255.0,1.0,2.0
57,2.85,-1.5000000000000038,-6.000000000000015,-0.8453946923721628,0.0,0.0,-0.587619290694037,0.0,0.0,-0.19300697123686428,0.0,70.0,255.0,1.0,2.0
58,2.9000000000000004,-1.5000000000000038,-6.000000000000015,-0.8750168999363954,0.0,0.0,-0.597241085145418,0.0,0.0,-0.1919094056679449,0.0,70.0,255.0,1.0,2.0
59,2.95,-1.5000000000000038,-6.000000000000015,-0.9051188008867046,0.0,0.0,-0.6068102312608314,0.0,0.0,-0.19093567316209592,0.0,70.0,255.0,1.0,2.0
60,3.0,-1.5000000000000038,-6.000000000000015,-0.9356979230624786,0.0,0.0,-0.6163346524616276,0.0,0.0,-0.19014323969692715,0.0,70.0,255.0,1.0,2.0
61,3.0500000000000003,-1.5000000000000038,-6.000000000000015,-0.9667522661328674,0.0,0.0,-0.6258245552305242,0.0,0.0,-0.18955810372491833,0.0,70.0,255.0,1.0,2.0
62,3.1,-1.5000000000000038,-6.000000000000015,-0.998280378585531,0.0,0.0,-0.6352904628341194,0.0,0.0,-0.18917066035971652,0.0,70.0,255.0,1.0,2.0
63,3.1500000000000004,-1.5000000000000038,-6.000000000000015,-1.0302813124162793,0.0,0.0,-0.6447416212664958,0.0,0.0,-0.18894633125960958,0.0,70.0,255.0,1.0,2.0
64,3.2,-1.5000000000000038,-6.000000000000015,-1.0627545407121806,0.0,0.0,-0.6541850959600803,0.0,0.0,-0.18883452126157163,0.0,70.0,255.0,1.0,2.0
65,3.25,-1.5000000000000038,-6.000000000000015,-1.0956998220122873,0.0,0.0,-0.663625073392653,0.0,0.0,-0.18878691366499556,0.0,70.0,255.0,1.0,2.0
66,3.3000000000000003,-1.5000000000000038,-6.000000000000015,-1.1291170480514459,0.0,0.0,-0.6730637873265799,0.0,0.0,-0.1887654448359921,0.0,70.0,255.0,1.0,2.0
67,3.35,-1.5000000000000038,-6.000000000000015,-1.1630062007449453,0.0,0.0,-0.6825016178762522,0.0,0.0,-0.18871225212608866,0.0,70.0,255.0,1.0,2.0
68,3.4000000000000004,-1.5000000000000038,-6.000000000000015,-1.197367209839071,0.0,0.0,-0.6919350125391888,0.0,0.0,-0.18854172617019938,0.0,70.0,255.0,1.0,2.0
69,3.45,-1.5000000000000038,-6.000000000000015,-1.2321997019988642,0.0,0.0,-0.7013557904932721,0.0,0.0,-0.18816726743280388,0.0,70.0,255.0,1.0,2.0
70,3.5,-1.5000000000000038,-6.000000000000015,-1.2675027888883983,0.0,0.0,-0.7107517392824692,0.0,0.0,-0.1875091056430911,0.0,70.0,255.0,1.0,2.0
71,3.5500000000000003,-1.5000000000000038,-6.000000000000015,-1.303274875927111,0.0,0.0,-0.7201067010575812,0.0,0.0,-0.18653909128987234,0.0,70.0,255.0,1.0,2.0
72,3.6,-1.5000000000000038,-6.000000000000015,-1.3395134589941564,0.0,0.0,-0.7294056484114564,0.0,0.0,-0.18534387425930277,0.0,70.0,255.0,1.0,2.0
73,3.6500000000000004,-1.5000000000000038,-6.000000000000015,-1.3762154407682567,0.0,0.0,-0.7386410884835115,0.0,0.0,-0.18408489925789695,0.0,70.0,255.0,1.0,2.0
74,3.7,-1.5000000000000038,-6.000000000000015,-1.4133775678425076,0.0,0.0,-0.7478141383372461,0.0,0.0,-0.1829353833665781,0.0,70.0,255.0,1.0,2.0
75,3.75,-1.5000000000000038,-6.000000000000015,-1.4509968546019814,0.0,0.0,-0.7569346268201693,0.0,0.0,-0.1820646824106653,0.0,70.0,255.0,1.0,2.0
76,3.8000000000000003,-1.5000000000000038,-6.000000000000015,-1.4890710305245245,0.0,0.0,-0.7660206065783126,0.0,0.0,-0.18155819000409412,0.0,70.0,255.0,1.0,2.0
77,3.85,-1.5000000000000038,-6.000000000000015,-1.5275989152598126,0.0,0.0,-0.7750904458205787,0.0,0.0,-0.18134684291128966,0.0,70.0,255.0,1.0,2.0
78,3.9000000000000004,-1.5000000000000038,-6.000000000000015,-1.5665800751065824,0.0,0.0,-0.7841552908694416,0.0,0.0,-0.18128408472386504,0.0,70.0,255.0,1.0,2.0
79,3.95,-1.5000000000000038,-6.000000000000015,-1.6060144443467568,0.0,0.0,-0.7932188542929652,0.0,0.0,-0.18121791238756568,0.0,70.0,255.0,1.0,2.0
80,4.0,-1.5000000000000038,-6.000000000000015,-1.645901960535879,0.0,0.0,-0.8022770821081981,0.0,0.0,-0.18099617403801727,0.0,70.0,255.0,1.0,2.0
81,4.05,-1.5000000000000038,-6.000000000000015,-1.6862421525575766,0.0,0.0,-0.811318471696767,0.0,0.0,-0.1805353748007832,0.0,70.0,255.0,1.0,2.0
82,4.1000000000000005,-1.5000000000000038,-6.000000000000015,-1.7270338077055556,0.0,0.0,-0.8203306195882765,0.0,0.0,-0.1798723904594235,0.0,70.0,255.0,1.0,2.0
83,4.15,-1.5000000000000038,-6.000000000000015,-1.7682752145164042,0.0,0.0,-0.8293057107427093,0.0,0.0,-0.17909428632256752,0.0,70.0,255.0,1.0,2.0
84,4.2,-1.5000000000000038,-6.000000000000015,-1.8099643787798265,0.0,0.0,-0.8382400482205332,0.0,0.0,-0.17828676661666432,0.0,70.0,255.0,1.0,2.0
85,4.25,-1.5000000000000038,-6.000000000000015,-1.8520992193384576,0.0,0.0,-0.8471343874043757,0.0,0.0,-0.17754260278886047,0.0,70.0,255.0,1.0,2.0
86,4.3,-1.5000000000000038,-6.000000000000015,-1.894677817520264,0.0,0.0,-0.8559943084994193,0.0,0.0,-0.17691308468583689,0.0,70.0,255.0,1.0,2.0
87,4.3500000000000005,-1.5000000000000038,-6.000000000000015,-1.9376986501883995,0.0,0.0,-0.8648256958729594,0.0,0.0,-0.17636266285037117,0.0,70.0,255.0,1.0,2.0
88,4.4,-1.5000000000000038,-6.000000000000015,-1.98116038710756,0.0,0.0,-0.8736305747844564,0.0,0.0,-0.1758205415477665,0.0,70.0,255.0,1.0,2.0
89,4.45,-1.5000000000000038,-6.000000000000015,-2.025061707666845,0.0,0.0,-0.8824077500277361,0.0,0.0,-0.17522122161179876,0.0,70.0,255.0,1.0,2.0
90,4.5,-1.5000000000000038,-6.000000000000015,-2.0694011621103336,0.0,0.0,-0.8911526969456363,0.0,0.0,-0.17448544277811617,0.0,70.0,255.0,1.0,2.0
91,4.55,-1.5000000000000038,-6.000000000000015,-2.1141769773614087,0.0,0.0,-0.8998562943055477,0.0,0.0,-0.17357899974252966,0.0,70.0,255.0,1.0,2.0
92,4.6000000000000005,-1.5000000000000038,-6.000000000000015,-2.1593867915408884,0.0,0.0,-0.9085105969198892,0.0,0.0,-0.1725969581394704,0.0,70.0,255.0,1.0,2.0
93,4.65,-1.5000000000000038,-6.000000000000015,-2.2050280370533977,0.0,0.0,-0.9171159901194947,0.0,0.0,-0.17170354748685668,0.0,70.0,255.0,1.0,2.0
94,4.7,-1.5000000000000038,-6.000000000000015,-2.251098390552838,0.0,0.0,-0.9256809516685749,0.0,0.0,-0.17105492036257886,0.0,70.0,255.0,1.0,2.0
95,4.75,-1.5000000000000038,-6.000000000000015,-2.297596132220255,0.0,0.0,-0.9342214821557526,0.0,0.0,-0.1708115701538837,0.0,70.0,255.0,1.0,2.0
96,4.800000000000001,-1.5000000000000038,-6.000000000000015,-2.344520538768413,0.0,0.0,-0.9427621086839633,0.0,0.0,-0.17103851541162562,0.0,70.0,255.0,1.0,2.0
97,4.8500000000000005,-1.5000000000000038,-6.000000000000015,-2.3918723430886515,0.0,0.0,-0.9513253336969152,0.0,0.0,-0.17156596146876701,0.0,70.0,255.0,1.0,2.0
98,4.9,-1.5000000000000038,-6.000000000000015,-2.4396530721381047,0.0,0.0,-0.95991870483084,0.0,0.0,-0.17208713330703063,0.0,70.0,255.0,1.0,2.0
99,4.95,-1.5000000000000038,-6.000000000000015,-2.4878642135717355,0.0,0.0,-0.9685340470276183,0.0,0.0,-0.17229354915220263,0.0,70.0,255.0,1.0,2.0
100,5.0,-1.5000000000000038,-6.000000000000015,-2.5365064768408665,0.0,0.0,-0.9771480597460602,0.0,0.0,-0.17188431390158243,0.0,70.0,255.0,1.0,2.0
101,5.050000000000001,-1.5000000000000038,-6.000000000000015,-2.5855790195463415,0.0,0.0,-0.9857224784177765,0.0,0.0,-0.17071933954335705,0.0,70.0,255.0,1.0,2.0
102,5.1000000000000005,-1.5000000000000038,-6.000000000000015,-2.635078724682644,0.0,0.0,-0.9942199937003959,0.0,0.0,-0.16898814703507625,0.0,70.0,255.0,1.0,2.0
103,5.15,-1.5000000000000038,-6.000000000000015,-2.685001018916381,0.0,0.0,-1.0026212931212841,0.0,0.0,-0.16706064655775954,0.0,70.0,255.0,1.0,2.0
104,5.2,-1.5000000000000038,-6.000000000000015,-2.7353408539947726,0.0,0.0,-1.0109260583561719,0.0,0.0,-0.1653164308139221,0.0,70.0,255.0,1.0,2.0
105,5.25,-1.5000000000000038,-6.000000000000015,-2.7860936247519983,0.0,0.0,-1.0191529362026763,0.0,0.0,-0.16412315559146684,0.0,70.0,255.0,1.0,2.0
106,5.300000000000001,-1.5000000000000038,-6.000000000000015,-2.83725614761504,0.0,0.0,-1.0273383739153186,0.0,0.0,-0.1636706998414006,0.0,70.0,255.0,1.0,2.0
107,5.3500000000000005,-1.5000000000000038,-6.000000000000015,-2.88882746214353,0.0,0.0,-1.0355200061868164,0.0,0.0,-0.16383063454048497,0.0,70.0,255.0,1.0,2.0
108,5.4,-1.5000000000000038,-6.000000000000015,-2.940808148233722,0.0,0.0,-1.043721437369367,0.0,0.0,-0.1643210963129249,0.0,70.0,255.0,1.0,2.0
109,5.45,-1.5000000000000038,-6.000000000000015,-2.993199605880467,0.0,0.0,-1.0519521158181089,0.0,0.0,-0.16485415416540583,0.0,70.0,255.0,1.0,2.0
110,5.5,-1.5000000000000038,-6.000000000000015,-3.0460033598155327,0.0,0.0,-1.0602068527859076,0.0,0.0,-0.16515108238062126,0.0,70.0,255.0,1.0,2.0
111,5.550000000000001,-1.5000000000000038,-6.000000000000015,-3.0992202911590576,0.0,0.0,-1.068467224056171,0.0,0.0,-0.1650523133053916,0.0,70.0,255.0,1.0,2.0
112,5.6000000000000005,-1.5000000000000038,-6.000000000000015,-3.15285008222115,0.0,0.0,-1.0767120841164468,0.0,0.0,-0.1645765875300409,0.0,70.0,255.0,1.0,2.0
113,5.65,-1.5000000000000038,-6.000000000000015,-3.2068914995707023,0.0,0.0,-1.084924882809175,0.0,0.0,-0.16380601714165444,0.0,70.0,255.0,1.0,2.0
114,5.7,-1.5000000000000038,-6.000000000000015,-3.2613425705020673,0.0,0.0,-1.0930926858306123,0.0,0.0,-0.16282126487929816,0.0,70.0,255.0,1.0,2.0
115,5.75,-1.5000000000000038,-6.000000000000015,-3.3162007681537635,0.0,0.0,-1.101207009297105,0.0,0.0,-0.16170850556229688,0.0,70.0,255.0,1.0,2.0
116,5.800000000000001,-1.5000000000000038,-6.000000000000015,-3.371463271431778,0.0,0.0,-1.109263536386842,0.0,0.0,-0.16053179518857874,0.0,70.0,255.0,1.0,2.0
117,5.8500000000000005,-1.5000000000000038,-6.000000000000015,-3.4271271217924477,0.0,0.0,-1.1172601888159628,0.0,0.0,-0.15934292209922596,0.0,70.0,255.0,1.0,2.0
118,5.9,-1.5000000000000038,-6.000000000000015,-3.483189290313374,0.0,0.0,-1.1251978285967645,0.0,0.0,-0.15821744584259,0.0,70.0,255.0,1.0,2.0
119,5.95,-1.5000000000000038,-6.000000000000015,-3.539646904652124,0.0,0.0,-1.1330819334002218,0.0,0.0,-0.15724596114226053,0.0,70.0,255.0,1.0,2.0
120,6.0,-1.5000000000000038,-6.000000000000015,-3.5964974836533963,0.0,0.0,-1.1409224247109906,0.0,0.0,-0.15651093266666471,0.0,70.0,255.0,1.0,2.0
121,6.050000000000001,-1.5000000000000038,-6.000000000000015,-3.6537391471232232,0.0,0.0,-1.1487330266668883,0.0,0.0,-0.15604773204782596,0.0,70.0,255.0,1.0,2.0
122,6.1000000000000005,-1.5000000000000038,-6.000000000000015,-3.711370786320085,0.0,0.0,-1.1565271979157732,0.0,0.0,-0.15580724854857841,0.0,70.0,255.0,1.0,2.0
123,6.15,-1.5000000000000038,-6.000000000000015,-3.7693918669148005,0.0,0.0,-1.164313751521746,0.0,0.0,-0.15568783585138135,0.0,70.0,255.0,1.0,2.0
124,6.2,-1.5000000000000038,-6.000000000000015,-3.8278021614722597,0.0,0.0,-1.1720959815009113,0.0,0.0,-0.15557540337183262,0.0,70.0,255.0,1.0,2.0
125,6.25,-1.5000000000000038,-6.000000000000015,-3.8866014650648917,0.0,0.0,-1.1798712918589294,0.0,0.0,-0.1553597451230626,0.0,70.0,255.0,1.0,2.0
126,6.300000000000001,-1.5000000000000038,-6.000000000000015,-3.9457892906581526,0.0,0.0,-1.1876319560132176,0.0,0.0,-0.15497778944100205,0.0,70.0,255.0,1.0,2.0
127,6.3500000000000005,-1.5000000000000038,-6.000000000000015,-4.005364660666213,0.0,0.0,-1.1953690708030296,0.0,0.0,-0.15443172007043593,0.0,70.0,255.0,1.0,2.0
128,6.4,-1.5000000000000038,-6.000000000000015,-4.065326197738456,0.0,0.0,-1.2030751280202612,0.0,0.0,-0.15374673522736693,0.0,70.0,255.0,1.0,2.0
129,6.45,-1.5000000000000038,-6.000000000000015,-4.12567217346824,0.0,0.0,-1.2107437443257663,0.0,0.0,-0.1529462249036051,0.0,70.0,255.0,1.0,2.0
130,6.5,-1.5000000000000038,-6.000000000000015,-4.186400572171032,0.0,0.0,-1.2183697505106217,0.0,0.0,-0.15204206819285915,0.0,70.0,255.0,1.0,2.0
131,6.550000000000001,-1.5000000000000038,-6.000000000000015,-4.247509148519302,0.0,0.0,-1.2259479511450522,0.0,0.0,-0.15105388408134246,0.0,70.0,255.0,1.0,2.0
132,6.6000000000000005,-1.5000000000000038,-6.000000000000015,-4.3089953672855374,0.0,0.0,-1.233475138918756,0.0,0.0,-0.1500649387691233,0.0,70.0,255.0,1.0,2.0
133,6.65,-1.5000000000000038,-6.000000000000015,-4.370856662411177,0.0,0.0,-1.2409544450219645,0.0,0.0,-0.1492069948011654,0.0,70.0,255.0,1.0,2.0
134,6.7,-1.5000000000000038,-6.000000000000015,-4.433090811787734,0.0,0.0,-1.2483958383988725,0.0,0.0,-0.14861247090571794,0.0,70.0,255.0,1.0,2.0
135,6.75,-1.5000000000000038,-6.000000000000015,-4.495696246251065,0.0,0.0,-1.2558156921125363,0.0,0.0,-0.14841995413306108,0.0,70.0,255.0,1.0,2.0
136,6.800000000000001,-1.5000000000000038,-6.000000000000015,-4.5586723809989875,0.0,0.0,-1.2632378338121786,0.0,0.0,-0.14868098658862294,0.0,70.0,255.0,1.0,2.0
137,6.8500000000000005,-1.5000000000000038,-6.000000000000015,-4.622020029632282,0.0,0.0,-1.2706837907713986,0.0,0.0,-0.14922498172982301,0.0,70.0,255.0,1.0,2.0
138,6.9,-1.5000000000000038,-6.000000000000015,-4.685740760076127,0.0,0.0,-1.2781603319851609,0.0,0.0,-0.1497471503699721,0.0,70.0,255.0,1.0,2.0
139,6.95,-1.5000000000000038,-6.000000000000015,-4.7498360628307985,0.0,0.0,-1.2856585058083958,0.0,0.0,-0.1499383436875057,0.0,70.0,255.0,1.0,2.0
140,7.0,-1.5000000000000038,-6.000000000000015,-4.814306610656967,0.0,0.0,-1.2931541663539114,0.0,0.0,-0.14949415257055065,0.0,70.0,255.0,1.0,2.0
141,7.050000000000001,-1.5000000000000038,-6.000000000000015,-4.87915147946619,0.0,0.0,-1.3006079210654509,0.0,0.0,-0.14827457049682025,0.0,70.0,255.0,1.0,2.0
142,7.1000000000000005,-1.5000000000000038,-6.000000000000015,-4.944367402763512,0.0,0.0,-1.3079816234035935,0.0,0.0,-0.14648408536075408,0.0,70.0,255.0,1.0,2.0
143,7.15,-1.5000000000000038,-6.000000000000015,-5.009949641806549,0.0,0.0,-1.3152563296015263,0.0,0.0,-0.14451713099195018,0.0,70.0,255.0,1.0,2.0
144,7.2,-1.5000000000000038,-6.000000000000015,-5.075893035723665,0.0,0.0,-1.3224333365027885,0.0,0.0,-0.14277970212948077,0.0,70.0,255.0,1.0,2.0
145,7.25,-1.5000000000000038,-6.000000000000015,-5.142192975456828,0.0,0.0,-1.3295342998144744,0.0,0.0,-0.14167541693614893,0.0,70.0,255.0,1.0,2.0
146,7.300000000000001,-1.5000000000000038,-6.000000000000015,-5.208846465705112,0.0,0.0,-1.3366008781964034,0.0,0.0,-0.14140730485063813,0.0,70.0,255.0,1.0,2.0
147,7.3500000000000005,-1.5000000000000038,-6.000000000000015,-5.275853063276468,0.0,0.0,-1.3436750302995382,0.0,0.0,-0.1417878609768941,0.0,70.0,255.0,1.0,2.0
148,7.4,-1.5000000000000038,-6.000000000000015,-5.343213968735066,0.0,0.0,-1.3507796642940928,0.0,0.0,-0.14243514151406345,0.0,70.0,255.0,1.0,2.0
149,7.45,-1.5000000000000038,-6.000000000000015,-5.4109310297058775,0.0,0.0,-1.3579185444509445,0.0,0.0,-0.14296298765446025,0.0,70.0,255.0,1.0,2.0
150,7.5,-1.5000000000000038,-6.000000000000015,-5.47900582318016,0.0,0.0,-1.3650759630595388,0.0,0.0,-0.14298422630369956,0.0,70.0,255.0,1.0,2.0
151,7.550000000000001,-1.5000000000000038,-6.000000000000015,-5.547438626011831,0.0,0.0,-1.3722169670813145,0.0,0.0,-0.14229686278133258,0.0,70.0,255.0,1.0,2.0
152,7.6000000000000005,-1.5000000000000038,-6.000000000000015,-5.616227519888292,0.0,0.0,-1.379305649337672,0.0,0.0,-0.1410535150213832,0.0,70.0,255.0,1.0,2.0
153,7.65,-1.5000000000000038,-6.000000000000015,-5.685369190945599,0.0,0.0,-1.3863223185834528,0.0,0.0,-0.13957241950208754,0.0,70.0,255.0,1.0,2.0
154,7.7,-1.5000000000000038,-6.000000000000015,-5.754859751746637,0.0,0.0,-1.3932628912878808,0.0,0.0,-0.13816872021266136,0.0,70.0,255.0,1.0,2.0
155,7.75,-1.5000000000000038,-6.000000000000015,-5.824695480074387,0.0,0.0,-1.400139190604719,0.0,0.0,-0.1371636219046124,0.0,70.0,255.0,1.0,2.0
156,7.800000000000001,-1.5000000000000038,-6.000000000000015,-5.894873670807109,0.0,0.0,-1.406979253478342,0.0,0.0,-0.13672459134355108,0.0,70.0,255.0,1.0,2.0
157,7.8500000000000005,-1.5000000000000038,-6.000000000000015,-5.965393405422221,0.0,0.0,-1.413811649739074,0.0,0.0,-0.13671173861107278,0.0,70.0,255.0,1.0,2.0
158,7.9,-1.5000000000000038,-6.000000000000015,-6.036254835781016,0.0,0.0,-1.4206504273394494,0.0,0.0,-0.13684235996498373,0.0,70.0,255.0,1.0,2.0
159,7.95,-1.5000000000000038,-6.000000000000015,-6.107458448156166,0.0,0.0,-1.4274958857355724,0.0,0.0,-0.13684175853505565,0.0,70.0,255.0,1.0,2.0
160,8.0,-1.5000000000000038,-6.000000000000015,-6.179004424354574,0.0,0.0,-1.434334603192955,0.0,0.0,-0.13642935134550171,0.0,70.0,255.0,1.0,2.0
161,8.05,-1.5000000000000038,-6.000000000000015,-6.250891908475461,0.0,0.0,-1.4411388208701226,0.0,0.0,-0.13546491170499664,0.0,70.0,255.0,1.0,2.0
162,8.1,-1.5000000000000038,-6.000000000000015,-6.323118306441586,0.0,0.0,-1.4478810943634546,0.0,0.0,-0.13410493845960048,0.0,70.0,255.0,1.0,2.0
163,8.15,-1.5000000000000038,-6.000000000000015,-6.395680017911807,0.0,0.0,-1.4545493147160826,0.0,0.0,-0.13265273271185762,0.0,70.0,255.0,1.0,2.0
164,8.200000000000001,-1.5000000000000038,-6.000000000000015,-6.468573237913194,0.0,0.0,-1.4611463676346403,0.0,0.0,-0.13140410578786899,0.0,70.0,255.0,1.0,2.0
165,8.25,-1.5000000000000038,-6.000000000000015,-6.541794654675271,0.0,0.0,-1.4676897252948695,0.0,0.0,-0.13065090744524,0.0,70.0,255.0,1.0,2.0
166,8.3,-1.5000000000000038,-6.000000000000015,-6.615342210442681,0.0,0.0,-1.4742114583791643,0.0,0.0,-0.13053613479634407,0.0,70.0,255.0,1.0,2.0
167,8.35,-1.5000000000000038,-6.000000000000015,-6.689215800513187,0.0,0.0,-1.480743338774504,0.0,0.0,-0.13090132806325983,0.0,70.0,255.0,1.0,2.0
168,8.4,-1.5000000000000038,-6.000000000000015,-6.7634165443201315,0.0,0.0,-1.4873015911854903,0.0,0.0,-0.13143304951368506,0.0,70.0,255.0,1.0,2.0
169,8.450000000000001,-1.5000000000000038,-6.000000000000015,-6.837945959631736,0.0,0.0,-1.4938866437258724,0.0,0.0,-0.13181575770815357,0.0,70.0,255.0,1.0,2.0
170,8.5,-1.5000000000000038,-6.000000000000015,-6.912805208692719,0.0,0.0,-1.5004831669563057,0.0,0.0,-0.13173904684569138,0.0,70.0,255.0,1.0,2.0
171,8.55,-1.5000000000000038,-6.000000000000015,-6.987994276327367,0.0,0.0,-1.5070605484104416,0.0,0.0,-0.1310439756824877,0.0,70.0,255.0,1.0,2.0
172,8.6,-1.5000000000000038,-6.000000000000015,-7.063511263533763,0.0,0.0,-1.5135875645245545,0.0,0.0,-0.12985786117551967,0.0,70.0,255.0,1.0,2.0
173,8.65,-1.5000000000000038,-6.000000000000015,-7.139353032779822,0.0,0.0,-1.5200463345279935,0.0,0.0,-0.12844695734557376,0.0,70.0,255.0,1.0,2.0
174,8.700000000000001,-1.5000000000000038,-6.000000000000015,-7.215515896986562,0.0,0.0,-1.5264322602591118,0.0,0.0,-0.1270794368060102,0.0,70.0,255.0,1.0,2.0
175,8.75,-1.5000000000000038,-6.000000000000015,-7.291996258805733,0.0,0.0,-1.5327542782085946,0.0,0.0,-0.12602087719990607,0.0,70.0,255.0,1.0,2.0
176,8.8,-1.5000000000000038,-6.000000000000015,-7.368791324807422,0.0,0.0,-1.5390343479791024,0.0,0.0,-0.1254140230797951,0.0,70.0,255.0,1.0,2.0
177,8.85,-1.5000000000000038,-6.000000000000015,-7.445899693603644,0.0,0.0,-1.545295680516574,0.0,0.0,-0.12518088690773865,0.0,70.0,255.0,1.0,2.0
178,8.9,-1.5000000000000038,-6.000000000000015,-7.523320892859079,0.0,0.0,-1.5515524366698763,0.0,0.0,-0.12514630059108356,0.0,70.0,255.0,1.0,2.0
179,8.950000000000001,-1.5000000000000038,-6.000000000000015,-7.601054937270631,0.0,0.0,-1.5578103105756824,0.0,0.0,-0.12513940882152852,0.0,70.0,255.0,1.0,2.0
180,9.0,-1.5000000000000038,-6.000000000000015,-7.679101923916647,0.0,0.0,-1.5640663775520292,0.0,0.0,-0.1249934816513587,0.0,70.0,255.0,1.0,2.0
181,9.05,-1.5000000000000038,-6.000000000000015,-7.757461575025834,0.0,0.0,-1.5703096587408183,0.0,0.0,-0.12461387139168778,0.0,70.0,255.0,1.0,2.0
182,9.1,-1.5000000000000038,-6.000000000000015,-7.836132889790729,0.0,0.0,-1.576527764691198,0.0,0.0,-0.12402222755634185,0.0,70.0,255.0,1.0,2.0
183,9.15,-1.5000000000000038,-6.000000000000015,-7.915114351494954,0.0,0.0,-1.5827118814964525,0.0,0.0,-0.12328336476610247,0.0,70.0,255.0,1.0,2.0
184,9.200000000000001,-1.5000000000000038,-6.000000000000015,-7.994404077940374,0.0,0.0,-1.5888561011678082,0.0,0.0,-0.12245672744253255,0.0,70.0,255.0,1.0,2.0
185,9.25,-1.5000000000000038,-6.000000000000015,-8.073999961611735,0.0,0.0,-1.5949575542407057,0.0,0.0,-0.12159717754665067,0.0,70.0,255.0,1.0,2.0
186,9.3,-1.5000000000000038,-6.000000000000015,-8.153899833364445,0.0,0.0,-1.6010158189224732,0.0,0.0,-0.12074326524542656,0.0,70.0,255.0,1.0,2.0
187,9.35,-1.5000000000000038,-6.000000000000015,-8.234101543503982,0.0,0.0,-1.6070318807652484,0.0,0.0,-0.11992927046549084,0.0,70.0,255.0,1.0,2.0
188,9.4,-1.5000000000000038,-6.000000000000015,-8.31460302144097,0.0,0.0,-1.6130087459690223,0.0,0.0,-0.11920201190704915,0.0,70.0,255.0,1.0,2.0
189,9.450000000000001,-1.5000000000000038,-6.000000000000015,-8.395402418100884,0.0,0.0,-1.6189520819559533,0.0,0.0,-0.11861316858858828,0.0,70.0,255.0,1.0,2.0
190,9.5,-1.5000000000000038,-6.000000000000015,-8.476498229636565,0.0,0.0,-1.6248700628278812,0.0,0.0,-0.11821780816152483,0.0,70.0,255.0,1.0,2.0
191,9.55,-1.5000000000000038,-6.000000000000015,-8.557889424383673,0.0,0.0,-1.6307738627721058,0.0,0.0,-0.1180335804463084,0.0,70.0,255.0,1.0,2.0
192,9.600000000000001,-1.5000000000000038,-6.000000000000015,-8.639575615913776,0.0,0.0,-1.636673420872512,0.0,0.0,-0.1179789190199898,0.0,70.0,255.0,1.0,2.0
193,9.65,-1.5000000000000038,-6.000000000000015,-8.721556766470924,0.0,0.0,-1.6425717546741048,0.0,0.0,-0.11790952000794164,0.0,70.0,255.0,1.0,2.0
194,9.700000000000001,-1.5000000000000038,-6.000000000000015,-8.803832791381186,0.0,0.0,-1.6484643728733062,0.0,0.0,-0.11767782431064688,0.0,70.0,255.0,1.0,2.0
195,9.75,-1.5000000000000038,-6.000000000000015,-8.886403203758254,0.0,0.0,-1.6543395371051695,0.0,0.0,-0.11713960845369797,0.0,70.0,255.0,1.0,2.0
196,9.8,-1.5000000000000038,-6.000000000000015,-8.969266745091703,0.0,0.0,-1.660178333718676,0.0,0.0,-0.11622861343489888,0.0,70.0,255.0,1.0,2.0
197,9.850000000000001,-1.5000000000000038,-6.000000000000015,-9.052421037130122,0.0,0.0,-1.6659623984486593,0.0,0.0,-0.11503952897911063,0.0,70.0,255.0,1.0,2.0
198,9.9,-1.5000000000000038,-6.000000000000015,-9.13586298493657,0.0,0.0,-1.671682286616587,0.0,0.0,-0.11375627169858404,0.0,70.0,255.0,1.0,2.0
199,9.950000000000001,-1.5000000000000038,-6.000000000000015,-9.21958926579178,0.0,0.0,-1.6773380256185177,0.0,0.0,-0.11256830806214424,0.0,70.0,255.0,1.0,2.0
200,10.0,-1.5000000000000038,-6.000000000000015,-9.303596787498421,0.0,0.0,-1.6829391174228014,0.0,0.0,-0.11165974869946638,0.0,70.0,255.0,1.0,2.0
201,10.05,-1.5000000000000038,-6.000000000000015,-9.38788317753406,0.0,0.0,-1.6885040004884644,0.0,0.0,-0.11112525252752192,0.0,70.0,255.0,1.0,2.0
202,10.100000000000001,-1.5000000000000038,-6.000000000000015,-9.472447187547267,0.0,0.0,-1.6940516426755536,0.0,0.0,-0.11089755713591387,0.0,70.0,255.0,1.0,2.0
203,10.15,-1.5000000000000038,-6.000000000000015,-9.557288341801616,0.0,0.0,-1.6995937562020558,0.0,0.0,-0.11083080112346266,0.0,70.0,255.0,1.0,2.0
204,10.200000000000001,-1.5000000000000038,-6.000000000000015,-9.642406563167473,0.0,0.0,-1.7051347227879,0.0,0.0,-0.1107756567289897,0.0,70.0,255.0,1.0,2.0
205,10.25,-1.5000000000000038,-6.000000000000015,-9.727801814080406,0.0,0.0,-1.7106713218749547,0.0,0.0,-0.11058540607198353,0.0,70.0,255.0,1.0,2.0
206,10.3,-1.5000000000000038,-6.000000000000015,-9.813473695354968,0.0,0.0,-1.7161932633950983,0.0,0.0,-0.11017760256315512,0.0,70.0,255.0,1.0,2.0
207,10.350000000000001,-1.5000000000000038,-6.000000000000015,-9.899421140419916,0.0,0.0,-1.7216890821312703,0.0,0.0,-0.10957387884023007,0.0,70.0,255.0,1.0,2.0
208,10.4,-1.5000000000000038,-6.000000000000015,-9.985642603568095,0.0,0.0,-1.7271506512791213,0.0,0.0,-0.10883604828304527,0.0,70.0,255.0,1.0,2.0
209,10.450000000000001,-1.5000000000000038,-6.000000000000015,-10.072136205547828,0.0,0.0,-1.7325726869595748,0.0,0.0,-0.1080228645561121,0.0,70.0,255.0,1.0,2.0
210,10.5,-1.5000000000000038,-6.000000000000015,-10.158899872264053,0.0,0.0,-1.7379529377347325,0.0,0.0,-0.10719060836450467,0.0,70.0,255.0,1.0,2.0
211,10.55,-1.5000000000000038,-6.000000000000015,-10.245931499321301,0.0,0.0,-1.7432917477960252,0.0,0.0,-0.10637711111307624,0.0,70.0,255.0,1.0,2.0
212,10.600000000000001,-1.5000000000000038,-6.000000000000015,-10.333229047043655,0.0,0.0,-1.74859064884604,0.0,0.0,-0.10560599510114344,0.0,70.0,255.0,1.0,2.0
213,10.65,-1.5000000000000038,-6.000000000000015,-10.420790564205905,0.0,0.0,-1.7538523473061396,0.0,0.0,-0.10490677730583542,0.0,70.0,255.0,1.0,2.0
214,10.700000000000001,-1.5000000000000038,-6.000000000000015,-10.50861428177427,0.0,0.0,-1.7590813265766236,0.0,0.0,-0.10431237222672252,0.0,70.0,255.0,1.0,2.0
215,10.75,-1.5000000000000038,-6.000000000000015,-10.596698696863568,0.0,0.0,-1.7642835845288118,0.0,0.0,-0.10385216047055223,0.0,70.0,255.0,1.0,2.0
216,10.8,-1.5000000000000038,-6.000000000000015,-10.68504264022715,0.0,0.0,-1.7694665426236789,0.0,0.0,-0.10353446580442238,0.0,70.0,255.0,1.0,2.0
217,10.850000000000001,-1.5000000000000038,-6.000000000000015,-10.773645351125936,0.0,0.0,-1.774637031109254,0.0,0.0,-0.10332036919216137,0.0,70.0,255.0,1.0,2.0
218,10.9,-1.5000000000000038,-6.000000000000015,-10.862506343338076,0.0,0.0,-1.779798579542895,0.0,0.0,-0.10313777489532328,0.0,70.0,255.0,1.0,2.0
219,10.950000000000001,-1.5000000000000038,-6.000000000000015,-10.951625209080225,0.0,0.0,-1.7849508085987864,0.0,0.0,-0.10290815935807274,0.0,70.0,255.0,1.0,2.0
220,11.0,-1.5000000000000038,-6.000000000000015,-11.041001424197955,0.0,0.0,-1.7900893954787023,0.0,0.0,-0.102556740428561,0.0,70.0,255.0,1.0,2.0
221,11.05,-1.5000000000000038,-6.000000000000015,-11.130634148628095,0.0,0.0,-1.7952064826416425,0.0,0.0,-0.10204502567052742,0.0,70.0,255.0,1.0,2.0
222,11.100000000000001,-1.5000000000000038,-6.000000000000015,-11.220522072462119,0.0,0.0,-1.800293898045755,0.0,0.0,-0.1013952320935374,0.0,70.0,255.0,1.0,2.0
223,11.15,-1.5000000000000038,-6.000000000000015,-11.31066353843267,0.0,0.0,-1.8053460058509962,0.0,0.0,-0.10065941914891852,0.0,70.0,255.0,1.0,2.0
224,11.200000000000001,-1.5000000000000038,-6.000000000000015,-11.401056673047218,0.0,0.0,-1.8103598399606469,0.0,0.0,-0.09989499034137594,0.0,70.0,255.0,1.0,2.0
225,11.25,-1.5000000000000038,-6.000000000000015,-11.491699522428735,0.0,0.0,-1.8153355048851338,0.0,0.0,-0.09916488713859195,0.0,70.0,255.0,1.0,2.0
226,11.3,-1.5000000000000038,-6.000000000000015,-11.582590223535732,0.0,0.0,-1.820276328674506,0.0,0.0,-0.09850491869265454,0.0,70.0,255.0,1.0,2.0
227,11.350000000000001,-1.5000000000000038,-6.000000000000015,-11.673727155296186,0.0,0.0,-1.8251859967543993,0.0,0.0,-0.09789777003348377,0.0,70.0,255.0,1.0,2.0
228,11.4,-1.5000000000000038,-6.000000000000015,-11.765108823211172,0.0,0.0,-1.8300661056778544,0.0,0.0,-0.09730632007070028,0.0,70.0,255.0,1.0,2.0
229,11.450000000000001,-1.5000000000000038,-6.000000000000015,-11.856733765863972,0.0,0.0,-1.8349166287614693,0.0,0.0,-0.09669807974361788,0.0,70.0,255.0,1.0,2.0
230,11.5,-1.5000000000000038,-6.000000000000015,-11.948600486087319,0.0,0.0,-1.8397359136522162,0.0,0.0,-0.09603573898857576,0.0,70.0,255.0,1.0,2.0
231,11.55,-1.5000000000000038,-6.000000000000015,-12.040707357229193,0.0,0.0,-1.844520202660327,0.0,0.0,-0.09530201284402295,0.0,70.0,255.0,1.0,2.0
232,11.600000000000001,-1.5000000000000038,-6.000000000000015,-12.133052506353351,0.0,0.0,-1.8492661149366185,0.0,0.0,-0.09453368777290194,0.0,70.0,255.0,1.0,2.0
233,11.65,-1.5000000000000038,-6.000000000000015,-12.225633968722855,0.0,0.0,-1.853973571437617,0.0,0.0,-0.0937953005697878,0.0,70.0,255.0,1.0,2.0
234,11.700000000000001,-1.5000000000000038,-6.000000000000015,-12.318449863497113,0.0,0.0,-1.8586456449935973,0.0,0.0,-0.09314597739802366,0.0,70.0,255.0,1.0,2.0
235,11.75,-1.5000000000000038,-6.000000000000015,-12.411498533222215,0.0,0.0,-1.8632881691774195,0.0,0.0,-0.09264012893392959,0.0,70.0,255.0,1.0,2.0
236,11.8,-1.5000000000000038,-6.000000000000015,-12.504778680414855,0.0,0.0,-1.8679096578869903,0.0,0.0,-0.09230082946292129,0.0,70.0,255.0,1.0,2.0
237,11.850000000000001,-1.5000000000000038,-6.000000000000015,-12.598289499010914,0.0,0.0,-1.8725182521237116,0.0,0.0,-0.0920857073136716,0.0,70.0,255.0,1.0,2.0
238,11.9,-1.5000000000000038,-6.000000000000015,-12.692030505627226,0.0,0.0,-1.8771182286183574,0.0,0.0,-0.09191341005436726,0.0,70.0,255.0,1.0,2.0
239,11.950000000000001,-1.5000000000000038,-6.000000000000015,-12.78600132187275,0.0,0.0,-1.8817095931291483,0.0,0.0,-0.09169852348360763,0.0,70.0,255.0,1.0,2.0
240,12.0,-1.5000000000000038,-6.000000000000015,-12.880201464940141,0.0,0.0,-1.8862880809667182,0.0,0.0,-0.09135973594887048,0.0,70.0,255.0,1.0,2.0
241,12.05,-1.5000000000000038,-6.000000000000015,-12.974630129969421,0.0,0.0,-1.8908455667240354,0.0,0.0,-0.09085466930542907,0.0,70.0,255.0,1.0,2.0
242,12.100000000000001,-1.5000000000000038,-6.000000000000015,-13.069286021612545,0.0,0.0,-1.895373547897261,0.0,0.0,-0.090206186937003,0.0,70.0,255.0,1.0,2.0
243,12.15,-1.5000000000000038,-6.000000000000015,-13.164167484759147,0.0,0.0,-1.8998661854177357,0.0,0.0,-0.08946835525041053,0.0,70.0,255.0,1.0,2.0
244,12.200000000000001,-1.5000000000000038,-6.000000000000015,-13.259272640154318,0.0,0.0,-1.9043203834223021,0.0,0.0,-0.08869992866635812,0.0,70.0,255.0,1.0,2.0
245,12.25,-1.5000000000000038,-6.000000000000015,-13.354599523101378,0.0,0.0,-1.9087361782843715,0.0,0.0,-0.08796493659346538,0.0,70.0,255.0,1.0,2.0
246,12.3,-1.5000000000000038,-6.000000000000015,-13.450146257982755,0.0,0.0,-1.9131168770816487,0.0,0.0,-0.08729998049581411,0.0,70.0,255.0,1.0,2.0
247,12.350000000000001,-1.5000000000000038,-6.000000000000015,-13.545911210809543,0.0,0.0,-1.9174661763339529,0.0,0.0,-0.08668861253813276,0.0,70.0,255.0,1.0,2.0
248,12.4,-1.5000000000000038,-6.000000000000015,-13.64189287561615,0.0,0.0,-1.921785738335462,0.0,0.0,-0.08609494050517696,0.0,70.0,255.0,1.0,2.0
249,12.450000000000001,-1.5000000000000038,-6.000000000000015,-13.738089784643089,0.0,0.0,-1.9260756703844706,0.0,0.0,-0.08548796231639955,0.0,70.0,255.0,1.0,2.0
250,12.5,-1.5000000000000038,-6.000000000000015,-13.834500442654598,0.0,0.0,-1.930334534567102,0.0,0.0,-0.08483254564879417,0.0,70.0,255.0,1.0,2.0
251,12.55,-1.5000000000000038,-6.000000000000015,-13.931123238099799,0.0,0.0,-1.93455892494935,0.0,0.0,-0.08411212199916918,0.0,70.0,255.0,1.0,2.0
252,12.600000000000001,-1.5000000000000038,-6.000000000000015,-14.027956335149533,0.0,0.0,-1.9387457467670188,0.0,0.0,-0.08335936291050672,0.0,70.0,255.0,1.0,2.0
253,12.65,-1.5000000000000038,-6.000000000000015,-14.1249978127765,0.0,0.0,-1.9428948612404007,0.0,0.0,-0.08263188272881195,0.0,70.0,255.0,1.0,2.0
254,12.700000000000001,-1.5000000000000038,-6.000000000000015,-14.222245821273573,0.0,0.0,-1.9470089350399,0.0,0.0,-0.0819815087812259,0.0,70.0,255.0,1.0,2.0
255,12.75,-1.5000000000000038,-6.000000000000015,-14.31969870628049,0.0,0.0,-1.9510930121185233,0.0,0.0,-0.08145285283838177,0.0,70.0,255.0,1.0,2.0
256,12.8,-1.5000000000000038,-6.000000000000015,-14.417355122485425,0.0,0.0,-1.9551542203237382,0.0,0.0,-0.08106533104292879,0.0,70.0,255.0,1.0,2.0
257,12.850000000000001,-1.5000000000000038,-6.000000000000015,-14.515214128312865,0.0,0.0,-1.9591995452228161,0.0,0.0,-0.08079216425844749,0.0,70.0,255.0,1.0,2.0
258,12.9,-1.5000000000000038,-6.000000000000015,-14.613275077007707,0.0,0.0,-1.963233436749583,0.0,0.0,-0.08057846097919708,0.0,70.0,255.0,1.0,2.0
259,12.950000000000001,-1.5000000000000038,-6.000000000000015,-14.711537471987823,0.0,0.0,-1.9672573913207358,0.0,0.0,-0.08036651537821626,0.0,70.0,255.0,1.0,2.0
260,13.0,-1.5000000000000038,-6.000000000000015,-14.81000081613978,0.0,0.0,-1.9712700882874046,0.0,0.0,-0.08011203367441766,0.0,70.0,255.0,1.0,2.0
261,13.05,-1.5000000000000038,-6.000000000000015,-14.908664480816563,0.0,0.0,-1.9752685946881776,0.0,0.0,-0.07978655382974154,0.0,70.0,255.0,1.0,2.0
262,13.100000000000001,-1.5000000000000038,-6.000000000000015,-15.007527675608598,0.0,0.0,-1.9792487436703787,0.0,0.0,-0.07935468401818468,0.0,70.0,255.0,1.0,2.0
263,13.15,-1.5000000000000038,-6.000000000000015,-15.106589355183601,0.0,0.0,-1.983204063089996,0.0,0.0,-0.07877156939333219,0.0,70.0,255.0,1.0,2.0
264,13.200000000000001,-1.5000000000000038,-6.000000000000015,-15.205848081917598,0.0,0.0,-1.987125900609712,0.0,0.0,-0.07799914299209121,0.0,70.0,255.0,1.0,2.0
265,13.25,-1.5000000000000038,-6.000000000000015,-15.305301945244572,0.0,0.0,-1.9910039773892052,0.0,0.0,-0.07699504975935412,0.0,70.0,255.0,1.0,2.0
266,13.3,-1.5000000000000038,-6.000000000000015,-15.404948479656518,0.0,0.0,-1.9948254055856474,0.0,0.0,-0.07575414128382363,0.0,70.0,255.0,1.0,2.0
267,13.350000000000001,-1.5000000000000038,-6.000000000000015,-15.504784485803137,0.0,0.0,-1.9985793915175876,0.0,0.0,-0.07438993882846745,0.0,70.0,255.0,1.0,2.0
268,13.4,-1.5000000000000038,-6.000000000000015,-15.604806418808277,0.0,0.0,-2.002264399468494,0.0,0.0,-0.07309610061003724,0.0,70.0,255.0,1.0,2.0
269,13.450000000000001,-1.5000000000000038,-6.000000000000015,-15.705010925749987,0.0,0.0,-2.0058890015785913,0.0,0.0,-0.0720691737265966,0.0,70.0,255.0,1.0,2.0
270,13.5,-1.5000000000000038,-6.000000000000015,-15.805395318966136,0.0,0.0,-2.0094713168411538,0.0,0.0,-0.07149974863800423,0.0,70.0,255.0,1.0,2.0
271,13.55,-1.5000000000000038,-6.000000000000015,-15.905958057434102,0.0,0.0,-2.0130389764423917,0.0,0.0,-0.07147119338934971,0.0,70.0,255.0,1.0,2.0
272,13.600000000000001,-1.5000000000000038,-6.000000000000015,-16.006699216610375,0.0,0.0,-2.0166184361800887,0.0,0.0,-0.0718393135811013,0.0,70.0,255.0,1.0,2.0
273,13.65,-1.5000000000000038,-6.000000000000015,-16.10761990105211,0.0,0.0,-2.020222907800502,0.0,0.0,-0.07232859693075966,0.0,70.0,255.0,1.0,2.0
274,13.700000000000001,-1.5000000000000038,-6.000000000000015,-16.208721507390425,0.0,0.0,-2.0238512958731647,0.0,0.0,-0.07265190103034058,0.0,70.0,255.0,0.9999999999999999,2.0
275,13.75,-1.5000000000000038,-6.000000000000015,-16.310005030639427,0.0,0.0,-2.027488097903536,0.0,0.0,-0.07252595568694176,0.0,70.0,255.0,1.0,2.0
276,13.8,-1.5000000000000038,-6.000000000000015,-16.41147031718078,0.0,0.0,-2.031103891441859,0.0,0.0,-0.07180779844517815,0.0,70.0,255.0,1.0,2.0
277,13.850000000000001,-1.5000000000000038,-6.000000000000015,-16.513115419783613,0.0,0.0,-2.0346688777480537,0.0,0.0,-0.07062091873706322,0.0,70.0,255.0,0.9999999999999998,2.0
278,13.9,-1.5000000000000038,-6.000000000000015,-16.614937204955584,0.0,0.0,-2.038165983315565,0.0,0.0,-0.06922139978051689,0.0,70.0,255.0,0.9999999999999999,2.0
279,13.950000000000001,-1.5000000000000038,-6.000000000000015,-16.71693201811517,0.0,0.0,-2.0415910177261054,0.0,0.0,-0.0678697955777352,0.0,70.0,255.0,0.9999999999999999,2.0
280,14.0,-1.5000000000000038,-6.000000000000015,-16.819096306728195,0.0,0.0,-2.0449529628733387,0.0,0.0,-0.06682440063876527,0.0,70.0,255.0,1.0,2.0
281,14.05,-1.5000000000000038,-6.000000000000015,-16.921427314402504,0.0,0.0,-2.048273457789982,0.0,0.0,-0.06622367343602775,0.0,70.0,255.0,1.0000000000000002,2.0
282,14.100000000000001,-1.5000000000000038,-6.000000000000015,-17.023923652507193,0.0,0.0,-2.0515753302169415,0.0,0.0,-0.06599067114727575,0.0,70.0,255.0,1.0000000000000004,2.0
283,14.15,-1.5000000000000038,-6.000000000000015,-17.126584847424198,0.0,0.0,-2.0548725249047095,0.0,0.0,-0.06595298343690104,0.0,70.0,255.0,1.0000000000000004,2.0
284,14.200000000000001,-1.5000000000000038,-6.000000000000015,-17.229410904997664,0.0,0.0,-2.0581706285606316,0.0,0.0,-0.06594183041030988,0.0,70.0,255.0,1.0000000000000002,2.0
285,14.25,-1.5000000000000038,-6.000000000000015,-17.33240191028026,0.0,0.0,-2.0614667079457405,0.0,0.0,-0.0657924790498754,0.0,70.0,255.0,1.0,2.0
286,14.3,-1.5000000000000038,-6.000000000000015,-17.435557575792238,0.0,0.0,-2.064749876465619,0.0,0.0,-0.06541144720593195,0.0,70.0,255.0,0.9999999999999992,2.0
287,14.350000000000001,-1.5000000000000038,-6.000000000000015,-17.538876897926823,0.0,0.0,-2.0680078526663337,0.0,0.0,-0.0648200330388704,0.0,70.0,255.0,0.9999999999999983,2.0
288,14.4,-1.5000000000000038,-6.000000000000015,-17.64235836105887,0.0,0.0,-2.071231879769506,0.0,0.0,-0.06408219094780065,0.0,70.0,255.0,0.9999999999999979,2.0
289,14.450000000000001,-1.5000000000000038,-6.000000000000015,-17.746000085903773,0.0,0.0,-2.0744160717611138,0.0,0.0,-0.06325668231674797,0.0,70.0,255.0,0.9999999999999982,2.0
290,14.5,-1.5000000000000038,-6.000000000000015,-17.849799968234983,0.0,0.0,-2.077557548001181,0.0,0.0,-0.06239766451088258,0.0,70.0,255.0,1.0,2.0
291,14.55,-1.5000000000000038,-6.000000000000015,-17.95375584070389,0.0,0.0,-2.080655838212202,0.0,0.0,-0.06154331163266136,0.0,70.0,255.0,1.000000000000003,2.0
292,14.600000000000001,-1.5000000000000038,-6.000000000000015,-18.057865552056203,0.0,0.0,-2.083711879164447,0.0,0.0,-0.060728264297793544,0.0,70.0,255.0,1.000000000000006,2.0
293,14.65,-1.5000000000000038,-6.000000000000015,-18.162127028620336,0.0,0.0,-2.0867286646419814,0.0,0.0,-0.060000024333461965,0.0,70.0,255.0,1.0000000000000075,2.0
294,14.700000000000001,-1.5000000000000038,-6.000000000000015,-18.2665384185204,0.0,0.0,-2.0897118815977933,0.0,0.0,-0.05941092750383348,0.0,70.0,255.00000000000003,1.0000000000000062,2.0
295,14.75,-1.5000000000000038,-6.000000000000015,-18.371098216780116,0.0,0.0,-2.0926697573923647,0.0,0.0,-0.05901686290599173,0.0,70.0,255.0,1.0,2.0
296,14.8,-1.5000000000000038,-6.000000000000015,-18.475805394259638,0.0,0.0,-2.0956135678883925,0.0,0.0,-0.05883581908250335,0.0,70.0,255.0,0.9999999999999888,2.0
297,14.850000000000001,-1.5000000000000038,-6.000000000000015,-18.580659573568955,0.0,0.0,-2.098553339300615,0.0,0.0,-0.058785138207895216,0.0,70.0,255.00000000000003,0.9999999999999771,2.0
298,14.9,-1.5000000000000038,-6.000000000000015,-18.6856607281897,0.0,0.0,-2.101492081709182,0.0,0.0,-0.05871864411801653,0.0,70.0,255.00000000000003,0.9999999999999711,1.9999999999999998
299,14.950000000000001,-1.5000000000000038,-6.000000000000015,-18.790808781739873,0.0,0.0,-2.1044252037124167,0.0,0.0,-0.05848683377571717,0.0,70.0,255.00000000000003,0.9999999999999767,1.9999999999999998
300,15.0,-1.5000000000000038,-6.000000000000015,-18.89610324856094,0.0,0.0,-2.1073407650867537,0.0,0.0,-0.05794290251586176,0.0,70.0,255.0,1.0,2.0
301,15.05,-1.5000000000000038,-6.000000000000015,-19.00154285824855,0.0,0.0,-2.110219493964003,0.0,0.0,-0.05701961250395016,0.0,70.0,254.99999999999997,1.000000000000042,2.0
302,15.100000000000001,-1.5000000000000038,-6.000000000000015,-19.10712519795734,0.0,0.0,-2.1130427263371487,0.0,0.0,-0.05581565839385405,0.0,70.0,254.99999999999991,1.0000000000000857,2.000000000000001
303,15.15,-1.5000000000000038,-6.000000000000015,-19.212847130882263,0.0,0.0,-2.1158010598033883,0.0,0.0,-0.05452176283000654,0.0,70.0,254.9999999999999,1.0000000000001077,2.0000000000000004
304,15.200000000000001,-1.5000000000000038,-6.000000000000015,-19.31870530393768,0.0,0.0,-2.1184949026201494,0.0,0.0,-0.05333451128564093,0.0,70.0,254.99999999999991,1.0000000000000868,2.0000000000000004
305,15.25,-1.5000000000000038,-6.000000000000015,-19.424696621144278,0.0,0.0,-2.1211345109319524,0.0,0.0,-0.05244751770732137,0.0,70.0,255.0,1.0,2.0
306,15.3,-1.5000000000000038,-6.000000000000015,-19.530818755030875,0.0,0.0,-2.1237396543908815,0.0,0.0,-0.05195901761645416,0.0,70.0,255.00000000000017,0.9999999999998427,1.9999999999999991
307,15.350000000000001,-1.5000000000000038,-6.000000000000015,-19.637070586583366,0.0,0.0,-2.126330412693598,0.0,0.0,-0.05178682029089998,0.0,70.0,255.0000000000003,0.9999999999996807,1.9999999999999984
308,15.4,-1.5000000000000038,-6.000000000000015,-19.743451796300235,0.0,0.0,-2.1289183364199715,0.0,0.0,-0.051759712486187937,0.0,70.0,255.0000000000004,0.9999999999995972,1.9999999999999978
309,15.450000000000001,-1.5000000000000038,-6.000000000000015,-19.849962420225364,0.0,0.0,-2.1315063839422166,0.0,0.0,-0.05170183436931097,0.0,70.0,255.0000000000003,0.9999999999996759,1.9999999999999984
310,15.5,-1.5000000000000038,-6.000000000000015,-19.956602434694457,0.0,0.0,-2.1340885198569026,0.0,0.0,-0.051431035979376816,0.0,70.0,255.0,1.0,2.0
311,15.55,-1.5000000000000038,-6.000000000000015,-20.063371272211054,0.0,0.0,-2.1366494875401543,0.0,0.0,-0.0508515431352663,0.0,70.0,254.99999999999943,1.0000000000005869,2.0000000000000027
312,15.600000000000001,-1.5000000000000038,-6.000000000000015,-20.170267383448472,0.0,0.0,-2.1391736741704293,0.0,0.0,-0.05004069680509815,0.0,70.0,254.99999999999883,1.0000000000011917,2.0000000000000058
313,15.65,-1.5000000000000038,-6.000000000000015,-20.277288639628097,0.0,0.0,-2.141653557220664,0.0,0.0,-0.0491549117025869,0.0,70.0,254.99999999999852,1.0000000000015028,2.0000000000000075
314,15.700000000000001,-1.5000000000000038,-6.000000000000015,-20.38443273917054,0.0,0.0,-2.144089165340688,0.0,0.0,-0.048345237484070935,0.0,70.0,254.99999999999883,1.0000000000012093,2.000000000000006
315,15.75,-1.5000000000000038,-6.000000000000015,-20.491697556162165,0.0,0.0,-2.146488080969071,0.0,0.0,-0.047768291756256076,0.0,70.0,255.0,1.0,2.0
316,15.8,-1.5000000000000038,-6.000000000000015,-20.599081547267446,0.0,0.0,-2.1488659945163135,0.0,0.0,-0.047501383270898145,0.0,70.0,255.00000000000213,0.9999999999978091,1.999999999999989
317,15.850000000000001,-1.5000000000000038,-6.000000000000015,-20.706584155613797,0.0,0.0,-2.151238219296161,0.0,0.0,-0.04744768852198433,0.0,70.0,255.00000000000432,0.9999999999955524,1.9999999999999778
318,15.9,-1.5000000000000038,-6.000000000000015,-20.81420536919706,0.0,0.0,-2.153610763368512,0.0,0.0,-0.04742334466527609,0.0,70.0,255.00000000000546,0.9999999999943913,1.9999999999999718
319,15.950000000000001,-1.5000000000000038,-6.000000000000015,-20.921945231950648,0.0,0.0,-2.1559805537626886,0.0,0.0,-0.04725064226995812,0.0,70.0,255.00000000000438,0.9999999999954867,1.9999999999999774
320,16.0,-1.5000000000000038,-6.000000000000015,-21.02980342457333,0.0,0.0,-2.158335827595508,0.0,0.0,-0.046755843615642334,0.0,70.0,255.0,1.0,2.0
321,16.05,-1.5000000000000038,-6.000000000000015,-21.1377788147102,0.0,0.0,-2.160656138124253,0.0,0.0,-0.0458558375356688,0.0,70.0,254.99999999999207,1.0000000000081763,2.0000000000000413
322,16.1,-1.5000000000000038,-6.000000000000015,-21.245869038385756,0.0,0.0,-2.1629214113490747,0.0,0.0,-0.04465302463003695,0.0,70.0,254.99999999998388,1.0000000000165983,2.000000000000083
323,16.150000000000002,-1.5000000000000038,-6.000000000000015,-21.354070955845106,0.0,0.0,-2.1651214405872565,0.0,0.0,-0.043348073271332055,0.0,70.0,254.99999999997962,1.000000000020932,2.0000000000001052
324,16.2,-1.5000000000000038,-6.000000000000015,-21.46238118244448,0.0,0.0,-2.167256218676208,0.0,0.0,-0.04214496732970474,0.0,70.0,254.9999999999836,1.0000000000168436,2.0000000000000844
325,16.25,-1.5000000000000038,-6.000000000000015,-21.570796577712727,0.0,0.0,-2.169335937320227,0.0,0.0,-0.04124432445422599,0.0,70.0,255.0,1.0,2.0
326,16.3,-1.5000000000000038,-6.000000000000015,-21.679314776176504,0.0,0.0,-2.1713806511216305,0.0,0.0,-0.040748553300318235,0.0,70.0,255.00000000002967,0.999999999969485,1.999999999999847
327,16.35,-1.5000000000000038,-6.000000000000015,-21.78793464282489,0.0,0.0,-2.173410792650259,0.0,0.0,-0.04057480503547595,0.0,70.0,255.00000000006025,0.9999999999380542,1.9999999999996894
328,16.400000000000002,-1.5000000000000038,-6.000000000000015,-21.89665585544153,0.0,0.0,-2.175438131625178,0.0,0.0,-0.04054977017418082,0.0,70.0,255.00000000007597,0.9999999999218809,1.9999999999996083
329,16.45,-1.5000000000000038,-6.000000000000015,-22.005478455987408,0.0,0.0,-2.177465769667677,0.0,0.0,-0.04049620169652712,0.0,70.0,255.0000000000611,0.9999999999371384,1.9999999999996847
330,16.5,-1.5000000000000038,-6.000000000000015,-22.114402432408298,0.0,0.0,-2.179487751794831,0.0,0.0,-0.04023086789075592,0.0,70.0,255.0,1.0,2.0
331,16.55,-1.5000000000000038,-6.000000000000015,-22.22342723116689,0.0,0.0,-2.1814888564567525,0.0,0.0,-0.03965717537184332,0.0,70.0,254.99999999988924,1.0000000001138836,2.0000000000005707
332,16.6,-1.5000000000000038,-6.000000000000015,-22.332551318053973,0.0,0.0,-2.183453469332015,0.0,0.0,-0.038851391593297535,0.0,70.0,254.99999999977516,1.000000000231185,2.000000000001159
333,16.650000000000002,-1.5000000000000038,-6.000000000000015,-22.441772578100093,0.0,0.0,-2.1853739956160823,0.0,0.0,-0.03796837050877855,0.0,70.0,254.99999999971644,1.0000000002915446,2.0000000000014615
334,16.7,-1.5000000000000038,-6.000000000000015,-22.55108871761558,0.0,0.0,-2.187250306382893,0.0,0.0,-0.03715731213134177,0.0,70.0,254.9999999997718,1.0000000002346028,2.0000000000011764
335,16.75,-1.5000000000000038,-6.000000000000015,-22.660497608738382,0.0,0.0,-2.1890897268292164,0.0,0.0,-0.03657215735977104,0.0,70.0,255.0,1.0,2.0
336,16.8,-1.5000000000000038,-6.000000000000015,-22.769997690298503,0.0,0.0,-2.19090752211887,0.0,0.0,-0.03628931863666196,0.0,70.0,255.0000000004134,0.9999999995749809,1.9999999999978695
337,16.85,-1.5000000000000038,-6.000000000000015,-22.87958836095027,0.0,0.0,-2.1927186586928826,0.0,0.0,-0.03621692463120496,0.0,70.0,255.00000000083915,0.9999999991372062,1.9999999999956746
338,16.900000000000002,-1.5000000000000038,-6.000000000000015,-22.98926955616779,0.0,0.0,-2.1945292145819906,0.0,0.0,-0.03617945175626858,0.0,70.0,255.00000000105825,0.999999998911941,1.9999999999945455
339,16.95,-1.5000000000000038,-6.000000000000015,-23.099041282408468,0.0,0.0,-2.1963366038685095,0.0,0.0,-0.03600797635030517,0.0,70.0,255.00000000085157,0.9999999991244507,1.9999999999956108
340,17.0,-1.5000000000000038,-6.000000000000015,-23.208903216554642,0.0,0.0,-2.198130012217021,0.0,0.0,-0.035540549290757895,0.0,70.0,255.0,1.0,2.0
341,17.05,-1.5000000000000038,-6.000000000000015,-23.31885428363017,0.0,0.0,-2.1998906587975853,0.0,0.0,-0.034698463832683046,0.0,70.0,254.99999999845727,1.0000000015861932,2.000000000007952
342,17.1,-1.5000000000000038,-6.000000000000015,-23.4288922824344,0.0,0.0,-2.2015998586002894,0.0,0.0,-0.033565385403022674,0.0,70.0,254.9999999968682,1.0000000032199907,2.0000000000161418
343,17.150000000000002,-1.5000000000000038,-6.000000000000015,-23.5390142694902,0.0,0.0,-2.2032471973378875,0.0,0.0,-0.03231018610421188,0.0,70.0,254.99999999605055,1.0000000040606913,2.0000000000203566
344,17.2,-1.5000000000000038,-6.000000000000015,-23.64921700216819,0.0,0.0,-2.2048308772107106,0.0,0.0,-0.031103556364442397,0.0,70.0,254.99999999682188,1.0000000032675946,2.0000000000163807
345,17.25,-1.5000000000000038,-6.000000000000015,-23.75949735721127,0.0,0.0,-2.206357552974332,0.0,0.0,-0.03010163615542183,0.0,70.0,255.0,1.0,2.0
346,17.3,-1.5000000000000038,-6.000000000000015,-23.869852757465623,0.0,0.0,-2.2078410408262528,0.0,0.0,-0.02939011274065706,0.0,70.0,255.00000000575758,0.9999999940802463,1.999999999970324
347,17.35,-1.5000000000000038,-6.000000000000015,-23.980281461293895,0.0,0.0,-2.2092965642483975,0.0,0.0,-0.02895612582918261,0.0,70.0,255.00000001168797,0.9999999879828319,1.999999999939757
348,17.400000000000002,-1.5000000000000038,-6.000000000000015,-24.090782413890462,0.0,0.0,-2.210736653409171,0.0,0.0,-0.028745211755776268,0.0,70.0,255.00000001473958,0.999999984845294,1.999999999924028
349,17.45,-1.5000000000000038,-6.000000000000015,-24.201355126634812,0.0,0.0,-2.212171085423975,0.0,0.0,-0.028697798192567348,0.0,70.0,255.0000000118608,0.9999999878051709,1.9999999999388665
350,17.5,-1.5000000000000038,-6.000000000000015,-24.31199952243286,0.0,0.0,-2.2136064332284278,0.0,0.0,-0.028764887438015307,0.0,70.0,255.0,1.0,2.0
351,17.55,-1.5000000000000038,-6.000000000000015,-24.422715769957655,0.0,0.0,-2.2150475741677766,0.0,0.0,-0.028902110841855233,0.0,70.0,254.99999997851234,1.0000000220928214,2.000000000110753
352,17.6,-1.5000000000000038,-6.000000000000015,-24.533504279849637,0.0,0.0,-2.2164966443126133,0.0,0.0,-0.029011976083026525,0.0,70.0,254.99999995637984,1.0000000448486823,2.0000000002248304
353,17.650000000000002,-1.5000000000000038,-6.000000000000015,-24.644365434388916,0.0,0.0,-2.2179487717760793,0.0,0.0,-0.028945423754223043,0.0,70.0,254.99999994499112,1.0000000565581328,2.0000000002835305
354,17.7,-1.5000000000000038,-6.000000000000015,-24.755299157027245,0.0,0.0,-2.2193911866880356,0.0,0.0,-0.02855298979405063,0.0,70.0,254.99999995573492,1.0000000455117222,2.0000000002281535
355,17.75,-1.5000000000000038,-6.000000000000015,-24.86630455305772,0.0,0.0,-2.2208040707554844,0.0,0.0,-0.027690842060223986,0.0,70.0,255.0,1.0,2.0
356,17.8,-1.5000000000000038,-6.000000000000015,-24.977379564102794,0.0,0.0,-2.222160270894058,0.0,0.0,-0.026306618714144747,0.0,70.0,255.00000008019302,0.9999999175484684,1.9999999995866637
357,17.85,-1.5000000000000038,-6.000000000000015,-25.088520580147126,0.0,0.0,-2.223434732626899,0.0,0.0,-0.024561284526214422,0.0,70.0,255.00000016279276,0.9999998326224386,1.999999999160923
358,17.900000000000002,-1.5000000000000038,-6.000000000000015,-25.199723037365484,0.0,0.0,-2.2246163993466794,0.0,0.0,-0.02275029602536449,0.0,70.0,255.000000205296,0.9999997889221748,1.9999999989418502
359,17.95,-1.5000000000000038,-6.000000000000015,-25.310982220081794,0.0,0.0,-2.2257097622294353,0.0,0.0,-0.021181990884144852,0.0,70.0,255.00000016519945,0.9999998301479406,1.9999999991485182
360,18.0,-1.5000000000000038,-6.000000000000015,-25.422294013588427,0.0,0.0,-2.226734598435094,0.0,0.0,-0.020151744322305376,0.0,70.0,255.0,1.0,2.0
361,18.05,-1.5000000000000038,-6.000000000000015,-25.533655679925303,0.0,0.0,-2.227724936661666,0.0,0.0,-0.019805213835510926,0.0,70.0,254.99999970071556,1.0000003077133053,2.0000000015425914
362,18.1,-1.5000000000000038,-6.000000000000015,-25.645066507254594,0.0,0.0,-2.228715119818645,0.0,0.0,-0.02001300236109671,0.0,70.0,254.99999939244915,1.0000006246615627,2.0000000031314777
363,18.150000000000002,-1.5000000000000038,-6.000000000000015,-25.756527191907168,0.0,0.0,-2.2297262368977755,0.0,0.0,-0.02050243643161309,0.0,70.0,254.99999923382495,1.0000007877531678,2.000000003949069
364,18.2,-1.5000000000000038,-6.000000000000015,-25.86803913094437,0.0,0.0,-2.2307653634618063,0.0,0.0,-0.020986272778245052,0.0,70.0,254.99999938346718,1.0000006338965153,2.0000000031777736
365,18.25,-1.5000000000000038,-6.000000000000015,-25.97960372825335,0.0,0.0,-2.2318248641756,0.0,0.0,-0.021178171326141637,0.0,70.0,255.0,1.0,2.0
366,18.3,-1.5000000000000038,-6.000000000000015,-26.09122161736193,0.0,0.0,-2.2328831805944205,0.0,0.0,-0.02092026487012788,0.0,70.0,255.0000011169447,0.9999988515983106,1.999999994242971
367,18.35,-1.5000000000000038,-6.000000000000015,-26.20289204631279,0.0,0.0,-2.233916890662613,0.0,0.0,-0.020273978760343425,0.0,70.0,255.00000226741065,0.9999976687313097,1.9999999883131647
368,18.400000000000002,-1.5000000000000038,-6.000000000000015,-26.314613306428193,0.0,0.0,-2.234910578470455,0.0,0.0,-0.019391007202429478,0.0,70.0,255.00000285940422,0.9999970600651534,1.9999999852618728
369,18.45,-1.5000000000000038,-6.000000000000015,-26.426383104159836,0.0,0.0,-2.2358559913828557,0.0,0.0,-0.018420517066175535,0.0,70.0,255.00000230093187,0.9999976342659982,1.9999999881403874
370,18.5,-1.5000000000000038,-6.000000000000015,-26.538198905566478,0.0,0.0,-2.2367526301770724,0.0,0.0,-0.017519533071563842,0.0,70.0,255.0,1.0,2.0
371,18.55,-1.5000000000000038,-6.000000000000015,-26.650058367177543,0.0,0.0,-2.237607944690012,0.0,0.0,-0.016779274469769234,0.0,70.0,254.99999583150563,1.0000042858934521,2.000000021485525
372,18.6,-1.5000000000000038,-6.000000000000015,-26.76195970003548,0.0,0.0,-2.2384305576240493,0.0,0.0,-0.016169217801476066,0.0,70.0,254.9999915379083,1.0000087004131981,2.000000043615863
373,18.650000000000002,-1.5000000000000038,-6.000000000000015,-26.873901422939948,0.0,0.0,-2.2392248664701597,0.0,0.0,-0.015617077885465847,0.0,70.0,254.99998932855814,1.0000109719862178,2.0000000550034396
374,18.7,-1.5000000000000038,-6.000000000000015,-26.985882186682495,0.0,0.0,-2.239992265412596,0.0,0.0,-0.015064059882874403,0.0,70.0,254.99999141280534,1.0000088290394917,2.0000000442606765
375,18.75,-1.5000000000000038,-6.000000000000015,-27.097900649481208,0.0,0.0,-2.240731272458447,0.0,0.0,-0.01444775232535278,0.0,70.0,255.0,1.0,2.0
376,18.8,-1.5000000000000038,-6.000000000000015,-27.20995531392834,0.0,0.0,-2.241437040645131,0.0,0.0,-0.01373606382699677,0.0,70.0,255.00001555703275,0.99998400482788,1.9999999198149303
377,18.85,-1.5000000000000038,-6.000000000000015,-27.32204435354572,0.0,0.0,-2.242104878841147,0.0,0.0,-0.012969150042252409,0.0,70.0,255.00003158095612,0.9999675296158974,1.999999837223383
378,18.900000000000002,-1.5000000000000038,-6.000000000000015,-27.434165801812455,0.0,0.0,-2.2427339556493564,0.0,0.0,-0.012220681260544097,0.0,70.0,255.00003982636315,0.9999590519899747,1.9999997947243702
379,18.95,-1.5000000000000038,-6.000000000000015,-27.546317749110656,0.0,0.0,-2.2433269469672013,0.0,0.0,-0.011556530110112817,0.0,70.0,255.00003204784676,0.9999670495760347,1.999999834816905
380,19.0,-1.5000000000000038,-6.000000000000015,-27.658498496509175,0.0,0.0,-2.2438896086603677,0.0,0.0,-0.011037429648297348,0.0,70.0,255.0,1.0,2.0
381,19.05,-1.5000000000000038,-6.000000000000015,-27.770706709976693,0.0,0.0,-2.244430689932031,0.0,0.0,-0.010690269757773763,0.0,70.0,254.99994194036336,1.0000596947950275,2.0000002992547534
382,19.1,-1.5000000000000038,-6.000000000000015,-27.882941565502378,0.0,0.0,-2.244958635636145,0.0,0.0,-0.010472410471251692,0.0,70.0,254.9998821382672,1.0001211811232125,2.0000006074906054
383,19.150000000000002,-1.5000000000000038,-6.000000000000015,-27.995202573540308,0.0,0.0,-2.245477930979156,0.0,0.0,-0.010301129474399318,0.0,70.0,254.99985136598934,1.0001528200538832,2.00000076609908
384,19.200000000000003,-1.5000000000000038,-6.000000000000015,-28.107489358600294,0.0,0.0,-2.245988748583585,0.0,0.0,-0.010090332497014742,0.0,70.0,254.99988039580765,1.0001229726563692,2.0000006164717035
385,19.25,-1.5000000000000038,-6.000000000000015,-28.219801448398666,0.0,0.0,-2.2464869642288576,0.0,0.0,-0.00975851975404396,0.0,70.0,255.0,1.0,2.0
386,19.3,-1.5000000000000038,-6.000000000000015,-28.33213805502318,0.0,0.0,-2.2469646005589894,0.0,0.0,-0.009262857141578706,0.0,70.0,255.0002166815138,0.9997772159920095,1.9999988831660551
387,19.35,-1.5000000000000038,-6.000000000000015,-28.444497908454565,0.0,0.0,-2.2474132499430155,0.0,0.0,-0.00862391203853008,0.0,70.0,255.00043986597515,0.9995477458912533,1.9999977328141954
388,19.400000000000002,-1.5000000000000038,-6.000000000000015,-28.55687938001748,0.0,0.0,-2.2478269917628424,0.0,0.0,-0.00789209687859227,0.0,70.0,255.0005547096795,0.9994296677944925,1.9999971408793082
389,19.450000000000003,-1.5000000000000038,-6.000000000000015,-28.66928060763085,0.0,0.0,-2.2482024596308747,0.0,0.0,-0.0071221398993515095,0.0,70.0,255.0004463689226,0.9995410597984877,1.9999976992962805
390,19.5,-1.5000000000000038,-6.000000000000015,-28.78169962598057,0.0,0.0,-2.2485392057527775,0.0,0.0,-0.006372500659779234,0.0,70.0,255.0,1.0,2.0
391,19.55,-1.5000000000000038,-6.000000000000015,-28.894134528206127,0.0,0.0,-2.2488397096968527,0.0,0.0,-0.005677788859159705,0.0,70.0,254.99919133358134,1.0008314412369346,2.0000041680810265
392,19.6,-1.5000000000000038,-6.000000000000015,-29.006583596950254,0.0,0.0,-2.2491069846386935,0.0,0.0,-0.005031008974043516,0.0,70.0,254.99835839783228,1.0016878353117742,2.0000084612526137
393,19.650000000000002,-1.5000000000000038,-6.000000000000015,-29.119045226669996,0.0,0.0,-2.249342810594257,0.0,0.0,-0.004412254570951291,0.0,70.0,254.99792979529258,1.0021285087681466,2.0000106703836864
394,19.700000000000003,-1.5000000000000038,-6.000000000000015,-29.23151787800968,0.0,0.0,-2.2495482100957886,0.0,0.0,-0.00380730837044041,0.0,70.0,254.9983341285019,1.0017127881496795,2.000008586343174
395,19.75,-1.5000000000000038,-6.000000000000015,-29.344000047679575,0.0,0.0,-2.249723541431301,0.0,0.0,-0.0032035055763657283,0.0,70.0,255.0,1.0,2.0
396,19.8,-1.5000000000000038,-6.000000000000015,-29.45649023215281,0.0,0.0,-2.249868560653425,0.0,0.0,-0.002592700711190332,0.0,70.0,255.0030179841608,0.9968970190602527,1.9999844445098394
397,19.85,-1.5000000000000038,-6.000000000000015,-29.568986903744918,0.0,0.0,-2.24998281150242,0.0,0.0,-0.001972052067600316,0.0,70.0,255.00612654269568,0.99370091286165,1.999968422175352
398,19.900000000000002,-1.5000000000000038,-6.000000000000015,-29.68148851330305,0.0,0.0,-2.2500657658601853,0.0,0.0,-0.0013388848369544348,0.0,70.0,255.00772610915013,0.9920562971329209,1.999960177585945
399,19.950000000000003,-1.5000000000000038,-6.000000000000015,-29.793993480330936,0.0,0.0,-2.2501166999861155,0.0,0.0,-0.0006886266199046531,0.0,70.0,255.0062171170697,0.9936077876027947,1.9999679553310254
400,20.0,-1.5000000000000038,-6.000000000000015,-29.906500183301663,0.0,0.0,-2.2501346285221757,0.0,0.0,-1.3477029270347884e-05,0.0,70.0,255.0,1.0,2.0
401,20.05,-1.5000000000000038,-6.000000000000015,-30.019006943183154,0.0,0.0,-2.2501180476890426,0.0,0.0,0.0006885917056109747,0.0,70.0,254.98873672977533,1.0115804825220545,2.0000580538796155
402,20.1,-1.5000000000000038,-6.000000000000015,-30.131511988070567,0.0,0.0,-2.2500657693516146,0.0,0.0,0.001399217239850259,0.0,70.0,254.97713543138494,1.0235085132416262,2.000117850045979
403,20.150000000000002,-1.5000000000000038,-6.000000000000015,-30.244013520118315,0.0,0.0,-2.2499781259650575,0.0,0.0,0.0020877939167718296,0.0,70.0,254.97116576810694,1.0296463027001699,2.0001486192725335
404,20.200000000000003,-1.5000000000000038,-6.000000000000015,-30.356509800667073,0.0,0.0,-2.2498569899599374,0.0,0.0,0.002728528134809949,0.0,70.0,254.97679740321925,1.0238560614391419,2.0001195923327257
405,20.25,-1.5000000000000038,-6.000000000000015,-30.46899921911431,0.0,0.0,-2.2497052731515765,0.0,0.0,0.003309441670040769,0.0,70.0,255.0,1.0,2.0
406,20.3,-1.5000000000000038,-6.000000000000015,-30.58148032798223,0.0,0.0,-2.2495260457929334,0.0,0.0,0.003824534358187748,0.0,70.0,255.04203509673786,0.956781050851529,1.9997833399716969
407,20.35,-1.5000000000000038,-6.000000000000015,-30.693951823693602,0.0,0.0,-2.2493228197157578,0.0,0.0,0.0042569546668147495,0.0,70.0,255.0853317317645,0.9122650341718459,1.9995601776407335
408,20.400000000000002,-1.5000000000000038,-6.000000000000015,-30.806412609953806,0.0,0.0,-2.249100350326252,0.0,0.0,0.004586776765691525,0.0,70.0,255.10761081842222,0.8893584920663993,1.9994453453239216
409,20.450000000000003,-1.5000000000000038,-6.000000000000015,-30.918861858726228,0.0,0.0,-2.2488641420391886,0.0,0.0,0.0048007145455386535,0.0,70.0,255.08659327005327,0.9109679666406376,1.9995536753380732
410,20.5,-1.5000000000000038,-6.000000000000015,-31.031299024157725,0.0,0.0,-2.248620278871698,0.0,0.0,0.0048717476484938516,0.0,70.0,255.0,1.0,2.0
411,20.55,-1.5000000000000038,-6.000000000000015,-31.143723886613397,0.0,0.0,-2.2483769672743392,0.0,0.0,0.004799471329164362,0.0,70.0,254.84312288327314,1.1612953140718298,2.0008085862335965
412,20.6,-1.5000000000000038,-6.000000000000015,-31.25613672088516,0.0,0.0,-2.2481403317387816,0.0,0.0,0.0046920316901122305,0.0,70.0,254.68153764155701,1.3274313500709904,2.0016414393910873
413,20.650000000000002,-1.5000000000000038,-6.000000000000015,-31.368537919787276,0.0,0.0,-2.247907764105328,0.0,0.0,0.004726870581706066,0.0,70.0,254.59839095820428,1.4129197290342326,2.00206999943178
414,20.700000000000003,-1.5000000000000038,-6.000000000000015,-31.480927497295692,0.0,0.0,-2.247667644680611,0.0,0.0,0.005074674291094539,0.0,70.0,254.67682951656775,1.3322720719983074,2.001665706314982
415,20.75,-1.5000000000000038,-6.000000000000015,-31.593304684255337,0.0,0.0,-2.2474002966762185,0.0,0.0,0.005899511792151202,0.0,70.0,255.0,1.0,2.0
416,20.8,-1.5000000000000038,-6.000000000000015,-31.705667526963314,0.0,0.0,-2.247077693501396,0.0,0.0,0.007265692210012276,0.0,70.0,255.58547337016955,0.3980376928611521,1.996982315093917
417,20.85,-1.5000000000000038,-6.000000000000015,-31.818012453605476,0.0,0.0,-2.2466737274552173,0.0,0.0,0.009009603891030338,0.0,70.0,256.18851770200746,-0.2219904344558074,1.9938740647949167
418,20.900000000000002,-1.5000000000000038,-6.000000000000015,-31.930334899708836,0.0,0.0,-2.246176733112293,0.0,0.0,0.010828538115603692,0.0,70.0,256.49882534876065,-0.54103740820333,1.9922746569489578
419,20.950000000000003,-1.5000000000000038,-6.000000000000015,-32.042630126916706,0.0,0.0,-2.245590873643657,0.0,0.0,0.012408840034794366,0.0,70.0,256.2060886636758,-0.24005625463386737,1.9937834994019998
420,21.0,-1.5000000000000038,-6.000000000000015,-32.1548939870732,0.0,0.0,-2.2449358491088134,0.0,0.0,0.013450205180376429,0.0,70.0,255.0,1.0,2.0
421,21.05,-1.5000000000000038,-6.000000000000015,-32.26712371182759,0.0,0.0,-2.2442458531256193,0.0,0.0,0.013803960296598916,0.0,70.0,252.81498363604868,3.246553914483562,2.011262153390735
422,21.1,-1.5000000000000038,-6.000000000000015,-32.37931857238576,0.0,0.0,-2.2435554530791535,0.0,0.0,0.013599436193345582,0.0,70.0,250.5643915504131,5.560530387752239,2.0228623014292455
423,21.150000000000002,-1.5000000000000038,-6.000000000000015,-32.4914792571355,0.0,0.0,-2.2428859095062847,0.0,0.0,0.013109932667987323,0.0,70.0,249.40630764675316,6.751229903779088,2.0288313727723883
424,21.200000000000003,-1.5000000000000038,-6.000000000000015,-32.60360716333639,0.0,0.0,-2.2422444598123548,0.0,0.0,0.01262273946522896,0.0,70.0,250.49881582872894,5.627952946537162,2.0232002960770195
425,21.25,-1.5000000000000038,-6.000000000000015,-32.71570370311674,0.0,0.0,-2.241623635559762,0.0,0.0,0.012423676813710927,0.0,70.0,255.0,1.0,2.0
426,21.3,-1.5000000000000038,-6.000000000000015,-32.82776952689237,0.0,0.0,-2.2410020921309837,0.0,0.0,0.012670727674901627,0.0,70.0,263.15459208563567,-7.384253350795401,1.9579690713431421
427,21.35,-1.5000000000000038,-6.000000000000015,-32.939803912329836,0.0,0.0,-2.2403565627922717,0.0,0.0,0.013305378600136919,0.0,70.0,271.5539160963403,-16.02013111655315,1.9146767294881009
428,21.400000000000002,-1.5000000000000038,-6.000000000000015,-33.051805183171595,0.0,0.0,-2.23967155427097,0.0,0.0,0.014180682258313482,0.0,70.0,275.87594406422676,-20.463882206913016,1.8923998519614897
429,21.450000000000003,-1.5000000000000038,-6.000000000000015,-33.16377106775693,0.0,0.0,-2.2389384945664403,0.0,0.0,0.015152603040746726,0.0,70.0,271.7986480214083,-16.271755531514778,1.9134153162899212
430,21.5,-1.5000000000000038,-6.000000000000015,-33.27569903262824,0.0,0.0,-2.2381562939668953,0.0,0.0,0.01607112486468054,0.0,70.0,255.0,1.0,2.0
431,21.55,-1.5000000000000038,-6.000000000000015,-33.38758669715362,0.0,0.0,-2.2373313820799723,0.0,0.0,0.016847581221668406,0.0,70.0,222.92664802140834,33.978459488698114,2.164861561236697
432,21.6,-1.5000000000000038,-6.000000000000015,-33.499432170836236,0.0,0.0,-2.2364715358447285,0.0,0.0,0.017500914204049423,0.0,70.0,180.09994406422538,78.02399407846093,2.382430780618354
433,21.650000000000002,-1.5000000000000038,-6.000000000000015,-33.611233850738095,0.0,0.0,-2.2355812906595673,0.0,0.0,0.01808379516887726,0.0,70.0,132.80991609633804,126.68029892387494,2.6175692193816626
434,21.700000000000003,-1.5000000000000038,-6.000000000000015,-33.72299029990219,0.0,0.0,-2.2346631563278407,0.0,0.0,0.018634447442167357,0.0,70.0,87.34659208563318,173.49106917952656,2.8351384387633174
435,21.75,-1.5000000000000038,-6.000000000000015,-33.83470016637088,0.0,0.0,-2.2337178459153506,0.0,0.0,0.019187767785666665,0.0,70.0,50.0,212.0,3.0
436,21.8,-1.5000000000000038,-6.000000000000015,-33.94636208449373,0.0,0.0,-2.232744379549274,0.0,0.0,0.019765520866599218,0.0,70.0,25.49081582872855,237.35841539600534,3.086584683710082
437,21.85,-1.5000000000000038,-6.000000000000015,-34.05797460432581,0.0,0.0,-2.2317412938286907,0.0,0.0,0.020370964586646778,0.0,70.0,12.262307646752923,251.14815480271483,3.1076001480385105
438,21.900000000000002,-1.5000000000000038,-6.000000000000015,-34.1695362138766,0.0,0.0,-2.2307072830906094,0.0,0.0,0.021004137065006034,0.0,70.0,7.188391550413035,256.5586865114216,3.0853232705118967
439,21.950000000000003,-1.5000000000000038,-6.000000000000015,-34.28104533263487,0.0,0.0,-2.22964088012219,0.0,0.0,0.021669607190943907,0.0,70.0,7.142983636048804,256.7794788134189,3.042030928656855
440,22.0,-1.5000000000000038,-6.000000000000015,-34.392500301888816,0.0,0.0,-2.228540322371515,0.0,0.0,0.022377803992412737,0.0,70.0,9.0,255.0,3.0
441,22.05,-1.5000000000000038,-6.000000000000015,-34.50389936487202,0.0,0.0,-2.227403099722949,0.0,0.0,0.023130335306831284,0.0,70.0,10.206088663675876,253.82787892728217,2.976799703922979
442,22.1,-1.5000000000000038,-6.000000000000015,-34.61524061186111,0.0,0.0,-2.226227288840832,0.0,0.0,0.023895227449344247,0.0,70.0,10.498825348760633,253.54338671068203,2.971168627227612
443,22.150000000000002,-1.5000000000000038,-6.000000000000015,-34.7265220937561,0.0,0.0,-2.2250135769780144,0.0,0.0,0.02461965657474252,0.0,70.0,10.188517702007445,253.84495503044087,2.9771376985707554
444,22.200000000000003,-1.5000000000000038,-6.000000000000015,-34.83774196955891,0.0,0.0,-2.2237653231833576,0.0,0.0,0.02525383708160689,0.0,70.0,9.585473370169497,254.43101556679983,2.988737846609266
445,22.25,-1.5000000000000038,-6.000000000000015,-34.94889862607444,0.0,0.0,-2.2224881932698537,0.0,0.0,0.025753044219811727,0.0,70.0,9.0,255.0,3.0
446,22.3,-1.5000000000000038,-6.000000000000015,-35.0599907888859,0.0,0.0,-2.2211900187613765,0.0,0.0,0.02609933837192102,0.0,70.0,8.676829516567716,255.31406889486627,3.0062165005980006
447,22.35,-1.5000000000000038,-6.000000000000015,-35.171017627950576,0.0,0.0,-2.2198782594326616,0.0,0.0,0.026329897170995764,0.0,70.0,8.598390958204293,255.3902983545572,3.0077253430510424
448,22.400000000000002,-1.5000000000000038,-6.000000000000015,-35.281978614829164,0.0,0.0,-2.218557029044277,0.0,0.0,0.026516304234291965,0.0,70.0,8.68153764155701,255.309493366815,3.006125935205083
449,22.450000000000003,-1.5000000000000038,-6.000000000000015,-35.392873330855004,0.0,0.0,-2.2172266290092324,0.0,0.0,0.026734531663663574,0.0,70.0,8.843122883273155,255.15245891938184,3.003017684906083
450,22.5,-1.5000000000000038,-6.000000000000015,-35.50370127773009,0.0,0.0,-2.2158835758779105,0.0,0.0,0.02705402845037952,0.0,70.0,9.0,255.0,3.0
451,22.55,-1.5000000000000038,-6.000000000000015,-35.614461688442795,0.0,0.0,-2.2145212261641944,0.0,0.0,0.02751231120612374,0.0,70.0,9.086593270053255,254.91584549325285,2.998334293685018
452,22.6,-1.5000000000000038,-6.000000000000015,-35.72515340034651,0.0,0.0,-2.213132344757298,0.0,0.0,0.028102479905101063,0.0,70.0,9.107610818422197,254.8954198710892,2.99793000056822
453,22.650000000000002,-1.5000000000000038,-6.000000000000015,-35.835774922918525,0.0,0.0,-2.2117109781736843,0.0,0.0,0.02879783045486306,0.0,70.0,9.085331731764512,254.91707150229914,2.998358560608913
454,22.700000000000003,-1.5000000000000038,-6.000000000000015,-35.946324498163875,0.0,0.0,-2.210252561711812,0.0,0.0,0.029568036264748798,0.0,70.0,9.042035096737882,254.95914875567274,2.9991914137664035
455,22.75,-1.5000000000000038,-6.000000000000015,-36.056800179089706,0.0,0.0,-2.2087541745472095,0.0,0.0,0.030386832649753615,0.0,70.0,9.0,255.0,3.0
456,22.8,-1.5000000000000038,-6.000000000000015,-36.167199915618596,0.0,0.0,-2.2072138784468365,0.0,0.0,0.031231929624198074,0.0,70.0,8.97679740321926,255.02254913212235,3.0004463246619273
457,22.85,-1.5000000000000038,-6.000000000000015,-36.27752156693439,0.0,0.0,-2.2056309815847897,0.0,0.0,0.03206111561055991,0.0,70.0,8.97116576810692,255.028022161086,3.000554654676078
458,22.900000000000002,-1.5000000000000038,-6.000000000000015,-36.387763013777075,0.0,0.0,-2.2040077668857805,0.0,0.0,0.03281060238649047,0.0,70.0,8.97713543138495,255.02222062398846,3.0004398223592665
459,22.950000000000003,-1.5000000000000038,-6.000000000000015,-36.49792234362297,0.0,0.0,-2.2023499213461406,0.0,0.0,0.033413836096940486,0.0,70.0,8.988736729775322,255.0109460579273,3.000216660028303
460,23.0,-1.5000000000000038,-6.000000000000015,-36.60799800591169,0.0,0.0,-2.2006663832760864,0.0,0.0,0.03379864094839036,0.0,70.0,9.0,255.0,3.0
461,23.05,-1.5000000000000038,-6.000000000000015,-36.717988981950576,0.0,0.0,-2.1989700572513016,0.0,0.0,0.03393945748157989,0.0,70.0,9.006217117069705,254.9939579782578,2.9998804076672743
462,23.1,-1.5000000000000038,-6.000000000000015,-36.82789501163682,0.0,0.0,-2.1972724375279284,0.0,0.0,0.03393482921794089,0.0,70.0,9.007726109150124,254.99249148456684,2.999851380727467
463,23.150000000000002,-1.5000000000000038,-6.000000000000015,-36.93771622570337,0.0,0.0,-2.1955765743295075,0.0,0.0,0.03395882759491542,0.0,70.0,9.006126542695688,254.994046001747,2.9998821499540216
464,23.200000000000003,-1.5000000000000038,-6.000000000000015,-37.04745266906977,0.0,0.0,-2.193876554768437,0.0,0.0,0.03418939323225345,0.0,70.0,9.003017984160836,254.9970670126181,2.999941946120384
465,23.25,-1.5000000000000038,-6.000000000000015,-37.15710388118021,0.0,0.0,-2.192157635006282,0.0,0.0,0.034810584909195086,0.0,70.0,9.0,255.0,3.0
466,23.3,-1.5000000000000038,-6.000000000000015,-37.2666684325704,0.0,0.0,-2.1903954962775174,0.0,0.0,0.03590403998927627,0.0,70.0,8.998334128501924,255.0016189548465,3.0000320446689748
467,23.35,-1.5000000000000038,-6.000000000000015,-37.376143430807964,0.0,0.0,-2.1885672310073545,0.0,0.0,0.037315091991274585,0.0,70.0,8.997929795292588,255.0020119006467,3.000039822414055
468,23.400000000000002,-1.5000000000000038,-6.000000000000015,-37.485525155671134,0.0,0.0,-2.18666398707839,0.0,0.0,0.038757723594784466,0.0,70.0,8.998358397832295,255.00159536902365,3.000031577824648
469,23.450000000000003,-1.5000000000000038,-6.000000000000015,-37.5948098295158,0.0,0.0,-2.184691458647876,0.0,0.0,0.03994253036836426,0.0,70.0,8.999191333581335,255.00078589160037,3.0000155554901604
470,23.5,-1.5000000000000038,-6.000000000000015,-37.70399430153592,0.0,0.0,-2.1826697340415535,0.0,0.0,0.04057505671326567,0.0,70.0,9.0,255.0,3.0
471,23.55,-1.5000000000000038,-6.000000000000015,-37.81307680291996,0.0,0.0,-2.1806339529765495,0.0,0.0,0.040517296311293194,0.0,70.0,9.000446368922605,254.9995662023563,2.9999914136568266
472,23.6,-1.5000000000000038,-6.000000000000015,-37.922057696833576,0.0,0.0,-2.178618004410424,0.0,0.0,0.03997198230436538,0.0,70.0,9.000554709679518,254.99946091284647,2.9999893296163136
473,23.650000000000002,-1.5000000000000038,-6.000000000000015,-38.030938603361,0.0,0.0,-2.176636754746113,0.0,0.0,0.039323937703272804,0.0,70.0,9.00043986597513,254.9995725221585,2.999991538747387
474,23.700000000000003,-1.5000000000000038,-6.000000000000015,-38.13972137230819,0.0,0.0,-2.174685610640097,0.0,0.0,0.03895983261301694,0.0,70.0,9.000216681513828,254.9997894209803,2.999995831918974
475,23.75,-1.5000000000000038,-6.000000000000015,-38.24840716442501,0.0,0.0,-2.1727407714848113,0.0,0.0,0.03926513229899342,0.0,70.0,9.0,255.0,3.0
476,23.8,-1.5000000000000038,-6.000000000000015,-38.35699544945667,0.0,0.0,-2.1707590974101976,0.0,0.0,0.04042714772296563,0.0,70.0,8.999880395807663,255.0001162357283,3.0000023007037195
477,23.85,-1.5000000000000038,-6.000000000000015,-38.46548307416603,0.0,0.0,-2.1686980567125147,0.0,0.0,0.04222709533507896,0.0,70.0,8.999851365989338,255.00014444796744,3.0000028591206918
478,23.900000000000002,-1.5000000000000038,-6.000000000000015,-38.57386525512792,0.0,0.0,-2.1665363878766897,0.0,0.0,0.044235569885131554,0.0,70.0,8.999882138267186,255.0001145423424,3.000002267185805
479,23.950000000000003,-1.5000000000000038,-6.000000000000015,-38.6821367129537,0.0,0.0,-2.1642744997240015,0.0,0.0,0.04601879186125757,0.0,70.0,8.999941940363355,255.00005642447826,3.000001116833945
480,24.0,-1.5000000000000038,-6.000000000000015,-38.79029270510032,0.0,0.0,-2.161934508690564,0.0,0.0,0.04714446071147904,0.0,70.0,9.0,255.0,3.0
481,24.05,-1.5000000000000038,-6.000000000000015,-38.898330163822756,0.0,0.0,-2.1595600536528536,0.0,0.0,0.047394252654697766,0.0,70.0,9.00003204784675,254.99996885473047,2.999999383528296
482,24.1,-1.5000000000000038,-6.000000000000015,-39.006248710465606,0.0,0.0,-2.157195083425094,0.0,0.0,0.046970452201122725,0.0,70.0,9.000039826363125,254.99996129528378,2.9999992339009194
483,24.150000000000002,-1.5000000000000038,-6.000000000000015,-39.114049672165265,0.0,0.0,-2.1548630084327414,0.0,0.0,0.04628296690682987,0.0,70.0,9.000031580956126,254.99996930847183,2.9999993925093946
484,24.200000000000003,-1.5000000000000038,-6.000000000000015,-39.22173501130888,0.0,0.0,-2.152566786734411,0.0,0.0,0.045744860083374306,0.0,70.0,9.00001555703275,254.99998488110663,2.9999997007452466
485,24.25,-1.5000000000000038,-6.000000000000015,-39.329306350838706,0.0,0.0,-2.150288522424404,0.0,0.0,0.045776978236489185,0.0,70.0,9.0,255.0,3.0
486,24.3,-1.5000000000000038,-6.000000000000015,-39.43676386355132,0.0,0.0,-2.1479890889107622,0.0,0.0,0.04659518897440762,0.0,70.0,8.999991412805345,255.0000083453498,3.0000001651830948
487,24.35,-1.5000000000000038,-6.000000000000015,-39.54410525972978,0.0,0.0,-2.145629003526963,0.0,0.0,0.04800205156882953,0.0,70.0,8.999989328558161,255.00001037089746,3.00000020527563
488,24.400000000000002,-1.5000000000000038,-6.000000000000015,-39.65132676390402,0.0,0.0,-2.1431888837538793,0.0,0.0,0.049602445945140516,0.0,70.0,8.999991537908311,255.00000822377018,3.000000162776617
489,24.450000000000003,-1.5000000000000038,-6.000000000000015,-39.75842414810517,0.0,0.0,-2.140668758932449,0.0,0.0,0.051008108133743235,0.0,70.0,8.999995831505638,255.0000040510953,3.0000000801850697
490,24.5,-1.5000000000000038,-6.000000000000015,-39.86539363979726,0.0,0.0,-2.138088072940505,0.0,0.0,0.051823710256115874,0.0,70.0,9.0,255.0,3.0
491,24.55,-1.5000000000000038,-6.000000000000015,-39.97223295539922,0.0,0.0,-2.1354863879068375,0.0,0.0,0.051851844592931684,0.0,70.0,9.000002300931873,254.99999776387025,2.999999955739323
492,24.6,-1.5000000000000038,-6.000000000000015,-40.078942278587945,0.0,0.0,-2.132902888481212,0.0,0.0,0.05130945340781068,0.0,70.0,9.000002859404223,254.9999972211264,2.999999944996561
493,24.650000000000002,-1.5000000000000038,-6.000000000000015,-40.18552324424734,0.0,0.0,-2.1303554425660565,0.0,0.0,0.05061913743276136,0.0,70.0,9.000002267410634,254.9999977964474,2.999999956384137
494,24.700000000000003,-1.5000000000000038,-6.000000000000015,-40.29197782284455,0.0,0.0,-2.1278409747379357,0.0,0.0,0.05019585423937656,0.0,70.0,9.000001116944697,254.99999891451228,2.999999978514475
495,24.75,-1.5000000000000038,-6.000000000000015,-40.398307341721136,0.0,0.0,-2.125335857142119,0.0,0.0,0.05045209681284746,0.0,70.0,9.0,255.0,3.0
496,24.8,-1.5000000000000038,-6.000000000000015,-40.50451140855876,0.0,0.0,-2.122795765056651,0.0,0.0,0.05159109232479864,0.0,70.0,8.999999383467163,255.00000059916917,3.000000011859613
497,24.85,-1.5000000000000038,-6.000000000000015,-40.6105869182268,0.0,0.0,-2.120176747909639,0.0,0.0,0.05339025135597808,0.0,70.0,8.999999233824948,255.00000074459692,3.000000014738127
498,24.900000000000002,-1.5000000000000038,-6.000000000000015,-40.71652908334973,0.0,0.0,-2.117456739921053,0.0,0.0,0.055410048617687835,0.0,70.0,8.999999392449153,255.00000059044012,3.0000000116868355
499,24.950000000000003,-1.5000000000000038,-6.000000000000015,-40.822332592218906,0.0,0.0,-2.11463574304787,0.0,0.0,0.057209127585622355,0.0,70.0,8.999999700715568,255.00000029085555,3.000000005757029
500,25.0,-1.5000000000000038,-6.000000000000015,-40.927992657654514,0.0,0.0,-2.111735827162491,0.0,0.0,0.05834794910768437,0.0,70.0,9.0,255.0,3.0
501,25.05,-1.5000000000000038,-6.000000000000015,-41.033506174935155,0.0,0.0,-2.1088009481371017,0.0,0.0,0.05860392596801489,0.0,70.0,9.000000165199475,254.99999983945312,2.9999999968222264
502,25.1,-1.5000000000000038,-6.000000000000015,-41.138872752468224,0.0,0.0,-2.1058754345656894,0.0,0.0,0.058180357020631845,0.0,70.0,9.000000205295986,254.99999980048582,2.9999999960509305
503,25.150000000000002,-1.5000000000000038,-6.000000000000015,-41.244093718391724,0.0,0.0,-2.1029829124350385,0.0,0.0,0.05748985224656167,0.0,70.0,9.000000162792759,254.99999984179203,2.999999996868522
504,25.200000000000003,-1.5000000000000038,-6.000000000000015,-41.34917104371173,0.0,0.0,-2.100126449341033,0.0,0.0,0.05694749555757994,0.0,70.0,9.000000080193022,254.9999999220655,2.9999999984574086
505,25.25,-1.5000000000000038,-6.000000000000015,-41.45410636332583,0.0,0.0,-2.0972881628792805,0.0,0.0,0.05697606013512768,0.0,70.0,9.0,255.0,3.0
506,25.3,-1.5000000000000038,-6.000000000000015,-41.558899859999656,0.0,0.0,-2.0944288433275204,0.0,0.0,0.05779255112088322,0.0,70.0,8.999999955734934,255.00000004301842,3.000000000851482
507,25.35,-1.5000000000000038,-6.000000000000015,-41.66354924765858,0.0,0.0,-2.0915089077671922,0.0,0.0,0.059199276276444834,0.0,70.0,8.999999944991107,255.00000005345964,3.0000000010581496
508,25.400000000000002,-1.5000000000000038,-6.000000000000015,-41.768050750776375,0.0,0.0,-2.088508915699876,0.0,0.0,0.06080042584883927,0.0,70.0,8.999999956379813,255.0000000423917,3.000000000839077
509,25.450000000000003,-1.5000000000000038,-6.000000000000015,-41.87240013922857,0.0,0.0,-2.0854288651823083,0.0,0.0,0.06220723050773813,0.0,70.0,8.999999978512344,255.00000002088248,3.000000000413336
510,25.5,-1.5000000000000038,-6.000000000000015,-41.976593637294606,0.0,0.0,-2.082288192649102,0.0,0.0,0.0630238942640915,0.0,70.0,9.0,255.0,3.0
511,25.55,-1.5000000000000038,-6.000000000000015,-42.08062895849348,0.0,0.0,-2.079126475755899,0.0,0.0,0.06305272269457873,0.0,70.0,9.000000011860788,254.99999998847323,2.9999999997718465
512,25.6,-1.5000000000000038,-6.000000000000015,-42.184506284870196,0.0,0.0,-2.0759829203796443,0.0,0.0,0.06251064976652287,0.0,70.0,9.000000014739589,254.99999998567554,2.9999999997164695
513,25.650000000000002,-1.5000000000000038,-6.000000000000015,-42.28822725053144,0.0,0.0,-2.072875410779247,0.0,0.0,0.0618203324719957,0.0,70.0,9.000000011687995,254.99999998864115,2.99999999977517
514,25.700000000000003,-1.5000000000000038,-6.000000000000015,-42.39179382594812,0.0,0.0,-2.0698008871324447,0.0,0.0,0.061396729262241934,0.0,70.0,9.0000000057576,254.99999999440456,2.9999999998892464
515,25.75,-1.5000000000000038,-6.000000000000015,-42.495207339244686,0.0,0.0,-2.0667357378530227,0.0,0.0,0.061652278889567924,0.0,70.0,9.0,255.0,3.0
516,25.8,-1.5000000000000038,-6.000000000000015,-42.59846739973342,0.0,0.0,-2.063635659243488,0.0,0.0,0.0627902177740225,0.0,70.0,8.999999996821911,255.0000000030886,3.0000000000611338
517,25.85,-1.5000000000000038,-6.000000000000015,-42.701570905169035,0.0,0.0,-2.0604567160756204,0.0,0.0,0.06458824121295947,0.0,70.0,8.999999996050539,255.00000000383824,3.0000000000759717
518,25.900000000000002,-1.5000000000000038,-6.000000000000015,-42.804513071340985,0.0,0.0,-2.057176835122192,0.0,0.0,0.06660728855507614,0.0,70.0,8.99999999686821,255.0000000030436,3.0000000000602434
519,25.950000000000003,-1.5000000000000038,-6.000000000000015,-42.907288588681254,0.0,0.0,-2.053795987220113,0.0,0.0,0.06840650511605872,0.0,70.0,8.999999998457257,255.0000000014993,3.000000000029676
520,26.0,-1.5000000000000038,-6.000000000000015,-43.009892670062996,0.0,0.0,-2.050336184610586,0.0,0.0,0.06954703678871965,0.0,70.0,9.0,255.0,3.0
521,26.05,-1.5000000000000038,-6.000000000000015,-43.11232220714231,0.0,0.0,-2.046841283541241,0.0,0.0,0.06980654607247061,0.0,70.0,9.000000000851566,254.9999999991724,2.9999999999836193
522,26.1,-1.5000000000000038,-6.000000000000015,-43.21457679841712,0.0,0.0,-2.043355530003339,0.0,0.0,0.06938720124480824,0.0,70.0,9.000000001058256,254.99999999897153,2.9999999999796434
523,26.150000000000002,-1.5000000000000038,-6.000000000000015,-43.31665776014265,0.0,0.0,-2.03990256341676,0.0,0.0,0.06869969746077231,0.0,70.0,9.00000000083916,254.99999999918447,2.9999999999838582
524,26.200000000000003,-1.5000000000000038,-6.000000000000015,-43.418567054758796,0.0,0.0,-2.036485560257262,0.0,0.0,0.06815711040601968,0.0,70.0,9.000000000413376,254.9999999995983,2.9999999999920486
525,26.25,-1.5000000000000038,-6.000000000000015,-43.52030631616837,0.0,0.0,-2.033086852376158,0.0,0.0,0.06817952733157995,0.0,70.0,9.0,255.0,3.0
526,26.3,-1.5000000000000038,-6.000000000000015,-43.62187573999641,0.0,0.0,-2.029667607524104,0.0,0.0,0.06898294525612414,0.0,70.0,8.999999999771825,255.00000000022175,3.0000000000043894
527,26.35,-1.5000000000000038,-6.000000000000015,-43.72327307692078,0.0,0.0,-2.0261885578505456,0.0,0.0,0.07037390952078226,0.0,70.0,8.999999999716442,255.00000000027555,3.0000000000054547
528,26.400000000000002,-1.5000000000000038,-6.000000000000015,-43.824494595781466,0.0,0.0,-2.0226302165720256,0.0,0.0,0.07196380505405386,0.0,70.0,8.999999999775149,255.0000000002185,3.0000000000043254
529,26.450000000000003,-1.5000000000000038,-6.000000000000015,-43.925536098577986,0.0,0.0,-2.0189921773451402,0.0,0.0,0.07337139358654099,0.0,70.0,8.999999999889237,255.00000000010766,3.0000000000021303
530,26.5,-1.5000000000000038,-6.000000000000015,-44.02639381351598,0.0,0.0,-2.0152930772133715,0.0,0.0,0.0742109377995348,0.0,70.0,9.0,255.0,3.0
531,26.55,-1.5000000000000038,-6.000000000000015,-44.12706540629932,0.0,0.0,-2.0115710835651868,0.0,0.0,0.07428852604931535,0.0,70.0,9.00000000006114,254.9999999999406,2.9999999999988236
532,26.6,-1.5000000000000038,-6.000000000000015,-44.2275509218725,0.0,0.0,-2.00786422460844,0.0,0.0,0.07380527256160008,0.0,70.0,9.000000000075978,254.99999999992616,2.999999999998539
533,26.650000000000002,-1.5000000000000038,-6.000000000000015,-44.32785182876017,0.0,0.0,-2.0041905563090268,0.0,0.0,0.0731569704306878,0.0,70.0,9.000000000060249,254.99999999994148,2.999999999998841
534,26.700000000000003,-1.5000000000000038,-6.000000000000015,-44.4279699775034,0.0,0.0,-2.000548527565371,0.0,0.0,0.07273046210087841,0.0,70.0,9.00000000002968,254.99999999997115,2.999999999999429
535,26.75,-1.5000000000000038,-6.000000000000015,-44.527906681516704,0.0,0.0,-1.996917510098939,0.0,0.0,0.07290063756002496,0.0,70.0,9.0,255.0,3.0
536,26.8,-1.5000000000000038,-6.000000000000015,-44.627661728513296,0.0,0.0,-1.9932584638093687,0.0,0.0,0.07385661021857004,0.0,70.0,8.999999999983618,255.00000000001592,3.000000000000315
537,26.85,-1.5000000000000038,-6.000000000000015,-44.72723252789764,0.0,0.0,-1.989531849077082,0.0,0.0,0.07543511677994275,0.0,70.0,8.999999999979641,255.00000000001978,3.0000000000003912
538,26.900000000000002,-1.5000000000000038,-6.000000000000015,-44.826614913421004,0.0,0.0,-1.9857149521313744,0.0,0.0,0.07729735751027533,0.0,70.0,8.999999999983856,255.00000000001572,3.0000000000003104
539,26.950000000000003,-1.5000000000000038,-6.000000000000015,-44.92580402311078,0.0,0.0,-1.9818021133260544,0.0,0.0,0.07910069740617587,0.0,70.0,8.999999999992047,255.0000000000077,3.0000000000001528
540,27.0,-1.5000000000000038,-6.000000000000015,-45.02479512475361,0.0,0.0,-1.9778048823907568,0.0,0.0,0.08051453061383995,0.0,70.0,9.0,255.0,3.0
541,27.05,-1.5000000000000038,-6.000000000000015,-45.123584511349854,0.0,0.0,-1.9737506602646704,0.0,0.0,0.08135897247001367,0.0,70.0,9.00000000000439,254.99999999999574,2.9999999999999156
542,27.1,-1.5000000000000038,-6.000000000000015,-45.222170190780076,0.0,0.0,-1.9696689851437554,0.0,0.0,0.08170330460472996,0.0,70.0,9.000000000005457,254.9999999999947,2.999999999999895
543,27.150000000000002,-1.5000000000000038,-6.000000000000015,-45.32055140986423,0.0,0.0,-1.9655803298041974,0.0,0.0,0.08172371607457762,0.0,70.0,9.000000000004325,254.9999999999958,2.999999999999917
544,27.200000000000003,-1.5000000000000038,-6.000000000000015,-45.418728223760496,0.0,0.0,-1.9614966135362977,0.0,0.0,0.08160054780788073,0.0,70.0,9.000000000002132,254.99999999999793,2.9999999999999587
545,27.25,-1.5000000000000038,-6.000000000000015,-45.51670107121786,0.0,0.0,-1.9574202750234093,0.0,0.0,0.08152123998925731,0.0,70.0,9.0,255.0,3.0
546,27.3,-1.5000000000000038,-6.000000000000015,-45.61447025126284,0.0,0.0,-1.953344489537372,0.0,0.0,0.08159924815061004,0.0,70.0,8.999999999998824,255.00000000000117,3.0000000000000226
547,27.35,-1.5000000000000038,-6.000000000000015,-45.7120355201716,0.0,0.0,-1.9492603502083483,0.0,0.0,0.08182886759442454,0.0,70.0,8.99999999999854,255.00000000000142,3.000000000000028
548,27.400000000000002,-1.5000000000000038,-6.000000000000015,-45.80939628628367,0.0,0.0,-1.9451616027779295,0.0,0.0,0.08217309288198749,0.0,70.0,8.99999999999884,255.00000000000114,3.000000000000022
549,27.450000000000003,-1.5000000000000038,-6.000000000000015,-45.90655168044939,0.0,0.0,-1.9410430409201496,0.0,0.0,0.08260899947671874,0.0,70.0,8.999999999999428,255.00000000000057,3.0000000000000107
550,27.5,-1.5000000000000038,-6.000000000000015,-46.00350059037569,0.0,0.0,-1.9369007028302576,0.0,0.0,0.08310456536690936,0.0,70.0,9.0,255.0,3.0
551,27.55,-1.5000000000000038,-6.000000000000015,-46.100241750732415,0.0,0.0,-1.9327325843834586,0.0,0.0,0.0836379743184068,0.0,70.0,9.000000000000316,254.9999999999997,2.999999999999994
552,27.6,-1.5000000000000038,-6.000000000000015,-46.19677384881403,0.0,0.0,-1.928536905398417,0.0,0.0,0.08421945345702397,0.0,70.0,9.000000000000393,254.9999999999996,2.9999999999999925
553,27.650000000000002,-1.5000000000000038,-6.000000000000015,-46.29309544127226,0.0,0.0,-1.9243106390377562,0.0,0.0,0.08486484480272338,0.0,70.0,9.000000000000309,254.99999999999972,2.999999999999994
554,27.700000000000003,-1.5000000000000038,-6.000000000000015,-46.38920491271781,0.0,0.0,-1.9200504209181446,0.0,0.0,0.08557725382658532,0.0,70.0,9.000000000000153,254.99999999999983,2.9999999999999973
555,27.75,-1.5000000000000038,-6.000000000000015,-46.48510048336407,0.0,0.0,-1.9157529136550977,0.0,0.0,0.0863644612415726,0.0,70.0,9.0,255.0,3.0
556,27.8,-1.5000000000000038,-6.000000000000015,-46.58078020408332,0.0,0.0,-1.9114139747939873,0.0,0.0,0.0872226541019927,0.0,70.0,8.999999999999915,255.00000000000009,3.0000000000000013
557,27.85,-1.5000000000000038,-6.000000000000015,-46.67624188084347,0.0,0.0,-1.9070306482448984,0.0,0.0,0.0880942509866145,0.0,70.0,8.999999999999895,255.00000000000009,3.000000000000002
558,27.900000000000002,-1.5000000000000038,-6.000000000000015,-46.77148326890781,0.0,0.0,-1.9026045496953259,0.0,0.0,0.08888575634955487,0.0,70.0,8.999999999999917,255.00000000000009,3.0000000000000013
559,27.950000000000003,-1.5000000000000038,-6.000000000000015,-46.866502335813,0.0,0.0,-1.898142072609943,0.0,0.0,0.08950249803518773,0.0,70.0,8.999999999999961,255.00000000000006,3.0000000000000004
560,28.0,-1.5000000000000038,-6.000000000000015,-46.9612974761688,0.0,0.0,-1.8936542998918071,0.0,0.0,0.08983758966678579,0.0,70.0,9.0,255.0,3.0
561,28.05,-1.5000000000000038,-6.000000000000015,-47.055867765802184,0.0,0.0,-1.8891583136432644,0.0,0.0,0.0898508964468192,0.0,70.0,9.000000000000025,254.99999999999997,2.9999999999999996
562,28.1,-1.5000000000000038,-6.000000000000015,-47.15021330753313,0.0,0.0,-1.8846692102471252,0.0,0.0,0.0896853141568954,0.0,70.0,9.000000000000027,255.0,2.9999999999999996
563,28.150000000000002,-1.5000000000000038,-6.000000000000015,-47.244334686826896,0.0,0.0,-1.8801897822275748,0.0,0.0,0.08959119740055144,0.0,70.0,9.000000000000023,255.0,2.9999999999999996
564,28.200000000000003,-1.5000000000000038,-6.000000000000015,-47.338232285755886,0.0,0.0,-1.87571009050707,0.0,0.0,0.08981881463938635,0.0,70.0,9.000000000000012,254.99999999999997,2.9999999999999996
565,28.25,-1.5000000000000038,-6.000000000000015,-47.4319056958776,0.0,0.0,-1.8712079007636362,0.0,0.0,0.09062513347402046,0.0,70.0,9.0,255.0,3.0
566,28.3,-1.5000000000000038,-6.000000000000015,-47.52535307583225,0.0,0.0,-1.866647577159668,0.0,0.0,0.09212135917167075,0.0,70.0,8.999999999999995,255.0,3.0
567,28.35,-1.5000000000000038,-6.000000000000015,-47.61857045359357,0.0,0.0,-1.8619957648464691,0.0,0.0,0.09407824529930053,0.0,70.0,8.999999999999993,255.00000000000003,3.0
568,28.400000000000002,-1.5000000000000038,-6.000000000000015,-47.7115526523169,0.0,0.0,-1.857239752629738,0.0,0.0,0.09607402282014732,0.0,70.0,8.999999999999995,255.0,3.0
569,28.450000000000003,-1.5000000000000038,-6.000000000000015,-47.804294428856544,0.0,0.0,-1.8523883625644544,0.0,0.0,0.09768340890730087,0.0,70.0,8.999999999999998,255.0,3.0000000000000004
570,28.5,-1.5000000000000038,-6.000000000000015,-47.89679148857334,0.0,0.0,-1.8474714117390079,0.0,0.0,0.09848593238004355,0.0,70.0,9.0,255.0,3.0
571,28.55,-1.5000000000000038,-6.000000000000015,-47.989041570030444,0.0,0.0,-1.84253976932645,0.0,0.0,0.09828278107946176,0.0,70.0,9.000000000000002,255.0,3.0
572,28.6,-1.5000000000000038,-6.000000000000015,-48.08104546550599,0.0,0.0,-1.8376431336310617,0.0,0.0,0.09733335966117806,0.0,70.0,9.000000000000002,255.0,3.0
573,28.650000000000002,-1.5000000000000038,-6.000000000000015,-48.17280588339355,0.0,0.0,-1.8328064333603322,0.0,0.0,0.09614273464180201,0.0,70.0,9.000000000000002,255.0,3.0
574,28.700000000000003,-1.5000000000000038,-6.000000000000015,-48.26432610884202,0.0,0.0,-1.8280288601668815,0.0,0.0,0.0952263842236789,0.0,70.0,9.000000000000002,255.0,3.0000000000000004
575,28.75,-1.5000000000000038,-6.000000000000015,-48.35560876941024,0.0,0.0,-1.8232837949379643,0.0,0.0,0.09509509970229146,0.0,70.0,9.0,255.0,3.0
576,28.8,-1.5000000000000038,-6.000000000000015,-48.44665448833582,0.0,0.0,-1.8185193501966523,0.0,0.0,0.09600737664712256,0.0,70.0,9.0,255.0,3.0
577,28.85,-1.5000000000000038,-6.000000000000015,-48.537460704429904,0.0,0.0,-1.813683057273252,0.0,0.0,0.09773479624612946,0.0,70.0,8.999999999999998,255.0,3.0
578,28.900000000000002,-1.5000000000000038,-6.000000000000015,-48.62802279406314,0.0,0.0,-1.8087458705720394,0.0,0.0,0.09980855843778613,0.0,70.0,9.0,255.0,3.0
579,28.950000000000003,-1.5000000000000038,-6.000000000000015,-48.71833529148711,0.0,0.0,-1.8037022014294735,0.0,0.0,0.1017579073412378,0.0,70.0,9.0,255.0,3.0
580,29.0,-1.5000000000000038,-6.000000000000015,-48.80839301420609,0.0,0.0,-1.7985700798379156,0.0,0.0,0.10312173407527325,0.0,70.0,9.0,255.0,3.0
581,29.05,-1.5000000000000038,-6.000000000000015,-48.8981922994709,0.0,0.0,-1.7933900280219461,0.0,0.0,0.10365507829774856,0.0,70.0,9.0,255.0,3.0
582,29.1,-1.5000000000000038,-6.000000000000015,-48.987732017008284,0.0,0.0,-1.7882045720081408,0.0,0.0,0.103499203605395,0.0,70.0,9.0,255.0,3.0
583,29.150000000000002,-1.5000000000000038,-6.000000000000015,-49.077012756671714,0.0,0.0,-1.7830401076614066,0.0,0.0,0.10297044420255475,0.0,70.0,9.0,255.0,3.0
584,29.200000000000003,-1.5000000000000038,-6.000000000000015,-49.166036027774425,0.0,0.0,-1.7779075275878853,0.0,0.0,0.102382359369102,0.0,70.0,8.999999999999998,255.0,3.0
585,29.25,-1.5000000000000038,-6.000000000000015,-49.2548035094305,0.0,0.0,-1.7728018717244964,0.0,0.0,0.10203791736742573,0.0,70.0,9.0,255.0,3.0
586,29.3,-1.5000000000000038,-6.000000000000015,-49.343316214946874,0.0,0.0,-1.7677037358511427,0.0,0.0,0.1021111446618761,0.0,70.0,9.0,255.0,3.0
587,29.35,-1.5000000000000038,-6.000000000000015,-49.431573883015616,0.0,0.0,-1.7625907572583088,0.0,0.0,0.10258111661016756,0.0,70.0,9.0,255.0,3.0
588,29.400000000000002,-1.5000000000000038,-6.000000000000015,-49.519575290672705,0.0,0.0,-1.757445624190126,0.0,0.0,0.10335861579804373,0.0,70.0,9.0,255.0,3.0
589,29.450000000000003,-1.5000000000000038,-6.000000000000015,-49.60731844543463,0.0,0.0,-1.7522548956785045,0.0,0.0,0.10435834282418455,0.0,70.0,9.0,255.0,3.0
590,29.5,-1.5000000000000038,-6.000000000000015,-49.694800780240556,0.0,0.0,-1.7470097899077075,0.0,0.0,0.10549060578313174,0.0,70.0,9.0,255.0,3.0
591,29.55,-1.5000000000000038,-6.000000000000015,-49.7820194244254,0.0,0.0,-1.7417058351001913,0.0,0.0,0.106688594805604,0.0,70.0,9.0,255.0,3.0
592,29.6,-1.5000000000000038,-6.000000000000015,-49.868971363750575,0.0,0.0,-1.736340930427147,0.0,0.0,0.10789642319579684,0.0,70.0,9.0,255.0,3.0
593,29.650000000000002,-1.5000000000000038,-6.000000000000015,-49.955653517468114,0.0,0.0,-1.7309161927806116,0.0,0.0,0.10903248187688064,0.0,70.0,9.0,255.0,3.0
594,29.700000000000003,-1.5000000000000038,-6.000000000000015,-50.042062983028636,0.0,0.0,-1.725437682239459,0.0,0.0,0.10999909449864731,0.0,70.0,9.0,255.0,3.0
595,29.75,-1.5000000000000038,-6.000000000000015,-50.12819728569206,0.0,0.0,-1.7199162833307469,0.0,0.0,0.11070362221303753,0.0,70.0,9.0,255.0,3.0
596,29.8,-1.5000000000000038,-6.000000000000015,-50.21405461136171,0.0,0.0,-1.7143673200181553,0.0,0.0,0.11110725001728383,0.0,70.0,9.0,255.0,3.0
597,29.85,-1.5000000000000038,-6.000000000000015,-50.299634017693876,0.0,0.0,-1.7088055583290185,0.0,0.0,0.11127766613299173,0.0,70.0,9.0,255.0,3.0
598,29.900000000000002,-1.5000000000000038,-6.000000000000015,-50.38493516719461,0.0,0.0,-1.703239553404856,0.0,0.0,0.11134782033010993,0.0,70.0,9.0,255.0,3.0
599,29.950000000000003,-1.5000000000000038,-6.000000000000015,-50.46995797303436,0.0,0.0,-1.6976707762960075,0.0,0.0,0.11146476634991132,0.0,70.0,9.0,255.0,3.0
600,30.0,-1.5000000000000038,-6.000000000000015,-50.55470224482421,0.0,0.0,-1.692093076769865,0.0,0.0,0.11178292401083922,0.0,70.0,9.0,255.0,3.0
601,30.05,-1.5000000000000038,-6.000000000000015,-50.63916728071135,0.0,0.0,-1.6864924838949236,0.0,0.0,0.1123818923105091,0.0,70.0,9.0,255.0,3.0
602,30.1,-1.5000000000000038,-6.000000000000015,-50.723351493213706,0.0,0.0,-1.680854887538814,0.0,0.0,0.11318927591688066,0.0,70.0,9.0,255.0,3.0
603,30.150000000000002,-1.5000000000000038,-6.000000000000015,-50.80725276946523,0.0,0.0,-1.6751735563032355,0.0,0.0,0.11406071232684667,0.0,70.0,9.0,255.0,3.0
604,30.200000000000003,-1.5000000000000038,-6.000000000000015,-50.89086884884403,0.0,0.0,-1.6694488163061294,0.0,0.0,0.11485475384276356,0.0,70.0,9.0,255.0,3.0
605,30.25,-1.5000000000000038,-6.000000000000015,-50.97419765109584,0.0,0.0,-1.6636880809189591,0.0,0.0,0.11542472836580941,0.0,70.0,9.0,255.0,3.0
606,30.3,-1.5000000000000038,-6.000000000000015,-51.057237656935925,0.0,0.0,-1.6579063434695485,0.0,0.0,0.11569860732123516,0.0,70.0,9.0,255.0,3.0
607,30.35,-1.5000000000000038,-6.000000000000015,-51.1399882854428,0.0,0.0,-1.6521182201868356,0.0,0.0,0.11576793416097075,0.0,70.0,9.0,255.0,3.0
608,30.400000000000002,-1.5000000000000038,-6.000000000000015,-51.22244947895461,0.0,0.0,-1.6463295500534514,0.0,0.0,0.11580662639332218,0.0,70.0,9.0,255.0,3.0
609,30.450000000000003,-1.5000000000000038,-6.000000000000015,-51.30462124044814,0.0,0.0,-1.6405375575475034,0.0,0.0,0.11598279170073056,0.0,70.0,9.0,255.0,3.0
610,30.5,-1.5000000000000038,-6.000000000000015,-51.38650323470936,0.0,0.0,-1.6347312708833783,0.0,0.0,0.1164581159130762,0.0,70.0,9.0,255.0,3.0
611,30.55,-1.5000000000000038,-6.000000000000015,-51.46809436753648,0.0,0.0,-1.6288917459561958,0.0,0.0,0.11731076465792967,0.0,70.0,9.0,255.0,3.0
612,30.6,-1.5000000000000038,-6.000000000000015,-51.54939240930498,0.0,0.0,-1.6230001944175854,0.0,0.0,0.11845451191305756,0.0,70.0,9.0,255.0,3.0
613,30.650000000000002,-1.5000000000000038,-6.000000000000015,-51.63039438697824,0.0,0.0,-1.61704629476489,0.0,0.0,0.11971641845676118,0.0,70.0,9.0,255.0,3.0
614,30.700000000000003,-1.5000000000000038,-6.000000000000015,-51.71109703878147,0.0,0.0,-1.6110285525719092,0.0,0.0,0.12092130545937607,0.0,70.0,9.0,255.0,3.0
615,30.75,-1.5000000000000038,-6.000000000000015,-51.79149724223543,0.0,0.0,-1.6049541642189524,0.0,0.0,0.12190681731496511,0.0,70.0,9.0,255.0,3.0
616,30.8,-1.5000000000000038,-6.000000000000015,-51.87159245520336,0.0,0.0,-1.5988378708404127,0.0,0.0,0.12258504733679843,0.0,70.0,9.0,255.0,3.0
617,30.85,-1.5000000000000038,-6.000000000000015,-51.95138102931947,0.0,0.0,-1.5926956594852726,0.0,0.0,0.12297942610430823,0.0,70.0,9.0,255.0,3.0
618,30.900000000000002,-1.5000000000000038,-6.000000000000015,-52.03086202115189,0.0,0.0,-1.586539928229982,0.0,0.0,0.12316229184392569,0.0,70.0,9.0,255.0,3.0
619,30.950000000000003,-1.5000000000000038,-6.000000000000015,-52.11003502214247,0.0,0.0,-1.58037943030088,0.0,0.0,0.12321198646674247,0.0,70.0,9.0,255.0,3.0
620,31.0,-1.5000000000000038,-6.000000000000015,-52.18889996418198,0.0,0.0,-1.5742187295833077,0.0,0.0,0.12320263348826188,0.0,70.0,9.0,255.0,3.0
621,31.05,-1.5000000000000038,-6.000000000000015,-52.2674568951008,0.0,0.0,-1.5680591669520538,0.0,0.0,0.12318802035622411,0.0,70.0,9.0,255.0,3.0
622,31.1,-1.5000000000000038,-6.000000000000015,-52.34570588087718,0.0,0.0,-1.5618999275476853,0.0,0.0,0.12322591886189116,0.0,70.0,9.0,255.0,3.0
623,31.150000000000002,-1.5000000000000038,-6.000000000000015,-52.42364688785557,0.0,0.0,-1.5557365750658647,0.0,0.0,0.12339795728166791,0.0,70.0,9.0,255.0,3.0
624,31.200000000000003,-1.5000000000000038,-6.000000000000015,-52.50127953838377,0.0,0.0,-1.5495601318195185,0.0,0.0,0.12378972303110913,0.0,70.0,9.0,255.0,3.0000000000000004
625,31.25,-1.5000000000000038,-6.000000000000015,-52.57860290103752,0.0,0.0,-1.5433576027627538,0.0,0.0,0.12448264873583526,0.0,70.0,9.0,255.0,3.0
626,31.3,-1.5000000000000038,-6.000000000000015,-52.655615298660045,0.0,0.0,-1.537111866945935,0.0,0.0,0.12550389688499308,0.0,70.0,9.0,255.0,3.0
627,31.35,-1.5000000000000038,-6.000000000000015,-52.732314087732114,0.0,0.0,-1.5308072130742545,0.0,0.0,0.12675335532676968,0.0,70.0,9.0,255.0,3.0000000000000004
628,31.400000000000002,-1.5000000000000038,-6.000000000000015,-52.80869601996747,0.0,0.0,-1.524436531413258,0.0,0.0,0.12804774382573214,0.0,70.0,9.0,255.0,3.0000000000000004
629,31.450000000000003,-1.5000000000000038,-6.000000000000015,-52.88475774087344,0.0,0.0,-1.5180024386916813,0.0,0.0,0.12919014704806386,0.0,70.0,9.0,255.0,3.0000000000000004
630,31.5,-1.5000000000000038,-6.000000000000015,-52.96049626383664,0.0,0.0,-1.5115175167084516,0.0,0.0,0.12997875291915761,0.0,70.0,9.0,255.0,3.0
631,31.55,-1.5000000000000038,-6.000000000000015,-53.035909492544285,0.0,0.0,-1.5050045633997655,0.0,0.0,0.1303163921079431,0.0,70.0,9.0,255.0,2.9999999999999996
632,31.6,-1.5000000000000038,-6.000000000000015,-53.110996720176615,0.0,0.0,-1.4984858774976573,0.0,0.0,0.13032606776519629,0.0,70.0,8.999999999999998,255.0,2.999999999999999
633,31.650000000000002,-1.5000000000000038,-6.000000000000015,-53.18575808029405,0.0,0.0,-1.4919719566232459,0.0,0.0,0.1302456594842738,0.0,70.0,8.999999999999998,255.0,2.9999999999999987
634,31.700000000000003,-1.5000000000000038,-6.000000000000015,-53.26019391583894,0.0,0.0,-1.48546131154923,0.0,0.0,0.1303162621923093,0.0,70.0,9.0,255.0,2.9999999999999987
635,31.75,-1.5000000000000038,-6.000000000000015,-53.33430421144897,0.0,0.0,-1.478940330404015,0.0,0.0,0.13078630229230725,0.0,70.0,9.0,255.0,3.0
636,31.8,-1.5000000000000038,-6.000000000000015,-53.40808794887934,0.0,0.0,-1.4723826813199992,0.0,0.0,0.13177710811973498,0.0,70.0,9.000000000000002,255.0,3.000000000000002
637,31.85,-1.5000000000000038,-6.000000000000015,-53.48154247958097,0.0,0.0,-1.4657626195920415,0.0,0.0,0.13313696569525746,0.0,70.0,9.000000000000007,255.0,3.0000000000000044
638,31.900000000000002,-1.5000000000000038,-6.000000000000015,-53.554664210838546,0.0,0.0,-1.4590689847504734,0.0,0.0,0.13457502616205375,0.0,70.0,9.000000000000007,255.0,3.0000000000000053
639,31.950000000000003,-1.5000000000000038,-6.000000000000015,-53.62744937805602,0.0,0.0,-1.452305116975836,0.0,0.0,0.13580494403200305,0.0,70.0,9.000000000000005,255.00000000000003,3.000000000000004
640,32.0,-1.5000000000000038,-6.000000000000015,-53.69989472253613,0.0,0.0,-1.4454884903472731,0.0,0.0,0.13654410317229804,0.0,70.0,9.0,255.0,3.0
641,32.050000000000004,-1.5000000000000038,-6.000000000000015,-53.77199822709075,0.0,0.0,-1.4386507066586063,0.0,0.0,0.13665480245848016,0.0,70.0,8.99999999999999,255.0,2.9999999999999925
642,32.1,-1.5000000000000038,-6.000000000000015,-53.84375979320199,0.0,0.0,-1.431823010101425,0.0,0.0,0.13629324894424144,0.0,70.0,8.999999999999977,255.00000000000003,2.999999999999984
643,32.15,-1.5000000000000038,-6.000000000000015,-53.91518052810089,0.0,0.0,-1.4250213817641821,0.0,0.0,0.13576789554647917,0.0,70.0,8.999999999999972,255.00000000000003,2.9999999999999805
644,32.2,-1.5000000000000038,-6.000000000000015,-53.98626193137841,0.0,0.0,-1.4182462205467772,0.0,0.0,0.13539002228384334,0.0,70.0,8.999999999999977,255.00000000000003,2.999999999999984
645,32.25,-1.5000000000000038,-6.000000000000015,-54.05700515015557,0.0,0.0,-1.4114823795357978,0.0,0.0,0.1354652570356052,0.0,70.0,9.0,255.0,3.0
646,32.300000000000004,-1.5000000000000038,-6.000000000000015,-54.12741016933199,0.0,0.0,-1.4046996948432167,0.0,0.0,0.13615025547650816,0.0,70.0,9.00000000000004,254.99999999999997,3.000000000000029
647,32.35,-1.5000000000000038,-6.000000000000015,-54.19747511963989,0.0,0.0,-1.397867353988147,0.0,0.0,0.1373219266419312,0.0,70.0,9.000000000000083,254.99999999999991,3.000000000000059
648,32.4,-1.5000000000000038,-6.000000000000015,-54.2671969047308,0.0,0.0,-1.3909675021790235,0.0,0.0,0.13872150354359292,0.0,70.0,9.000000000000105,254.9999999999999,3.000000000000074
649,32.45,-1.5000000000000038,-6.000000000000015,-54.33657186985779,0.0,0.0,-1.3839952036337877,0.0,0.0,0.1400883934053354,0.0,70.0,9.000000000000085,254.9999999999999,3.00000000000006
650,32.5,-1.5000000000000038,-6.000000000000015,-54.40559642509418,0.0,0.0,-1.37695866283849,0.0,0.0,0.14116689665044646,0.0,70.0,9.0,255.0,3.0
651,32.550000000000004,-1.5000000000000038,-6.000000000000015,-54.47426773614164,0.0,0.0,-1.369878513968743,0.0,0.0,0.14181811503561903,0.0,70.0,8.999999999999847,255.00000000000017,2.999999999999892
652,32.6,-1.5000000000000038,-6.000000000000015,-54.542584276491056,0.0,0.0,-1.362776851334928,0.0,0.0,0.14210538481478352,0.0,70.0,8.999999999999691,255.0000000000003,2.99999999999978
653,32.65,-1.5000000000000038,-6.000000000000015,-54.610545421275134,0.0,0.0,-1.3556679754872647,0.0,0.0,0.1421789107865834,0.0,70.0,8.999999999999607,255.0000000000004,2.999999999999723
654,32.7,-1.5000000000000038,-6.000000000000015,-54.67815107403978,0.0,0.0,-1.3485589602562698,0.0,0.0,0.14218349034393896,0.0,70.0,8.999999999999686,255.00000000000034,2.999999999999777
655,32.75,-1.5000000000000038,-6.000000000000015,-54.74540131730076,0.0,0.0,-1.3414496264528708,0.0,0.0,0.14225111906895904,0.0,70.0,9.0,255.0,3.0
656,32.800000000000004,-1.5000000000000038,-6.000000000000015,-54.81229603668507,0.0,0.0,-1.3343338483493739,0.0,0.0,0.14246334498722035,0.0,70.0,9.000000000000572,254.9999999999994,3.000000000000404
657,32.85,-1.5000000000000038,-6.000000000000015,-54.8788347021357,0.0,0.0,-1.3272032919541488,0.0,0.0,0.14285289773923182,0.0,70.0,9.00000000000116,254.99999999999883,3.00000000000082
658,32.9,-1.5000000000000038,-6.000000000000015,-54.945016365880484,0.0,0.0,-1.3200485585754507,0.0,0.0,0.14344732883273537,0.0,70.0,9.00000000000146,254.9999999999985,3.000000000001034
659,32.95,-1.5000000000000038,-6.000000000000015,-55.01083955799324,0.0,0.0,-1.3128585590708752,0.0,0.0,0.1442771323922898,0.0,70.0,9.000000000001176,254.9999999999988,3.000000000000832
660,33.0,-1.5000000000000038,-6.000000000000015,-55.07630222178757,0.0,0.0,-1.3056208453362217,0.0,0.0,0.1453846177511764,0.0,70.0,9.0,255.0,3.0
661,33.050000000000004,-1.5000000000000038,-6.000000000000015,-55.141401642526866,0.0,0.0,-1.2983200972957576,0.0,0.0,0.1467695306565986,0.0,70.0,8.999999999997868,255.00000000000216,2.999999999998493
662,33.1,-1.5000000000000038,-6.000000000000015,-55.20613423151715,0.0,0.0,-1.2909438922705618,0.0,0.0,0.14828218506934832,0.0,70.0,8.999999999995675,255.00000000000443,2.9999999999969402
663,33.15,-1.5000000000000038,-6.000000000000015,-55.27049603175392,0.0,0.0,-1.2834918787888228,0.0,0.0,0.14967093472506576,0.0,70.0,8.999999999994545,255.00000000000557,2.9999999999961418
664,33.2,-1.5000000000000038,-6.000000000000015,-55.33448341939603,0.0,0.0,-1.2759767987980553,0.0,0.0,0.15068243229876543,0.0,70.0,8.99999999999561,255.0000000000045,2.999999999996895
665,33.25,-1.5000000000000038,-6.000000000000015,-55.39809371163373,0.0,0.0,-1.2684236355589462,0.0,0.0,0.15107045654119133,0.0,70.0,9.0,255.0,3.0
666,33.300000000000004,-1.5000000000000038,-6.000000000000015,-55.461325782951924,0.0,0.0,-1.2608697531439361,0.0,0.0,0.15073042049777996,0.0,70.0,9.000000000007955,254.99999999999187,3.000000000005625
667,33.35,-1.5000000000000038,-6.000000000000015,-55.52418068694812,0.0,0.0,-1.2533505935091682,0.0,0.0,0.14986638063518853,0.0,70.0,9.000000000016144,254.99999999998346,3.000000000011419
668,33.4,-1.5000000000000038,-6.000000000000015,-55.58666084230284,0.0,0.0,-1.2458831150804173,0.0,0.0,0.14886343110447342,0.0,70.0,9.000000000020357,254.9999999999792,3.0000000000143996
669,33.45,-1.5000000000000038,-6.000000000000015,-55.64876899845616,0.0,0.0,-1.2384642503987209,0.0,0.0,0.14811817337516686,0.0,70.0,9.000000000016382,254.99999999998323,3.0000000000115876
670,33.5,-1.5000000000000038,-6.000000000000015,-55.71050726734271,0.0,0.0,-1.2310712977429006,0.0,0.0,0.1480055374280198,0.0,70.0,9.0,255.0,3.0
671,33.550000000000004,-1.5000000000000038,-6.000000000000015,-55.77187612823045,0.0,0.0,-1.223663696655919,0.0,0.0,0.14871587360403282,0.0,70.0,8.999999999970322,255.00000000003038,2.999999999979008
672,33.6,-1.5000000000000038,-6.000000000000015,-55.832873637008305,0.0,0.0,-1.2161997103824973,0.0,0.0,0.15011970498477467,0.0,70.0,8.99999999993975,255.00000000006165,2.9999999999573848
673,33.65,-1.5000000000000038,-6.000000000000015,-55.8934960992687,0.0,0.0,-1.2086517261574414,0.0,0.0,0.15192708910873876,0.0,70.0,8.99999999992402,255.00000000007773,2.9999999999462585
674,33.7,-1.5000000000000038,-6.000000000000015,-55.95373880962405,0.0,0.0,-1.2010070014716234,0.0,0.0,0.1538321003067722,0.0,70.0,8.999999999938861,255.00000000006256,2.999999999956755
675,33.75,-1.5000000000000038,-6.000000000000015,-56.013596799415865,0.0,0.0,-1.1932685161267642,0.0,0.0,0.15553937509338311,0.0,70.0,9.0,255.0,3.0
676,33.800000000000004,-1.5000000000000038,-6.000000000000015,-56.073065661236726,0.0,0.0,-1.1854530639622851,0.0,0.0,0.15687433683382324,0.0,70.0,9.000000000110765,254.99999999988668,3.0000000000783453
677,33.85,-1.5000000000000038,-6.000000000000015,-56.13214210581209,0.0,0.0,-1.1775810824433819,0.0,0.0,0.15782300455882137,0.0,70.0,9.000000000224851,254.99999999976998,3.000000000159042
678,33.9,-1.5000000000000038,-6.000000000000015,-56.190823769481064,0.0,0.0,-1.169670763506403,0.0,0.0,0.15841748985181425,0.0,70.0,9.000000000283558,254.99999999970993,3.000000000200566
679,33.95,-1.5000000000000038,-6.000000000000015,-56.249109182162734,0.0,0.0,-1.1617393334582005,0.0,0.0,0.15868825056912783,0.0,70.0,9.000000000228177,254.99999999976654,3.000000000161393
680,34.0,-1.5000000000000038,-6.000000000000015,-56.306997702826884,0.0,0.0,-1.1538019384494902,0.0,0.0,0.1586729528746389,0.0,70.0,9.0,255.0,3.0
681,34.050000000000004,-1.5000000000000038,-6.000000000000015,-56.36448937600768,0.0,0.0,-1.1458720381707366,0.0,0.0,0.15841801449383297,0.0,70.0,8.999999999586624,255.0000000004229,2.999999999707611
682,34.1,-1.5000000000000038,-6.000000000000015,-56.42158490664396,0.0,0.0,-1.137960137000107,0.0,0.0,0.1580299550987263,0.0,70.0,8.999999999160838,255.00000000085845,2.9999999994064477
683,34.15,-1.5000000000000038,-6.000000000000015,-56.47828538970769,0.0,0.0,-1.130069042660864,0.0,0.0,0.15768462980219056,0.0,70.0,8.999999998941746,255.0000000010826,2.9999999992514783
684,34.2,-1.5000000000000038,-6.000000000000015,-56.534591810910044,0.0,0.0,-1.1221916740198878,0.0,0.0,0.1575795594220608,0.0,70.0,8.999999999148432,255.00000000087115,2.9999999993976725
685,34.25,-1.5000000000000038,-6.000000000000015,-56.59050455710968,0.0,0.0,-1.1143110867186579,0.0,0.0,0.15790886003230753,0.0,70.0,9.0,255.0,3.0
686,34.300000000000004,-1.5000000000000038,-6.000000000000015,-56.64602291958191,0.0,0.0,-1.106400788016657,0.0,0.0,0.15876083129739982,0.0,70.0,9.000000001542745,254.99999999842174,3.0000000010912093
687,34.35,-1.5000000000000038,-6.000000000000015,-56.70114463591135,0.0,0.0,-1.0984350035889179,0.0,0.0,0.16000999556169404,0.0,70.0,9.000000003131788,254.99999999679613,3.0000000022151676
688,34.4,-1.5000000000000038,-6.000000000000015,-56.7558664199408,0.0,0.0,-1.0903997884604877,0.0,0.0,0.1614103312626014,0.0,70.0,9.000000003949461,254.99999999595968,3.0000000027935214
689,34.45,-1.5000000000000038,-6.000000000000015,-56.8101846147574,0.0,0.0,-1.0822939704626577,0.0,0.0,0.1627007378424139,0.0,70.0,9.000000003178089,254.99999999674878,3.000000002247917
690,34.5,-1.5000000000000038,-6.000000000000015,-56.86409581698707,0.0,0.0,-1.0741297146762463,0.0,0.0,0.16361160700242294,0.0,70.0,9.0,255.0,3.0
691,34.550000000000004,-1.5000000000000038,-6.000000000000015,-56.91759758622502,0.0,0.0,-1.0659328097624154,0.0,0.0,0.16400588642753178,0.0,70.0,8.9999999942424,255.0000000058901,2.999999995927551
692,34.6,-1.5000000000000038,-6.000000000000015,-56.97068909796331,0.0,0.0,-1.0577291260334931,0.0,0.0,0.1640164029801383,0.0,70.0,8.999999988312007,255.00000001195693,2.9999999917328823
693,34.65,-1.5000000000000038,-6.000000000000015,-57.02337049882837,0.0,0.0,-1.0495311694644016,0.0,0.0,0.16390686565728174,0.0,70.0,8.999999985260411,255.00000001507874,2.9999999895744374
694,34.7,-1.5000000000000038,-6.000000000000015,-57.07564221490975,0.0,0.0,-1.041338439467765,0.0,0.0,0.16393786216752915,0.0,70.0,8.999999988139212,255.0000000121337,2.9999999916106614
695,34.75,-1.5000000000000038,-6.000000000000015,-57.12750434277515,0.0,0.0,-1.0331373832476487,0.0,0.0,0.16437664669481933,0.0,70.0,9.0,255.0,3.0
696,34.800000000000004,-1.5000000000000038,-6.000000000000015,-57.178955953234514,0.0,0.0,-1.024900774798283,0.0,0.0,0.16535548313072468,0.0,70.0,9.000000021487656,254.99999997801794,3.0000000151985855
697,34.85,-1.5000000000000038,-6.000000000000015,-57.229994420254975,0.0,0.0,-1.0166018349345762,0.0,0.0,0.16671898458895384,0.0,70.0,9.000000043620187,254.99999995537615,3.000000030853304
698,34.9,-1.5000000000000038,-6.000000000000015,-57.28061613672797,0.0,0.0,-1.0082288763393876,0.0,0.0,0.16816761403433134,0.0,70.0,9.000000055008895,254.99999994372538,3.00000003890873
699,34.95,-1.5000000000000038,-6.000000000000015,-57.330817307888914,0.0,0.0,-0.9997850735311431,0.0,0.0,0.16940795335358416,0.0,70.0,9.000000044265066,254.99999995471643,3.000000031309437
700,35.0,-1.5000000000000038,-6.000000000000015,-57.380594644081086,0.0,0.0,-0.9912880810040292,0.0,0.0,0.1701498714865579,0.0,70.0,9.0,255.0,3.0
701,35.050000000000004,-1.5000000000000038,-6.000000000000015,-57.42994611598932,0.0,0.0,-0.9827700863824873,0.0,0.0,0.17025180807905826,0.0,70.0,8.99999991980698,255.0000000820382,2.999999943278107
702,35.1,-1.5000000000000038,-6.000000000000015,-57.478871652719334,0.0,0.0,-0.9742629001961234,0.0,0.0,0.16987483815285032,0.0,70.0,8.999999837207241,255.00000016653848,2.9999998848539016
703,35.15,-1.5000000000000038,-6.000000000000015,-57.52737240600893,0.0,0.0,-0.9657826025672023,0.0,0.0,0.1693363378890922,0.0,70.0,8.999999794704014,255.00000021001966,2.999999854790644
704,35.2,-1.5000000000000038,-6.000000000000015,-57.575449912976055,0.0,0.0,-0.9573292664072142,0.0,0.0,0.16895638502489874,0.0,70.0,8.999999834800523,255.00000016900057,2.9999998831515904
705,35.25,-1.5000000000000038,-6.000000000000015,-57.62310533264965,0.0,0.0,-0.9488869640647124,0.0,0.0,0.16905183937936386,0.0,70.0,9.0,255.0,3.0
706,35.300000000000004,-1.5000000000000038,-6.000000000000015,-57.670338609382526,0.0,0.0,-0.9404240824692778,0.0,0.0,0.16978385797230544,0.0,70.0,9.000000299284428,254.9999996938293,3.000000211688987
707,35.35,-1.5000000000000038,-6.000000000000015,-57.71714774089658,0.0,0.0,-0.9319085782674819,0.0,0.0,0.17101355091568848,0.0,70.0,9.00000060755085,254.9999993784699,3.0000004297310876
708,35.4,-1.5000000000000038,-6.000000000000015,-57.763529467209274,0.0,0.0,-0.9233227273777089,0.0,0.0,0.17245514630346293,0.0,70.0,9.000000766175052,254.9999992161959,3.0000005419286957
