idx,t,px,py,pz,vx,vy,vz,ax,ay,az,yaw,mode,ledr,ledg,ledb
0,0.0,-4.5,-4.5,0.0,0.00035993740499993924,0.000984898096746071,0.0017433339278714946,-0.02031924886002593,-0.012618777160936775,-0.04572000713445794,0,70,255.0,255.0,255.0
1,0.05,-4.50000784225342,-4.499966143668517,2.99600214033738e-05,-0.0006824287937011425,0.0003770531245038671,-0.0005460663931791129,-0.02137539908801734,-0.011695021728751375,-0.04585600570756635,0,70,255.0,255.0,255.0
2,0.1,-4.50006912300456,-4.499961524891356,-5.4719971462168286e-05,-0.0017776025038017944,-0.00018460407612906675,-0.002842266642885141,-0.022431549316008745,-0.010771266296565976,-0.045992004280674764,0,70,255.0,255.0,255.0
3,0.15000000000000002,-4.5001864826289895,-4.499983834279937,-0.0002543799750293973,-0.0029255837253020175,-0.0007000735051527308,-0.00514526682124659,-0.023487699544000155,-0.009847510864380576,-0.04612800285378317,0,70,255.0,255.0,255.0
4,0.2,-4.50036256150228,-4.500030762445678,-0.0005693599857310843,-0.0041263724582018095,-0.0011693551625671244,-0.007455066928263459,-0.02454384977199156,-0.008923755432195177,-0.046264001426891584,0,70,255.0,255.0,255.0
5,0.25,-4.5006,-4.5001,-0.001,-0.005379968702501173,-0.0015924490483722482,-0.009771666963935747,-0.025599999999982977,-0.008000000000009777,-0.04640000000000004,0,70,255.0,255.0,255.0
6,0.30000000000000004,-4.500901438497721,-4.500189237554322,-0.0015466400142689163,-0.006686372458200108,-0.0019693551625681025,-0.01209506692826346,-0.026656150227974382,-0.007076244567824377,-0.046535998573108424,0,70,255.0,255.0,255.0
7,0.35000000000000003,-4.501269517371011,-4.500296165720063,-0.0022096200249706035,-0.008045583725298613,-0.002300073505154686,-0.01442526682124659,-0.027712300455965785,-0.006152489135638977,-0.04667199714621681,0,70,255.0,255.0,255.0
8,0.4,-4.501706876995439,-4.500418475108644,-0.002989280028537832,-0.009457602503796686,-0.002584604076132,-0.01676226664288514,-0.028768450683957187,-0.005228733703453578,-0.0468079957193252,0,70,255.0,255.0,255.0
9,0.45,-4.50221615774658,-4.500553856331483,-0.0038859600214033742,-0.010922428793694332,-0.0028229468755000438,-0.019106066393179112,-0.029824600911948593,-0.004304978271268178,-0.04694399429243359,0,70,255.0,255.0,255.0
10,0.5,-4.5028,-4.5007,-0.0049,-0.012440062594991546,-0.0030151019032588176,-0.0214566660721285,-0.03088075113994003,-0.0033812228390827787,-0.04707999286554174,0,70,255.0,255.0,255.0
11,0.55,-4.503460003755699,-4.500855306114195,-0.00603139996432771,-0.013948081373490677,-0.003203632474235503,-0.023793665893767045,-0.029440000000025186,-0.004159999999984621,-0.0463999999999999,0,70,255.0,255.0,255.0
12,0.6000000000000001,-4.504193607511398,-4.501021012228391,-0.0072787999286554215,-0.015384062594994067,-0.00343110190325728,-0.026096666072128495,-0.02799924886011034,-0.004938777160886464,-0.04572000713445807,0,70,255.0,255.0,255.0
13,0.65,-4.5049972093892485,-4.501199065285489,-0.008640499910819275,-0.01674800625950171,-0.003697510190324149,-0.028365666607212847,-0.0265584977201955,-0.005717554321788304,-0.04504001426891623,0,70,255.0,255.0,255.0
14,0.7000000000000001,-4.505867207511399,-4.501391412228391,-0.01011479992865542,-0.018039912367013616,-0.004002857335436111,-0.03060066749902012,-0.02511774658028066,-0.006496331482690147,-0.0443600214033744,0,70,255.0,255.0,255.0
15,0.75,-4.5068,-4.5016,-0.0117,-0.01925978091752978,-0.004347143338593163,-0.032801668747550285,-0.02367699544036589,-0.007275108643591988,-0.043680028537832594,0,70,255.0,255.0,255.0
16,0.8,-4.507792946479483,-4.501826337988896,-0.013394960128420248,-0.020465302047839144,-0.004704114940487955,-0.03500226949666839,-0.02454384977200863,-0.0070037554321996515,-0.044344001426891655,0,70,255.0,255.0,255.0
17,0.8500000000000001,-4.508847252583394,-4.502070185366372,-0.015200780260407725,-0.021714165894730644,-0.005047518881813129,-0.037236068890239456,-0.02541070410365137,-0.006732402220807315,-0.045007974315950716,0,70,255.0,255.0,255.0
18,0.9,-4.509965085447564,-4.502330863749401,-0.017119120328185074,-0.02300637245820428,-0.005377355162568686,-0.03950306692826347,-0.026277558435294113,-0.006461049009414979,-0.04567194720500978,0,70,255.0,255.0,255.0
19,0.9500000000000001,-4.5111486122078235,-4.502607694754953,-0.019151640263974954,-0.024341921738260053,-0.005693623782754627,-0.041803263610740424,-0.027144412766936854,-0.006189695798022643,-0.04633592009406884,0,70,255.0,255.0,255.0
20,1.0,-4.5124,-4.5029,-0.0213,-0.025720813734897964,-0.00599632474237095,-0.044136658937670346,-0.028011267098579595,-0.005918342586630293,-0.046999892983127955,0,70,255.0,255.0,255.0
21,1.05,-4.513721010326374,-4.503207341930222,-0.023565559521991304,-0.02711871043516043,-0.0062999077638183,-0.04648525611955938,-0.027904600911918966,-0.006224978271263698,-0.04694399429243347,0,70,255.0,255.0,255.0
22,1.1,-4.515111782155028,-4.503530246306119,-0.025948479029713693,-0.028511273826089863,-0.006618822569497321,-0.0488310583669137,-0.027797934725258332,-0.006531613955897104,-0.046888095601738976,0,70,255.0,255.0,255.0
23,1.1500000000000001,-4.516572048820494,-4.503869479716908,-0.028448618776440435,-0.029898503907686266,-0.006953069159408011,-0.05117406567973329,-0.027691268538597703,-0.006838249640530509,-0.04683219691104449,0,70,255.0,255.0,255.0
24,1.2000000000000002,-4.518101543657308,-4.504225808751798,-0.031065839015444786,-0.03128040067994964,-0.007302647533550372,-0.05351427805801815,-0.02758460235193707,-0.007144885325163914,-0.046776298220349996,0,70,255.0,255.0,255.0
25,1.25,-4.5197,-4.5046,-0.0338,-0.03265696414287997,-0.007667557691924401,-0.05585169550176828,-0.027477936165276384,-0.007451521009797325,-0.04672039952965562,0,70,255.0,255.0,255.0
26,1.3,-4.521367012215024,-4.504992294290221,-0.03665080178361453,-0.03401985621151879,-0.008016254004236587,-0.05817670602509404,-0.0270377465802762,-0.0064963314826901545,-0.04628002140337458,0,70,255.0,255.0,255.0
27,1.35,-4.523101618796498,-4.505400829409151,-0.0396173036207375,-0.03536073880090759,-0.008317190840193417,-0.06047969764210574,-0.026597556995276016,-0.005541141955582984,-0.04583964327709354,0,70,255.0,255.0,255.0
28,1.4000000000000001,-4.524902719270461,-4.505823217382969,-0.04269840456605321,-0.03667961191104639,-0.008570368199794887,-0.0627606703528034,-0.02615736741027583,-0.004585952428475813,-0.0453992651508125,0,70,255.0,255.0,255.0
29,1.4500000000000002,-4.526769213162948,-4.506257070237858,-0.045893003674245945,-0.03797647554193517,-0.008775786083040998,-0.065019624157187,-0.025717177825275647,-0.003630762901368643,-0.04495888702453147,0,70,255.0,255.0,255.0
30,1.5,-4.5287,-4.5067,-0.0492,-0.03925132969357396,-0.008933444489931752,-0.06725655905525653,-0.025276988240275522,-0.002675573374261511,-0.044518508898250375,0,70,255.0,255.0,255.0
31,1.55,-4.530694140813531,-4.507150680908891,-0.05261843334355057,-0.0405138647187548,-0.009107076219238968,-0.06947991978006451,-0.02522441276695838,-0.004269695798027122,-0.04441592009406883,0,70,255.0,255.0,255.0
32,1.6,-4.5327513426589805,-4.507612036057277,-0.05614790648733631,-0.0417737709702698,-0.009360414069734464,-0.07169815106466342,-0.025171837293641242,-0.005863818221792733,-0.04431333128988728,0,70,255.0,255.0,255.0
33,1.6500000000000001,-4.534871474097664,-4.508088050751218,-0.05978816295934676,-0.04303104844811893,-0.00969345804141824,-0.07391125290905325,-0.0251192618203241,-0.0074579406455583435,-0.04421074248570574,0,70,255.0,255.0,255.0
34,1.7000000000000002,-4.537054403690899,-4.508582710296773,-0.0635389462875715,-0.044285697152302204,-0.0101062081342903,-0.07611922531323399,-0.025066686347006963,-0.009052063069323955,-0.04410815368152419,0,70,255.0,255.0,255.0
35,1.75,-4.5393,-4.5091,-0.0674,-0.045537717082819625,-0.010598664348350635,-0.07832206827720564,-0.0250141108736896,-0.01064618549308953,-0.04400556487734231,0,70,255.0,255.0,255.0
36,1.8,-4.541608424530849,-4.509642582074214,-0.07137146484218322,-0.046804684913460404,-0.011091441118806432,-0.08054361485464795,-0.025664602351941426,-0.009064885325142364,-0.044856298220349936,0,70,255.0,255.0,255.0
37,1.85,-4.5439810105675775,-4.51020782636174,-0.07545507042991731,-0.048104177318013766,-0.011505152880864873,-0.08280769809924064,-0.02631509383019325,-0.0074835851571952,-0.04570703156335756,0,70,255.0,255.0,255.0
38,1.9000000000000001,-4.546419384338882,-4.510791779612161,-0.0796529435965598,-0.04943619429647973,-0.011839799634525952,-0.08511431801098371,-0.026965585308445075,-0.005902284989248034,-0.046557764906365186,0,70,255.0,255.0,255.0
39,1.9500000000000002,-4.548925172073457,-4.511390488575054,-0.08396721117546821,-0.050800735848858275,-0.012095381379789678,-0.08746347458987716,-0.0276160767866969,-0.004320984821300869,-0.047408498249372814,0,70,255.0,255.0,255.0
40,2.0,-4.5515,-4.512,-0.0884,-0.05219780197514941,-0.012271898116656039,-0.08985516783592098,-0.028266568264948444,-0.002739684653353669,-0.048259231592380214,0,70,255.0,255.0,255.0
41,2.0500000000000003,-4.554144961063072,-4.512617390794253,-0.09295250728771662,-0.0535953956274049,-0.01243115930552495,-0.09223362080134379,-0.027637177825271194,-0.0036307629014027724,-0.04687888702453117,0,70,255.0,255.0,255.0
42,2.1,-4.556859015070707,-4.513243858495759,-0.09762221179299452,-0.05496151975767653,-0.012634974406796316,-0.09454305653837411,-0.02700778738559395,-0.004521841149451868,-0.04549854245668214,0,70,255.0,255.0,255.0
43,2.15,-4.559640588546807,-4.513881630800139,-0.10240566265441411,-0.05629617436596429,-0.012883343420470136,-0.09678347504701199,-0.026378396945916704,-0.005412919397500963,-0.044118197888833116,0,70,255.0,255.0,255.0
44,2.2,-4.562488108015271,-4.514532935403013,-0.10729940901055586,-0.057599359452268205,-0.013176266346546412,-0.09895487632725743,-0.025749006506239455,-0.006303997645550067,-0.04273785332098407,0,70,255.0,255.0,255.0
45,2.25,-4.5654,-4.5152,-0.1123,-0.05887107501658824,-0.013513743185025143,-0.10105726037911039,-0.02511961606656221,-0.00719507589359919,-0.041357508753135264,0,70,255.0,255.0,255.0
46,2.3000000000000003,-4.568374931216863,-4.515884654748775,-0.11740490600695046,-0.06012573257692705,-0.013871921659097909,-0.10314590193997689,-0.025066686346989876,-0.007132063069311378,-0.042188153681524204,0,70,255.0,255.0,255.0
47,2.35,-4.571412529149593,-4.516587139655223,-0.12261528239810468,-0.06137774365128723,-0.01422694949195628,-0.1052760757472628,-0.02501375662741754,-0.007069050245023567,-0.04301879860991314,0,70,255.0,255.0,255.0
48,2.4000000000000004,-4.574512661473892,-4.517307297187283,-0.1279332057857837,-0.0626271082396688,-0.014578826683600266,-0.10744778180096821,-0.0249608269078452,-0.007006037420735755,-0.04384944353830207,0,70,255.0,255.0,255.0
49,2.45,-4.57767519586546,-4.518044969812896,-0.13336075278230852,-0.06387382634207175,-0.014927553234029858,-0.10966102010109302,-0.024907897188272864,-0.006943024596447944,-0.044680088466691005,0,70,255.0,255.0,255.0
50,2.5,-4.5809,-4.5188,-0.1389,-0.06511789795849608,-0.015273129143245056,-0.11191579064763728,-0.024854967468700306,-0.006880011772160091,-0.04551073339507983,0,70,255.0,255.0,255.0
51,2.5500000000000003,-4.584187314069476,-4.519571990210648,-0.1445526686844817,-0.06638167406488113,-0.01560115405808147,-0.1141907714387486,-0.025696076786701143,-0.006240984821296357,-0.04548849824937318,0,70,255.0,255.0,255.0
52,2.6,-4.5875388683309195,-4.520359582883349,-0.15031905861458678,-0.06768750563716619,-0.015897227625374693,-0.1164646404725746,-0.026537186104701974,-0.00560195787043263,-0.04546626310366653,0,70,255.0,255.0,255.0
53,2.6500000000000004,-4.590956765557625,-4.521161180450726,-0.15619911420245108,-0.06903539267535132,-0.016161349845124733,-0.11873739774911528,-0.027378295422702807,-0.004962930919568896,-0.045444027957959876,0,70,255.0,255.0,255.0
54,2.7,-4.594443108522887,-4.521975185345402,-0.16219277986021022,-0.07042533517943649,-0.01639352071733158,-0.12100904326837059,-0.028219404740703637,-0.004323903968705168,-0.045421792812253226,0,70,255.0,255.0,255.0
55,2.75,-4.598,-4.5228,-0.1683,-0.07185733314942166,-0.01659374024199525,-0.12327957703034058,-0.029060514058704356,-0.003684877017841398,-0.04539955766654702,0,70,255.0,255.0,255.0
56,2.8000000000000003,-4.60162861250523,-4.523634584408634,-0.17452041925512293,-0.07327557116354558,-0.016795462108580145,-0.1255310123050289,-0.027669006506252095,-0.004383997645554537,-0.044657853320984146,0,70,255.0,255.0,255.0
57,2.85,-4.605326397526727,-4.524480128811382,-0.18085248314354826,-0.07462423380004687,-0.017032140006550706,-0.127745362362439,-0.026277498953799848,-0.005083118273267668,-0.04391614897542129,0,70,255.0,255.0,255.0
58,2.9000000000000004,-4.6090898762956085,-4.525338381009812,-0.1872943374044122,-0.07590332105892557,-0.017303773935906916,-0.129922627202571,-0.024885991401347587,-0.005782238900980807,-0.043174444629858415,0,70,255.0,255.0,255.0
59,2.95,-4.612915570042993,-4.526211088805495,-0.19384412777685076,-0.07711283294018165,-0.017610363896648783,-0.13206280682542484,-0.02349448384889534,-0.006481359528693938,-0.042432740284295556,0,70,255.0,255.0,255.0
60,3.0,-4.6168,-4.5271,-0.2005,-0.07825276944381511,-0.017951909888776305,-0.13416590123100056,-0.022102976296443422,-0.007180480156407099,-0.041691035938733245,0,70,255.0,255.0,255.0
61,3.0500000000000003,-4.620740635909598,-4.528006472154818,-0.20726085429502683,-0.07938004128093314,-0.01830499750759726,-0.13627717934113615,-0.022987897188277345,-0.006943024596430901,-0.042760088466690375,0,70,255.0,255.0,255.0
62,3.1,-4.62473874156217,-4.528930301871126,-0.21412860881122028,-0.08055155916264285,-0.018646212348419396,-0.1384419100776696,-0.02387281808011126,-0.006705569036454705,-0.0438291409946475,0,70,255.0,255.0,255.0
63,3.1500000000000004,-4.628796529259939,-4.529870895510026,-0.2211059361799004,-0.08176732308894426,-0.01897555441124273,-0.1406600934406009,-0.024757738971945182,-0.006468113476478508,-0.04489819352260463,0,70,255.0,255.0,255.0
64,3.2,-4.63291621130514,-4.530827659432617,-0.228195509032387,-0.08302733305983737,-0.019293023696067245,-0.14293172942993007,-0.025642659863779095,-0.006230657916502313,-0.04596724605056175,0,70,255.0,255.0,255.0
65,3.25,-4.6371,-4.5318,-0.2354,-0.08433158907532215,-0.019598620202892957,-0.14525681804565707,-0.02652758075561268,-0.005993202356526117,-0.047036298578518876,0,70,255.0,255.0,255.0
66,3.3000000000000003,-4.641349643856372,-4.532787526972095,-0.24272096356477008,-0.08565226371272974,-0.019904547861024482,-0.14756827033042638,-0.026299404740690813,-0.006243903968734789,-0.045421792812253815,0,70,255.0,255.0,255.0
67,3.35,-4.645665036224595,-4.533790663704113,-0.2501554816115708,-0.08696152954939124,-0.020223010599766438,-0.14979899732688245,-0.026071228725768947,-0.006494605580943458,-0.04380728704598877,0,70,255.0,255.0,255.0
68,3.4000000000000004,-4.650045606664631,-4.534810036950082,-0.2576995178759865,-0.08825938658530665,-0.02055400841911883,-0.1519489990350253,-0.02584305271084708,-0.00674530719315213,-0.042192781279723715,0,70,255.0,255.0,255.0
69,3.45,-4.654490784736446,-4.535846273464034,-0.26534903609360144,-0.08954583482047594,-0.02089754131908165,-0.15401827545485483,-0.025614876695925215,-0.0069960088053607995,-0.04057827551345867,0,70,255.0,255.0,255.0
70,3.5,-4.659,-4.5369,-0.2731,-0.09082087425489915,-0.021253609299654905,-0.15600682658637113,-0.02538670068100357,-0.007246710417569413,-0.03896376974719451,0,70,255.0,255.0,255.0
71,3.5500000000000003,-4.663572788664917,-4.5379714199568015,-0.2809496914458931,-0.09209090386814653,-0.021596811048311064,-0.1579937393371584,-0.025414483848891223,-0.006481359528676851,-0.04051274028429642,0,70,255.0,255.0,255.0
72,3.6,-4.668209113539454,-4.539059043312424,-0.28890066474249676,-0.09336232263978829,-0.02190174525252259,-0.16005810061480077,-0.025442267016778874,-0.005716008639784297,-0.04206171082139831,0,70,255.0,255.0,255.0
73,3.6500000000000004,-4.6729090440815355,-4.540160956689647,-0.29695679231615413,-0.09463513056982442,-0.022168411912289493,-0.16219991041929827,-0.025470050184666526,-0.004950657750891735,-0.04361068135850023,0,70,255.0,255.0,255.0
74,3.7,-4.677672649749077,-4.541275246711245,-0.3051219465932075,-0.09590932765825493,-0.022396811027611763,-0.1644191687506508,-0.025497833352554178,-0.00418530686199918,-0.04515965189560212,0,70,255.0,255.0,255.0
75,3.75,-4.6825,-4.5424,-0.3134,-0.09718491390507983,-0.022586942598489406,-0.16671587560885842,-0.025525616520441385,-0.003419955973106431,-0.04670862243270335,0,70,255.0,255.0,255.0
76,3.8000000000000003,-4.6873912014839645,-4.5435339932007,-0.321793870651658,-0.09846412081468577,-0.022780207945729308,-0.16903277232094002,-0.025642659863795724,-0.00431065791648969,-0.04596724605056037,0,70,255.0,255.0,255.0
77,3.85,-4.692346509617588,-4.544678763046193,-0.3303026594184423,-0.0997491798914594,-0.023018008390138376,-0.17131260021391448,-0.025759703207150063,-0.005201359859872941,-0.04522586966841739,0,70,255.0,255.0,255.0
78,3.9000000000000004,-4.697366217009231,-4.545836536291334,-0.3389245128593977,-0.10104009113540076,-0.023300343931716604,-0.17355535928778176,-0.025876746550504405,-0.0060920618032562004,-0.044484493286274414,0,70,255.0,255.0,255.0
79,3.95,-4.702450616267248,-4.5470095396909835,-0.34765757753356863,-0.10233685454650986,-0.023627214570463996,-0.17576104954254193,-0.025993789893858744,-0.006982763746639451,-0.043743116904131435,0,70,255.0,255.0,255.0
80,4.0,-4.7076,-4.5482,-0.3565,-0.10363947012478662,-0.023998620306380548,-0.1779296709781949,-0.02611083323721297,-0.007873465690022702,-0.04300174052198891,0,70,255.0,255.0,255.0
81,4.05,-4.712814405399228,-4.549409407240396,-0.36545002594747533,-0.10493261287311464,-0.02437035716876599,-0.18006717137908113,-0.025614876695908364,-0.006996008805394924,-0.04249827551346019,0,70,255.0,255.0,255.0
82,4.1000000000000005,-4.718092847990194,-4.550636304502806,-0.3745062975837344,-0.10620095779437748,-0.02469822118692004,-0.18217949852954093,-0.025118920154603746,-0.006118551920767131,-0.04199481050493147,0,70,255.0,255.0,255.0
83,4.15,-4.723434087881547,-4.551878498145018,-0.3836675562462557,-0.10744450488857504,-0.024982212360842703,-0.1842666524295743,-0.02462296361329914,-0.005241095036139353,-0.041491345496402765,0,70,255.0,255.0,255.0
84,4.2,-4.728836885181933,-4.55313379452482,-0.392932543272518,-0.10866325415570738,-0.025222330690533975,-0.1863286330791812,-0.02412700707199453,-0.004363638151511575,-0.04098788048787405,0,70,255.0,255.0,255.0
85,4.25,-4.7343,-4.5544,-0.4023,-0.10985720559577448,-0.02541857617599386,-0.18836544047836165,-0.02363105053068948,-0.003486181266883742,-0.040484415479345115,0,70,255.0,255.0,255.0
86,4.3,-4.739822376919128,-4.555675577837715,-0.41176922555844064,-0.11103742769285568,-0.025610363379215503,-0.1904105421627353,-0.02357783335255832,-0.004185306861982011,-0.04131965189560209,0,70,255.0,255.0,255.0
87,4.3500000000000005,-4.745403698421637,-4.556961618942584,-0.4213417502466205,-0.11221498893103032,-0.025837106862192066,-0.1924974056679219,-0.02352461617442716,-0.004884432457080291,-0.04215488831185908,0,70,255.0,255.0,255.0
88,4.4,-4.751043831464583,-4.558259871128597,-0.4310196621555798,-0.1133898893102984,-0.026098806624923535,-0.19462603099392126,-0.023471398996295998,-0.005583558052178561,-0.04299012472811606,0,70,255.0,255.0,255.0
89,4.45,-4.756742643005019,-4.559572082209739,-0.44080504937635945,-0.11456212883065992,-0.02639546266740992,-0.19679641814073348,-0.02341818181816484,-0.006282683647276829,-0.043825361144373035,0,70,255.0,255.0,255.0
90,4.5,-4.7625,-4.5609,-0.4507,-0.11573170749211488,-0.026727074989651215,-0.19900856710835854,-0.02336496464003346,-0.006981809242375098,-0.04466059756063001,0,70,255.0,255.0,255.0
91,4.55,-4.768316086924261,-4.562245081408745,-0.46070587181876177,-0.11691767635546228,-0.02707618931437615,-0.2012186599699776,-0.024073789893863103,-0.006982763746622406,-0.043743116904131664,0,70,255.0,255.0,255.0
92,4.6000000000000005,-4.774192358323258,-4.563607619726858,-0.4708211014297841,-0.1181390864815012,-0.02742535136431346,-0.2033828787987717,-0.02478261514769276,-0.006983718250869714,-0.0428256362476333,0,70,255.0,255.0,255.0
93,4.65,-4.780130586260124,-4.564987617340598,-0.4810433951314253,-0.11939593787023157,-0.027774561139463125,-0.20550122359474093,-0.02549144040152241,-0.006984672755117022,-0.041908155591134956,0,70,255.0,255.0,255.0
94,4.7,-4.786132542797993,-4.566385076636225,-0.49137045922204436,-0.12068823052165344,-0.02812381863982516,-0.2075736943578852,-0.026200265655352054,-0.00698562725936433,-0.040990674934636616,0,70,255.0,255.0,255.0
95,4.75,-4.7922,-4.5678,-0.5018,-0.12201596443576677,-0.02847312386539956,-0.2096002910882046,-0.02690909090918192,-0.006986581763611721,-0.04007319427813849,0,70,255.0,255.0,255.0
96,4.800000000000001,-4.798334075383826,-4.569232096527303,-0.5123304871665121,-0.12333986688529609,-0.028804879363277962,-0.2116268179573549,-0.02604700707199,-0.006283638151524142,-0.04098788048787273,0,70,255.0,255.0,255.0
97,4.8500000000000005,-4.804533268285332,-4.570679902149984,-0.5229634440342438,-0.1246206651429658,-0.029101487680551978,-0.2136990791369919,-0.0251849232347981,-0.005580694539436574,-0.041902566697606954,0,70,255.0,255.0,255.0
98,4.9,-4.810795423494925,-4.572141659509015,-0.5337011573187194,-0.1258583592087759,-0.029362948817221617,-0.21581707462711558,-0.024322839397606193,-0.004877750927349007,-0.04281725290734118,0,70,255.0,255.0,255.0
99,4.95,-4.817118385803012,-4.573615611245363,-0.5445459137354633,-0.12705294908272638,-0.02958926277328688,-0.217980804427726,-0.02346075556041429,-0.004174807315261439,-0.0437319391170754,0,70,255.0,255.0,255.0
100,5.0,-4.8235,-4.5751,-0.5555,-0.12820443476481733,-0.02978042954874776,-0.2201902685388231,-0.022598671723222052,-0.0034718637031740385,-0.04464662532680985,0,70,255.0,255.0,255.0
101,5.050000000000001,-4.829938811540434,-4.576593732482043,-0.5665649795151905,-0.129354856103352,-0.02997629323250915,-0.2224020682006027,-0.02341818181816452,-0.004362683647281364,-0.0438253611443732,0,70,255.0,255.0,255.0
102,5.1000000000000005,-4.836436168535415,-4.578098371673205,-0.5777395224332418,-0.13054625294663377,-0.030216697913475896,-0.22457280465326043,-0.02423769191310697,-0.005253503591388674,-0.04300409696193656,0,70,255.0,255.0,255.0
103,5.15,-4.842994119760177,-4.579616144623344,-0.5890215755936977,-0.1317786252946627,-0.030501643591648014,-0.22670247789679634,-0.025057202008049423,-0.006144323535495983,-0.04218283277949992,0,70,255.0,255.0,255.0
104,5.2,-4.84961471398996,-4.581149278382322,-0.6004090858361026,-0.13305197314743872,-0.030831130267025494,-0.22879108793121042,-0.025876712102991875,-0.007035143479603293,-0.041361568597063275,0,70,255.0,255.0,255.0
105,5.25,-4.8563,-4.5827,-0.6119,-0.13436629650496187,-0.031205157939608343,-0.23083863475650265,-0.02669622219793477,-0.007925963423710575,-0.04054030441462708,0,70,255.0,255.0,255.0
106,5.300000000000001,-4.863051478454436,-4.584269773544524,-0.6234927947727269,-0.13568870870129407,-0.031577947706685226,-0.23287690924023433,-0.026200265655352377,-0.0069856272593643055,-0.040990674934639114,0,70,255.0,255.0,255.0
107,5.3500000000000005,-4.869868457573012,-4.585857011157198,-0.6351880662327902,-0.13698632307049713,-0.03190372066554478,-0.2349377022499666,-0.02570430911276999,-0.006045291095018053,-0.04144104545465113,0,70,255.0,255.0,255.0
108,5.4,-4.876749697464367,-4.587459361997609,-0.6469869403064902,-0.13825913961257105,-0.03218247681618702,-0.23702101378569945,-0.025208352570187605,-0.0051049549306718,-0.04189141597466315,0,70,255.0,255.0,255.0
109,5.45,-4.883693958237149,-4.589074475225347,-0.6588905429201267,-0.1395071583275159,-0.03241421615861195,-0.23912684384743288,-0.02471239602760522,-0.004164618766325547,-0.042341786494675175,0,70,255.0,255.0,255.0
110,5.5,-4.8907,-4.5907,-0.6709,-0.14073037921533157,-0.03259893869281957,-0.24125519243516697,-0.024216439485021946,-0.003224282601979045,-0.04279215701468653,0,70,255.0,255.0,255.0
111,5.550000000000001,-4.897766474641821,-4.592334373339858,-0.6830158413939029,-0.1419223090914675,-0.032783915940750585,-0.24337029483846098,-0.02346075556041377,-0.0041748073152614446,-0.041811939117072934,0,70,255.0,255.0,255.0
112,5.6000000000000005,-4.904891601172543,-4.593979183698003,-0.6952362126355982,-0.14307645477137296,-0.033016419424345717,-0.24543638634687426,-0.02270507163580561,-0.005125332028543827,-0.04083172121945936,0,70,255.0,255.0,255.0
113,5.65,-4.912073490382354,-4.59563680738622,-0.7075586631803422,-0.14419281625504804,-0.03329644914360497,-0.2474534669604069,-0.02194938771119745,-0.006075856741826209,-0.03985150332184579,0,70,255.0,255.0,255.0
114,5.7,-4.919310253061444,-4.597309620716291,-0.7199807424833908,-0.1452713935424927,-0.03362400509852834,-0.24942153667905886,-0.021193703786589288,-0.007026381455108591,-0.03887128542423221,0,70,255.0,255.0,255.0
115,5.75,-4.9266,-4.599,-0.7325,-0.14631218663370693,-0.03399908728911583,-0.2513405955028301,-0.02043801986198046,-0.00797690616839114,-0.03789106752661864,0,70,255.0,255.0,255.0
116,5.800000000000001,-4.93394182297828,-4.600709533096047,-0.7451150396516627,-0.14737405493283148,-0.0343743885303157,-0.2532739114059221,-0.022036712103001066,-0.0070351434796033655,-0.039441568597061695,0,70,255.0,255.0,255.0
117,5.8500000000000005,-4.9413387377368165,-4.60243665405079,-0.7578286832248178,-0.14851585784400703,-0.034702601637076176,-0.2552847523625363,-0.023635404344021643,-0.006093380790815606,-0.040992069667504724,0,70,255.0,255.0,255.0
118,5.9,-4.948794741006215,-4.604179008457513,-0.7706448069721415,-0.14973759536723363,-0.03498372660939726,-0.25737311837267257,-0.02523409658504222,-0.005151618102027848,-0.042542570737947746,0,70,255.0,255.0,255.0
119,5.95,-4.956313829517074,-4.60593424190949,-0.7835672871463103,-0.15103926750251126,-0.035217763447278956,-0.25953900943633107,-0.026832788826062798,-0.00420985541324009,-0.044093071808390776,0,70,255.0,255.0,255.0
120,6.0,-4.9639,-4.6077,-0.7966,-0.1524208742498399,-0.03540471215072126,-0.2617824255535116,-0.028431481067083375,-0.003268092724452165,-0.04564357287883336,0,70,255.0,255.0,255.0
121,6.050000000000001,-4.971555833445059,-4.60947469427596,-0.8097455999994475,-0.15379747117720702,-0.03559052993799027,-0.2640300595378494,-0.026632396027600497,-0.004164618766308328,-0.044261786494677026,0,70,255.0,255.0,255.0
122,6.1000000000000005,-4.979278247880187,-4.611259800098835,-0.8230018544651316,-0.1550841138526,-0.03582117402735209,-0.2662086042029793,-0.024833310988117654,-0.005061144808164473,-0.04288000011052072,0,70,255.0,255.0,255.0
123,6.15,-4.987062745592786,-4.61305755878373,-0.836365308931092,-0.1562808022760188,-0.036096644418806716,-0.2683180595489014,-0.02303422594863481,-0.00595767085002062,-0.04149821372636441,0,70,255.0,255.0,255.0
124,6.2,-4.994904828870257,-4.61487021164575,-0.8498325089313682,-0.15738753644746345,-0.036416941112354155,-0.2703584255756158,-0.021235140909151965,-0.006854196891876766,-0.0401164273422081,0,70,255.0,255.0,255.0
125,6.25,-5.0028,-4.6167,-0.8634,-0.15840431636693397,-0.036782064107994394,-0.2723297022831223,-0.019436055869668678,-0.007750722933732801,-0.038734640958053124,0,70,255.0,255.0,255.0
126,6.300000000000001,-5.010745243241482,-4.6185484898001175,-0.8770649603505482,-0.15942006035834042,-0.03715149171771586,-0.27426985044267954,-0.02119370378658874,-0.007026381455125719,-0.0388712854242347,0,70,255.0,255.0,255.0
127,6.3500000000000005,-5.0187434707424305,-4.6204145455538725,-0.8908270989146565,-0.16052368674559286,-0.037484702253506974,-0.2762168308255458,-0.022951351703508767,-0.006302039976518651,-0.039007929890416286,0,70,255.0,255.0,255.0
128,6.4,-5.026799076622639,-4.62229635640757,-0.904686757303491,-0.1617151955286913,-0.03778169571536773,-0.27817064343172115,-0.024708999620428797,-0.0055776984979115825,-0.039144574356597864,0,70,255.0,255.0,255.0
129,6.45,-5.034916455001897,-4.624192111507511,-0.9186442771282171,-0.16299458670763572,-0.03804247210329813,-0.2801312882612056,-0.026466647537348828,-0.004853357019304514,-0.03928121882277944,0,70,255.0,255.0,255.0
130,6.5,-5.0431,-4.6261,-0.9327,-0.1643618602824262,-0.03826703141729817,-0.28209876531399913,-0.02822429545426819,-0.004129015540697278,-0.03941786328896146,0,70,255.0,255.0,255.0
131,6.550000000000001,-5.05135279358901,-4.628018546523571,-0.9468545585983611,-0.1657382873894345,-0.0384755031911466,-0.2840905386914329,-0.02683278882606246,-0.004209855413239983,-0.040253071808388274,0,70,255.0,255.0,255.0
132,6.6000000000000005,-5.059672669150086,-4.6299476176856755,-0.9611097498762429,-0.16704513916503244,-0.038688016958622166,-0.286124072494838,-0.025441282197856758,-0.004290695285782687,-0.04108828032781507,0,70,255.0,255.0,255.0
133,6.65,-5.068056147916657,-4.631887415585994,-0.9754676618549444,-0.16828241560922017,-0.03890457271972487,-0.28819936672421437,-0.024049775569651058,-0.004371535158325391,-0.04192348884724187,0,70,255.0,255.0,255.0
134,6.7,-5.076499751122152,-4.633838142324207,-0.9899303825557638,-0.16945011672199753,-0.039125170474454705,-0.2903164213795622,-0.022658268941445354,-0.004452375030868094,-0.042758697366668666,0,70,255.0,255.0,255.0
135,6.75,-5.085,-4.6358,-1.0045,-0.17054824250336467,-0.03934981022281168,-0.2924752364608812,-0.021266762313238763,-0.004533214903410909,-0.04359390588609413,0,70,255.0,255.0,255.0
136,6.800000000000001,-5.093553982402475,-4.6377733241055985,-1.0191776052560084,-0.17161079008392444,-0.039586495517693984,-0.2946159947915888,-0.021235140909151573,-0.004934196891881276,-0.04203642734220832,0,70,255.0,255.0,255.0
137,6.8500000000000005,-5.102161052657222,-4.639758983703426,-1.0339603015803724,-0.17267175659427986,-0.03984322991199981,-0.29667887919510205,-0.021203519505064383,-0.0053351788803516365,-0.04047894879832253,0,70,255.0,255.0,255.0
138,6.9,-5.110821131710733,-4.641757981248455,-1.0488441952767322,-0.17373114203443088,-0.04012001340572915,-0.29866388967142105,-0.021171898100977193,-0.005736160868821996,-0.03892147025443674,0,70,255.0,255.0,255.0
139,6.95,-5.1195341405094945,-4.643771319195657,-1.063825392648728,-0.17478894640437756,-0.040416845998882005,-0.3005710262205457,-0.021140276696890004,-0.006137142857292356,-0.03736399171055095,0,70,255.0,255.0,255.0
140,7.0,-5.1283,-4.6458,-1.0789,-0.17584516970411984,-0.04073372769145839,-0.30240028884247616,-0.021108655292801703,-0.006538124845762661,-0.03580651316666561,0,70,255.0,255.0,255.0
141,7.050000000000001,-5.137119276801092,-4.647844957054035,-1.0940654203776057,-0.1769385522748734,-0.04106651473808495,-0.30422948214221235,-0.02262664753734047,-0.006773357019299867,-0.0373612188227803,0,70,255.0,255.0,255.0
142,7.1000000000000005,-5.145995120221024,-4.64990684750062,-1.109324243802268,-0.17810783445785391,-0.04141106339338838,-0.3061364107247542,-0.024144639781879213,-0.007008589192837069,-0.038915924478894956,0,70,255.0,255.0,255.0
143,7.15,-5.154931325240414,-4.651986259420187,-1.1246803570381276,-0.17935301625306133,-0.041767373657368656,-0.3081210745901018,-0.025662632026417952,-0.007243821366374272,-0.04047063013500961,0,70,255.0,255.0,255.0
144,7.2,-5.163931686839868,-4.654083780893168,-1.140137646849325,-0.1806740976604957,-0.04213544553002581,-0.31018347373825517,-0.027180624270956695,-0.007479053539911474,-0.04202533579112427,0,70,255.0,255.0,255.0
145,7.25,-5.173,-4.6562,-1.1557,-0.18207107868015696,-0.042515279011359805,-0.3123236081692143,-0.028698616515494324,-0.0077142857134487874,-0.043580041447237594,0,70,255.0,255.0,255.0
146,7.300000000000001,-5.182138510393163,-4.658334847678259,-1.1713703132335695,-0.18345100081658022,-0.0428674455299672,-0.314482076639562,-0.026498268941435935,-0.006372375030846648,-0.042758697366669096,0,70,255.0,255.0,255.0
147,7.3500000000000005,-5.191343266458681,-4.660485626294095,-1.187147523210556,-0.18472090557430057,-0.043152516514444475,-0.3165994779058812,-0.024297921367377583,-0.0050304643482445306,-0.04193735328610061,0,70,255.0,255.0,255.0
148,7.4,-5.200608767327616,-4.662648981070801,-1.2030295765707573,-0.18588079295331797,-0.043370491964791646,-0.318675811968172,-0.022097573793319232,-0.003688553665642415,-0.04111600920553213,0,70,255.0,255.0,255.0
149,7.45,-5.209929512131033,-4.664821557231672,-1.2190144199539725,-0.1869306629536325,-0.043521371881008714,-0.3207110788264344,-0.01989722621926088,-0.002346642983040299,-0.040294665124963644,0,70,255.0,255.0,255.0
150,7.5,-5.2193,-4.667,-1.2351,-0.18787051557524406,-0.043605156263095676,-0.3227052784806684,-0.01769687864520253,-0.0010047323004379605,-0.03947332104439427,0,70,255.0,255.0,255.0
151,7.550000000000001,-5.228716281626257,-4.669182052232928,-1.2512845266881167,-0.1887934444587969,-0.04368770314203958,-0.32467421129954194,-0.019220276696911197,-0.0022971428573182757,-0.039283991710546834,0,70,255.0,255.0,255.0
152,7.6000000000000005,-5.238180613944255,-4.671369847323001,-1.2675672633555095,-0.1897925432449352,-0.0438348705488275,-0.3266336776517231,-0.02074367474861984,-0.003589553414198568,-0.0390946623766994,0,70,255.0,255.0,255.0
153,7.65,-5.247696805449127,-4.673566616296609,-1.283947736678844,-0.1908678119336589,-0.04404665848345944,-0.32858367753721185,-0.02226707280032848,-0.00488196397107886,-0.03890533304285197,0,70,255.0,255.0,255.0
154,7.7,-5.2572686646359985,-4.6757755901801445,-1.3004254733347858,-0.19201925052496802,-0.04432306694593539,-0.33052421095600826,-0.023790470852037122,-0.006174374527959152,-0.03871600370900454,0,70,255.0,255.0,255.0
155,7.75,-5.2669,-4.678,-1.317,-0.19324685901886263,-0.04466409593625535,-0.3324552779081123,-0.025313868903745984,-0.0074667850848393336,-0.03852667437515711,0,70,255.0,255.0,255.0
156,7.800000000000001,-5.27659396310181,-4.680242543390025,-1.3336707800139649,-0.19451122134823032,-0.04503774190187413,-0.33437307816226935,-0.02526062427096054,-0.007479053539911518,-0.03818533579112459,0,70,255.0,255.0,255.0
157,7.8500000000000005,-5.286351077764296,-4.6825037844139,-1.350437023367407,-0.19577292144595868,-0.04541200129024651,-0.3362738114872248,-0.025207379638175098,-0.007491321994983702,-0.03784399720709208,0,70,255.0,255.0,255.0
158,7.9,-5.296171210875877,-4.684783753742763,-1.3672978767138673,-0.1970319593120478,-0.0457868741013725,-0.33815747788297856,-0.025154135005389655,-0.007503590450055886,-0.03750265862305957,0,70,255.0,255.0,255.0
159,7.95,-5.306054229324973,-4.68708248204775,-1.3842524867068848,-0.19828833494649767,-0.04616236033525209,-0.3400240773495307,-0.025100890372604212,-0.00751585890512807,-0.03716132003902706,0,70,255.0,255.0,255.0
160,8.0,-5.316,-4.6894,-1.4013,-0.19954204834930822,-0.0465384599918853,-0.3418736098868812,-0.02504764573981877,-0.007528127360200143,-0.03681998145499232,0,70,255.0,255.0,255.0
161,8.05,-5.326007865966506,-4.691735774206971,-1.4184403532560255,-0.200761670148285,-0.04688132925046609,-0.34375347605138024,-0.023737226219251877,-0.006186642983031224,-0.038374665124967164,0,70,255.0,255.0,255.0
162,8.1,-5.33607507499856,-4.694087015021399,-1.4356766431748629,-0.2019157709712334,-0.047157124290188424,-0.3457110763993779,-0.02242680669868503,-0.004845158605862352,-0.039929348794941956,0,70,255.0,255.0,255.0
163,8.15,-5.346198351047363,-4.696450368732341,-1.4530127564656883,-0.20300435081815352,-0.04736584511105232,-0.3477464109308744,-0.021116387178118135,-0.003503674228693433,-0.0414840324649168,0,70,255.0,255.0,255.0
164,8.200000000000001,-5.35637441806411,-4.698822481628857,-1.470452579837676,-0.20402740968904526,-0.04750749171305777,-0.3498594796458696,-0.019805967657551243,-0.0021621898515245142,-0.043038716134891644,0,70,255.0,255.0,255.0
165,8.25,-5.3666,-4.7012,-1.488,-0.20498494758390864,-0.047582064096204774,-0.35205028254436355,-0.018495548136985063,-0.000820705474355532,-0.04459339980486643,0,70,255.0,255.0,255.0
166,8.3,-5.376872973032165,-4.703580759782092,-1.5056574069619344,-0.205946098058634,-0.04766094109626244,-0.35422901763221026,-0.01995047085202939,-0.002334374527950999,-0.04255600370900027,0,70,255.0,255.0,255.0
167,8.35,-5.387195822241459,-4.705967355500505,-1.5234212039331412,-0.20697999466911157,-0.04781550154899987,-0.3563058829152636,-0.02140539356707366,-0.0038480435815464124,-0.04051860761313419,0,70,255.0,255.0,255.0
168,8.4,-5.397572184934672,-4.708363571327871,-1.541286297423381,-0.2080866374153414,-0.04804574545441708,-0.3582808783935236,-0.022860316282117987,-0.0053617126351418794,-0.03848121151726803,0,70,255.0,255.0,255.0
169,8.450000000000001,-5.40800569841859,-4.710773191436823,-1.559247593942414,-0.2092660262973234,-0.04835167281251407,-0.36015400406699044,-0.02431523899716231,-0.0068753816887373465,-0.03644381542140187,0,70,255.0,255.0,255.0
170,8.5,-5.4185,-4.7132,-1.5773,-0.2105181613150576,-0.04873328362329081,-0.3619252599356639,-0.02577016171220614,-0.008389050742332649,-0.03440641932553534,0,70,255.0,255.0,255.0
171,8.55,-5.429057841904835,-4.71564678666466,-1.5954396188962374,-0.21178993761717788,-0.049130906364477755,-0.36366645341977805,-0.025100890372603893,-0.007515858905145044,-0.035241320039029946,0,70,255.0,255.0,255.0
172,8.6,-5.4396784360356,-4.718112362976583,-1.6136673410925721,-0.21302825035231798,-0.04948486951380531,-0.3654493919395668,-0.024431619033001666,-0.00664266706795747,-0.03607622075252452,0,70,255.0,255.0,255.0
173,8.65,-5.450360109213951,-4.7205945459561764,-1.6319852538407886,-0.21423309952047803,-0.049795173071273506,-0.3672740754950305,-0.023762347693399417,-0.0057694752307698655,-0.03691112146601912,0,70,255.0,255.0,255.0
174,8.700000000000001,-5.461101188261533,-4.723091152623846,-1.6503954443926705,-0.21540448512165794,-0.05006181703688231,-0.36914050408616883,-0.02309307635379717,-0.00489628339358226,-0.03774602217951372,0,70,255.0,255.0,255.0
175,8.75,-5.4719,-4.7256,-1.6689,-0.2165424071558577,-0.05028480141063172,-0.3710486777129819,-0.02242380501419472,-0.00402309155639452,-0.038580922893006964,0,70,255.0,255.0,255.0
176,8.8,-5.482754859348495,-4.728119293559267,-1.6875009174531164,-0.2176461514726517,-0.05048743344582959,-0.37299316868867927,-0.021725967657564373,-0.004082189851520013,-0.03919871613488707,0,70,255.0,255.0,255.0
177,8.85,-5.493664033616135,-4.730648792593162,-1.7061998316965694,-0.21871500392161417,-0.05069302039578372,-0.37496854932647056,-0.02102813030093405,-0.004141288146645505,-0.039816509376767145,0,70,255.0,255.0,255.0
178,8.9,-5.504625778209526,-4.7331886448474245,-1.724998287213465,-0.2197489645027451,-0.05090156226049414,-0.376974819626356,-0.0203302929443037,-0.004200386441770999,-0.04043430261864725,0,70,255.0,255.0,255.0
179,8.950000000000001,-5.515638348535279,-4.735738998067791,-1.743897828486907,-0.22074803321604453,-0.05111305903996082,-0.3790119795883354,-0.019632455587673354,-0.004259484736896492,-0.041052095860527354,0,70,255.0,255.0,255.0
180,9.0,-5.5267,-4.7383,-1.7629,-0.22171221006151245,-0.05132751073418379,-0.38108002921240863,-0.01893461823104281,-0.004318583032022039,-0.04166988910240432,0,70,255.0,255.0,255.0
181,9.05,-5.537809920701184,-4.740872039098273,-1.7820055112912982,-0.22269745649221737,-0.05155935985220246,-0.38312887182550376,-0.020475238997153845,-0.004955381688724723,-0.04028381542140085,0,70,255.0,255.0,255.0
182,9.1,-5.54897102949986,-4.743456466650767,-1.8012117321211492,-0.2237597339612278,-0.05182304890305626,-0.3851084107545487,-0.02201585976326482,-0.005592180345427384,-0.03889774174039743,0,70,255.0,255.0,255.0
183,9.15,-5.560187177947944,-4.746054874654125,-1.8205151973053522,-0.22489904246854386,-0.052118577886745204,-0.3870186459995435,-0.023556480529375857,-0.006228979002130069,-0.03751166805939395,0,70,255.0,255.0,255.0
184,9.200000000000001,-5.571462217597354,-4.748668855104989,-1.8399124416597032,-0.22611538201416545,-0.05244594680326928,-0.38885957756048817,-0.02509710129548689,-0.006865777658832752,-0.03612559437839048,0,70,255.0,255.0,255.0
185,9.25,-5.5828,-4.7513,-1.8594,-0.2274087525980925,-0.052805155652628465,-0.3906312054373825,-0.026637722061596314,-0.007502576315535248,-0.03473952069738484,0,70,255.0,255.0,255.0
186,9.3,-5.59420305784677,-4.753949350047641,-1.878975437381692,-0.22870002255847724,-0.05316312714535715,-0.3923953440093051,-0.02501307635379202,-0.006816283393611756,-0.03582602217951793,0,70,255.0,255.0,255.0
187,9.35,-5.605668648384424,-4.756615740803767,-1.8986404398188321,-0.2299100602334717,-0.05348678399198964,-0.3942138076553343,-0.02338843064598778,-0.006129990471688289,-0.03691252366165098,0,70,255.0,255.0,255.0
188,9.4,-5.617192709998694,-4.759297456536072,-1.9183977235651268,-0.231038865623076,-0.05377612619252597,-0.39608659637547017,-0.021763784938183484,-0.005443697549764799,-0.03799902514378407,0,70,255.0,255.0,255.0
189,9.450000000000001,-5.628771181075309,-4.761992781512252,-1.9382500048742815,-0.23208643872729007,-0.054031153746966126,-0.3980137101697127,-0.02013913923037919,-0.0047574046278413065,-0.039085526625917154,0,70,255.0,255.0,255.0
190,9.5,-5.6404,-4.7647,-1.9582,-0.23305277954611392,-0.054251866655310094,-0.3999951490380618,-0.018514493522573616,-0.004071111705917341,-0.0401720281080471,0,70,255.0,255.0,255.0
191,9.55,-5.652076247911735,-4.767417760711162,-1.9782495391819352,-0.23400645327387054,-0.054460131566380014,-0.40197775213727616,-0.01963245558769026,-0.004259484736879362,-0.03913209586052549,0,70,255.0,255.0,255.0
192,9.600000000000001,-5.663801576962442,-4.770146170134164,-1.998396908603522,-0.23501602510488298,-0.05467781512899803,-0.4039083586241144,-0.020750417652806906,-0.004447857767841385,-0.03809216361300389,0,70,255.0,255.0,255.0
193,9.65,-5.675578782057278,-4.772885699201587,-2.01863950843414,-0.2360814950391512,-0.054904917343164154,-0.40578696849857654,-0.021868379717923513,-0.004636230798803399,-0.037052231365482316,0,70,255.0,255.0,255.0
194,9.700000000000001,-5.6874106581014106,-4.7756368188460065,-2.0389747388431734,-0.23720286307667532,-0.055141438208878374,-0.40761358176066265,-0.022986341783040154,-0.004824603829765421,-0.03601229911796071,0,70,255.0,255.0,255.0
195,9.75,-5.6993,-4.7784,-2.0594,-0.2383801292174552,-0.05538737772614069,-0.40938819841037255,-0.02410430384815654,-0.005012976860727547,-0.0349723668704387,0,70,255.0,255.0,255.0
196,9.8,-5.711248750506285,-4.781175607107716,-2.0799136058905687,-0.23956216434604596,-0.055636346589128964,-0.4111656474415932,-0.02317710129547382,-0.004945777658803151,-0.03612559437838582,0,70,255.0,255.0,255.0
197,9.850000000000001,-5.723255443765812,-4.783963578659578,-2.100517525767083,-0.24069783934700262,-0.05588195549202101,-0.4130007578482112,-0.022249898742791104,-0.004878578456878755,-0.03727882188633295,0,70,255.0,255.0,255.0
198,9.9,-5.735317761772192,-4.786763746657583,-2.1212146426983134,-0.24178715422032507,-0.05612420443481684,-0.41489352963022647,-0.021322696190108417,-0.004811379254954362,-0.03843204939428003,0,70,255.0,255.0,255.0
199,9.950000000000001,-5.74743338651905,-4.789575943103725,-2.1420078397530293,-0.24283010896601345,-0.05636309341751645,-0.41684396278763913,-0.020395493637425703,-0.004744180053029966,-0.03958527690222716,0,70,255.0,255.0,255.0
200,10.0,-5.7596,-4.7924,-2.1629,-0.24382670358406763,-0.05659862244011983,-0.4188520573204492,-0.019468291084743017,-0.00467698085110535,-0.04073850441017379,0,70,255.0,255.0,255.0
201,10.05,-5.771815950063119,-4.795235810857977,-2.183892837255792,-0.24481688934194568,-0.05683448207709435,-0.4208476580963515,-0.020139139230378744,-0.004757404627875085,-0.039085526625915246,0,70,255.0,255.0,255.0
202,10.100000000000001,-5.7840822479743155,-4.798083515227523,-2.2049833883281487,-0.24584061750710554,-0.05707436290290734,-0.4227606099830408,-0.020809987376014468,-0.004837828404644819,-0.0374325488416567,0,70,255.0,255.0,255.0
203,10.15,-5.796400570853952,-4.800943314168081,-2.2261675207726093,-0.24689788807954713,-0.05731826491755883,-0.4245909129805171,-0.02148083552165017,-0.0049182521814145515,-0.03577957105739821,0,70,255.0,255.0,255.0
204,10.200000000000001,-5.808772595822392,-4.8038154087390925,-2.2474411021447134,-0.24798870105927054,-0.0575661881210488,-0.4263385670887806,-0.022151683667285895,-0.004998675958184286,-0.03412659327313966,0,70,255.0,255.0,255.0
205,10.25,-5.8212,-4.8067,-2.2688,-0.2491130564462757,-0.05781813251337725,-0.4280035723078311,-0.022822531812921154,-0.005079099734954018,-0.03247361548888028,0,70,255.0,255.0,255.0
206,10.3,-5.833684249241235,-4.809597149460377,-2.2902414450862647,-0.25025827828617475,-0.05806572510249525,-0.42966772017300214,-0.022986341783039734,-0.004824603829765502,-0.03409229911796026,0,70,255.0,255.0,255.0
207,10.350000000000001,-5.846225964336926,-4.812506360430329,-2.3117681209203256,-0.2514116906245797,-0.05830059289635381,-0.43141280221962713,-0.023150151753158314,-0.0045701079245769865,-0.03571098274704023,0,70,255.0,255.0,255.0
208,10.4,-5.858825554812001,-4.815426996670092,-2.3333840742112524,-0.25257329346149054,-0.05852273589495294,-0.4332388184477062,-0.02331396172327689,-0.00431561201938848,-0.03732966637612015,0,70,255.0,255.0,255.0
209,10.450000000000001,-5.871483430191384,-4.818358421939903,-2.35509335166812,-0.2537430867969074,-0.058732154098292653,-0.43514576885723916,-0.02347777169339547,-0.004061116114199964,-0.03894835000520013,0,70,255.0,255.0,255.0
210,10.5,-5.8842,-4.8213,-2.3769,-0.25492107063083014,-0.058928847506372936,-0.4371336534482262,-0.02364158166351249,-0.0038066202090113466,-0.040567033634283156,0,70,255.0,255.0,255.0
211,10.55,-5.896975052971944,-4.824251591300514,-2.398806982399149,-0.25606999751335346,-0.059142617512923545,-0.439137461211639,-0.022315493637420563,-0.004744180053012794,-0.03958527690222836,0,70,255.0,255.0,255.0
212,10.600000000000001,-5.909805894677981,-4.8272150430511624,-2.4208129279905544,-0.25715261999457223,-0.05940326551167422,-0.4410921811384491,-0.020989405611328633,-0.005681739897014242,-0.03860352017017356,0,70,255.0,255.0,255.0
213,10.65,-5.922689209898045,-4.830192699151552,-2.442915382382384,-0.2581689380744864,-0.05971079150262496,-0.4429978132286564,-0.01966331758523675,-0.006619299741015656,-0.0376217634381188,0,70,255.0,255.0,255.0
214,10.700000000000001,-5.935621683412074,-4.833186903501295,-2.46511189118281,-0.2591189517530959,-0.06006519548577578,-0.44485435748226093,-0.018337229559144824,-0.007556859585017103,-0.036640006706064,0,70,255.0,255.0,255.0
215,10.75,-5.9486,-4.8362,-2.4874,-0.2600026610304008,-0.06046647746112666,-0.44666181389926274,-0.017011141533052054,-0.008494419429018352,-0.03565824997400657,0,70,255.0,255.0,255.0
216,10.8,-5.961621938870992,-4.839233285337563,-2.5097778253171388,-0.26088573166040946,-0.060851804845807045,-0.44845443498044146,-0.018311683667294628,-0.006918675958196829,-0.036046593273141705,0,70,255.0,255.0,255.0
217,10.850000000000001,-5.974689656951154,-4.842283867365022,-2.5322457671174607,-0.2618338293971303,-0.06115834505694635,-0.450266473226577,-0.0196122258015372,-0.005342932487375307,-0.036434936572276845,0,70,255.0,255.0,255.0
218,10.9,-5.987806405595818,-4.845347806723699,-2.5548047962592126,-0.2628469542405632,-0.06138609809454458,-0.4520979286376691,-0.02091276793577973,-0.0037671890165538397,-0.036823279871411964,0,70,255.0,255.0,255.0
219,10.950000000000001,-6.000975436160322,-4.848421164054917,-2.5774558836006434,-0.26392510619070825,-0.061535063958601734,-0.45394880121371817,-0.0222133100700223,-0.002191445545732317,-0.0372116231705471,0,70,255.0,255.0,255.0
220,11.0,-6.0142,-4.8515,-2.6002,-0.2650682852475654,-0.06160524264911781,-0.45581909095472384,-0.02351385220426483,-0.00061570207491074,-0.03759996646967956,0,70,255.0,255.0,255.0
221,11.05,-6.027482791544088,-4.854581667349232,-2.623037716332297,-0.26624307584500695,-0.06167416310384569,-0.4576847988665958,-0.023477771693395155,-0.0021411161142044105,-0.03702835000519701,0,70,255.0,255.0,255.0
222,11.100000000000001,-6.040824277517408,-4.857668687488751,-2.6459680035396067,-0.26741606241690496,-0.06181935426053826,-0.4595219259552436,-0.02344169118252548,-0.003666530153498081,-0.036456733540714464,0,70,255.0,255.0,255.0
223,11.15,-6.054224367718685,-4.860764873953652,-2.6689894325807675,-0.2685872449632595,-0.06204081611919549,-0.4613304722206672,-0.023405610671655808,-0.005191944192791697,-0.03588511707623194,0,70,255.0,255.0,255.0
224,11.200000000000001,-6.067682971946642,-4.863874040279036,-2.6921005744146194,-0.26975662348407053,-0.062338548679817425,-0.46311043766286675,-0.023369530160786134,-0.006717358232085368,-0.03531350061174939,0,70,255.0,255.0,255.0
225,11.25,-6.0812,-4.867,-2.7153,-0.2709241979793381,-0.06271255194240402,-0.46486182228184214,-0.023333449649915572,-0.008242772271378485,-0.034741884147267754,0,70,255.0,255.0,255.0
226,11.3,-6.094774894952659,-4.870145645265508,-2.738586509353676,-0.2720619649595648,-0.0631075427388139,-0.46659836955317535,-0.022177229559152228,-0.00755685958501683,-0.03472000670605979,0,70,255.0,255.0,255.0
227,11.350000000000001,-6.108405232979214,-4.873310182679976,-2.761959818724117,-0.27314192093525336,-0.06346823790090572,-0.46833382295244813,-0.021021009468388883,-0.006870946898655176,-0.03469812926485183,0,70,255.0,255.0,255.0
228,11.4,-6.122088123529442,-4.876491897461691,-2.7854198734177196,-0.2741640659064037,-0.06379463742867943,-0.47006818247966053,-0.019864789377625584,-0.006185034212293545,-0.03467625182364387,0,70,255.0,255.0,255.0
229,11.450000000000001,-6.135820676053112,-4.8796890748289385,-2.8089666187408824,-0.2751283998730159,-0.06408674132213507,-0.47180144813481256,-0.01870856928686224,-0.00549912152593189,-0.034654374382435904,0,70,255.0,255.0,255.0
230,11.5,-6.1496,-4.8829,-2.8326,-0.2760349228350899,-0.06434454958127261,-0.47353361991790416,-0.017552349196098938,-0.004813208839570038,-0.0346324969412275,0,70,255.0,255.0,255.0
231,11.55,-6.163424028645281,-4.8861229515887405,-2.8563202462530013,-0.2769330643167423,-0.06456766594090463,-0.4752817229206988,-0.018373310069997307,-0.00411144554571078,-0.035291623170558416,0,70,255.0,255.0,255.0
232,11.600000000000001,-6.177293990565737,-4.889356181791346,-2.880128721563928,-0.2778722538420897,-0.0647556941358437,-0.47706278223496007,-0.019194270943895676,-0.0034096822518515225,-0.035950749399889334,0,70,255.0,255.0,255.0
233,11.65,-6.191211938163552,-4.89259793619958,-2.9040270737483547,-0.2788524914111319,-0.06490863416608979,-0.4788767978606877,-0.020015231817794014,-0.00270791895799229,-0.03660987562922023,0,70,255.0,255.0,255.0
234,11.700000000000001,-6.205179923840911,-4.89584646040521,-2.9280169506218545,-0.27987377702386906,-0.06502648603164292,-0.48072376979788206,-0.020836192691692387,-0.002006155664133032,-0.03726900185855114,0,70,255.0,255.0,255.0
235,11.75,-6.2192,-4.8991,-2.9521,-0.2809361106803011,-0.06510924973250308,-0.4826036980465429,-0.021657153565592502,-0.0013043923702736882,-0.03792812808788071,0,70,255.0,255.0,255.0
236,11.8,-6.233273790466219,-4.90235774837953,-2.9762773056343224,-0.2820137777734607,-0.06521379349756228,-0.4844827387640335,-0.021449530160790962,-0.0028773582320941408,-0.03723350061174457,0,70,255.0,255.0,255.0
237,11.850000000000001,-6.247401204757842,-4.905622690154641,-3.0005476950201744,-0.28308106369638025,-0.0653969855557125,-0.48632704810771743,-0.021241906755989422,-0.004450324093914593,-0.03653887313560842,0,70,255.0,255.0,255.0
238,11.9,-6.261581723816354,-4.908898757739987,-3.024909431588864,-0.28413796844905964,-0.06565882590695374,-0.4881366260775944,-0.021034283351187885,-0.00602328995573499,-0.0358442456594723,0,70,255.0,255.0,255.0
239,11.950000000000001,-6.275814828583244,-4.912189883550222,-3.049360778771703,-0.28518449203149904,-0.065999314551286,-0.48991147267366464,-0.020826659946386345,-0.007596255817555442,-0.03514961818333616,0,70,255.0,255.0,255.0
240,12.0,-6.2901,-4.9155,-3.0739,-0.2862206344436983,-0.06641845148870927,-0.491651587895928,-0.02061903654158659,-0.00916922167937606,-0.03445499070720004,0,70,255.0,255.0,255.0
241,12.05,-6.3044368094898395,-4.918831654893137,-3.0985257312097123,-0.2872518245894103,-0.0668331600688423,-0.4933793220231687,-0.020628569286892252,-0.0074191215259444806,-0.03465437438242774,0,70,255.0,255.0,255.0
242,12.100000000000001,-6.318825190402896,-4.92218185759009,-3.12323809835538,-0.28828349137238757,-0.06716036364130373,-0.49511702533417085,-0.020638102032197913,-0.0056690213725129005,-0.034853758057655435,0,70,255.0,255.0,255.0
243,12.15,-6.3332651665710324,-4.925546232840473,-3.148037599896192,-0.28931563479263006,-0.06740006220609357,-0.4968646978289342,-0.020647634777503577,-0.003918921219081382,-0.03505314173288312,0,70,255.0,255.0,255.0
244,12.200000000000001,-6.347756761826113,-4.928920405393905,-3.1729247342913363,-0.2903482548501379,-0.06755225576321186,-0.49862233950745916,-0.020657167522809237,-0.002168821065649802,-0.035252525408110816,0,70,255.0,255.0,255.0
245,12.25,-6.3623,-4.9323,-3.1979,-0.291381351544911,-0.06761694431265856,-0.5003899503697453,-0.020666700268114457,-0.00041872091221784036,-0.035451909083338506,0,70,255.0,255.0,255.0
246,12.3,-6.3768949715744245,-4.935682032047919,-3.2229637695268316,-0.2924189238689058,-0.06767756622706733,-0.5021599731432927,-0.020836192691675227,-0.0020061556641327366,-0.035349001858555336,0,70,255.0,255.0,255.0
247,12.350000000000001,-6.391542033630578,-4.939069079485,-3.2481159115583096,-0.2934649708140786,-0.06781755987907183,-0.503924850555601,-0.021005685115236,-0.0035935904160476323,-0.03524609463377217,0,70,255.0,255.0,255.0
248,12.4,-6.406241609899518,-4.94246511089812,-3.273356168826371,-0.29451949238042935,-0.0680369252686721,-0.5056845826066699,-0.021175177538796764,-0.005181025167962472,-0.03514318740898901,0,70,255.0,255.0,255.0
249,12.450000000000001,-6.4209941241123065,-4.94587409487416,-3.298684284062956,-0.29558248856795827,-0.0683356623958681,-0.5074391692964998,-0.021344669962357534,-0.006768459919877368,-0.03504028018420584,0,70,255.0,255.0,255.0
250,12.5,-6.4358,-4.9493,-3.3241,-0.2966539593766651,-0.06871377126065983,-0.5091886106250904,-0.02151416238591919,-0.008355894671792097,-0.03493737295942356,0,70,255.0,255.0,255.0
251,12.55,-6.450659304212467,-4.952745816915184,-3.349603190682964,-0.29771247993497235,-0.06911257502289352,-0.5109407854036594,-0.02082665994637044,-0.007596255817555464,-0.03514961818333706,0,70,255.0,255.0,255.0
252,12.600000000000001,-6.465570675074799,-4.956210624469911,-3.3751942554113867,-0.2987366253713022,-0.0694733968424154,-0.5127035724434241,-0.020139157506821694,-0.006836616963318832,-0.03536186340725057,0,70,255.0,255.0,255.0
253,12.65,-6.480532393830898,-4.959692523567046,-3.4008737247983265,-0.29972639568565457,-0.06979623671922541,-0.5144769717443844,-0.019451655067272974,-0.006076978109082226,-0.03557410863116406,0,70,255.0,255.0,255.0
254,12.700000000000001,-6.495542741724664,-4.963189615109455,-3.426642129456845,-0.3006817908780295,-0.07008109465332361,-0.5162609833065405,-0.018764152627724226,-0.005317339254845593,-0.035786353855077564,0,70,255.0,255.0,255.0
255,12.75,-6.5106,-4.9667,-3.4525,-0.3016028109484269,-0.07032797064470997,-0.5180556071298923,-0.01807665018817417,-0.004557700400608766,-0.03599859907898839,0,70,255.0,255.0,255.0
256,12.8,-6.525703011575714,-4.970221900291348,-3.478447467741314,-0.3025231563912016,-0.0705441336813659,-0.5198368852420697,-0.018737167522813368,-0.0040888210656280614,-0.035252525408109026,0,70,255.0,255.0,255.0
257,12.850000000000001,-6.5408528660702325,-4.973754022635357,-3.504483066796149,-0.30347652770070827,-0.07073685275127278,-0.5215808596707032,-0.019397684857452566,-0.0036199417306473558,-0.03450645173722966,0,70,255.0,255.0,255.0
258,12.9,-6.556051214776896,-4.977295194833695,-3.5306049319803257,-0.30446292487694687,-0.07090612785443062,-0.5232875304157928,-0.02005820219209174,-0.0031510623956666674,-0.03376037806635032,0,70,255.0,255.0,255.0
259,12.950000000000001,-6.57129970898904,-4.980844244688021,-3.556811198109669,-0.30548234791991746,-0.07105195899083945,-0.5249568974773382,-0.020718719526730937,-0.0026821830606859618,-0.033014304395470956,0,70,255.0,255.0,255.0
260,13.0,-6.5866,-4.9844,-3.5831,-0.3065347968296199,-0.07117434616049921,-0.5265889608553397,-0.02137923686137011,-0.0022133037257049404,-0.032268230724592506,0,70,255.0,255.0,255.0
261,13.05,-6.601953449484683,-4.98796178191943,-3.609470138351781,-0.3076028945002136,-0.071302890251639,-0.5282236736280598,-0.021344669962375207,-0.002928459919886294,-0.03312028018421157,0,70,255.0,255.0,255.0
262,13.100000000000001,-6.617360260644273,-4.991530884988659,-3.635923077404023,-0.30866926382585747,-0.07146719215248784,-0.5299009888737608,-0.0213101030633803,-0.0036436161140676474,-0.03397232964383064,0,70,255.0,255.0,255.0
263,13.15,-6.63282034706152,-4.995109097098174,-3.6624609472803735,-0.30973390480655155,-0.07166725186304576,-0.5316209065924429,-0.0212755361643854,-0.004358772308248975,-0.03482437910344967,0,70,255.0,255.0,255.0
264,13.200000000000001,-6.6483336223191785,-4.998698206138459,-3.6890858781044837,-0.31079681744229604,-0.07190306938331274,-0.5333834267841058,-0.021240969265390496,-0.005073928502430329,-0.035676428563068734,0,70,255.0,255.0,255.0
265,13.25,-6.6639,-5.0023,-3.7158,-0.31185800173309064,-0.07217464471328879,-0.5351885494487498,-0.021206402366394705,-0.005789084696610991,-0.036528478022690436,0,70,255.0,255.0,255.0
266,13.3,-6.679519190485555,-5.005915772030935,-3.7426047788515633,-0.31290526560794346,-0.07245230531207562,-0.5369964202456938,-0.020684152627718604,-0.005317339254862368,-0.03578635385506884,0,70,255.0,255.0,255.0
267,13.350000000000001,-6.695190091352679,-5.009544837410006,-3.7694990235877643,-0.31392641699586255,-0.07270637863877502,-0.5387671848342567,-0.0201619028890425,-0.004845593813113744,-0.03504422968744725,0,70,255.0,255.0,255.0
268,13.4,-6.710911396977026,-5.013186016773611,-3.796480878898182,-0.3149214558968478,-0.072936864693387,-0.5405008432144386,-0.019639653150366417,-0.004373848371365138,-0.03430210551982568,0,70,255.0,255.0,255.0
269,13.450000000000001,-6.726681801734248,-5.016838130758143,-3.8235484894724014,-0.31589038231089916,-0.07314376347591155,-0.5421973953862392,-0.019117403411690315,-0.003902102929616514,-0.03355998135220409,0,70,255.0,255.0,255.0
270,13.5,-6.7425,-5.0205,-3.8507,-0.3168331962380167,-0.07332707498634863,-0.543856841349659,-0.0185951536730129,-0.0034303574878673526,-0.032817857184580745,0,70,255.0,255.0,255.0
271,13.55,-6.758364988573097,-5.024171129956833,-3.877933946241968,-0.31776804306801043,-0.07352788850006194,-0.5455026453891603,-0.01879871952673531,-0.0046021830606642385,-0.033014304395469554,0,70,255.0,255.0,255.0
272,13.600000000000001,-6.774276973945013,-5.027853765371317,-3.905250428244926,-0.3187130681906903,-0.07378729329241507,-0.547158271789206,-0.01900228538045772,-0.005774008633461125,-0.03321075160635836,0,70,255.0,255.0,255.0
273,13.65,-6.790236465030378,-5.031550835807385,-3.932649937126898,-0.3196682716060562,-0.07410528936340803,-0.5488237205497961,-0.01920585123418013,-0.00694583420625797,-0.033407198817247165,0,70,255.0,255.0,255.0
274,13.700000000000001,-6.806243970743829,-5.035265270828969,-3.960132964005914,-0.32063365331410826,-0.07448187671304086,-0.5504989916709306,-0.01940941708790254,-0.008117659779054856,-0.033603646028135974,0,70,255.0,255.0,255.0
275,13.75,-6.8223,-5.039,-3.9877,-0.3216092133148464,-0.07491705534131352,-0.5521840851526097,-0.019612982941622725,-0.009289485351851257,-0.033800093239029216,0,70,255.0,255.0,255.0
276,13.8,-6.838404855222055,-5.042756508141734,-4.0153514361805644,-0.32258256212002134,-0.07532414068767086,-0.5538729981976628,-0.019320969265377203,-0.006993928502442527,-0.033756428563093445,0,70,255.0,255.0,255.0
277,13.850000000000001,-6.8545580128672725,-5.0465305011047255,-4.043087263432537,-0.3235413102413841,-0.07561644819155779,-0.5555597280089191,-0.01902895558913168,-0.004698371653033796,-0.03371276388715767,0,70,255.0,255.0,255.0
278,13.9,-6.8707587429014625,-5.050316239996849,-4.070907372594226,-0.32448545767893455,-0.07579397785297426,-0.5572442745863786,-0.018736941912886173,-0.002402814803625148,-0.033669099211221895,0,70,255.0,255.0,255.0
279,13.950000000000001,-6.887006315290436,-5.054107985925982,-4.098811654503945,-0.32541500443267274,-0.0758567296719203,-0.5589266379300413,-0.01844492823664065,-0.00010725795421641718,-0.033625434535286124,0,70,255.0,255.0,255.0
280,14.0,-6.9033,-5.0579,-4.1268,-0.32632995050259855,-0.07580470364839588,-0.5606068180399072,-0.01815291456039292,0.002188298895192342,-0.03358176985935213,0,70,255.0,255.0,255.0
281,14.05,-6.919639590538686,-5.061688437476228,-4.154872309035775,-0.3272617084519006,-0.0757515487492567,-0.5622853618201954,-0.01911740341168936,-6.210292962532818e-05,-0.03355998135217764,0,70,255.0,255.0,255.0
282,14.100000000000001,-6.936026974585899,-5.06547703020978,-4.183028518024931,-0.32824169084376753,-0.07581091394135842,-0.563962816175125,-0.020081892262985807,-0.0023125047544429985,-0.033538192845003145,0,70,255.0,255.0,255.0
283,14.15,-6.952464563363771,-5.069271404205217,-4.2112685724961985,-0.3292698976781992,-0.07598279922470101,-0.5656391811046958,-0.021046381114282215,-0.0045629065792605885,-0.033516404337828654,0,70,255.0,255.0,255.0
284,14.200000000000001,-6.968954768094428,-5.0730771854671035,-4.2395924179783115,-0.3303463289551958,-0.07626720459928447,-0.5673144566089078,-0.02201086996557866,-0.006813308404078259,-0.03349461583065416,0,70,255.0,255.0,255.0
285,14.25,-6.9855,-5.0769,-4.268,-0.33147098467475705,-0.07666413006510882,-0.5689886426877612,-0.02297535881687507,-0.009063710228895627,-0.03347282732347967,0,70,255.0,255.0,255.0
286,14.3,-7.0021015826232045,-5.080744141953354,-4.296491327676337,-0.3325786040723768,-0.07709366431530715,-0.5706655545215517,-0.02132941708791438,-0.00811765977903752,-0.03360364602813792,0,70,255.0,255.0,255.0
287,14.350000000000001,-7.018756488789131,-5.084608578056156,-4.325066664467743,-0.3336039263835485,-0.07747589604301258,-0.5723490072905749,-0.019683475358953692,-0.0071716093291794136,-0.033734464732796184,0,70,255.0,255.0,255.0
288,14.4,-7.035460603643452,-5.088490943182282,-4.35372633742098,-0.33454695160827214,-0.0778108252482251,-0.5740390009948312,-0.018037533629993063,-0.0062255588793213405,-0.03386528343745443,0,70,255.0,255.0,255.0
289,14.450000000000001,-7.052209812331851,-5.092388872205603,-4.382470673582813,-0.33540767974654784,-0.07809845193094471,-0.5757355356343204,-0.016391591901032374,-0.005279508429463233,-0.03399610214211268,0,70,255.0,255.0,255.0
290,14.5,-7.069,-5.0963,-4.4113,-0.33618611079837535,-0.07833877609117142,-0.5774386112090424,-0.014745650172072189,-0.004333457979604716,-0.03412692084676827,0,70,255.0,255.0,255.0
291,14.55,-7.085828478968494,-5.100222194710356,-4.440214380258881,-0.33696787525859284,-0.07854579398951672,-0.5791324200935944,-0.016524928236627393,-0.003947257954207267,-0.033625434535311874,0,70,255.0,255.0,255.0
292,14.600000000000001,-7.10269827025758,-5.1041542575655985,-4.4692128241041,-0.3378386036220381,-0.07873350188659214,-0.5808011546625736,-0.018304206301182596,-0.003561057928809819,-0.033123948223855476,0,70,255.0,255.0,255.0
293,14.65,-7.119613822062418,-5.108095223065661,-4.498294077819878,-0.3387982958887111,-0.07890189978239771,-0.58244481491598,-0.020083484365737737,-0.0031748579034123845,-0.0326224619123991,0,70,255.0,255.0,255.0
294,14.700000000000001,-7.136579582578171,-5.112044125710483,-4.527456887690439,-0.3398469520586119,-0.07905098767693339,-0.5840634008538136,-0.02186276243029294,-0.002788657878014936,-0.0321209756009427,0,70,255.0,255.0,255.0
295,14.75,-7.1536,-5.116,-4.5567,-0.3409845721317404,-0.07918076557019918,-0.5856569124760742,-0.023642040494847194,-0.00240245785261739,-0.0316194892894881,0,70,255.0,255.0,255.0
296,14.8,-7.170678101502818,-5.119962279205223,-4.5860223512881415,-0.34212589489325107,-0.07931515972661722,-0.5872367651040775,-0.022010869965578172,-0.002973308404104244,-0.031574615830642826,0,70,255.0,255.0,255.0
297,14.850000000000001,-7.187811230180551,-5.123931991681454,-4.61542363911586,-0.3431856591282982,-0.07947809641060961,-0.5888143740591385,-0.02037969943630915,-0.0035441589555910975,-0.03152974237179755,0,70,255.0,255.0,255.0
298,14.9,-7.2049953081068745,-5.1279105645550755,-4.644903751299506,-0.34416386483688194,-0.07966957562217632,-0.5903897393412573,-0.018748528907040186,-0.004115009507077931,-0.03148486891295228,0,70,255.0,255.0,255.0
299,14.950000000000001,-7.222226257355464,-5.131899424952465,-4.674462575655436,-0.34506051201900223,-0.0798895973613174,-0.5919628609504337,-0.01711735837777116,-0.004685860058564785,-0.03143999545410701,0,70,255.0,255.0,255.0
300,15.0,-7.2395,-5.1359,-4.7041,-0.345875600674659,-0.08013816162803282,-0.593533738886668,-0.015486187848501753,-0.005256710610051507,-0.031395121995260844,0,70,255.0,255.0,255.0
301,15.05,-7.256813515020232,-5.139913488468756,-4.733816214588556,-0.3466725451683978,-0.08040156710402069,-0.595120519490102,-0.016391591901049652,-0.005279508429462987,-0.032076102142097274,0,70,255.0,255.0,255.0
302,15.100000000000001,-7.274168009020217,-5.143940175708585,-4.763612619432467,-0.347514759864764,-0.08066611247097913,-0.5967413491008778,-0.017296995953597554,-0.005302306248874468,-0.0327570822889337,0,70,255.0,255.0,255.0
303,15.15,-7.291565745510085,-5.147980118714036,-4.793490916982099,-0.34840224476375753,-0.08093179772890813,-0.5983962277189955,-0.01820240000614542,-0.005325104068285946,-0.033438062435770105,0,70,255.0,255.0,255.0
304,15.200000000000001,-7.309008987999969,-5.152033374479658,-4.823452809687822,-0.3493349998653785,-0.08119862287780771,-0.6000851553444547,-0.01910780405869332,-0.005347901887697426,-0.034119042582606535,0,70,255.0,255.0,255.0
305,15.25,-7.3265,-5.1561,-4.8535,-0.35031302516962687,-0.08146658791767789,-0.601808131977256,-0.0200132081112403,-0.005370699707109017,-0.03480002272944471,0,70,255.0,255.0,255.0
306,15.3,-7.344040638416254,-5.160179766919756,-4.883633590357639,-0.3513119244331649,-0.08171857185730502,-0.6035291569355156,-0.019942762430279704,-0.004708657877976243,-0.03404097560093983,0,70,255.0,255.0,255.0
307,15.350000000000001,-7.361631133738583,-5.164271305484207,-4.913852283154279,-0.35230730141265487,-0.08193745370547552,-0.6052122295373501,-0.019872316749319104,-0.004046616048843469,-0.03328192847243494,0,70,255.0,255.0,255.0
308,15.4,-7.379271309852785,-5.168372960588779,-4.9441541807721,-0.35329915610809676,-0.08212323346218936,-0.6068573497827592,-0.019801871068358512,-0.0033845742197107184,-0.03252288134393008,0,70,255.0,255.0,255.0
309,15.450000000000001,-7.396960990644659,-5.172483077128901,-4.974537385593281,-0.3542874885194907,-0.08227591112744657,-0.608464517671743,-0.019731425387397916,-0.0027225323905779443,-0.031763834215425196,0,70,255.0,255.0,255.0
310,15.5,-7.4147,-5.1766,-5.005,-0.35527229864683657,-0.08239548670124715,-0.6100337332043015,-0.01966097970643732,-0.002060490561444639,-0.031004787086917673,0,70,255.0,255.0,255.0
311,15.55,-7.432487931314754,-5.180722643852221,-5.035540623980894,-0.3562397570989417,-0.08251614546674835,-0.6115948527678277,-0.019037358377766447,-0.002765860058603208,-0.031439995454123355,0,70,255.0,255.0,255.0
312,15.600000000000001,-7.450323456025454,-5.184852202354589,-5.066159847950423,-0.35717603448461327,-0.08267207270710747,-0.6131777327497139,-0.018413737049095574,-0.003471229555761777,-0.03187520382132904,0,70,255.0,255.0,255.0
313,15.65,-7.468205015078776,-5.188990438930846,-5.096858759929503,-0.35808113080385123,-0.08286326842232453,-0.6147823731499604,-0.017790115720424722,-0.0041765990529203205,-0.0323104121885347,0,70,255.0,255.0,255.0
314,15.700000000000001,-7.486131049421398,-5.193139117004735,-5.127638447939058,-0.3589550460566557,-0.0830897326123995,-0.6164087739685674,-0.01716649439175385,-0.004881968550078889,-0.03274562055574038,0,70,255.0,255.0,255.0
315,15.75,-7.5041,-5.1973,-5.1585,-0.35979778024302667,-0.0833514652773324,-0.6180569352055345,-0.01654287306308344,-0.0055873380472374334,-0.03318082892294427,0,70,255.0,255.0,255.0
316,15.8,-7.522110836324729,-5.20147445767136,-5.189443913718789,-0.3606410471710712,-0.08362484627570578,-0.6196914319931734,-0.01718780405869734,-0.005347901887697645,-0.03219904258261151,0,70,255.0,255.0,255.0
317,15.850000000000001,-7.540164642159604,-5.205662285097438,-5.220468325044036,-0.3615165606488964,-0.08388625546610218,-0.6212768394637957,-0.01783273505431124,-0.005108465728157856,-0.03121725624227875,0,70,255.0,255.0,255.0
318,15.9,-7.558263029832115,-5.209862883687837,-5.251570779509885,-0.3624243206765023,-0.08413569284852157,-0.6228131576174013,-0.018477666049925116,-0.004869029568618076,-0.030235469901946026,0,70,255.0,255.0,255.0
319,15.950000000000001,-7.576407611669751,-5.214075654852158,-5.2827488226504915,-0.3633643272538889,-0.08437315842296399,-0.6243003864539903,-0.019122597045539015,-0.004629593409078286,-0.029253683561613265,0,70,255.0,255.0,255.0
320,16.0,-7.5946,-5.2183,-5.314,-0.3643365803810562,-0.0845986521894294,-0.6257385259735627,-0.019767528041152005,-0.004390157249538285,-0.028271897221277875,0,70,255.0,255.0,255.0
321,16.05,-7.612841523386332,-5.222535525462343,-5.345322921143953,-0.36532405421676994,-0.08482446943043176,-0.62719141925948,-0.019731425387397472,-0.004642532390556057,-0.029843834215409815,0,70,255.0,255.0,255.0
322,16.1,-7.631132375336133,-5.226782657255661,-5.376720451873445,-0.366309722919796,-0.085062905428485,-0.6287229093951038,-0.01969532273364294,-0.00489490753157383,-0.031415771209541754,0,70,255.0,255.0,255.0
323,16.150000000000002,-7.649472465592767,-5.231042026317809,-5.40819652203096,-0.3672935864901343,-0.08531396018358915,-0.6303329963804342,-0.019659220079888406,-0.005147282672591602,-0.032987708203673693,0,70,255.0,255.0,255.0
324,16.2,-7.6678617038996,-5.235314263586638,-5.439755061458982,-0.36827564492778475,-0.08557763369574416,-0.632021680215471,-0.019623117426133874,-0.0053996578136093565,-0.03455964519780552,0,70,255.0,255.0,255.0
325,16.25,-7.6863,-5.2396,-5.4714,-0.3692558982327476,-0.08585392596495006,-0.6337889609002146,-0.019587014772378453,-0.0056520329546265735,-0.03613158219193746,0,70,255.0,255.0,255.0
326,16.3,-7.704787070129944,-5.2438994404792725,-5.503134001705402,-0.3702227359618513,-0.0861172760025677,-0.6355588909689065,-0.019086494391766698,-0.004881968550078753,-0.0346656205557357,0,70,255.0,255.0,255.0
327,16.35,-7.723321856495869,-5.24821108587992,-5.534954667462196,-0.3711645476719243,-0.08634212281995794,-0.6372555229557882,-0.018585974011154947,-0.0041119041455309315,-0.03319965891953394,0,70,255.0,255.0,255.0
328,16.400000000000002,-7.741903107796821,-5.252533011040931,-5.566858332366286,-0.3720813333629668,-0.08652846641712081,-0.6388788568608599,-0.018085453630543192,-0.0033418397409831105,-0.031733697283332175,0,70,255.0,255.0,255.0
329,16.45,-7.760529572731848,-5.256863290801295,-5.598841331513583,-0.3729730930349786,-0.08667630679405625,-0.6404288926841214,-0.017584933249931475,-0.0025717753364353445,-0.03026773564713052,0,70,255.0,255.0,255.0
330,16.5,-7.7792,-5.2612,-5.6309,-0.37383982668795995,-0.08678564395076434,-0.6419056304255728,-0.01708441286931839,-0.0018017109318878566,-0.02880177401092965,0,70,255.0,255.0,255.0
331,16.55,-7.797913396093892,-5.265541912620568,-5.663031472034438,-0.3746970019358306,-0.08689842655928903,-0.6433570168648868,-0.017202597045508396,-0.002709593409099921,-0.0292536835616307,0,70,255.0,255.0,255.0
332,16.6,-7.8166697986803975,-5.269890599224659,-5.695236078277781,-0.3755600863925108,-0.08705660329167433,-0.6448309987817359,-0.017320781221698403,-0.0036174758863119862,-0.029705593112331754,0,70,255.0,255.0,255.0
333,16.650000000000002,-7.835469503219957,-5.274248329518468,-5.727514948503906,-0.37642908005800046,-0.08726017414792024,-0.64632757617612,-0.01743896539788841,-0.004525358363524051,-0.030157502663032805,0,70,255.0,255.0,255.0
334,16.7,-7.85431280517301,-5.278617373208181,-5.759869212486684,-0.37730398293229966,-0.08750913912802673,-0.6478467490480392,-0.01755714957407841,-0.005433240840736051,-0.03060941221373383,0,70,255.0,255.0,255.0
335,16.75,-7.8732,-5.283,-5.7923,-0.3781847950154083,-0.08780349823199385,-0.6493885173974934,-0.017675333750266642,-0.006341123317948449,-0.031061321764431327,0,70,255.0,255.0,255.0
336,16.8,-7.892131345494491,-5.287397709038454,-5.8248081101568445,-0.37906925629481886,-0.0880970177602828,-0.6509330415715491,-0.017703117426154602,-0.005399657813609058,-0.030719645197795836,0,70,255.0,255.0,255.0
337,16.85,-7.911106948782545,-5.291808917221442,-5.857393019426684,-0.37995510675802374,-0.08834346401335476,-0.652460481917273,-0.017730901102042562,-0.004458192309269666,-0.030377968631160348,0,70,255.0,255.0,255.0
338,16.900000000000002,-7.930126879323357,-5.296231270885203,-5.8900538736181005,-0.3808423464050231,-0.08854283699120977,-0.6539708384346652,-0.017758684777930522,-0.0035167268049302743,-0.030036292064524857,0,70,255.0,255.0,255.0
339,16.95,-7.949191206576111,-5.300662416365976,-5.922789818539677,-0.38173097523581684,-0.08869513669384778,-0.6554641111237254,-0.017786468453818483,-0.00257526130059095,-0.029694615497889394,0,70,255.0,255.0,255.0
340,17.0,-7.9683,-5.3051,-5.9556,-0.3826209932504049,-0.08880036312126885,-0.656940299984454,-0.017814252129706,-0.0016337957962515581,-0.029352938931253902,0,70,255.0,255.0,255.0
341,17.05,-7.987453221928149,-5.309542451225616,-5.988484087338185,-0.3835059728848963,-0.08890550239958517,-0.6584308168489137,-0.017584933249948694,-0.002571775336401374,-0.030267735647131047,0,70,255.0,255.0,255.0
342,17.1,-8.006650406189424,-5.313991331889576,-6.021443844015488,-0.3843794865753998,-0.08905754065490899,-0.6599670735491672,-0.01735561437019139,-0.0035097548765511896,-0.031182532363008192,0,70,255.0,255.0,255.0
343,17.150000000000002,-8.025890979486624,-5.318448986940725,-6.054481557023699,-0.3852415343219154,-0.0892564778872403,-0.6615490700852146,-0.017126295490434085,-0.004447734416701005,-0.03209732907888534,0,70,255.0,255.0,255.0
344,17.2,-8.045174368522549,-5.322917761327916,-6.087599513354605,-0.38609211612444316,-0.08950231409657909,-0.6631768064570556,-0.0168969766106768,-0.005385713956850755,-0.03301212579476241,0,70,255.0,255.0,255.0
345,17.25,-8.0645,-5.3274,-6.1208,-0.3869312319829831,-0.08979504928292537,-0.6648502826646907,-0.016667657730919938,-0.006323693497000793,-0.03392692251063778,0,70,255.0,255.0,255.0
346,17.3,-8.083867766792915,-5.331897286059077,-6.154084340490416,-0.38778685216560677,-0.09008897264136922,-0.6665116910328003,-0.017557149574026557,-0.005433240840753394,-0.03252941221374426,0,70,255.0,255.0,255.0
347,17.35,-8.103279426459762,-5.336408155220258,-6.187450004511367,-0.3886869469403858,-0.09033837336700071,-0.6681032238860652,-0.01844664141713317,-0.004542788184505994,-0.031131901916850738,0,70,255.0,255.0,255.0
348,17.400000000000002,-8.122737202730157,-5.340930381351897,-6.2208934982871105,-0.3896315163073202,-0.09054325145981983,-0.6696248812244854,-0.01933613326023979,-0.0036523355282585945,-0.02973439161995722,0,70,255.0,255.0,255.0
349,17.45,-8.142243319333698,-5.345461738322358,-6.2544113280419005,-0.39062056026640973,-0.09070360691982657,-0.6710766630480608,-0.020225625103346342,-0.002761882872011258,-0.0283368813230638,0,70,255.0,255.0,255.0
350,17.5,-8.1618,-5.35,-6.288,-0.39165407881765474,-0.09081943974702095,-0.6724585693567918,-0.02111511694645385,-0.0018714302157640805,-0.026939371026172942,0,70,255.0,255.0,255.0
351,17.55,-8.181408510900193,-5.3545436045380725,-6.321656950700152,-0.3926746184526627,-0.09093060703493025,-0.6738264190198927,-0.019706468453864968,-0.002575261300608044,-0.027774615497860655,0,70,255.0,255.0,255.0
352,17.6,-8.201066287971521,-5.359093647229397,-6.355383337939051,-0.39362472566304124,-0.09107696587708175,-0.6752360309065779,-0.01829781996127609,-0.003279092385452007,-0.02860985996954837,0,70,255.0,255.0,255.0
353,17.650000000000002,-8.220769809592754,-5.363651887651685,-6.389181249827872,-0.39450440044879037,-0.09125851627347545,-0.6766874050168475,-0.01688917146868721,-0.00398292347029597,-0.029445104441236082,0,70,255.0,255.0,255.0
354,17.7,-8.240515554142657,-5.3682200853826485,-6.423052774477793,-0.39531364280990994,-0.09147525822411134,-0.6781805413507015,-0.01548052297609843,-0.004686754555139883,-0.03028034891292374,0,70,255.0,255.0,255.0
355,17.75,-8.2603,-5.3728,-6.457,-0.39605245274640016,-0.09172719172898944,-0.6797154399081399,-0.01407187448350955,-0.005390585639983625,-0.031115593384613227,0,70,255.0,255.0,255.0
356,17.8,-8.28012058960631,-5.377393095788631,-6.4910246567089755,-0.39677867402375455,-0.09199659921891029,-0.6812706328876248,-0.014976976610664496,-0.005385713956850724,-0.03109212579478342,0,70,255.0,255.0,255.0
357,17.85,-8.29997862165415,-5.381999655862155,-6.5251270437324385,-0.39755015040746666,-0.09226576312467452,-0.6828246524876183,-0.015882078737819442,-0.005380842273717823,-0.031068658204953612,0,70,255.0,255.0,255.0
358,17.900000000000002,-8.319876358898833,-5.386619668041363,-6.559307102401413,-0.3983668818975365,-0.09253468344628209,-0.6843774987081201,-0.01678718086497439,-0.005375970590584922,-0.031045190615123806,0,70,255.0,255.0,255.0
359,17.95,-8.339816064095675,-5.391253120147048,-6.593564774046924,-0.399228868493964,-0.092803360183733,-0.6859291715491306,-0.01769228299212927,-0.005371098907452021,-0.031021723025294,0,70,255.0,255.0,255.0
360,18.0,-8.3598,-5.3959,-6.6279,-0.40013611019674944,-0.09307179333702728,-0.6874796710106497,-0.018597385119286436,-0.005366227224318676,-0.030998255435465083,0,70,255.0,255.0,255.0
361,18.05,-8.379829930674562,-5.400560012307402,-6.662312422463947,-0.40105868545231455,-0.09332299608943499,-0.6890110494296129,-0.018305625103317697,-0.004681882871989664,-0.03025688132306036,0,70,255.0,255.0,255.0
362,18.1,-8.399905625411884,-5.405231729321984,-6.696800487131202,-0.40196667270708125,-0.09353998162422626,-0.6905053591429557,-0.01801386508734896,-0.0039975385196606514,-0.029515507210655635,0,70,255.0,255.0,255.0
363,18.150000000000002,-8.420026354811926,-5.409913440182864,-6.731362340566484,-0.40286007196104945,-0.09372274994140106,-0.6919626001506783,-0.017722105071380223,-0.0033131941673316388,-0.02877413309825091,0,70,255.0,255.0,255.0
364,18.2,-8.440191389474643,-5.414603434029163,-6.765996129334508,-0.40373888321421925,-0.0938713010409594,-0.6933827724527808,-0.017430345055411505,-0.0026288498150026747,-0.02803275898584624,0,70,255.0,255.0,255.0
365,18.25,-8.4604,-5.4193,-6.8007,-0.40460310646659065,-0.09398563492290131,-0.6947658760492631,-0.0171385850394441,-0.0019445054626737734,-0.027291384873440627,0,70,255.0,255.0,255.0
366,18.3,-8.480651687695435,-5.424002054981762,-6.835472853435239,-0.40546658416697995,-0.09410341642334677,-0.6961571693939219,-0.017400522976127868,-0.002766754555144491,-0.02836034891291083,0,70,255.0,255.0,255.0
367,18.35,-8.500946876698313,-5.4287110268499115,-6.870316607742759,-0.40634315876420346,-0.09426231037841576,-0.6976019109405542,-0.017662460912811637,-0.0035890036476152088,-0.029429312952381034,0,70,255.0,255.0,255.0
368,18.400000000000002,-8.52128622185347,-5.433428971227181,-6.905233935332661,-0.4072328302582611,-0.09446231678810829,-0.6991001006891601,-0.017924398849495406,-0.004411252740085927,-0.030498276991851238,0,70,255.0,255.0,255.0
369,18.45,-8.541670378005751,-5.4381579437363,-6.94022750861504,-0.40813559864915294,-0.09470343565242434,-0.7006517386397393,-0.018186336786179154,-0.005233501832556586,-0.031567241031321365,0,70,255.0,255.0,255.0
370,18.5,-8.5621,-5.4429,-6.9753,-0.40905146393687897,-0.09498566697136396,-0.702256824792292,-0.01844827472286248,-0.006055750925027414,-0.03263620507079068,0,70,255.0,255.0,255.0
371,18.55,-8.582575318543691,-5.44765656776555,-7.0104529637951005,-0.4099549778797538,-0.09527133821717637,-0.7038482729946945,-0.01769228299213025,-0.005371098907468843,-0.031021723025312274,0,70,255.0,255.0,255.0
372,18.6,-8.603094867794868,-5.45242656327837,-7.0456834818977665,-0.410820692236092,-0.09552277686211086,-0.7053589970948232,-0.016936291261398017,-0.00468644688991027,-0.029407240979833868,0,70,255.0,255.0,255.0
373,18.650000000000002,-8.623656757774192,-5.457208274908414,-7.080987518102879,-0.4116486070058936,-0.0957399829061674,-0.7067889970926781,-0.016180299530665788,-0.004001794872351697,-0.027792758934355462,0,70,255.0,255.0,255.0
374,18.7,-8.644259098502346,-5.461999991025639,-7.116361036205327,-0.41243872218915856,-0.09592295634934601,-0.7081382729882588,-0.01542430779993361,-0.0033171428547931745,-0.026178276888877174,0,70,255.0,255.0,255.0
375,18.75,-8.6649,-5.4668,-7.1518,-0.4131910377858869,-0.09607169719164671,-0.7094068247815658,-0.014668316069200937,-0.0026324908372346023,-0.02456379484339788,0,70,255.0,255.0,255.0
376,18.8,-8.685578238129793,-5.471606873956037,-7.187301691384358,-0.4139455043140032,-0.09620323070795221,-0.710673738627297,-0.015510345055451069,-0.0026288498149855677,-0.026112758985850193,0,70,255.0,255.0,255.0
377,18.85,-8.706295252122223,-5.476420320036611,-7.222868664666183,-0.41474207229143206,-0.09633458217314528,-0.7120181006801509,-0.0163523740417012,-0.002625208792736533,-0.027661723128302507,0,70,255.0,255.0,255.0
378,18.900000000000002,-8.727053147049757,-5.481240329139166,-7.2585047922558275,-0.41558074171817333,-0.09646575158722588,-0.7134399109401273,-0.017194403027951336,-0.0026215677704874984,-0.02921068727075482,0,70,255.0,255.0,255.0
379,18.95,-8.747854027984863,-5.486066892161147,-7.294213946563646,-0.41646151259422715,-0.09659673895019401,-0.7149391694072263,-0.01803643201420141,-0.002617926748238464,-0.030759651413207023,0,70,255.0,255.0,255.0
380,19.0,-8.7687,-5.4909,-7.33,-0.41738438491959345,-0.0967275442620497,-0.7165158760814478,-0.01887846100045243,-0.002614285725989096,-0.03230861555565845,0,70,255.0,255.0,255.0
381,19.05,-8.789592528937142,-5.495739936410304,-7.365865870667466,-0.41831100486425754,-0.09687573895101347,-0.7181127724961224,-0.018186336786110938,-0.0033135018325611263,-0.03156724103132084,0,70,255.0,255.0,255.0
382,19.1,-8.810530523716247,-5.500588156575191,-7.401810659437509,-0.4192030185982046,-0.09705889444530581,-0.7196726001845799,-0.017494212571769443,-0.0040127179391331565,-0.030825866506983227,0,70,255.0,255.0,255.0
383,19.150000000000002,-8.831512254026785,-5.505446408534924,-7.437832512873821,-0.4200604261214345,-0.09727701074492677,-0.7211953591468208,-0.01680208835742795,-0.004711934045705187,-0.030084491982645612,0,70,255.0,255.0,255.0
384,19.200000000000003,-8.852535989558213,-5.510316440329772,-7.47392957754009,-0.4208832274339474,-0.09753008784987634,-0.7226810493828446,-0.016109964143086457,-0.005411150152277217,-0.029343117458308,0,70,255.0,255.0,255.0
385,19.25,-8.8736,-5.5152,-7.5101,-0.42167142253574313,-0.09781812576015447,-0.7241296708926516,-0.01541783992874679,-0.006110366258848643,-0.028601742933969554,0,70,255.0,255.0,255.0
386,19.3,-8.894702846121644,-5.520098180402746,-7.546342025945782,-0.4224424762289602,-0.09810181348799542,-0.7255471713882221,-0.01542430779993369,-0.005237142854788589,-0.02809827688885508,0,70,255.0,255.0,255.0
387,19.35,-8.91584425301279,-5.52500945366263,-7.582654297583786,-0.4232138533157365,-0.09834184004563333,-0.7269394985815372,-0.015430775671120589,-0.004363919450728535,-0.02759481084374061,0,70,255.0,255.0,255.0
388,19.400000000000002,-8.937024236843113,-5.52993163672114,-7.619035556248899,-0.4239855537960722,-0.09853820543306827,-0.7283066524725963,-0.015437243542307489,-0.0034906960466684804,-0.027091344798626137,0,70,255.0,255.0,255.0
389,19.450000000000003,-8.95824281378229,-5.534862546519767,-7.6554845432760095,-0.4247575776699673,-0.0986909096503002,-0.7296486330613998,-0.015443711413494389,-0.0026174726426084266,-0.026587878753511665,0,70,255.0,255.0,255.0
390,19.5,-8.9795,-5.5398,-7.692,-0.4255299249374217,-0.09879995269732911,-0.7309654403479473,-0.015450179284683507,-0.0017442492385479902,-0.026084412708391014,0,70,255.0,255.0,255.0
391,19.55,-9.000796086576281,-5.54474254197871,-7.72858122554941,-0.42631909021989484,-0.0989090070969992,-0.7322905419509874,-0.016116432014240633,-0.002617926748255263,-0.02691965141321334,0,70,255.0,255.0,255.0
392,19.6,-9.022132464232598,-5.5496916287742915,-7.765229750227354,-0.4271415681388458,-0.09906174537215465,-0.7336574054892687,-0.016782684743797755,-0.0034916042579625356,-0.02775489011803567,0,70,255.0,255.0,255.0
393,19.650000000000002,-9.043510798600774,-5.554649444580517,-7.801947662130591,-0.4279973586942746,-0.09925816752279545,-0.735066030962791,-0.01744893747335488,-0.004365281767669808,-0.028590128822858,0,70,255.0,255.0,255.0
394,19.700000000000003,-9.064932755312634,-5.559618173591162,-7.838737049355888,-0.4288864618861813,-0.09949827354892163,-0.7365164183715546,-0.018115190202912006,-0.005238959277377081,-0.029425367527680327,0,70,255.0,255.0,255.0
395,19.75,-9.0864,-5.5646,-7.8756,-0.4298088777145658,-0.09978206345053313,-0.738008567715559,-0.018781442932469083,-0.006112636787084402,-0.030260606232504372,0,70,255.0,255.0,255.0
396,19.8,-9.10791360757323,-5.569596451682413,-7.91253787185658,-0.4307291628914546,-0.10007015812401675,-0.7394986608078293,-0.018029964143082278,-0.005411150152260026,-0.029343117458310163,0,70,255.0,255.0,255.0
397,19.85,-9.12947229005682,-5.574606431240206,-7.949549101506806,-0.43161187412887403,-0.10032317846575914,-0.74094287946139,-0.017278485353695472,-0.004709663517435649,-0.028425628684115953,0,70,255.0,255.0,255.0
398,19.900000000000002,-9.151074168753794,-5.5796281849567935,-7.986631395228742,-0.4324570114268242,-0.10054112447576032,-0.742341223676241,-0.016527006564308666,-0.004008176882611273,-0.027508139909921743,0,70,255.0,255.0,255.0
399,19.950000000000003,-9.172717364967179,-5.584659959115587,-8.023782459300453,-0.4332645747853049,-0.10072399615402028,-0.7436936934523823,-0.01577552777492186,-0.0033066902477868966,-0.02659065113572753,0,70,255.0,255.0,255.0
400,20.0,-9.1944,-5.5897,-8.061,-0.43403456420431635,-0.10087179350053901,-0.7450002887898138,-0.015024048985536442,-0.002605203612963125,-0.025673162361532498,0,70,255.0,255.0,255.0
401,20.05,-9.216120683130793,-5.594746851291638,-8.098282487024274,-0.4347962582142922,-0.10100236040692831,-0.7463068148176902,-0.015443711413495815,-0.0026174726426084318,-0.0265878787535245,0,70,255.0,255.0,255.0
402,20.1,-9.23787997554012,-5.599800246264884,-8.135631443745432,-0.435578935345666,-0.10113354076479986,-0.7476590766651663,-0.015863373841455187,-0.0026297416722537385,-0.0275025951455165,0,70,255.0,255.0,255.0
403,20.150000000000002,-9.25967892638405,-5.604860215592311,-8.17304915695445,-0.4363825955984377,-0.10126533457415368,-0.7490570743322419,-0.01628303626941456,-0.002642010701899045,-0.0284173115375085,0,70,255.0,255.0,255.0
404,20.200000000000003,-9.281518584818654,-5.609926789946491,-8.210537913442314,-0.43720723897260744,-0.10139774183498977,-0.7505008078189173,-0.01670269869737393,-0.002654279731544352,-0.0293320279295005,0,70,255.0,255.0,255.0
405,20.25,-9.3034,-5.615,-8.2481,-0.4380528654681751,-0.10153076254730813,-0.751990277125192,-0.017122361125333718,-0.0026665487611895466,-0.03024674432149066,0,70,255.0,255.0,255.0
406,20.3,-9.325323659903596,-5.620080143151032,-8.285736980046334,-0.4388858042513805,-0.10168040024827282,-0.7534820799214205,-0.01619519020288197,-0.0033189592773983237,-0.02942536752764634,0,70,255.0,255.0,255.0
407,20.35,-9.347287807782703,-5.625168583700258,-8.323447523511483,-0.43967238448846335,-0.10186265847504797,-0.7549328138779566,-0.015268019280430218,-0.003971369793607101,-0.02860399073380202,0,70,255.0,255.0,255.0
408,20.400000000000002,-9.369290125710009,-5.630266952673967,-8.361229576953468,-0.44041260617942357,-0.10207753722763355,-0.7563424789948006,-0.01434084835797847,-0.004623780309815879,-0.0277826139399577,0,70,255.0,255.0,255.0
409,20.450000000000003,-9.39132829575821,-5.635376881098451,-8.399081086930302,-0.44110646932426123,-0.10232503650602956,-0.7577110752719525,-0.01341367743552672,-0.005276190826024655,-0.026961237146113377,0,70,255.0,255.0,255.0
410,20.5,-9.4134,-5.6405,-8.437,-0.4417539739229763,-0.10260515631023599,-0.759038602709412,-0.012486506513076367,-0.005928601342233164,-0.026139860352270006,0,70,255.0,255.0,255.0
411,20.55,-9.435503877254815,-5.645637376104234,-8.474984792790403,-0.44241252478017723,-0.10288403859998554,-0.760356865496612,-0.013855527774961482,-0.005226690247748567,-0.026590651135727946,0,70,255.0,255.0,255.0
412,20.6,-9.457642393329069,-5.650787818934087,-8.513036062208649,-0.4431395267004724,-0.10312782533501086,-0.7616976678229849,-0.015224549036846596,-0.004524779153263971,-0.027041441919185883,0,70,255.0,255.0,255.0
413,20.650000000000002,-9.479818970775915,-5.655949573711823,-8.55115493523169,-0.44393497968386186,-0.10333651651531195,-0.7630610096885305,-0.01659357029873171,-0.003822868058779375,-0.027492232702643823,0,70,255.0,255.0,255.0
414,20.700000000000003,-9.502037032148507,-5.661120885659707,-8.589342538836487,-0.44479888373034565,-0.1035101121408888,-0.7644468910932494,-0.017962591560616824,-0.003120956964294779,-0.027943023486101764,0,70,255.0,255.0,255.0
415,20.75,-9.5243,-5.6663,-8.6276,-0.4457312388399236,-0.10364861221174143,-0.7658553120371407,-0.019331612822504063,-0.0024190458698103434,-0.028393814269556117,0,70,255.0,255.0,255.0
416,20.8,-9.546610431077138,-5.671485552432032,-8.665927848792053,-0.44668009662792046,-0.10377544535177616,-0.7672504580921189,-0.018622698697370224,-0.002654279731578505,-0.02741202792957081,0,70,255.0,255.0,255.0
417,20.85,-9.568967418901021,-5.676677740563395,-8.70432422765393,-0.44759350870966064,-0.10391404018489928,-0.7685965148300978,-0.017913784572236382,-0.0028895135933466663,-0.026430241589585506,0,70,255.0,255.0,255.0
418,20.900000000000002,-9.591369191186335,-5.681877152478741,-8.74278668211978,-0.4484714750851442,-0.10406439671111083,-0.7698934822510776,-0.01720487044710254,-0.003124747455114828,-0.025448455249600203,0,70,255.0,255.0,255.0
419,20.950000000000003,-9.613813975647766,-5.687084376262725,-8.781312757723756,-0.4493139957543709,-0.10422651493041077,-0.771141360355058,-0.0164959563219687,-0.0033599813168829896,-0.024466668909614898,0,70,255.0,255.0,255.0
420,21.0,-9.6363,-5.6923,-8.8199,-0.45012107071734103,-0.10440039484279913,-0.7723401491420389,-0.01578704219683713,-0.0035952151786514674,-0.023484882569628773,0,70,255.0,255.0,255.0
421,21.05,-9.65882559843663,-5.697524414167633,-8.858547012041388,-0.4508990887081492,-0.10457417999291571,-0.7735533021349309,-0.015333677435489163,-0.003356190826011992,-0.025041237146051488,0,70,255.0,255.0,255.0
422,21.1,-9.681389531066849,-5.702757218812332,-8.897256627175642,-0.45165443846089,-0.10473601392540034,-0.774844272856644,-0.014880312674141192,-0.0031171664733725167,-0.026597591722474202,0,70,255.0,255.0,255.0
423,21.150000000000002,-9.70399066447875,-5.707997816373213,-8.936032736289201,-0.4523871199755633,-0.10488589664025297,-0.7762130613071783,-0.014426947912793222,-0.0028781421207330414,-0.028153946298896913,0,70,255.0,255.0,255.0
424,21.200000000000003,-9.726627865260436,-5.7132456092893955,-8.974879230268508,-0.4530971332521693,-0.10502382813747364,-0.7776596674865338,-0.013973583151445253,-0.002639117768093566,-0.029710300875319628,0,70,255.0,255.0,255.0
425,21.25,-9.7493,-5.7185,-9.0138,-0.45378447829070784,-0.10514980841706231,-0.7791840913947102,-0.013520218390096428,-0.0024000934154535525,-0.03126665545173868,0,70,255.0,255.0,255.0
426,21.3,-9.772006375176344,-5.723760790897434,-9.052797703042398,-0.45447554853947675,-0.10528783467655602,-0.780712333368156,-0.014122591560660166,-0.003120956964294718,-0.029863023486094577,0,70,255.0,255.0,255.0
427,21.35,-9.79474805683159,-5.729029384187279,-9.091870063643512,-0.4551967374467739,-0.1054619041134918,-0.7821703937433198,-0.014724964731223906,-0.0038418205131358833,-0.028459391520450475,0,70,255.0,255.0,255.0
428,21.400000000000002,-9.817526550898666,-5.734307582028408,-9.131013572723427,-0.45594804501259917,-0.10567201672786962,-0.7835582725202012,-0.015327337901787644,-0.004562684061977049,-0.027055759554806377,0,70,255.0,255.0,255.0
429,21.450000000000003,-9.840343363310492,-5.73959718657969,-9.170224721202228,-0.4567294712369526,-0.1059181725196895,-0.7848759696988005,-0.015929711072351384,-0.005283547610818214,-0.025652127589162275,0,70,255.0,255.0,255.0
430,21.5,-9.8632,-5.7449,-9.2095,-0.4575410161198343,-0.10620037148895141,-0.7861234852791172,-0.016532084242916856,-0.006004411159658551,-0.024248495623513833,0,70,255.0,255.0,255.0
431,21.55,-9.886097700857995,-5.75021722224263,-9.24883657578902,-0.45836671713395566,-0.10648248130086527,-0.7873413643924463,-0.016495956321936678,-0.005279981316895611,-0.02446666890964764,0,70,255.0,255.0,255.0
432,21.6,-9.909036641606797,-5.755547644438551,-9.288234318250318,-0.45919061175202797,-0.10672836962064099,-0.7885701521700821,-0.0164598284009565,-0.00455555147413267,-0.02468484219578145,0,70,255.0,255.0,255.0
433,21.650000000000002,-9.932016731926598,-5.760889455513159,-9.327693772817103,-0.46001269997405125,-0.10693803644827854,-0.7898098486120244,-0.016423700479976322,-0.0038311216313697298,-0.024903015481915255,0,70,255.0,255.0,255.0
434,21.700000000000003,-9.955037881497601,-5.766240844391844,-9.367215484922593,-0.46083298180002563,-0.10711148178377795,-0.7910604537182736,-0.01638757255899614,-0.0031066917886067888,-0.025121188768049064,0,70,255.0,255.0,255.0
435,21.75,-9.9781,-5.7716,-9.4068,-0.46165145722995093,-0.10724870562713922,-0.7923219674888294,-0.0163514446380173,-0.002382261945843678,-0.02533936205418197,0,70,255.0,255.0,255.0
436,21.8,-10.001202821391676,-5.776965520132049,-9.446447993801518,-0.46245758292468736,-0.1073742401199868,-0.7936022090620664,-0.015893583151440353,-0.002639117768059255,-0.02587030087529297,0,70,255.0,255.0,255.0
437,21.85,-10.024345376741232,-5.782337638058518,-9.486160663355227,-0.463240815545095,-0.10751261740394515,-0.7949089975763587,-0.015435721664863409,-0.0028959735902748325,-0.02640123969640397,0,70,255.0,255.0,255.0
438,21.900000000000002,-10.047526521394946,-5.787716995918962,-9.525939336008173,-0.46400115509117373,-0.10766383747901428,-0.7962423330317067,-0.014977860178286465,-0.0031528294124904097,-0.02693217851751497,0,70,255.0,255.0,255.0
439,21.950000000000003,-10.070745110699109,-5.793104235852938,-9.565785339107416,-0.4647386015629237,-0.10782790034519418,-0.7976022154281104,-0.01451999869170952,-0.0034096852347059873,-0.027463117338625973,0,70,255.0,255.0,255.0
440,22.0,-10.094,-5.7985,-9.6057,-0.4654531549603447,-0.10800480600248488,-0.7989886447655693,-0.01406213720513172,-0.003666541056921213,-0.027994056159731606,0,70,255.0,255.0,255.0
441,22.05,-10.117290213575302,-5.803904697229176,-9.645684249004908,-0.46615495116728356,-0.1081805582191789,-0.8003777993592914,-0.014009711072424123,-0.0033635476108391637,-0.02757212758915361,0,70,255.0,255.0,255.0
442,22.1,-10.140615451428284,-5.80931780332738,-9.685737428328789,-0.4668541260675871,-0.10834116076356881,-0.8017458575244848,-0.013957284939716529,-0.0030605541647571147,-0.027150199018575617,0,70,255.0,255.0,255.0
443,22.150000000000002,-10.163975582493617,-5.814738560810994,-9.725858483150216,-0.46755067966125524,-0.10848661363565461,-0.8030928192611491,-0.013904858807008933,-0.0027575607186750657,-0.02672827044799762,0,70,255.0,255.0,255.0
444,22.200000000000003,-10.187370475705967,-5.820166212196407,-9.766046358647763,-0.46824461194828804,-0.10861691683543633,-0.8044186845692844,-0.013852432674301337,-0.0024545672725930162,-0.026306341877419624,0,70,255.0,255.0,255.0
445,22.25,-10.2108,-5.8256,-9.8063,-0.4689359229286853,-0.1087320703629139,-0.8057234534488908,-0.013800006541593302,-0.0021515738265106554,-0.025884413306838994,0,70,255.0,255.0,255.0
446,22.3,-10.23426432430712,-5.831039690951247,-9.846618210178855,-0.4696426124061985,-0.10886352700329226,-0.8069985935007631,-0.014467572558933483,-0.0031066917886238077,-0.02512118876804975,0,70,255.0,255.0,255.0
447,22.35,-10.257764817545636,-5.836487148631964,-9.886999223329628,-0.4703826801845786,-0.10904273954177628,-0.8082355723256959,-0.015135138576273662,-0.00406180975073696,-0.02435796422926051,0,70,255.0,255.0,255.0
448,22.400000000000002,-10.281303148630593,-5.841944760837059,-9.927441131390976,-0.4711561262638259,-0.10926970797836597,-0.8094343899236892,-0.015802704593613843,-0.005016927712850113,-0.023594739690471267,0,70,255.0,255.0,255.0
449,22.450000000000003,-10.304880986477032,-5.847414915361436,-9.96794202630155,-0.4719629506439401,-0.1095444323130613,-0.810595046294743,-0.016470270610954022,-0.0059720456749632654,-0.022831515151682025,0,70,255.0,255.0,255.0
450,22.5,-10.3285,-5.8529,-10.0085,-0.47280315332492123,-0.10986691254586226,-0.8117175414388573,-0.01713783662829238,-0.006927163637076239,-0.022068290612894614,0,70,255.0,255.0,255.0
451,22.55,-10.352161289196227,-5.858401338965838,-10.04911411027968,-0.4736425992079212,-0.11017333376765627,-0.8128598266376456,-0.016439998691704084,-0.005329685234684444,-0.023623117338634026,0,70,255.0,255.0,255.0
452,22.6,-10.375863678389178,-5.863916002144763,-10.089787278352702,-0.47444715319409164,-0.1103998810693307,-0.8140798531727207,-0.015742160755115787,-0.0037322068322926494,-0.025177944064373438,0,70,255.0,255.0,255.0
453,22.650000000000002,-10.399605422984022,-5.86943999584077,-10.13052339128589,-0.47521681528343274,-0.11054655445088554,-0.815377621044083,-0.015044322818527493,-0.0021347284299008543,-0.026732770790112846,0,70,255.0,255.0,255.0
454,22.700000000000003,-10.42338477838591,-5.87496932635785,-10.171326336146052,-0.4759515854759444,-0.1106133539123208,-0.8167531302517321,-0.014346484881939197,-0.0005372500275090597,-0.028287597515852258,0,70,255.0,255.0,255.0
455,22.75,-10.4472,-5.8805,-10.2122,-0.4766514637716266,-0.11060027945363644,-0.8182063807956681,-0.013648646945349618,0.0010602283748829544,-0.02984242424159156,0,70,255.0,255.0,255.0
456,22.8,-10.471049718907985,-5.886029353185399,-10.253146948702433,-0.4773389907621187,-0.11058713792607931,-0.8196580999486441,-0.013852432674335094,-0.0005345672725972867,-0.0282263418774473,0,70,255.0,255.0,255.0
457,22.85,-10.494934068897654,-5.8915600427889805,-10.294164463259563,-0.47803670703906015,-0.11065373618089618,-0.8210290149834129,-0.01405621840332057,-0.0021293629200775277,-0.026610259513303047,0,70,255.0,255.0,255.0
458,22.900000000000002,-10.518853559433332,-5.897096055799862,-10.335248503465472,-0.47874461260245077,-0.11080007421808706,-0.8223191258999745,-0.014260004132306046,-0.003724158567557768,-0.02499417714915879,0,70,255.0,255.0,255.0
459,22.950000000000003,-10.54280869997934,-5.902641379207163,-10.376395029114258,-0.47946270745229075,-0.11102615203765195,-0.8235284326983288,-0.014463789861291522,-0.00531895421503801,-0.023378094785014535,0,70,255.0,255.0,255.0
460,23.0,-10.5668,-5.9082,-10.4176,-0.4801909915885799,-0.11133196963959083,-0.824656935378476,-0.014667575590276094,-0.006913749862517804,-0.021762012420873056,0,70,255.0,255.0,255.0
461,23.05,-10.590827835171842,-5.913774848292563,-10.458860494910589,-0.4809214377436099,-0.11165411452802829,-0.8257717735677891,-0.014550270610923554,-0.00597204567498014,-0.02283151515164922,0,70,255.0,255.0,255.0
462,23.1,-10.614892046020213,-5.919364626699314,-10.500178068609054,-0.4816460186496723,-0.11192917420708885,-0.8269400868936408,-0.014432965631571011,-0.005030341487442476,-0.023901017882425386,0,70,255.0,255.0,255.0
463,23.150000000000002,-10.638992339282662,-5.924966980959782,-10.541555394852228,-0.482364734306767,-0.11215714867677253,-0.8281618753560316,-0.014315660652218471,-0.004088637299904812,-0.024970520613201555,0,70,255.0,255.0,255.0
464,23.200000000000003,-10.663128421696742,-5.930579556813502,-10.582995147396936,-0.4830775847148942,-0.11233803793707933,-0.8294371389549611,-0.01419835567286593,-0.003146933112367147,-0.02604002334397772,0,70,255.0,255.0,255.0
465,23.25,-10.6873,-5.9362,-10.6245,-0.48378456987405355,-0.11247184198800925,-0.8307658776904294,-0.014081050693512065,-0.0022052289248293278,-0.02710952607475825,0,70,255.0,255.0,255.0
466,23.3,-10.71150694040465,-5.9418264536443495,-10.666071871655214,-0.4844952582634398,-0.11258840396181717,-0.8321028057801948,-0.014346484881938352,-0.0024572500274874045,-0.026367597515857346,0,70,255.0,255.0,255.0
467,23.35,-10.7357497470215,-5.947459050413768,-10.70770966230422,-0.4852192183622474,-0.112717566990758,-0.8334026374420153,-0.014611919070364639,-0.0027092711301454813,-0.02562566895695644,0,70,255.0,255.0,255.0
468,23.400000000000002,-10.76002908343603,-5.9530984203610116,-10.749411517125619,-0.4859564501704763,-0.11285933107483173,-0.8346653726758905,-0.014877353258790926,-0.002961292232803558,-0.024883740398055534,0,70,255.0,255.0,255.0
469,23.450000000000003,-10.784345613233707,-5.958745193538837,-10.791175581298011,-0.48670695368812655,-0.11301369621403835,-0.8358910114818208,-0.015142787447217214,-0.003213313335461635,-0.024141811839154627,0,70,255.0,255.0,255.0
470,23.5,-10.8087,-5.9644,-10.833,-0.48747072891519805,-0.11318066240837787,-0.837079553859806,-0.015408221635643926,-0.0034653344381192497,-0.023399883280258216,0,70,255.0,255.0,255.0
471,23.55,-10.833092403209564,-5.97006333713004,-10.874883218468552,-0.48821752920262146,-0.11335226962470649,-0.8382490033114379,-0.014463789861291319,-0.0033989542150250065,-0.023378094785016578,0,70,255.0,255.0,255.0
472,23.6,-10.857520965893784,-5.975735171645618,-10.916824882174065,-0.4889171079013272,-0.11352055782988038,-0.8394173633383077,-0.01351935808693871,-0.0033325739919307634,-0.02335630628977494,0,70,255.0,255.0,255.0
473,23.650000000000002,-10.88198332697322,-5.981415337596176,-10.958824936645305,-0.4895694650113153,-0.11368552702389957,-0.8405846339404155,-0.012574926312586103,-0.00326619376883652,-0.023334517794533303,0,70,255.0,255.0,255.0
474,23.700000000000003,-10.906477125368438,-5.987103669031156,-11.000883327411028,-0.4901746005325858,-0.11384717720676403,-0.8417508151177611,-0.011630494538233496,-0.0031998135457422766,-0.023312729299291665,0,70,255.0,255.0,255.0
475,23.75,-10.931,-5.9928,-11.043,-0.4907325144651387,-0.11400550837847379,-0.8429159068703446,-0.010686062763878734,-0.00313343332264715,-0.023290940804048255,0,70,255.0,255.0,255.0
476,23.8,-10.955550646757091,-5.99850419783549,-11.085175254470581,-0.49130662492605826,-0.11416251753934956,-0.8441011809740453,-0.012278355672902497,-0.0031469331123838984,-0.024120023343982857,0,70,255.0,255.0,255.0
477,23.85,-10.980131989403365,-6.00421626300376,-11.127410808999521,-0.491960350032429,-0.11432020168971219,-0.8453279092047429,-0.01387064858192626,-0.003160432902120647,-0.024949105883917456,0,70,255.0,255.0,255.0
478,23.900000000000002,-11.004748008671092,-6.0099362292542855,-11.169708736293174,-0.49269368978425093,-0.11447856082956163,-0.8465960915624371,-0.015462941490950023,-0.0031739326918573956,-0.025778188423852058,0,70,255.0,255.0,255.0
479,23.950000000000003,-11.029402685292546,-6.015664130336541,-11.212071109057884,-0.493506644181524,-0.11463759495889791,-0.8479057280471282,-0.017055234399973786,-0.0031874324815941444,-0.026607270963786657,0,70,255.0,255.0,255.0
480,24.0,-11.0541,-6.0214,-11.2545,-0.4943992132242482,-0.11479730407772103,-0.8492568186588157,-0.018647527308995215,-0.003200932271330559,-0.0274363535037212,0,70,255.0,255.0,255.0
481,24.05,-11.078842609762074,-6.027143871528002,-11.296996563649127,-0.4952919710931534,-0.11495766021789125,-0.8505942727923876,-0.017062787447212967,-0.0032133133354786073,-0.02606181183915284,0,70,255.0,255.0,255.0
482,24.1,-11.103627876492764,-6.032895776339343,-11.339558281827854,-0.49610549196896947,-0.11511863541126889,-0.8518629998427311,-0.01547804758543072,-0.0032256943996266554,-0.02468727017458448,0,70,255.0,255.0,255.0
483,24.150000000000002,-11.12845183834242,-6.0386557453866825,-11.382181718182014,-0.4968397758516965,-0.11528022965785392,-0.8530629998098461,-0.013893307723648472,-0.003238075463774704,-0.02331272851001612,0,70,255.0,255.0,255.0
484,24.200000000000003,-11.153310533461383,-6.044423809622681,-11.424863436357452,-0.4974948227413344,-0.11544244295764637,-0.8541942726937327,-0.012308567861866225,-0.003250456527922752,-0.02193818684544776,0,70,255.0,255.0,255.0
485,24.25,-11.1782,-6.0502,-11.4676,-0.49807063263788315,-0.11560527531064621,-0.855256818494391,-0.01072382800008187,-0.0032628375920700226,-0.020563645180876833,0,70,255.0,255.0,255.0
486,24.3,-11.203117314194618,-6.055984316052504,-11.51038889093291,-0.49862949070134016,-0.11576684158909108,-0.8563057278563952,-0.011630494538198123,-0.0031998135457245603,-0.021392729299293846,0,70,255.0,255.0,255.0
487,24.35,-11.228063704625583,-6.061776631638871,-11.55323126368907,-0.499233682091703,-0.11592525666521868,-0.8573960914243203,-0.012537161076314376,-0.0031367894993790985,-0.02222181341771086,0,70,255.0,255.0,255.0
488,24.400000000000002,-11.25304143795924,-6.067576789198987,-11.596129190978777,-0.49988320680897164,-0.11608052053902898,-0.8585279091981664,-0.013443827614430632,-0.0030737654530336362,-0.02305089753612787,0,70,255.0,255.0,255.0
489,24.450000000000003,-11.27805278086193,-6.073384631172735,-11.639084745512323,-0.500578064853146,-0.11623263321052203,-0.8597011811779331,-0.014350494152546885,-0.003010741406688174,-0.02387998165454488,0,70,255.0,255.0,255.0
490,24.5,-11.3031,-6.0792,-11.6821,-0.5013182562242263,-0.1163815946796978,-0.8609159073636207,-0.015257160690661742,-0.0029477173603429385,-0.02470906577295917,0,70,255.0,255.0,255.0
491,24.55,-11.328184933459454,-6.085022864261986,-11.725176672619225,-0.5020780661014923,-0.1165349734257458,-0.8621508157820394,-0.015135234399976659,-0.0031874324815771384,-0.024687270963791086,0,70,255.0,255.0,255.0
492,24.6,-11.353307705004909,-6.090853697105176,-11.768315063415864,-0.502831779664224,-0.11670033792785553,-0.8633846344599998,-0.015013308109291575,-0.003427147602811338,-0.024665476154623,0,70,255.0,255.0,255.0
493,24.650000000000002,-11.378468009820637,-6.096693097817372,-11.811515117902887,-0.5035793969124215,-0.11687768818602695,-0.8646173633975017,-0.014891381818606492,-0.003666862724045538,-0.024643681345454915,0,70,255.0,255.0,255.0
494,24.700000000000003,-11.40366554309091,-6.102541665686379,-11.854776781593275,-0.5043209178460847,-0.11706702420026008,-0.8658490025945453,-0.014769455527921409,-0.003906577845279737,-0.02462188653628683,0,70,255.0,255.0,255.0
495,24.75,-11.4289,-6.1084,-11.8981,-0.5050563424652135,-0.11726834597055491,-0.8670795520511303,-0.014647529237231893,-0.004146292966514142,-0.024600091727114304,0,70,255.0,255.0,255.0
496,24.8,-11.45417095196757,-6.114268226899553,-11.941484418590182,-0.5057782448926909,-0.11745326470791669,-0.8682910090154442,-0.014228567861860235,-0.003250456527956645,-0.02385818684544211,0,70,255.0,255.0,255.0
497,24.85,-11.47947747535479,-6.120144579940426,-11.984928482647478,-0.5064791992513995,-0.11759339162335058,-0.8694653707356745,-0.013809606486488579,-0.002354620089399148,-0.023116281963769914,0,70,255.0,255.0,255.0
498,24.900000000000002,-11.50481852275823,-6.126026819531522,-12.02843033740968,-0.5071592055413396,-0.1176887267168566,-0.8706026372118213,-0.01339064511111692,-0.0014587836508416505,-0.02237437708209772,0,70,255.0,255.0,255.0
499,24.950000000000003,-11.530193046774446,-6.131912706081747,-12.071988128114594,-0.5078182637625113,-0.11773926998843474,-0.8717028084438843,-0.012971683735745265,-0.0005629472122841528,-0.021632472200425527,0,70,255.0,255.0,255.0
500,25.0,-11.5556,-6.1378,-12.1156,-0.5084563739149142,-0.117745021438085,-0.8727658844318638,-0.012552722360370083,0.00033288922627316975,-0.020890567318751607,0,70,255.0,255.0,255.0
501,25.05,-11.581038458670276,-6.143687428139802,-12.15926485302005,-0.5090809543277371,-0.11776396774259507,-0.8738371481561963,-0.012430494152550507,-0.001090741406675775,-0.021959981654547905,0,70,255.0,255.0,255.0
502,25.1,-11.606507993575933,-6.14957758313312,-12.202984605994233,-0.5096994233301693,-0.11785409557875258,-0.8749618825973186,-0.012308265944730931,-0.0025143720396247197,-0.0230293959903442,0,70,255.0,255.0,255.0
503,25.150000000000002,-11.632008299146454,-6.155474024056538,-12.246761932458394,-0.5103117809222103,-0.11801540494655754,-0.8761400877552308,-0.012186037736911353,-0.003938002672573665,-0.0240988103261405,0,70,255.0,255.0,255.0
504,25.200000000000003,-11.657539069811317,-6.1613803099866375,-12.290599505948373,-0.5109180271038605,-0.11824789584600996,-0.8773717636299327,-0.012063809529091777,-0.005361633305522609,-0.025168224661936793,0,70,255.0,255.0,255.0
505,25.25,-11.6831,-6.1673,-12.3345,-0.5115181618751194,-0.1185515682771098,-0.8786569102214243,-0.011941581321275763,-0.006785263938471564,-0.02623763899773124,0,70,255.0,255.0,255.0
506,25.3,-11.708691213351328,-6.1732356605412395,-12.37846496932963,-0.5121379377963503,-0.11886686432170306,-0.879928398359774,-0.012849455527959831,-0.0058265778452582274,-0.024621886536250037,0,70,255.0,255.0,255.0
507,25.35,-11.734314550341475,-6.179185887527093,-12.422491493375594,-0.5128031074279155,-0.11913422606163564,-0.8811190988750494,-0.0137573297346439,-0.00486789175204489,-0.023006134074768834,0,70,255.0,255.0,255.0
508,25.400000000000002,-11.75997228065596,-6.185148284242326,-12.46657553275675,-0.5135136707698148,-0.11935365349690755,-0.8822290117672509,-0.01466520394132797,-0.0039092056588315525,-0.021390381613287632,0,70,255.0,255.0,255.0
509,25.450000000000003,-11.785666673980296,-6.191120453971706,-12.510713048091935,-0.5142696278220482,-0.1195251466275188,-0.8832581370363781,-0.015573078148012039,-0.002950519565618216,-0.01977462915180643,0,70,255.0,255.0,255.0
510,25.5,-11.8114,-6.1971,-12.5549,-0.515070978584616,-0.11964870545346937,-0.8842064746824313,-0.016480952354698708,-0.001991833472405169,-0.01815887669032623,0,70,255.0,255.0,255.0
511,25.55,-11.837173487924417,-6.203085129695238,-12.599133669661448,-0.5158552944868761,-0.11976057497058736,-0.885153258404701,-0.014891683735705085,-0.0024829472123138866,-0.019712472200464702,0,70,255.0,255.0,255.0
512,25.6,-11.862984205058172,-6.209076466758508,-12.643416620503396,-0.5165601469581866,-0.11989700017470076,-0.8861777219024778,-0.013302415116711463,-0.0029740609522226043,-0.021266067710603177,0,70,255.0,255.0,255.0
513,25.650000000000002,-11.888828178229723,-6.21507523897416,-12.687752736514623,-0.5171855359985473,-0.12005798106580962,-0.8872798651757614,-0.01171314649771784,-0.0034651746921313216,-0.022819663220741648,0,70,255.0,255.0,255.0
514,25.700000000000003,-11.914701434267513,-6.22108267412654,-12.732145901683898,-0.5177314616079584,-0.1202435176439139,-0.8884596882245519,-0.010123877878724218,-0.00395628843204004,-0.024373258730880122,0,70,255.0,255.0,255.0
515,25.75,-11.9406,-6.2271,-12.7766,-0.5181979237864198,-0.1204536099090136,-0.8897171910488495,-0.008534609259731596,-0.004447402171948056,-0.025926854241015818,0,70,255.0,255.0,255.0
516,25.8,-11.966521234951008,-6.233127820677805,-12.821117952024586,-0.5186648842561397,-0.12065083579595005,-0.8909945680214233,-0.010143809529062887,-0.003441633305509736,-0.025168224661934236,0,70,255.0,255.0,255.0
517,25.85,-11.99246782942584,-6.239164245438873,-12.86569882461083,-0.5192123047393261,-0.12079777323956459,-0.892234013515043,-0.011753009798394177,-0.0024358644390714158,-0.024409595082852655,0,70,255.0,255.0,255.0
518,25.900000000000002,-12.018443806425164,-6.2452067598610395,-12.910340721184777,-0.5198401852359791,-0.12089442223985719,-0.8934355275297086,-0.013362210067725467,-0.001430095572633096,-0.023650965503771073,0,70,255.0,255.0,255.0
519,25.950000000000003,-12.044453188949662,-6.251252849522138,-12.955041745172483,-0.5205485257460987,-0.12094078279682789,-0.8945991100654201,-0.014971410337056758,-0.00042432670619477544,-0.02289233592468949,0,70,255.0,255.0,255.0
520,26.0,-12.0705,-6.2573,-12.9998,-0.5213373262696847,-0.12093685491047669,-0.8957247611221775,-0.016580610606388824,0.0005814421602433617,-0.022133706345606186,0,70,255.0,255.0,255.0
521,26.05,-12.096587172271551,-6.263346787593542,-13.04461372224021,-0.5221411684885464,-0.12094808184561118,-0.8968204695096118,-0.015573078148082495,-0.0010305195656229679,-0.02169462915176758,0,70,255.0,255.0,255.0
522,26.1,-12.122713277238471,-6.269396151486,-13.089481681053302,-0.522894634084493,-0.121039906867039,-0.8978942240373542,-0.014565545689776166,-0.0026424812914892975,-0.021255551957928973,0,70,255.0,255.0,255.0
523,26.150000000000002,-12.148875796069618,-6.275452121581685,-13.134402778746287,-0.5235977230575242,-0.12121232997476011,-0.8989460247054047,-0.013558013231469835,-0.004254443017355627,-0.02081647476409037,0,70,255.0,255.0,255.0
524,26.200000000000003,-12.175072209933843,-6.281518727784914,-13.179375917626182,-0.5242504354076399,-0.12146535116877455,-0.8999758715137633,-0.012550480773163506,-0.005866404743221957,-0.02037739757025176,0,70,255.0,255.0,255.0
525,26.25,-12.2013,-6.2876,-13.2244,-0.5248527711348404,-0.12179897044908229,-0.9009837644624299,-0.011542948314855472,-0.007478366469088615,-0.019938320376414964,0,70,255.0,255.0,255.0
526,26.3,-12.227557275962786,-6.293698628948026,-13.269474359014573,-0.5254424417896798,-0.12213283682161039,-0.9019955539401134,-0.01204387787871984,-0.005876288432035403,-0.02053325873092363,0,70,255.0,255.0,255.0
527,26.35,-12.253844661620272,-6.29981194861713,-13.314600051175974,-0.5260571589227124,-0.12238659929228585,-0.9030370903355223,-0.012544807442584209,-0.004274210394982191,-0.021128197085432295,0,70,255.0,255.0,255.0
528,26.400000000000002,-12.280163409296362,-6.305935953812223,-13.359778563830089,-0.5266969225339382,-0.12256025786110862,-0.9041083736486566,-0.013045737006448576,-0.002672132357928979,-0.021723135439940956,0,70,255.0,255.0,255.0
529,26.450000000000003,-12.306514771314971,-6.3120666393382105,-13.405011384322803,-0.5273617326233573,-0.12265381252807875,-0.9052094038795164,-0.013546666570312943,-0.001070054320875766,-0.02231807379444962,0,70,255.0,255.0,255.0
530,26.5,-12.3329,-6.3182,-13.4503,-0.5280515891909695,-0.12266726329319619,-0.9063401810281014,-0.0140475961341755,0.0005320237161778874,-0.02291301214895558,0,70,255.0,255.0,255.0
531,26.55,-12.359319723877302,-6.324333096614358,-13.495645641701499,-0.5287290643527487,-0.1226645708679466,-0.9074853147299425,-0.013051410336992383,-0.00042432670619471343,-0.022892335924687934,0,70,255.0,255.0,255.0
532,26.6,-12.385772076280444,-6.33046725404548,-13.541048514242808,-0.5293567302246688,-0.12270969596381566,-0.9086294146205703,-0.012055224539809267,-0.0013806771285673142,-0.022871659700420287,0,70,255.0,255.0,255.0
533,26.650000000000002,-12.41225456674494,-6.336604863169425,-13.58650856593337,-0.5299345868067296,-0.12280263858080336,-0.9097724806999846,-0.01105903874262615,-0.002337027550939915,-0.02285098347615264,0,70,255.0,255.0,255.0
534,26.700000000000003,-12.438764704806287,-6.342748314862246,-13.632025745082622,-0.5304626340989314,-0.12294339871890966,-0.9109145129681855,-0.010062852945443033,-0.0032933779733125158,-0.022830307251884993,0,70,255.0,255.0,255.0
535,26.75,-12.4653,-6.3489,-13.6776,-0.5309408721012738,-0.12313197637813457,-0.9120555114251729,-0.009066667148260876,-0.004249728395684715,-0.02280963102761646,0,70,255.0,255.0,255.0
536,26.8,-12.491859028528008,-6.355061784594547,-13.723231074179438,-0.5314333007993104,-0.12333687970660735,-0.9131831871401187,-0.0106304807732027,-0.003946404743226557,-0.022297397570214622,0,70,255.0,255.0,255.0
537,26.85,-12.518444633257952,-6.361233435200951,-13.7689178918528,-0.5320039201785941,-0.12352661685245724,-0.9142852511821945,-0.012194294398144522,-0.0036430810907683987,-0.02178516411281278,0,70,255.0,255.0,255.0
538,26.900000000000002,-12.54506072372389,-6.367414193510082,-13.814659172436443,-0.5326527302391248,-0.12370118781568419,-0.9153617035514,-0.013758108023086347,-0.0033397574383102406,-0.021272930655410936,0,70,255.0,255.0,255.0
539,26.950000000000003,-12.571711209459885,-6.373603301212809,-13.860453635346726,-0.5333797309809027,-0.12386059259628826,-0.9164125442477355,-0.01532192164802817,-0.003036433785852082,-0.020760697198009097,0,70,255.0,255.0,255.0
540,27.0,-12.5984,-6.3798,-13.9063,-0.5341849224039277,-0.12400483119426939,-0.9174377732712009,-0.016885735272971658,-0.0027331101333942787,-0.020248463740607292,0,70,255.0,255.0,255.0
541,27.05,-12.625129762010662,-6.386003765007459,-13.952197261580759,-0.5349937324500105,-0.12414791030562561,-0.9184539367095783,-0.015466666570342348,-0.002990054320854311,-0.02039807379448675,0,70,255.0,255.0,255.0
542,27.1,-12.65189819068775,-6.39221500515072,-13.998145518346004,-0.535731589060962,-0.12430383662635482,-0.9194775806506496,-0.014047597867713039,-0.0032469985083143434,-0.020547683848366208,0,70,255.0,255.0,255.0
543,27.150000000000002,-12.678701738359505,-6.398434362790251,-14.04414514432087,-0.5363984922367818,-0.12447261015645704,-0.920508705094415,-0.01262852916508373,-0.0035039426957743755,-0.02069729390224567,0,70,255.0,255.0,255.0
544,27.200000000000003,-12.705536857354177,-6.404662480286522,-14.090196513530492,-0.5369944419774703,-0.12465423089593226,-0.9215473100408742,-0.01120946046245442,-0.003760886883234408,-0.020846903956125127,0,70,255.0,255.0,255.0
545,27.25,-12.7324,-6.4109,-14.1363,-0.5375194382830274,-0.12484869884478049,-0.9225933954900273,-0.009790391759827877,-0.004017831070694311,-0.020996514010005463,0,70,255.0,255.0,255.0
546,27.3,-12.759288323429345,-6.41714715537562,-14.182455879497532,-0.5380157694006583,-0.12503147907088108,-0.9236410660215738,-0.010062852945408988,-0.0032933779733291266,-0.020910307251855362,0,70,255.0,255.0,255.0
547,27.35,-12.786201803991053,-6.423402544196174,-14.228664034763195,-0.5385257235775683,-0.1251780366421134,-0.9246844262152129,-0.010335314130990099,-0.002568924875963942,-0.020824100493705262,0,70,255.0,255.0,255.0
548,27.400000000000002,-12.813141122838092,-6.429664355328916,-14.274924250280089,-0.5390493008137573,-0.1252883715584775,-0.9257234760709443,-0.010607775316571212,-0.0018444717785987578,-0.020737893735555166,0,70,255.0,255.0,255.0
549,27.450000000000003,-12.84010696112342,-6.435930777641107,-14.321236310531326,-0.5395865011092255,-0.12536248381997328,-0.9267582155887685,-0.010880236502152323,-0.001120018681233573,-0.020651686977405066,0,70,255.0,255.0,255.0
550,27.5,-12.8671,-6.4422,-14.3676,-0.5401373244639724,-0.12540037342660085,-0.927788644768685,-0.01115269768773075,-0.00039556558386766305,-0.020565480219257637,0,70,255.0,255.0,255.0
551,27.55,-12.89412094427196,-6.448470813490061,-14.414015220429116,-0.5407031899473658,-0.12543817341084437,-0.9288217992041167,-0.011481921648002574,-0.0011164337858733488,-0.020760697198009485,0,70,255.0,255.0,255.0
552,27.6,-12.921170593348037,-6.454744418064585,-14.460482342601228,-0.5412855166287727,-0.1255120168051882,-0.929864714488486,-0.011811145608274396,-0.0018373019878790346,-0.02095591417676133,0,70,255.0,255.0,255.0
553,27.650000000000002,-12.948249770288136,-6.461022615894081,-14.507001854558782,-0.5418843045081932,-0.12562190360963227,-0.9309173906217928,-0.012140369568546219,-0.0025581701898847206,-0.02115113115551318,0,70,255.0,255.0,255.0
554,27.700000000000003,-12.97535929815216,-6.467307209149051,-14.553574244344224,-0.5424995535856273,-0.12576783382417664,-0.9319798276040373,-0.012469593528818042,-0.003279038391890406,-0.021346348134265024,0,70,255.0,255.0,255.0
555,27.75,-13.0025,-6.4736,-14.6002,-0.543131263861075,-0.12594980744882128,-0.9330520254352193,-0.012798817489088066,-0.003999906593894931,-0.02154156511301686,0,70,255.0,255.0,255.0
556,27.8,-13.029672699482822,-6.479902390664138,-14.646879238786003,-0.5437794708098643,-0.1261438272857491,-0.9341117371619486,-0.01312946046248556,-0.0037608868832172035,-0.020846903956158503,0,70,255.0,255.0,255.0
557,27.85,-13.056878222616797,-6.486214183545483,-14.693610594831899,-0.5444442099073236,-0.126325896137143,-0.9351367158308351,-0.013460103435883051,-0.0035218671725394768,-0.020152242799300148,0,70,255.0,255.0,255.0
