idx,t,px,py,pz,vx,vy,vz,ax,ay,az,yaw,mode,ledr,ledg,ledb
0,0.0,-1.5,10.5,0.0,0.001378006280721487,2.6872724381758403e-05,0.0031650767642802773,-0.02213607536865545,-0.00912247269253217,-0.07398092117136333,0,70,255.0,255.0,255.0
1,0.05,-1.499958391773894,10.499989767418077,6.594276351408996e-05,0.00029388288913198356,-0.000439638546782343,-0.000524064688431073,-0.021228860294924684,-0.009537978154031884,-0.07358473693709067,0,70,255.0,255.0,255.0
2,0.1,-1.4999698556985255,10.49995568989077,-5.207631531454674e-05,-0.0007448797487709815,-0.0009269250910214301,-0.004193396929428789,-0.020321645221193917,-0.009953483615531599,-0.073188552702818,0,70,255.0,255.0,255.0
3,0.15000000000000002,-1.5000321237362095,10.499896728654425,-0.0003530667759002286,-0.0017382816329874085,-0.001434986908335503,-0.007842919958712873,-0.01941443014746315,-0.010368989077031312,-0.07279236846854532,0,70,255.0,255.0,255.0
4,0.2,-1.5001429278492626,10.499811844945386,-0.0008360381576572735,-0.0026863227635172964,-0.0019638239987245613,-0.011472633776283324,-0.018507215073732382,-0.010784494538531027,-0.07239618423427266,0,70,255.0,255.0,255.0
5,0.25,-1.5003,10.4997,-0.0015,-0.003589003140360646,-0.0025134363621886055,-0.015082538382140138,-0.01760000000000162,-0.011200000000030748,-0.07200000000000001,0,70,255.0,255.0,255.0
6,0.30000000000000004,-1.5005010721507372,10.499560155054615,-0.0023439618423427276,-0.004446322763517459,-0.003083823998727636,-0.018672633776283323,-0.01669278492627085,-0.011615505461530458,-0.07160381576572734,0,70,255.0,255.0,255.0
7,0.35000000000000003,-1.5007438762637904,10.499391271345576,-0.0033669332240997725,-0.005258281632987732,-0.0036749869083416518,-0.022242919958712876,-0.015785569852540076,-0.012031010923030168,-0.07120763153145468,0,70,255.0,255.0,255.0
8,0.4,-1.5010261443014745,10.499192310109231,-0.004567923684685454,-0.006024879748771466,-0.004286925091030653,-0.025793396929428794,-0.014878354778809305,-0.012446516384529878,-0.070811447297182,0,70,255.0,255.0,255.0
9,0.45,-1.501345608226106,10.498962232581922,-0.0059459427635140906,-0.006746117110868662,-0.004919638546794639,-0.029324064688431073,-0.013971139705078534,-0.012862021846029588,-0.07041526306290934,0,70,255.0,255.0,255.0
10,0.5,-1.5017,10.4987,-0.0075,-0.00742199371927932,-0.005573127275633612,-0.032834923235719723,-0.01306392463134777,-0.013277527307529305,-0.07001907882863667,0,70,255.0,255.0,255.0
11,0.55,-1.5020877196231568,10.498404812363463,-0.009229295394143184,-0.00809259183506296,-0.0062330654583207966,-0.036337400206435645,-0.013759999999997772,-0.01311999999995805,-0.07007999999999999,0,70,255.0,255.0,255.0
12,0.6000000000000001,-1.5025098392463136,10.498076824726922,-0.01113379078828637,-0.008797993719279099,-0.006885127275629418,-0.03984292323571973,-0.014456075368647774,-0.012962472692386798,-0.07014092117136331,0,70,255.0,255.0,255.0
13,0.65,-1.502968099057892,10.497716430908657,-0.013213638485357958,-0.009538199371927736,-0.007529312727559476,-0.04335149232357197,-0.015152150737297775,-0.012804945384815544,-0.07020184234272661,0,70,255.0,255.0,255.0
14,0.7000000000000001,-1.5034642392463138,10.497324024726925,-0.01546899078828637,-0.010313208793008876,-0.008165621814110973,-0.046863107469992386,-0.015848226105947775,-0.012647418077244291,-0.07026276351408993,0,70,255.0,255.0,255.0
15,0.75,-1.504,10.4969,-0.0179,-0.011123021982522513,-0.008794054535283905,-0.050377768674980956,-0.01654430147459783,-0.012489890769673037,-0.07032368468545308,0,70,255.0,255.0,255.0
16,0.8,-1.5045768493566356,10.496444595491537,-0.020506856581084542,-0.011951309896230776,-0.009423914167988042,-0.0538977653979741,-0.016587215073732616,-0.012704494538492447,-0.07047618423427265,0,70,255.0,255.0,255.0
17,0.8500000000000001,-1.5051951667509558,10.495957429746728,-0.023289903622754765,-0.012781743489895777,-0.010064503989133151,-0.057425387098408234,-0.0166301286728674,-0.012919098307311859,-0.07062868378309223,0,70,255.0,255.0,255.0
18,0.9,-1.5058550594669577,10.49543796625615,-0.026249522373882707,-0.013614322763517515,-0.010715823998719228,-0.06096063377628333,-0.01667304227200219,-0.013133702076131269,-0.0707811833319118,0,70,255.0,255.0,255.0
19,0.9500000000000001,-1.5065566347886399,10.494885668510381,-0.029386094083340447,-0.014449047717095995,-0.011377874196746277,-0.0645035054315994,-0.016715955871136976,-0.013348305844950678,-0.07093368288073137,0,70,255.0,255.0,255.0
20,1.0,-1.5073,10.4943,-0.0327,-0.01528591835063121,-0.012050654583214295,-0.06805400206435645,-0.016758869470271748,-0.013562909613770116,-0.07108618242955067,0,70,255.0,255.0,255.0
21,1.05,-1.5080848829503006,10.493680805670392,-0.03619127828151866,-0.016102168580014963,-0.012711277869710994,-0.07159153820166796,-0.01589113970507832,-0.012862021846097818,-0.07041526306290932,0,70,255.0,255.0,255.0
22,1.1,-1.508909493749864,10.493029456286168,-0.0398585947206946,-0.016875032321139044,-0.013336856767824078,-0.07509552837064738,-0.015023409939884895,-0.012161134078425518,-0.06974434369626799,0,70,255.0,255.0,255.0
23,1.1500000000000001,-1.509771663074277,10.49234770406675,-0.043700272019111204,-0.017604509574003453,-0.013927391277553547,-0.07856597257129476,-0.014155680174691468,-0.01146024631075322,-0.06907342432962664,0,70,255.0,255.0,255.0
24,1.2000000000000002,-1.5106692215991266,10.491637301231554,-0.047714632878351884,-0.018290600338608194,-0.014482881398899403,-0.08200287080361007,-0.013287950409498043,-0.01075935854308092,-0.06840250496298529,0,70,255.0,255.0,255.0
25,1.25,-1.5116,10.4909,-0.0519,-0.018933304614953256,-0.015003327131861637,-0.08540622306759327,-0.01242022064430462,-0.010058470775408668,-0.06773158559634362,0,70,255.0,255.0,255.0
26,1.3,-1.5125628188421623,10.490136981826897,-0.056255230292840824,-0.019592015783709466,-0.01552297435317722,-0.0888080817953541,-0.013928226105943749,-0.01072741807721468,-0.06834276351408963,0,70,255.0,255.0,255.0
27,1.35,-1.5135604582495892,10.489347145108596,-0.06078131749446688,-0.020326127225547632,-0.016076068939583105,-0.09224049941900224,-0.015436231567582878,-0.011396365379020692,-0.06895394143183564,0,70,255.0,255.0,255.0
28,1.4000000000000001,-1.5145966882359347,10.488528817476853,-0.06547978954967251,-0.021135638940467757,-0.016662610891079288,-0.09570347593853767,-0.016944237029222008,-0.012065312680826702,-0.06956511934958165,0,70,255.0,255.0,255.0
29,1.4500000000000002,-1.5156752788148538,10.487680326563405,-0.07035217440325212,-0.022020550928469836,-0.017282600207665776,-0.0991970113539604,-0.018452242490861137,-0.012734259982632714,-0.07017629726732766,0,70,255.0,255.0,255.0
30,1.5,-1.5168,10.4868,-0.0754,-0.022980863189553866,-0.01793603688934256,-0.10272110566527042,-0.01996024795250026,-0.013403207284438778,-0.07078747518507333,0,70,255.0,255.0,255.0
31,1.55,-1.5179734416810509,10.485886467022027,-0.08062460054711805,-0.023945768285144896,-0.0186048247175773,-0.10626413461691554,-0.018635955871141013,-0.013348305844950703,-0.0709336828807315,0,70,255.0,255.0,255.0
32,1.6,-1.5191934732517802,10.484939563279443,-0.08602653530143795,-0.02484445877666797,-0.019270867473837633,-0.10981447395334358,-0.017311663789781766,-0.013293404405462627,-0.07107989057638966,0,70,255.0,255.0,255.0
33,1.6500000000000001,-1.5204567839819831,10.483959426025844,-0.09160616978219879,-0.025676934664123074,-0.01993416515812356,-0.1133721236745545,-0.015987371708422515,-0.013238502965974553,-0.07122609827204782,0,70,255.0,255.0,255.0
34,1.7000000000000002,-1.5217600631414576,10.482946192514829,-0.09736386950863977,-0.026443195947510222,-0.02059471777043509,-0.11693708378054836,-0.01466307962706327,-0.013183601526486477,-0.07137230596770598,0,70,255.0,255.0,255.0
35,1.75,-1.5231,10.4819,-0.1033,-0.027143242626829406,-0.02125252531077221,-0.1205093542713251,-0.013338787545703945,-0.013128700086998485,-0.07151851366336437,0,70,255.0,255.0,255.0
36,1.8,-1.5244738144336336,10.480821150084996,-0.10941436751868697,-0.027808911075709562,-0.021897726776524084,-0.12405537973698384,-0.013287950409502258,-0.012679358543076462,-0.07032250496298517,0,70,255.0,255.0,255.0
37,1.85,-1.5258808487432907,10.479710601773634,-0.11570454129978142,-0.028472037667779632,-0.022520461165079858,-0.1275416047676236,-0.013237113273300571,-0.012230016999154441,-0.06912649626260599,0,70,255.0,255.0,255.0
38,1.9000000000000001,-1.5273209758361312,10.478569478419773,-0.12216753132153237,-0.02913262240303962,-0.02312072847643953,-0.13096802936324445,-0.013186276137098885,-0.011780675455232419,-0.06793048756222679,0,70,255.0,255.0,255.0
39,1.9500000000000002,-1.5287940686193144,10.477398903377276,-0.1288003475621889,-0.029790665281489524,-0.0236985287106031,-0.1343346535238463,-0.013135439000897198,-0.011331333911310398,-0.0667344788618476,0,70,255.0,255.0,255.0
40,2.0,-1.5303,10.4762,-0.1356,-0.030446166303129334,-0.024253861867570572,-0.1376414772494292,-0.01308460186469565,-0.010881992367388571,-0.06553847016146896,0,70,255.0,255.0,255.0
41,2.0500000000000003,-1.531839300584415,10.47497373263799,-0.1425643293781341,-0.031138587412018165,-0.02479626817632122,-0.14093834643514913,-0.014612242490857389,-0.010814259982637252,-0.06633629726732747,0,70,255.0,255.0,255.0
42,2.1,-1.5334151317750568,10.47372042962602,-0.14969449949943647,-0.03190739055221507,-0.0253352878658343,-0.14427510697616194,-0.016139883117019114,-0.010746527597885936,-0.06713412437318596,0,70,255.0,255.0,255.0
43,2.15,-1.5350313126734916,10.47244026029506,-0.1569925049316718,-0.032752575723720076,-0.02587092093610981,-0.14765175887246773,-0.017667523743180837,-0.010678795213134617,-0.06793195147904445,0,70,255.0,255.0,255.0
44,2.2,-1.5366916623812843,10.471133393976066,-0.1644603402426048,-0.03367414292653316,-0.02640316738714776,-0.1510683021240664,-0.019195164369342578,-0.010611062828383299,-0.06872977858490295,0,70,255.0,255.0,255.0
45,2.25,-1.5384,10.4698,-0.1721,-0.03467209216065433,-0.02693202721894814,-0.15452473673095798,-0.020722804995504662,-0.010543330443632037,-0.06952760569076122,0,70,255.0,255.0,255.0
46,2.3000000000000003,-1.540158583228707,10.468439919363046,-0.1799131149687768,-0.03565273927621853,-0.027477200518201222,-0.1579992345224197,-0.018503079627062925,-0.01126360152649099,-0.06945230596770621,0,70,255.0,255.0,255.0
47,2.35,-1.5419634241564815,10.467051679722276,-0.18789986070247278,-0.036522400123360624,-0.028058387371597243,-0.16146996732772861,-0.016283354258621204,-0.011983872609349935,-0.06937700624465122,0,70,255.0,255.0,255.0
48,2.4000000000000004,-1.5438089734699025,10.465633480399985,-0.19606004895178047,-0.03728107470208065,-0.028675587779136216,-0.16493693514688482,-0.014063628890179465,-0.012704143692208885,-0.06930170652159622,0,70,255.0,255.0,255.0
49,2.45,-1.5456896818555494,10.46418352071846,-0.20439349146739205,-0.03792876301237858,-0.02932880174081813,-0.16840013797988823,-0.011843903521737744,-0.01342441477506783,-0.06922640679854122,0,70,255.0,255.0,255.0
50,2.5,-1.5476,10.4627,-0.2129,-0.038465465054254425,-0.030018029256642997,-0.17185957582673891,-0.009624178153296081,-0.014144685857926859,-0.06915110707548489,0,70,255.0,255.0,255.0
51,2.5500000000000003,-1.5495359665007575,10.461181789909825,-0.22157921074675901,-0.038986455483109264,-0.03070292975087297,-0.17530471547517223,-0.011215439000897373,-0.013251333911271913,-0.06865447886184718,0,70,255.0,255.0,255.0
52,2.6,-1.5514999715990174,10.459630451484868,-0.23043005769067254,-0.039587008954344166,-0.031343162647770186,-0.17872502371292365,-0.012806699848498651,-0.012357981964616975,-0.06815785064820949,0,70,255.0,255.0,255.0
53,2.6500000000000004,-1.5534959934468981,10.458048218105002,-0.2394512992612067,-0.04026712546795913,-0.03193872794733466,-0.18212050053999318,-0.014397960696099943,-0.01146463001796203,-0.0676612224345718,0,70,255.0,255.0,255.0
54,2.7,-1.5555280101965199,10.456437323150091,-0.2486416938878272,-0.04102680502395416,-0.03248962564956639,-0.18549114595638083,-0.01598922154370122,-0.01057127807130709,-0.0671645942209341,0,70,255.0,255.0,255.0
55,2.75,-1.5576,10.4548,-0.258,-0.04186604762232925,-0.03299585575446537,-0.18883695996208658,-0.01758048239130272,-0.009677926124652125,-0.06666796600729774,0,70,255.0,255.0,255.0
56,2.8000000000000003,-1.5597151507682632,10.453137720997661,-0.2675252420441875,-0.04273743879134529,-0.03350308047829296,-0.19217390357689165,-0.017275164369338757,-0.010611062828451527,-0.06680977858490374,0,70,255.0,255.0,255.0
57,2.85,-1.5618734894474497,10.451448914338252,-0.2772175085348372,-0.04359356405926313,-0.03405696203731052,-0.19551793782057694,-0.016969846347374796,-0.011544199532250922,-0.06695159116250973,0,70,255.0,255.0,255.0
58,2.9000000000000004,-1.5640742527425047,10.449731247180011,-0.28707715400339323,-0.04443442342608277,-0.03465750043151805,-0.1988690626931426,-0.01666452832541083,-0.012477336236050324,-0.06709340374011571,0,70,255.0,255.0,255.0
59,2.95,-1.566316677358373,10.44798238668118,-0.29710453298129946,-0.04526001689180421,-0.035304695660915555,-0.20222727819458852,-0.016359210303446867,-0.013410472939849719,-0.06723521631772171,0,70,255.0,255.0,255.0
60,3.0,-1.5686,10.4462,-0.3073,-0.04607034445642746,-0.035998547725503025,-0.20559258432491476,-0.016053892281483073,-0.014343609643649113,-0.0673770288953277,0,70,255.0,255.0,255.0
61,3.0500000000000003,-1.57092343042619,10.444382526099533,-0.3176638210764913,-0.04686378935150808,-0.036692748335970096,-0.20895967021726147,-0.015683903521741635,-0.013424414775033772,-0.0673064067985401,0,70,255.0,255.0,255.0
62,3.1,-1.5732860706111844,10.442531491162125,-0.3281959081699789,-0.047638734808601625,-0.0373409892030064,-0.21232322500476877,-0.015313914762000202,-0.01250521990641844,-0.06723578470175248,0,70,255.0,255.0,255.0
63,3.1500000000000004,-1.5756869955830837,10.440649193174954,-0.33889608472522087,-0.0483951808277081,-0.03794327032661195,-0.21568324868743674,-0.014943926002258764,-0.011586025037803099,-0.06716516260496488,0,70,255.0,255.0,255.0
64,3.2,-1.5781252803699888,10.438737930125189,-0.3497641741869752,-0.0491331274088275,-0.03849959170678672,-0.21903974126526526,-0.014573937242517331,-0.010666830169187765,-0.06709454050817727,0,70,255.0,255.0,255.0
65,3.25,-1.5806,10.4368,-0.3608,-0.04985257455195982,-0.03900995334353072,-0.2223927027382544,-0.014203948482775841,-0.009747635300572433,-0.0670239184113881,0,70,255.0,255.0,255.0
66,3.3000000000000003,-1.583110327526977,10.434836974604211,-0.37200347364984765,-0.05055940380262176,-0.03951792617782686,-0.22574741555406247,-0.014069221543701493,-0.010571278071272965,-0.06716459422093361,0,70,255.0,255.0,255.0
67,3.35,-1.585655828107813,10.432847521013242,-0.3833748587852476,-0.051259496706329975,-0.04006708115065802,-0.22910916216034777,-0.013934494604627146,-0.01139492084197349,-0.06730527003047912,0,70,255.0,255.0,255.0
68,3.4000000000000004,-1.5882361649251606,10.43082958012017,-0.39491450709572373,-0.05195285326308448,-0.04065741826202421,-0.23247794255711038,-0.013799767665552796,-0.012218563612674021,-0.06744594584002464,0,70,255.0,255.0,255.0
69,3.45,-1.590851001161672,10.428781092818062,-0.4066227702707999,-0.05263947347288525,-0.041288937511925417,-0.23585375674435022,-0.01366504072647845,-0.013042206383374546,-0.06758662164957015,0,70,255.0,255.0,255.0
70,3.5,-1.5935,10.4267,-0.4185,-0.05331935733573231,-0.041961638900361656,-0.23923660472206737,-0.013530313787404158,-0.013865849154075072,-0.0677272974591161,0,70,255.0,255.0,255.0
71,3.5500000000000003,-1.5961832594659024,10.424584775483629,-0.43054628432411834,-0.054018595438003594,-0.04264354695271063,-0.24261066756648836,-0.014439210303447253,-0.01341047293988382,-0.06723521631772326,0,70,255.0,255.0,255.0
72,3.6,-1.5989026169575637,10.422436024784908,-0.442760656689031,-0.054763278366077035,-0.04330268619435004,-0.2459601263538397,-0.015348106819490339,-0.012955096725692571,-0.06674313517633043,0,70,255.0,255.0,255.0
73,3.6500000000000004,-1.6016603447162736,10.420254886344372,-0.45514188689188456,-0.05555340611995263,-0.04393905662527989,-0.24928498108412142,-0.016257003335533433,-0.01249972051150132,-0.0662510540349376,0,70,255.0,255.0,255.0
74,3.7,-1.6044587149833223,10.418042498602558,-0.46768874472982536,-0.05638897869963038,-0.04455265824550018,-0.2525852317573335,-0.01716589985157652,-0.012044344297310071,-0.06575897289354478,0,70,255.0,255.0,255.0
75,3.75,-1.6073,10.4158,-0.4804,-0.057269996105110285,-0.04514349105501089,-0.2558608783734759,-0.018074796367619772,-0.011588968083118711,-0.06526689175215195,0,70,255.0,255.0,255.0
76,3.8000000000000003,-1.6101854346094129,10.413528723461278,-0.49327458905367905,-0.05813421444536382,-0.04569988601131941,-0.25912191417998415,-0.016493937242521343,-0.010666830169221826,-0.06517454050817664,0,70,255.0,255.0,255.0
77,3.85,-1.613112104061932,10.41123077984713,-0.5063121144586283,-0.05891938982936242,-0.04621017407193308,-0.26237833242429354,-0.014913078117422925,-0.009744692255324948,-0.06508218926420133,0,70,255.0,255.0,255.0
78,3.9000000000000004,-1.616076056209745,10.408908474502345,-0.5195123453367384,-0.059625522257106114,-0.0466743552368519,-0.26563013310640426,-0.013332218992324497,-0.008822554341428063,-0.06498983802022602,0,70,255.0,255.0,255.0
79,3.95,-1.6190733389050385,10.406564112771706,-0.5328750508098988,-0.06025261172859487,-0.04709242950607588,-0.26887731622631617,-0.01175135986722608,-0.007900416427531184,-0.0648974867762507,0,70,255.0,255.0,255.0
80,4.0,-1.6221,10.4042,-0.5464,-0.060800658243828715,-0.04746439687960501,-0.2721198817840293,-0.010170500742127997,-0.006978278513634362,-0.0648051355322754,0,70,255.0,255.0,255.0
81,4.05,-1.625153402096446,10.401817130671265,-0.5600873594611656,-0.06134854678054367,-0.04786890900202961,-0.27538167571357547,-0.011745040726470219,-0.009202206383349457,-0.06566662164957053,0,70,255.0,255.0,255.0
82,4.1000000000000005,-1.628236166794708,10.399411255826573,-0.5739388854764556,-0.06197516231647575,-0.048384617517939967,-0.2786865439489864,-0.013319580710812467,-0.011426134253064591,-0.06652810776686567,0,70,255.0,255.0,255.0
83,4.15,-1.6313522304447472,10.396976815646246,-0.5879567317611621,-0.06268050485162492,-0.04901152242733607,-0.282034486490262,-0.01489412069515469,-0.013650062122779687,-0.0673895938841608,0,70,255.0,255.0,255.0
84,4.2,-1.6345055293965243,10.394508250310613,-0.6021430520305794,-0.06346457438599121,-0.04974962373021793,-0.2854255033374024,-0.01646866067949691,-0.015873989992494782,-0.06825108000145592,0,70,255.0,255.0,255.0
85,4.25,-1.6377,10.392,-0.6165,-0.0643273709195746,-0.05059892142658555,-0.2888595944904076,-0.018043200663839132,-0.01809791786220971,-0.06911256611875194,0,70,255.0,255.0,255.0
86,4.3,-1.6409385570048034,10.38944835385366,-0.6310287731016584,-0.0652075984324601,-0.05144847798057246,-0.292279382965715,-0.017165899851580815,-0.01588434429726687,-0.0676789728935428,0,70,255.0,255.0,255.0
87,4.3500000000000005,-1.6442200287592357,10.386856996846578,-0.6457267436355507,-0.06604396090473269,-0.05218735585631225,-0.29562749177976194,-0.016288599039322484,-0.013670770732323988,-0.06624537966833362,0,70,255.0,255.0,255.0
88,4.4,-1.6475422220112663,10.384231462912668,-0.6605903276186137,-0.06683645833639236,-0.052815555053804863,-0.2989039209325483,-0.015411298227064168,-0.011457197167381146,-0.06481178644312448,0,70,255.0,255.0,255.0
89,4.45,-1.650902943508865,10.381577285985836,-0.6756159410677843,-0.06758509072743911,-0.05333307557305035,-0.30210867042407435,-0.014533997414805853,-0.009243623602438304,-0.06337819321791532,0,70,255.0,255.0,255.0
90,4.5,-1.6543,10.3789,-0.6908,-0.06828985807787294,-0.05373991741404869,-0.30524174025433987,-0.013656696602547092,-0.0070300500374952946,-0.061944599992705296,0,70,255.0,255.0,255.0
91,4.55,-1.6577315698843407,10.37620385391409,-0.7061399481322009,-0.06897305948961725,-0.0541131790756752,-0.30836479242356374,-0.01367135986722583,-0.007900416427565279,-0.06297748677625145,0,70,255.0,255.0,255.0
92,4.6000000000000005,-1.661197318168349,10.373487956787107,-0.7216373399813428,-0.06965699406459552,-0.05452995905680522,-0.31153948893196504,-0.013686023131904567,-0.008770782817635278,-0.06401037355979763,0,70,255.0,255.0,255.0
93,4.65,-1.6646972815101873,10.370750132703082,-0.7372947577643839,-0.07034166180280774,-0.05499025735743873,-0.3147658297795436,-0.013700686396583306,-0.009641149207705264,-0.06504326034334379,0,70,255.0,255.0,255.0
94,4.7,-1.6682314965680172,10.367988205746038,-0.7531147836982832,-0.07102706270425385,-0.05549407397757575,-0.3180438149662994,-0.013715349661262043,-0.010511515597775248,-0.06607614712688994,0,70,255.0,255.0,255.0
95,4.75,-1.6718,10.3652,-0.7691,-0.07171319676893391,-0.05604140891721625,-0.32137344449223254,-0.013730012925940227,-0.011381881987844955,-0.06710903391043521,0,70,255.0,255.0,255.0
96,4.800000000000001,-1.6754031634578346,10.362383430489984,-0.7852522343695378,-0.07242016360906975,-0.05662680571672497,-0.32470944734002993,-0.014548660679492799,-0.012033989992503656,-0.06633108000145843,0,70,255.0,255.0,255.0
97,4.8500000000000005,-1.679042698567368,10.35953677600499,-0.801570296439079,-0.0731680628368832,-0.05724480791646662,-0.3280065524923784,-0.015367308433045354,-0.012686097997162344,-0.06555312609248166,0,70,255.0,255.0,255.0
98,4.9,-1.6827206519479845,10.356658406275,-0.8180522413238513,-0.07395689445237427,-0.0578954155164412,-0.33126475994927806,-0.016185956186597912,-0.013338206001821035,-0.0647751721835049,0,70,255.0,255.0,255.0
99,4.95,-1.686439070219067,10.35374669103001,-0.8346961241390826,-0.07478665845554298,-0.05857862851664872,-0.33448406971072886,-0.017004603940150468,-0.013990314006479723,-0.06399721827452813,0,70,255.0,255.0,255.0
100,5.0,-1.6902,10.3508,-0.8515,-0.07565735484638932,-0.05929444691708917,-0.3376644817767309,-0.017823251693703024,-0.014642422011138412,-0.06321926436555181,0,70,255.0,255.0,255.0
101,5.050000000000001,-1.6940045762843203,10.347817624125968,-0.8684623143896489,-0.07651428607410225,-0.05998759805742837,-0.3408294182163175,-0.016453997414814084,-0.013083623602429295,-0.06337819321791081,0,70,255.0,255.0,255.0
102,5.1000000000000005,-1.6978502875621777,10.34480253919293,-0.8855830742623422,-0.07730275458787074,-0.06060280927733211,-0.34400230109852203,-0.015084743135925168,-0.011524825193720206,-0.0635371220702698,0,70,255.0,255.0,255.0
103,5.15,-1.7017337106978752,10.341758642196908,-0.9028626769402113,-0.07802276038769476,-0.061140080576800385,-0.3471831304233445,-0.013715488857036252,-0.009966026785011118,-0.0636960509226288,0,70,255.0,255.0,255.0
104,5.2,-1.705651422555715,10.338689830133923,-0.9203015197453868,-0.07867430347357435,-0.06159941195583321,-0.3503719061907849,-0.012346234578147337,-0.008407228376302029,-0.0638549797749878,0,70,255.0,255.0,255.0
105,5.25,-1.7096,10.3356,-0.9379,-0.07925738384550951,-0.061980803414430595,-0.3535686284008433,-0.010976980299258532,-0.006848429967592884,-0.06401390862734813,0,70,255.0,255.0,255.0
106,5.300000000000001,-1.7135769314048839,10.33249167300614,-0.9556585080718681,-0.07982669209452242,-0.062366802053564055,-0.35677287979469935,-0.011795349661257693,-0.00859151559774544,-0.0641561471268921,0,70,255.0,255.0,255.0
107,5.3500000000000005,-1.7175833511839207,10.329361867223286,-0.9735774065115531,-0.08043691881163528,-0.06283995497420515,-0.35998424311353255,-0.01261371902325684,-0.010334601227897963,-0.06429838562643608,0,70,255.0,255.0,255.0
108,5.4,-1.7216213052605158,10.32620622493736,-0.9916570509153042,-0.0810880639968481,-0.06340026217635385,-0.36320271835734297,-0.013432088385255985,-0.012077686858050486,-0.06444062412598006,0,70,255.0,255.0,255.0
109,5.45,-1.7256928395580737,10.32302038843429,-1.00989779687937,-0.08178012765016088,-0.06404772366001019,-0.3664283055261305,-0.014250457747255132,-0.01382077248820301,-0.06458286262552404,0,70,255.0,255.0,255.0
110,5.5,-1.7298,10.3198,-1.0283,-0.08251310977157361,-0.06478233942517415,-0.3696610046198953,-0.01506882710925428,-0.015563858118355589,-0.06472510112506713,0,70,255.0,255.0,255.0
111,5.550000000000001,-1.733944498096145,10.316542083849475,-1.0468636533228801,-0.08326694554780864,-0.0655211937282959,-0.3728790626048853,-0.015084603940146392,-0.013990314006513804,-0.06399721827453007,0,70,255.0,255.0,255.0
112,5.6000000000000005,-1.73812670770214,10.31324919191393,-1.0655872996914466,-0.08402157016558826,-0.06618137082582554,-0.3760607264473484,-0.015100380771038502,-0.012416769894672048,-0.06326933542399303,0,70,255.0,255.0,255.0
113,5.65,-1.7423466682600626,10.309925258053651,-1.0844691193985727,-0.08477698362491248,-0.0667628707177631,-0.37920599614728456,-0.015116157601930613,-0.01084322578283029,-0.062541452573456,0,70,255.0,255.0,255.0
114,5.7,-1.7466044192119903,10.306574216128913,-1.1035072927371328,-0.08553318592578132,-0.06726569340410857,-0.3823148717046939,-0.015131934432822725,-0.009269681670988534,-0.06181356972291896,0,70,255.0,255.0,255.0
115,5.75,-1.7509,10.3032,-1.1227,-0.08629017706819476,-0.06768983888486194,-0.3853873531195764,-0.015147711263715169,-0.007696137559146443,-0.061085686872379696,0,70,255.0,255.0,255.0
116,5.800000000000001,-1.7552330762105368,10.299805591595968,-1.1420460786366124,-0.08702552571424145,-0.06809242303324901,-0.3884628697857606,-0.014266234578151559,-0.008407228376336083,-0.06193497977498624,0,70,255.0,255.0,255.0
117,5.8500000000000005,-1.7596018180075195,10.296390165120995,-1.161546994722662,-0.08771680052600993,-0.06853056172249555,-0.3915808510970751,-0.013384757892587964,-0.00911831919352571,-0.06278427267759278,0,70,255.0,255.0,255.0
118,5.9,-1.7640040216992334,10.292951942848038,-1.1812048714904053,-0.08836400150350024,-0.06900425495260158,-0.3947412970535198,-0.012503281207024368,-0.009829410010715339,-0.06363356558019931,0,70,255.0,255.0,255.0
119,5.95,-1.768437483593965,10.289489147050054,-1.2010218321720991,-0.08896712864671236,-0.06951350272356709,-0.397944207655095,-0.011621804521460773,-0.010540500827904966,-0.06448285848280584,0,70,255.0,255.0,255.0
120,6.0,-1.7729,10.286,-1.221,-0.0895261819556463,-0.07005830503539207,-0.4011895829018004,-0.010740327835897068,-0.011251591645094372,-0.06533215138541237,0,70,255.0,255.0,255.0
121,6.050000000000001,-1.7773903970617069,10.282482749766654,-1.241140832130672,-0.09010295159522522,-0.07063711413872291,-0.4044374582520738,-0.012330457747259582,-0.011900772488139309,-0.06458286262551985,0,70,255.0,255.0,255.0
122,6.1000000000000005,-1.7819116202677818,10.278935747602091,-1.2614431214179076,-0.09075922773037226,-0.071248382284206,-0.4076478691643524,-0.013920587658622068,-0.012549953331184234,-0.06383357386562735,0,70,255.0,255.0,255.0
123,6.15,-1.7864676449430035,10.275357370554199,-1.2819049946398076,-0.09149501036108741,-0.07189210947184134,-0.4108208156386365,-0.015510717569984556,-0.01319913417422916,-0.06308428510573484,0,70,255.0,255.0,255.0
124,6.2,-1.79106244641215,10.271745995670873,-1.3025245785744712,-0.09231029948737071,-0.07256829570162893,-0.41395629767492587,-0.01710084748134704,-0.013848315017274085,-0.06233499634584234,0,70,255.0,255.0,255.0
125,6.25,-1.7957,10.2681,-1.3233,-0.09320509510922213,-0.07327694097356875,-0.4170543152732206,-0.018690977392709418,-0.014497495860319343,-0.0615857075859485,0,70,255.0,255.0,255.0
126,6.300000000000001,-1.8003829355426355,10.26441860933741,-1.3442297928407008,-0.09409866790486023,-0.07396712041185208,-0.4201392972059424,-0.017051934432814074,-0.013109681671013586,-0.061813569722921805,0,70,255.0,255.0,255.0
127,6.3500000000000005,-1.805108500921353,10.26070444447064,-1.3653141196057084,-0.09491028855250355,-0.07458790914067012,-0.42323567224551284,-0.01541289147291876,-0.011721867481707856,-0.06204143185989511,0,70,255.0,255.0,255.0
128,6.4,-1.8098725985287525,10.256960974935167,-1.3865535499503663,-0.0956399570521521,-0.07513930716002286,-0.4263434403919319,-0.013773848513023445,-0.010334053292402124,-0.062269293996868404,0,70,255.0,255.0,255.0
129,6.45,-1.8146711307574348,10.253191670266462,-1.4079486535300159,-0.0962876734038059,-0.07562131446991033,-0.42946260164519967,-0.01213480555312813,-0.008946239103096394,-0.06249715613384171,0,70,255.0,255.0,255.0
130,6.5,-1.8195,10.2494,-1.4295,-0.0968534376074649,-0.07603393107033252,-0.43259315600531606,-0.010495762593232705,-0.007558424913790773,-0.06272501827081145,0,70,255.0,255.0,255.0
131,6.550000000000001,-1.8243562607677515,10.245588412883711,-1.4512079965065263,-0.09740637678533234,-0.07643840421387502,-0.43572535292415665,-0.011621804521464989,-0.008620500827909276,-0.06256285848280915,0,70,255.0,255.0,255.0
132,6.6000000000000005,-1.8292415760468066,10.24175527451535,-1.4730724001592592,-0.09801561805961141,-0.07689598115312345,-0.438849441853597,-0.012747846449697254,-0.00968257674202776,-0.06240069869480686,0,70,255.0,255.0,255.0
133,6.65,-1.834158760941986,10.237897929705136,-1.4950928055587291,-0.09868116143030208,-0.07740666188807781,-0.4419654227936373,-0.013873888377929518,-0.010744652656146244,-0.06223853890680457,0,70,255.0,255.0,255.0
134,6.7,-1.8391106305581104,10.23401372326328,-1.517268807305466,-0.09940300689740436,-0.07797044641873807,-0.4450732957442774,-0.014999930306161783,-0.011806728570264727,-0.06207637911880228,0,70,255.0,255.0,255.0
135,6.75,-1.8441,10.2301,-1.5396,-0.10018115446091824,-0.07858733474510428,-0.4481730607055175,-0.016125972234394048,-0.0128688044843831,-0.06191421933080177,0,70,255.0,255.0,255.0
136,6.800000000000001,-1.8491288213863586,10.22615493912775,-1.562086221133196,-0.10096382495381179,-0.07920726273264497,-0.4512792910974335,-0.015180847481347279,-0.011928315017244505,-0.06233499634583444,0,70,255.0,255.0,255.0
137,6.8500000000000005,-1.8541955948914204,10.222180057467959,-1.5847282797572562,-0.10169923920905298,-0.07978016624682874,-0.45440656034010096,-0.014235722728300527,-0.010987825550105924,-0.06275577336086711,0,70,255.0,255.0,255.0
138,6.9,-1.859297957703303,10.21817770624429,-1.6075272278147184,-0.10238739722664184,-0.08030604528765557,-0.4575548684335201,-0.013290597975253775,-0.010047336082967344,-0.06317655037589978,0,70,255.0,255.0,255.0
139,6.95,-1.8644335470101239,10.214150236680418,-1.6304841172481206,-0.10302829900657835,-0.08078489985512546,-0.4607242153776909,-0.012345473222207023,-0.009106846615828765,-0.06359732739093245,0,70,255.0,255.0,255.0
140,7.0,-1.8696,10.2101,-1.6536,-0.10362194454886253,-0.08121672994923843,-0.4639146011726134,-0.011400348469160493,-0.008166357148689851,-0.06401810440596645,0,70,255.0,255.0,255.0
141,7.050000000000001,-1.8747956536868147,10.206028630605287,-1.6768751189606919,-0.10421032339941966,-0.08164454485553395,-0.4670774826861087,-0.012134805553123861,-0.008946239103130582,-0.062497156133844434,0,70,255.0,255.0,255.0
142,7.1000000000000005,-1.880021644387512,10.201934895612819,-1.7003064808117174,-0.10483542510417491,-0.0821113538595515,-0.4701643167859979,-0.012869262637087216,-0.0097261210575713,-0.06097620786172245,0,70,255.0,255.0,255.0
143,7.15,-1.8852798082448021,10.197816845317705,-1.723890283182398,-0.10549724966312836,-0.08261715696129107,-0.4731751034722809,-0.013603719721050572,-0.010506003012012016,-0.05945525958960046,0,70,255.0,255.0,255.0
144,7.2,-1.8905719814013948,10.19367253001506,-1.7476227237020523,-0.10619579707627998,-0.08316195416075269,-0.47610984274495793,-0.014338176805013928,-0.011285884966452733,-0.057934311317478476,0,70,255.0,255.0,255.0
145,7.25,-1.8959,10.1895,-1.7715,-0.10693106734362975,-0.08374574545793634,-0.4789685346040288,-0.015072633888976839,-0.012065766920893006,-0.0564133630453556,0,70,255.0,255.0,255.0
146,7.300000000000001,-1.901265363866383,10.185297738451098,-1.795519703024039,-0.10768288144850843,-0.08434255784521529,-0.4818347781581328,-0.014999930306170082,-0.011806728570264631,-0.05823637911880282,0,70,255.0,255.0,255.0
147,7.3500000000000005,-1.9066682275585316,10.18106596008077,-1.8196849969958748,-0.10843106037424677,-0.08492641831496281,-0.4847921725159091,-0.01492722672336333,-0.011547690219636262,-0.06005939519225001,0,70,255.0,255.0,255.0
148,7.4,-1.9121084093174887,10.176805312484893,-1.844000439455691,-0.10917560412084477,-0.08549732686717891,-0.48784071767735776,-0.014854523140556575,-0.011288651869007892,-0.06188241126569719,0,70,255.0,255.0,255.0
149,7.45,-1.9175857273842973,10.172516443259346,-1.8684705879436718,-0.10991651268830242,-0.0860552835018636,-0.4909804136424788,-0.01478181955774982,-0.01102961351837952,-0.06370542733914437,0,70,255.0,255.0,255.0
150,7.5,-1.9231,10.1682,-1.8931,-0.11065378607661974,-0.08660028821901686,-0.49421126041127217,-0.014709115974943288,-0.010770575167750707,-0.06552844341259156,0,70,255.0,255.0,255.0
151,7.550000000000001,-1.9286508908476527,10.16385641559032,-1.917891668943154,-0.1113781508065484,-0.08714522376360623,-0.49743940468136033,-0.014265473222202812,-0.011026846615824008,-0.06359732739093339,0,70,255.0,255.0,255.0
152,7.6000000000000005,-1.934237445378361,10.159485264064099,-1.9428423312047851,-0.11208033339884003,-0.08770297288059926,-0.5005709931503656,-0.013821830469462344,-0.011283118063897304,-0.06166621136927526,0,70,255.0,255.0,255.0
153,7.65,-1.939858554485243,10.155085904742721,-1.967947158994839,-0.11276033385349464,-0.08827353556999595,-0.5036060258182878,-0.013378187716721876,-0.0115393895119706,-0.059735095347617125,0,70,255.0,255.0,255.0
154,7.7,-1.9455131090614164,10.15065769694756,-1.993201324523262,-0.11341815217051221,-0.08885691183179632,-0.5065445026851273,-0.012934544963981408,-0.011795660960043898,-0.057803979325958994,0,70,255.0,255.0,255.0
155,7.75,-1.9512,10.1462,-2.0186,-0.11405378834989277,-0.08945310166600035,-0.5093864237508838,-0.012490902211240495,-0.012051932408117194,-0.055872863304301745,0,70,255.0,255.0,255.0
156,7.800000000000001,-1.9569182727430061,10.141712599187624,-2.044140021203347,-0.11467651532529903,-0.0900365471003646,-0.5122316031164283,-0.012418176805009472,-0.011285884966452631,-0.05793431131747798,0,70,255.0,255.0,255.0
157,7.8500000000000005,-1.9626675909280247,10.13719698366283,-2.0698248781849875,-0.11529560603039372,-0.09058169016264561,-0.5151798548826316,-0.01234545139877845,-0.010519837524788082,-0.05999575933065417,0,70,255.0,255.0,255.0
158,7.9,-1.9684477727415404,10.132655068544228,-2.0956597245649546,-0.11591106046517687,-0.09108853085284341,-0.5182311790494938,-0.012272725992547428,-0.00975379008312353,-0.06205720734383037,0,70,255.0,255.0,255.0
159,7.95,-1.9742586363700372,10.128088768950416,-2.121649713963281,-0.11652287862964847,-0.09155706917095796,-0.5213855756170146,-0.012200000586316406,-0.008987742641458981,-0.06411865535700656,0,70,255.0,255.0,255.0
160,8.0,-1.9801,10.1235,-2.1478,-0.1171310605238085,-0.0919873051169893,-0.5246430445851943,-0.012127275180085384,-0.008221695199793766,-0.0661801033701801,0,70,255.0,255.0,255.0
161,8.05,-1.985972018180323,10.118889987659186,-2.17411384624346,-0.1177557878922544,-0.09242058783494374,-0.5278901828529272,-0.01286181955775022,-0.009109613518383564,-0.0637054273391351,0,70,255.0,255.0,255.0
162,8.1,-1.99187619090954,10.114257201284573,-2.200586956055267,-0.11841724247958352,-0.09289826646882765,-0.5310135873191079,-0.013596363935415029,-0.009997531836973333,-0.061230751308090185,0,70,255.0,255.0,255.0
163,8.15,-1.9978143545485958,10.10959942108037,-2.227213142745345,-0.1191154242857959,-0.09342034101864106,-0.5340132579837361,-0.014330908313079864,-0.010885450155563131,-0.05875607527704519,0,70,255.0,255.0,255.0
164,8.200000000000001,-2.003788345458435,10.104914427250778,-2.2539862196236156,-0.11985033331089152,-0.09398681148438398,-0.5368891948468123,-0.015065452690744701,-0.011773368474152932,-0.05628139924600019,0,70,255.0,255.0,255.0
165,8.25,-2.0098,10.1002,-2.2809,-0.12062196955487037,-0.09459767786605634,-0.5396413979083363,-0.015799997068409732,-0.012661286792742144,-0.05380672321495439,0,70,255.0,255.0,255.0
166,8.3,-2.015850454535702,10.095454650175636,-2.3079501938228155,-0.12138833310568037,-0.09520910155987515,-0.5423836654718596,-0.014854544963989622,-0.011795660960009755,-0.05588397932597256,0,70,255.0,255.0,255.0
167,8.35,-2.0219380454338136,10.090679811198873,-2.3351400975939445,-0.12210742405126933,-0.09577724396205732,-0.5452297958409336,-0.013909092859569545,-0.0109300351272774,-0.057961235436990666,0,70,255.0,255.0,255.0
168,8.4,-2.028060409064075,10.085877647134291,-2.3624749044536677,-0.1227792423916373,-0.09630210507260288,-0.5481797890155586,-0.012963640755149435,-0.010064409294545012,-0.06003849154800883,0,70,255.0,255.0,255.0
169,8.450000000000001,-2.034215181796224,10.081050322046472,-2.389959807542261,-0.12340378812678429,-0.09678368489151183,-0.5512336449957346,-0.012018188650729324,-0.009198783461812625,-0.06211574765902701,0,70,255.0,255.0,255.0
170,8.5,-2.0404,10.0762,-2.4176,-0.12398106125671024,-0.09722198341878414,-0.5543913637814613,-0.01107273654630947,-0.008333157629080268,-0.06419300377004511,0,70,255.0,255.0,255.0
171,8.55,-2.0466133636768684,10.071328211638269,-2.4453989784652808,-0.12456287968502588,-0.09765500592554763,-0.5575511552596374,-0.012200000586316467,-0.008987742641458839,-0.06219865535700106,0,70,255.0,255.0,255.0
172,8.6,-2.0528572273552026,10.066433953919935,-2.4733534535689525,-0.1252010613153419,-0.09812075768293003,-0.5606112293171613,-0.013327264626323424,-0.009642327653837386,-0.06020430694395708,0,70,255.0,255.0,255.0
173,8.65,-2.059134409195103,10.061515590382466,-2.5014584394399857,-0.12589560614765824,-0.09861923869093135,-0.5635715859540332,-0.014454528666330421,-0.010296912666215956,-0.05820995853091303,0,70,255.0,255.0,255.0
174,8.700000000000001,-2.0654477273566685,10.056571484563332,-2.529708950207346,-0.12664651418197495,-0.09915044894955163,-0.5664322251702527,-0.015581792706337418,-0.010951497678594527,-0.05621561011786898,0,70,255.0,255.0,255.0
175,8.75,-2.0718,10.0516,-2.5581,-0.12745378541829197,-0.09971438845879081,-0.56919314696582,-0.01670905674634393,-0.011606082690972852,-0.054221261704825,0,70,255.0,255.0,255.0
176,8.8,-2.0781928907568243,10.046599703271287,-2.586628292316065,-0.12824814815421887,-0.1002988747379198,-0.5719557134895905,-0.01506545269073174,-0.011773368474186642,-0.056281399245991924,0,70,255.0,255.0,255.0
177,8.85,-2.0846234451453753,10.04156997312139,-2.6152972881302436,-0.12896033068736512,-0.10089172530620948,-0.5748212868904191,-0.013421848635119605,-0.011940654257400428,-0.058341536787158775,0,70,255.0,255.0,255.0
178,8.9,-2.0910875541555147,10.036510391335845,-2.6441121377863905,-0.12959033301773085,-0.10149294016365985,-0.5777898671683064,-0.011778244579507413,-0.01210794004061422,-0.060401674328325695,0,70,255.0,255.0,255.0
179,8.950000000000001,-2.0975811087771024,10.031420539700203,-2.6730779916283587,-0.1301381551453159,-0.10210251931027091,-0.5808614543232519,-0.01013464052389522,-0.01227522582382801,-0.06246181186949262,0,70,255.0,255.0,255.0
180,9.0,-2.1041,10.0263,-2.7022,-0.13060379707012035,-0.10272046274604263,-0.5840360483552556,-0.008491036468282198,-0.01244251160704124,-0.0645219494106577,0,70,255.0,255.0,255.0
181,9.05,-2.110641473295834,10.021148975276583,-2.7314814522704634,-0.13106852769809596,-0.10330949512276473,-0.587201990781998,-0.01009818865074219,-0.011118783461842145,-0.06211574765903475,0,70,255.0,255.0,255.0
182,9.1,-2.1172081920632944,10.015970153594512,-2.7609181939100735,-0.13161361593519455,-0.10383234109222685,-0.5902476231211591,-0.011705340833202127,-0.009795055316643096,-0.059709545907411885,0,70,255.0,255.0,255.0
183,9.15,-2.123804174182839,10.01076684427415,-2.7905042094144523,-0.13223906178141617,-0.10428900065442903,-0.5931729453727391,-0.013312493015662119,-0.008471327171444,-0.05730334415578893,0,70,255.0,255.0,255.0
184,9.200000000000001,-2.1304334375349216,10.005542356635857,-2.820233483279222,-0.13294486523676077,-0.10467947380937126,-0.595977957536738,-0.014919645198122111,-0.007147599026244905,-0.05489714240416598,0,70,255.0,255.0,255.0
185,9.25,-2.1371,10.0003,-2.8501,-0.13373102630122835,-0.10500376055705352,-0.5986626596131558,-0.016526797380581826,-0.005823870881045412,-0.052490940652544005,0,70,255.0,255.0,255.0
186,9.3,-2.14380681605984,9.995041995622378,-2.8800994986020845,-0.13453374105340113,-0.10532714477104303,-0.6013323233824163,-0.015581792706328899,-0.007111497678535113,-0.0542956101178737,0,70,255.0,255.0,255.0
187,9.35,-2.150552586601445,9.989766212500562,-2.9102347362294623,-0.13528920557186125,-0.10571491032490703,-0.6040922206249432,-0.014636788032076005,-0.008399124476024769,-0.05610027958320333,0,70,255.0,255.0,255.0
188,9.4,-2.157334949113131,9.984469431567558,-2.9405102245557995,-0.1359974198566087,-0.10616705721864551,-0.6069423513407366,-0.013691783357823077,-0.009686751273514468,-0.05790494904853302,0,70,255.0,255.0,255.0
189,9.450000000000001,-2.164151541083211,9.979148433756368,-2.970930475254758,-0.13665838390764357,-0.10668358545225848,-0.6098827155297966,-0.01274677868357015,-0.010974378071004171,-0.05970961851386271,0,70,255.0,255.0,255.0
190,9.5,-2.171,9.9738,-3.0015,-0.13727209772496574,-0.10726449502574593,-0.6129133131921228,-0.011801774009317256,-0.01226200486849327,-0.06151428797919234,0,70,255.0,255.0,255.0
191,9.55,-2.1778784624648075,9.968421442233897,-3.0322221533212015,-0.13786850808829615,-0.10787792579305397,-0.6159647156883399,-0.012054640523898999,-0.012275225823827519,-0.06054181186948762,0,70,255.0,255.0,255.0
192,9.600000000000001,-2.1847870615309253,9.96301219640323,-3.063095661172077,-0.13847756177735565,-0.10849201760812871,-0.6189674943790716,-0.012307507038480743,-0.012288446779161766,-0.05956933575978291,0,70,255.0,255.0,255.0
193,9.65,-2.1917264293646386,9.95757222945562,-3.09411809236235,-0.13909925879214424,-0.10910677047097013,-0.6219216492643181,-0.012560373553062477,-0.012301667734496013,-0.05859685965007823,0,70,255.0,255.0,255.0
194,9.700000000000001,-2.198697198132235,9.952101508338673,-3.1252870157017507,-0.1397335991326619,-0.10972218438157831,-0.6248271803440795,-0.012813240067644222,-0.012314888689830262,-0.05762438354037352,0,70,255.0,255.0,255.0
195,9.75,-2.2057,9.9466,-3.1566,-0.1403805827989086,-0.11033825933995314,-0.6276840876183555,-0.01306610658222529,-0.012328109645163954,-0.056651907430663506,0,70,255.0,255.0,255.0
196,9.8,-2.2127353340809304,9.941068235442037,-3.1880550881131122,-0.1410322265934174,-0.11092115205673984,-0.6305208138642261,-0.012999645198126197,-0.010987599026303954,-0.05681714240416032,0,70,255.0,255.0,255.0
197,9.850000000000001,-2.219803167274855,9.935509001886507,-3.2196522190822345,-0.14168054731872123,-0.11143701924258355,-0.6333658018587717,-0.012933183814027104,-0.009647088407443955,-0.05698237737765713,0,70,255.0,255.0,255.0
198,9.9,-2.2269033334283153,9.929925650609963,-3.2513918059948006,-0.1423255449748201,-0.11188586089748424,-0.6362190516019918,-0.012866722429928012,-0.008306577788584003,-0.05714761235115393,0,70,255.0,255.0,255.0
199,9.950000000000001,-2.2340356663878507,9.924321532888943,-3.2832742619382453,-0.14296721956171404,-0.11226767702144196,-0.6390805630938869,-0.012800261045828919,-0.006966067169724004,-0.057312847324650744,0,70,255.0,255.0,255.0
200,10.0,-2.2412,9.9187,-3.3153,-0.14360557107940297,-0.11258246761445664,-0.641950336334457,-0.01273379966173005,-0.005625556550864053,-0.057478082298144884,0,70,255.0,255.0,255.0
201,10.05,-2.248396201211473,9.913063215997953,-3.3474694942263525,-0.1442425855380351,-0.11290146598000188,-0.6448320288547571,-0.012746778683553473,-0.007134378070944857,-0.05778961851385809,0,70,255.0,255.0,255.0
202,10.100000000000001,-2.2556242693696555,9.907408596050733,-3.37978346249899,-0.14488024894775833,-0.11329590542155113,-0.6477292981858429,-0.012759757705376896,-0.008643199591025661,-0.0581011547295713,0,70,255.0,255.0,255.0
203,10.15,-2.2628842369221007,9.901732368104533,-3.41224268365845,-0.14551856130857277,-0.11376578593910443,-0.6506421443277142,-0.012772736727200317,-0.010152021111106413,-0.0584126909452845,0,70,255.0,255.0,255.0
204,10.200000000000001,-2.270176136316364,9.896030760105555,-3.444847936545274,-0.14615752262047835,-0.11431110753266178,-0.6535705672803713,-0.01278571574902374,-0.011660842631187218,-0.058724227160997705,0,70,255.0,255.0,255.0
205,10.25,-2.2775,9.8903,-3.4776,-0.14679713288347512,-0.11493187020222315,-0.656514567043814,-0.012798694770847607,-0.013169664151267746,-0.059035763376710904,0,70,255.0,255.0,255.0
206,10.3,-2.284855861073178,9.884537300566143,-3.5104989349814804,-0.14743743125443787,-0.1155689840232506,-0.6594310707167412,-0.012813240067661004,-0.012314888689829872,-0.05762438354038044,0,70,255.0,255.0,255.0
207,10.350000000000001,-2.2922437552465245,9.878743813910559,-3.543541930921811,-0.14807845689024124,-0.11616335907120616,-0.6622770053978521,-0.012827785364474398,-0.011460113228391997,-0.05621300370404998,0,70,255.0,255.0,255.0
208,10.4,-2.2996637188832825,9.872921676971906,-3.5767254593714015,-0.1487202097908853,-0.1167149953460898,-0.6650523710871463,-0.012842330661287793,-0.010605337766954152,-0.05480162386771957,0,70,255.0,255.0,255.0
209,10.450000000000001,-2.3071157883466937,9.867073026688834,-3.610045991880662,-0.14936268995637,-0.11722389284790156,-0.667757167784624,-0.012856875958101189,-0.00975056230551628,-0.05339024403138912,0,70,255.0,255.0,255.0
210,10.5,-2.3146,9.8612,-3.6435,-0.1500058973866954,-0.11769005157664142,-0.6703913954902853,-0.012871421254913695,-0.008895786844078657,-0.05197886419506137,0,70,255.0,255.0,255.0
211,10.55,-2.3221163544958165,9.855304381737477,-3.6770851658477293,-0.15064768944421397,-0.11813459792698723,-0.6730276882782783,-0.01280026104582843,-0.008886067169753797,-0.05347284732465971,0,70,255.0,255.0,255.0
212,10.600000000000001,-2.329664709644247,9.849386548307029,-3.71080401381377,-0.15128592349127826,-0.11857865829361681,-0.6757386802227513,-0.012729100836743166,-0.008876347495428937,-0.05496683045425805,0,70,255.0,255.0,255.0
213,10.65,-2.3372448875447693,9.843446524007845,-3.7446602788559455,-0.15192059952788828,-0.11902223267653013,-0.6785243713237041,-0.012657940627657904,-0.008866627821104079,-0.05646081358385634,0,70,255.0,255.0,255.0
214,10.700000000000001,-2.344856710296862,9.837484333139107,-3.7786576959320812,-0.15255171755404404,-0.11946532107572722,-0.6813847615811369,-0.012586780418572639,-0.008856908146779219,-0.05795479671345468,0,70,255.0,255.0,255.0
215,10.75,-2.3525,9.8315,-3.8128,-0.1531792775697455,-0.11990792349120803,-0.6843198509950494,-0.01251562020948671,-0.008847188472454026,-0.059448779843053856,0,70,255.0,255.0,255.0
216,10.8,-2.3601747209435575,9.82549317248395,-3.847090001627606,-0.15381181096870805,-0.12037262426879917,-0.6872741761701503,-0.01278571574901544,-0.009740842631191472,-0.05872422716098099,0,70,255.0,255.0,255.0
217,10.850000000000001,-2.3678814061764872,9.819461992861322,-3.8815268138231143,-0.15445784914464708,-0.1208820077543272,-0.6901922737111476,-0.013055811288544168,-0.01063449678992892,-0.05799967447890813,0,70,255.0,255.0,255.0
218,10.9,-2.3756207309376385,9.813404226996719,-3.916108625204819,-0.15511739209756248,-0.12143607394779206,-0.6930741436180412,-0.013325906828072888,-0.011528150948666334,-0.05727512179683529,0,70,255.0,255.0,255.0
219,10.950000000000001,-2.38339337046586,9.807317640754743,-3.9508336243910165,-0.15579043982745433,-0.12203482284919381,-0.6959197858908311,-0.013596002367601617,-0.01242180510740378,-0.056550569114762424,0,70,255.0,255.0,255.0
220,11.0,-2.3912,9.8012,-3.9857,-0.15647699233432266,-0.12267825445853242,-0.6987292005295174,-0.013866097907130559,-0.013315459266140639,-0.05582601643269136,0,70,255.0,255.0,255.0
221,11.05,-2.399040761729955,9.795050128326723,-4.020706027641849,-0.15714506668095346,-0.12330290499782288,-0.7015076070411194,-0.012856875958100908,-0.011670562305477692,-0.0553102440313868,0,70,255.0,255.0,255.0
222,11.100000000000001,-2.4069136656498045,9.788871080247684,-4.0558503308937786,-0.1577626799301328,-0.12384531068908021,-0.704260224932656,-0.011847654009071257,-0.010025665344814748,-0.05479447163008223,0,70,255.0,255.0,255.0
223,11.15,-2.414816188704677,9.782666968005282,-4.091131620324781,-0.15832983208186058,-0.12430547153230437,-0.7069870542041277,-0.01083843206004164,-0.00838076838415186,-0.05427869922877768,0,70,255.0,255.0,255.0
224,11.200000000000001,-2.4227458078397,9.77644190384192,-4.126548606503857,-0.15884652313613692,-0.12468338752749537,-0.7096880948555339,-0.00982921011101199,-0.006735871423488913,-0.05376292682747311,0,70,255.0,255.0,255.0
225,11.25,-2.4307,9.7702,-4.1621,-0.15931275309296175,-0.12497905867465327,-0.712363346886875,-0.008819988161982595,-0.005090974462826803,-0.053247154426167675,0,70,255.0,255.0,255.0
226,11.3,-2.438677432136624,9.763943914209154,-4.197785087804996,-0.15979992230747575,-0.1252797557398944,-0.7150473956653659,-0.01066678041857692,-0.006936908146817982,-0.05411479671347071,0,70,255.0,255.0,255.0
227,11.350000000000001,-2.4466815312242947,9.75767048614794,-4.233605462601776,-0.16037943113481945,-0.12567274948933507,-0.7177748265582221,-0.012513572675171244,-0.00878284183080916,-0.05498243900077376,0,70,255.0,255.0,255.0
228,11.4,-2.4547169142436527,9.751375100982152,-4.269563293496058,-0.16105127957499288,-0.1261580399229753,-0.7205456395654434,-0.014360364931765504,-0.010628775514800272,-0.05585008128807677,0,70,255.0,255.0,255.0
229,11.450000000000001,-2.462788198175341,9.745053143877575,-4.30566074959356,-0.161815467627996,-0.12673562704081512,-0.7233598346870298,-0.016207157188359828,-0.01247470919879145,-0.056717723575379804,0,70,255.0,255.0,255.0
230,11.5,-2.4709,9.7387,-4.3419,-0.16267199529382886,-0.12740551084285445,-0.7262174119229813,-0.01805394944495431,-0.014320642882783119,-0.05758536586268104,0,70,255.0,255.0,255.0
231,11.55,-2.479055109723549,9.73231261483666,-4.378282421138166,-0.16351124408914286,-0.12807407204260915,-0.7290708102974175,-0.015516002367605761,-0.012421805107403445,-0.056550569114762604,0,70,255.0,255.0,255.0
232,11.600000000000001,-2.487249009453017,9.725894175160553,-4.414806218699119,-0.16422359553058946,-0.1286476913535948,-0.7318724688344577,-0.012978055290257213,-0.01052296733202377,-0.055515772366844164,0,70,255.0,255.0,255.0
233,11.65,-2.49547535432071,9.719449428066113,-4.451468805690989,-0.1648090496181686,-0.12912636877581152,-0.7346223875341018,-0.010440108212908753,-0.008624129556644164,-0.054480975618925766,0,70,255.0,255.0,255.0
234,11.700000000000001,-2.503727799458936,9.712983120647781,-4.488267595121906,-0.16526760635188034,-0.12951010430925922,-0.7373205663963501,-0.007902161135560205,-0.00672529178126449,-0.05344617887100733,0,70,255.0,255.0,255.0
235,11.75,-2.512,9.7065,-4.5252,-0.16559926573172465,-0.12979889795393795,-0.7399670054212024,-0.005364214058212413,-0.004826454005884884,-0.05241138212308449,0,70,255.0,255.0,255.0
236,11.8,-2.520287728969181,9.700003226444206,-4.562264427642341,-0.16593110133595518,-0.13008795608967147,-0.7426213631449662,-0.00790921011100804,-0.006735871423455136,-0.053762926827463905,0,70,255.0,255.0,255.0
237,11.850000000000001,-2.52859523096364,9.69348961320985,-4.599463262601751,-0.16639018674282546,-0.13047248509628345,-0.745343298103949,-0.010454206163803666,-0.008645288841025387,-0.05511447153184332,0,70,255.0,255.0,255.0
238,11.9,-2.536928868473508,9.686954386753396,-4.636799883739989,-0.1669765219523355,-0.13095248497377399,-0.7481328102981505,-0.0129992022165992,-0.010554706258595573,-0.05646601623622268,0,70,255.0,255.0,255.0
239,11.950000000000001,-2.5452950039889175,9.680392773531294,-4.674277669918819,-0.16769010696448539,-0.13152795572214304,-0.7509898997275711,-0.015544198269394825,-0.012464123676165825,-0.05781756094060209,0,70,255.0,255.0,255.0
240,12.0,-2.5537,9.6738,-4.7119,-0.16853094177927502,-0.13219889734139054,-0.7539145663922107,-0.018089194322189694,-0.014373541093735787,-0.059169105644977904,0,70,255.0,255.0,255.0
241,12.05,-2.5621483743997278,9.667172879386518,-4.749668668292472,-0.16938835056703855,-0.1328701035987046,-0.7568117371227195,-0.016207157188350925,-0.012474709198825824,-0.056717723575378506,0,70,255.0,255.0,255.0
242,12.100000000000001,-2.570637266692426,9.660514572000041,-4.7875791308938815,-0.17015165749811015,-0.13344636826127312,-0.7595863387497486,-0.014325120054512155,-0.01057587730391586,-0.05426634150577911,0,70,255.0,255.0,255.0
243,12.15,-2.5791619717852607,9.653829824920303,-4.825625259349054,-0.17082086257248974,-0.13392769132909618,-0.7622383712732975,-0.012443082920673452,-0.008677045409005966,-0.0518149594361798,0,70,255.0,255.0,255.0
244,12.200000000000001,-2.5877177845853967,9.647123385227045,-4.86380092520282,-0.17139596579017746,-0.13431407280217372,-0.7647678346933666,-0.010561045786834682,-0.006778213514096003,-0.049363577366580404,0,70,255.0,255.0,255.0
245,12.25,-2.5963,9.6404,-4.9021,-0.1718769671511732,-0.13460551268050577,-0.7671747290099555,-0.0086790086529962,-0.004879381619186107,-0.046912195296981096,0,70,255.0,255.0,255.0
246,12.3,-2.6049051734319093,9.633662856009716,-4.9405184991877755,-0.17233949639588747,-0.1348956295155162,-0.7695876883641555,-0.009822161135573609,-0.006725291781230496,-0.04960617887101475,0,70,255.0,255.0,255.0
247,12.350000000000001,-2.6135349022666574,9.626908898789981,-4.9790610138227285,-0.1728591832647306,-0.13527804185862882,-0.7721353468970571,-0.010965313618151017,-0.008571201943274884,-0.05230016244504839,0,70,255.0,255.0,255.0
248,12.4,-2.6221920443854514,9.620133513565385,-5.017734278863792,-0.17343602775770256,-0.13575274970984366,-0.7748177046086603,-0.012108466100728386,-0.010417112105319206,-0.054994146019081945,0,70,255.0,255.0,255.0
249,12.450000000000001,-2.6308794576694967,9.613332085560526,-5.0565450292699055,-0.1740700298748034,-0.13631975306916075,-0.7776347614989653,-0.013251618583305792,-0.012263022267363595,-0.05768812959311559,0,70,255.0,255.0,255.0
250,12.5,-2.6396,9.6065,-5.0955,-0.17476118961603315,-0.13697905193658,-0.7805865175679719,-0.014394771065882495,-0.01410893242940725,-0.06038211316715181,0,70,255.0,255.0,255.0
251,12.55,-2.648355731872636,9.599634096574615,-5.13460373495643,-0.17546166384941497,-0.1376433783392202,-0.7835415094206654,-0.01362419826939013,-0.01246412367619951,-0.05781756094058409,0,70,255.0,255.0,255.0
252,12.600000000000001,-2.6571455242409447,9.59273703284004,-5.173852013815212,-0.17612360944297217,-0.13822546430419996,-0.7863682736620303,-0.012853625472897768,-0.010819314922991772,-0.055253008714016366,0,70,255.0,255.0,255.0
253,12.65,-2.6659674506729356,9.585812920818157,-5.213238425195779,-0.17674702639670475,-0.13872530983151934,-0.789066810292067,-0.012083052676405432,-0.009174506169784092,-0.052688456487448736,0,70,255.0,255.0,255.0
254,12.700000000000001,-2.6748195847366185,9.578865872530848,-5.2527565577175634,-0.17733191471061274,-0.13914291492117836,-0.7916371193107753,-0.011312479879913068,-0.007529697416576352,-0.050123904260881015,0,70,255.0,255.0,255.0
255,12.75,-2.6837,9.5719,-5.2924,-0.17787827438469608,-0.139478279573177,-0.794079200718155,-0.010541907083420954,-0.005884888663368226,-0.047559352034308944,0,70,255.0,255.0,255.0
256,12.8,-2.692607099077549,9.564918357691823,-5.332164160986506,-0.17840584820645228,-0.1397948571276136,-0.7965022739531772,-0.01056104578682624,-0.006778213514096011,-0.049363577366578704,0,70,255.0,255.0,255.0
257,12.850000000000001,-2.7015406007695653,9.55791976984986,-5.3720517309164295,-0.17893437896337874,-0.1401561009245866,-0.799015558454813,-0.010580184490231527,-0.0076715383648237965,-0.05116780269884847,0,70,255.0,255.0,255.0
258,12.9,-2.7105005529228063,9.550902003161989,-5.412067220353097,-0.17946386665547542,-0.14056201096409596,-0.801619054223062,-0.010599323193636812,-0.00856486321555155,-0.05297202803111817,0,70,255.0,255.0,255.0
259,12.950000000000001,-2.719487003384032,9.543862824316076,-5.452215139859844,-0.1799943112827424,-0.14101258724614174,-0.8043127612579247,-0.010618461897042098,-0.009458188066279336,-0.054776253363387935,0,70,255.0,255.0,255.0
260,13.0,-2.7285,9.5368,-5.4925,-0.18052571284517963,-0.14150782977072388,-0.8070966795594008,-0.01063760060044694,-0.010351512917005534,-0.05658047869565763,0,70,255.0,255.0,255.0
261,13.05,-2.7375398718171695,9.529711672658088,-5.532925221097548,-0.18107494332477378,-0.14202519315033235,-0.8099053947666207,-0.011331618583318425,-0.010343022267333125,-0.05576812959313954,0,70,255.0,255.0,255.0
262,13.100000000000001,-2.7466080726807967,9.522597487760509,-5.573489862519078,-0.1816588747035115,-0.1425421319974572,-0.8126734925187148,-0.01202563656618991,-0.010334531617660713,-0.05495578049062144,0,70,255.0,255.0,255.0
263,13.15,-2.7557063376358393,9.515457466533883,-5.6141918933918324,-0.18227750698139275,-0.14305864631209844,-0.8154009728156829,-0.01271965454906137,-0.010326040967988304,-0.054143431388103375,0,70,255.0,255.0,255.0
264,13.200000000000001,-2.764836401727255,9.50829163020484,-5.65502928284306,-0.18293084015841762,-0.14357473609425603,-0.8180878356575252,-0.013413672531932855,-0.010317550318315893,-0.05333108228558528,0,70,255.0,255.0,255.0
265,13.25,-2.774,9.5011,-5.696,-0.18361887423458603,-0.14409040134392997,-0.8207340810442415,-0.014107690514803428,-0.010309059668643261,-0.05251873318306988,0,70,255.0,255.0,255.0
266,13.3,-2.783198213653775,9.493882951675824,-5.737102154623307,-0.18430237849445383,-0.14458437027106036,-0.8233481469803402,-0.013232479879908552,-0.009449697416572077,-0.05204390426087481,0,70,255.0,255.0,255.0
267,13.350000000000001,-2.79242950850725,9.486642279108105,-5.778334419007266,-0.1849421222225769,-0.1450353710855872,-0.8259384714703291,-0.012357269245013677,-0.008590335164500893,-0.05156907533867974,0,70,255.0,255.0,255.0
268,13.4,-2.801691696533837,9.479380130702472,-5.819695606079571,-0.1855381054189552,-0.14544340378751047,-0.8285050545142081,-0.011482058610118834,-0.007730972912429739,-0.0510942464164847,0,70,255.0,255.0,255.0
269,13.450000000000001,-2.8109825897069496,9.472098654864562,-5.861184528767919,-0.1860903280835888,-0.14580846837683017,-0.8310478961119775,-0.010606847975223958,-0.006871610660358555,-0.05061941749428963,0,70,255.0,255.0,255.0
270,13.5,-2.8203,9.4648,-5.9028,-0.18659879021647763,-0.1461305648535463,-0.8335669962636372,-0.009731637340329335,-0.0060122484082865135,-0.05014458857209547,0,70,255.0,255.0,255.0
271,13.55,-2.829642473567731,9.457485320638622,-5.944541360409226,-0.18710754269741192,-0.14646932576541052,-0.836094017312024,-0.010618461897042065,-0.007538188066282746,-0.05093625336337909,0,70,255.0,255.0,255.0
272,13.600000000000001,-2.8390114932902053,9.450151795807077,-5.986410061451863,-0.18766063640618186,-0.1468843836601746,-0.8386606215999751,-0.011505286453754796,-0.009064127724278979,-0.05172791815466271,0,70,255.0,255.0,255.0
273,13.65,-2.8484092762288133,9.442795610656223,-6.028408082289884,-0.1882580713427874,-0.14737573853783845,-0.8412668091274903,-0.012392111010467494,-0.010590067382275158,-0.0525195829459463,0,70,255.0,255.0,255.0
274,13.700000000000001,-2.857838039444948,9.435412950336913,-6.070537402085272,-0.1888998475072286,-0.1479433903984021,-0.8439125798945698,-0.013278935567180225,-0.012116007040271392,-0.05331124773722992,0,70,255.0,255.0,255.0
275,13.75,-2.8673,9.428,-6.1128,-0.1895859648995054,-0.14858733924186557,-0.8465979339012133,-0.014165760123892923,-0.013641946698267127,-0.05410291252851529,0,70,255.0,255.0,255.0
276,13.8,-2.8767966920753008,9.420554165769694,-6.155197203739787,-0.19027545071590085,-0.14923432666728173,-0.8492837837715659,-0.013413672531923904,-0.012237550318379389,-0.05333108228558742,0,70,255.0,255.0,255.0
277,13.850000000000001,-2.8863269183319304,9.413077737663588,-6.197727735185289,-0.19092733215269783,-0.14981109427370354,-0.8519310421297721,-0.012661584939954885,-0.01083315393849165,-0.05255925204265954,0,70,255.0,255.0,255.0
278,13.9,-2.8958887985509105,9.405574226672638,-6.240389664760895,-0.19154160920989632,-0.1503176420611309,-0.8545397089758319,-0.011909497347985892,-0.009428757558603963,-0.0517874217997317,0,70,255.0,255.0,255.0
279,13.950000000000001,-2.90548045251326,9.398047143787792,-6.2831810628910025,-0.1921182818874964,-0.15075397002956392,-0.8571097843097453,-0.011157409756016874,-0.008024361178716225,-0.051015591556803824,0,70,255.0,255.0,255.0
280,14.0,-2.9151,9.3905,-6.3261,-0.192657350185498,-0.15112007817900253,-0.8596412681315122,-0.010405322164047437,-0.006619964798828981,-0.050243761313872426,0,70,255.0,255.0,255.0
281,14.05,-2.924745958131068,9.382935616282607,-6.369145024631627,-0.19318265443898003,-0.15145736756548137,-0.8621628476017162,-0.01060684797523255,-0.006871610660324382,-0.05061941749428876,0,70,255.0,255.0,255.0
282,14.100000000000001,-2.934418433382074,9.375354053538565,-6.41231659780699,-0.1937180349830213,-0.15180723924503498,-0.8647032098809411,-0.010808373786417663,-0.007123256521819783,-0.05099507367470509,0,70,255.0,255.0,255.0
283,14.15,-2.944117929567546,9.36775468265322,-6.455615658666539,-0.1942634918176218,-0.15216969321766333,-0.8672623549691868,-0.01100989959760277,-0.007374902383315176,-0.051370729855121415,0,70,255.0,255.0,255.0
284,14.200000000000001,-2.9538449505020123,9.360136874511916,-6.499043146350726,-0.19481902494278155,-0.15254472948336648,-0.8698402828664533,-0.011211425408787883,-0.007626548244810577,-0.051746386035537745,0,70,255.0,255.0,255.0
285,14.25,-2.9636,9.3525,-6.5426,-0.19538463435850056,-0.1529323480421444,-0.8724369935727405,-0.011412951219972545,-0.007878194106305081,-0.05212204221595229,0,70,255.0,255.0,255.0
286,14.3,-2.973383475400428,9.34484336909987,-6.5862866977337085,-0.1959539315281795,-0.1533362030708073,-0.8750248258215698,-0.011358935567184592,-0.00827600704021148,-0.051391247737218024,0,70,255.0,255.0,255.0
287,14.350000000000001,-2.9831953481397746,9.337166048182139,-6.630101873586759,-0.19652052791521904,-0.15375994874616555,-0.8775761183464624,-0.011304919914396637,-0.00867381997411788,-0.05066045325848376,0,70,255.0,255.0,255.0
288,14.4,-2.993035483178906,9.329467042714475,-6.6740437005729545,-0.19708442351961916,-0.1542035850682191,-0.8800908711474182,-0.011250904261608685,-0.009071632908024267,-0.049929658779749524,0,70,255.0,255.0,255.0
289,14.450000000000001,-3.0029037454786924,9.321745358164538,-6.718110351706103,-0.1976456183413799,-0.15466711203696798,-0.8825690842244373,-0.01119688860882073,-0.009469445841930666,-0.04919886430101526,0,70,255.0,255.0,255.0
290,14.5,-3.0128,9.314,-6.7623,-0.1982041123805012,-0.15515052965241216,-0.8850107575775196,-0.011142872956031669,-0.009867258775837495,-0.04846806982227836,0,70,255.0,255.0,255.0
291,14.55,-3.02272414026722,9.306230107317909,-6.806611384433543,-0.1987616194483022,-0.15564582015127676,-0.8874498491119971,-0.011157409756007963,-0.009944361178746421,-0.049095591556823776,0,70,255.0,255.0,255.0
292,14.600000000000001,-3.032676174058831,9.29843535373287,-6.8510455078459795,-0.199319853356102,-0.15614496577028683,-0.889920316733202,-0.011171946555984259,-0.010021463581655345,-0.0497231132913692,0,70,255.0,255.0,255.0
293,14.65,-3.0426561377168304,9.290615546488876,-6.895603939041643,-0.19987881410390063,-0.1566479665094423,-0.8924221604411341,-0.011186483355960553,-0.010098565984564267,-0.050350635025914595,0,70,255.0,255.0,255.0
294,14.700000000000001,-3.0526640675832204,9.282770492829922,-6.940288246824871,-0.20043850169169805,-0.15715482236874323,-0.8949553802357935,-0.011201020155936848,-0.010175668387473193,-0.05097815676046002,0,70,255.0,255.0,255.0
295,14.75,-3.0627,9.2749,-6.9851,-0.2009989161194943,-0.1576655333481896,-0.8975199761171802,-0.01121555695591403,-0.010252770790382115,-0.05160567849500275,0,70,255.0,255.0,255.0
296,14.8,-3.072763963530692,9.267004201628495,-7.03004056453212,-0.20155959067861207,-0.15816051632407016,-0.9001037777304437,-0.011211425408796804,-0.00954654824483975,-0.05174638603553596,0,70,255.0,255.0,255.0
297,14.850000000000001,-3.0828559556249058,9.259084536886382,-7.075110495029329,-0.202120058660374,-0.15862018817267362,-0.9026946147207339,-0.011207293861679579,-0.008840325699297382,-0.05188709357606918,0,70,255.0,255.0,255.0
298,14.9,-3.092975965953773,9.25114277133002,-7.120310143260476,-0.20268032006478004,-0.1590445488939999,-0.9052924870880505,-0.011203162314562354,-0.00813410315375504,-0.05202780111660239,0,70,255.0,255.0,255.0
299,14.950000000000001,-3.1031239841884273,9.243180670515768,-7.165639860994418,-0.20324037489183025,-0.15943359848804908,-0.9078973948323941,-0.011199030767445129,-0.007427880608212674,-0.052168508657135605,0,70,255.0,255.0,255.0
300,15.0,-3.1133,9.2352,-7.2111,-0.20380022314152452,-0.15978733695482117,-0.910509337953764,-0.011194899220326793,-0.006721658062670777,-0.05230921619765905,0,70,255.0,255.0,255.0
301,15.05,-3.123504005610014,9.227201886168105,-7.2566903574379795,-0.20436001783725297,-0.16014411455243635,-0.9130950399662302,-0.011196888608811139,-0.007549445841935499,-0.05111886430098929,0,70,255.0,255.0,255.0
302,15.100000000000001,-3.1337360034415496,9.21918489872161,-7.302408512036711,-0.20491991200240564,-0.16054228153901473,-0.9156212243838631,-0.011198877997295487,-0.008377233621200221,-0.04992851240431954,0,70,255.0,255.0,255.0
303,15.15,-3.1439959984680783,9.211146968191054,-7.348251487916451,-0.2054799056369825,-0.16098183791455634,-0.9180878912066621,-0.011200867385779833,-0.009205021400464914,-0.04873816050764982,0,70,255.0,255.0,255.0
304,15.200000000000001,-3.1542839956630715,9.203086025107002,-7.394216309197462,-0.20603999874098364,-0.16146278367906122,-0.920495040434628,-0.011202856774264181,-0.010032809179729636,-0.04754780861098007,0,70,255.0,255.0,255.0
305,15.25,-3.1646,9.195,-7.4403,-0.2066001913144089,-0.16198511883252933,-0.92284267206776,-0.011204846162746973,-0.010860596958994106,-0.046357456714309464,0,70,255.0,255.0,255.0
306,15.3,-3.174944014029254,9.18688745369908,-7.486500405715967,-0.207160337972376,-0.162511025466191,-0.92518006240463,-0.011201020155936936,-0.01017566838747287,-0.04713815676048762,0,70,255.0,255.0,255.0
307,15.350000000000001,-3.185316030608899,9.17874946822719,-7.532818656823836,-0.2077202933300026,-0.16300268567127663,-0.9275564877438088,-0.011197194149126899,-0.009490739815951634,-0.047918856806665765,0,70,255.0,255.0,255.0
308,15.4,-3.195716040173916,9.170587755905762,-7.579256705073719,-0.2082800573872887,-0.1634600994477862,-0.9299719480852966,-0.011193368142316862,-0.008805811244430424,-0.04869955685284389,0,70,255.0,255.0,255.0
309,15.450000000000001,-3.2061440331592888,9.162404029056221,-7.625816502215737,-0.2088396301442343,-0.16388326679571968,-0.9324264434290933,-0.011189542135506825,-0.008120882672909188,-0.04948025689902204,0,70,255.0,255.0,255.0
310,15.5,-3.2166,9.1542,-7.6725,-0.20939901160083935,-0.16427218771507707,-0.9349199737751988,-0.011185716128696566,-0.007435954101386866,-0.05026095694520194,0,70,255.0,255.0,255.0
311,15.55,-3.2270839382729695,9.145977099035575,-7.719308819698155,-0.20995863027324288,-0.1646437835828162,-0.9374327104152569,-0.011199030767444907,-0.007427880608178494,-0.050248508657119474,0,70,255.0,255.0,255.0
312,15.600000000000001,-3.237595874122857,9.13773562836963,-7.766243260667954,-0.21051891467758385,-0.1650149757758949,-0.9399448246409108,-0.011212345406193248,-0.0074198071149701224,-0.05023606036903701,0,70,255.0,255.0,255.0
313,15.65,-3.24813584083626,9.129475608185896,-7.813303291788673,-0.2110798648138622,-0.1653857642943132,-0.9424563164521605,-0.011225660044941587,-0.007411733621761752,-0.050223612080954536,0,70,255.0,255.0,255.0
314,15.700000000000001,-3.2587038716997756,9.121197058668109,-7.860488881939596,-0.211641480682078,-0.1657561491380711,-0.9449671858490062,-0.011238974683689928,-0.00740366012855338,-0.05021116379287207,0,70,255.0,255.0,255.0
315,15.75,-3.2693,9.1129,-7.9078,-0.2122037622822312,-0.16612613030716852,-0.9474774328314477,-0.011252289322437381,-0.007395586635344342,-0.050198715504789604,0,70,255.0,255.0,255.0
316,15.8,-3.27992423287887,9.10458415015862,-7.955236315491415,-0.21276514093464893,-0.16651384020254548,-0.9499690959343419,-0.01120285677427164,-0.008112809179734237,-0.04946780861097436,0,70,255.0,255.0,255.0
317,15.850000000000001,-3.2905764728996747,9.096248018294293,-8.002796300504357,-0.2133240479596584,-0.16693741122514197,-0.9524242136925452,-0.0111534242261059,-0.00883003172412413,-0.04873690171715912,0,70,255.0,255.0,255.0
318,15.9,-3.3012565964810454,9.087889811350651,-8.050478127771589,-0.2138804833572595,-0.16739684337495792,-0.9548427861060578,-0.011103991677940161,-0.009547254268513999,-0.0480059948233439,0,70,255.0,255.0,255.0
319,15.950000000000001,-3.3119644800416106,9.07950773627134,-8.098279970025885,-0.2144344471274524,-0.16789213665199335,-0.9572248131748796,-0.01105455912977442,-0.010264476812903893,-0.04727508792952866,0,70,255.0,255.0,255.0
320,16.0,-3.3227,9.0711,-8.1462,-0.21498593927023693,-0.16842329105624826,-0.9595702948990106,-0.011005126581608016,-0.01098169935729354,-0.046544181035711674,0,70,255.0,255.0,255.0
321,16.05,-3.3334631302115536,9.062665500329942,-8.19423711833619,-0.21554080598816458,-0.1689488556070032,-0.9619229058473795,-0.011189542135498123,-0.010040882672904315,-0.047560256899043564,0,70,255.0,255.0,255.0
322,16.1,-3.344254234278445,9.054205898453203,-8.242393137314625,-0.21610489348378678,-0.1694273793235387,-0.964326320588915,-0.011373957689388231,-0.009100065988515088,-0.04857633276237546,0,70,255.0,255.0,255.0
323,16.150000000000002,-3.3550737732395604,9.045723546411491,-8.290670597124967,-0.21667820175710342,-0.16985886220585472,-0.9667805391236172,-0.011558373243278339,-0.008159249304125864,-0.04959240862570735,0,70,255.0,255.0,255.0
324,16.2,-3.3659222081337834,9.037220796246519,-8.339072037956871,-0.2172607308081146,-0.1702433042539513,-0.9692855614514856,-0.011742788797168432,-0.007218432619736705,-0.05060848448903917,0,70,255.0,255.0,255.0
325,16.25,-3.3768,9.0287,-8.3876,-0.21785248063682025,-0.17058070546782841,-0.971841387572521,-0.011927204351058984,-0.006277615935349035,-0.05162456035237373,0,70,255.0,255.0,255.0
326,16.3,-3.387707246274918,9.02016264852161,-8.436256011163835,-0.21843163511268898,-0.1709227373694268,-0.974387280676151,-0.011238974683689874,-0.007403660128587635,-0.050211163792821784,0,70,255.0,255.0,255.0
327,16.35,-3.3986425899865464,9.011606787892896,-8.48503755023715,-0.21897637810518925,-0.1713210714806872,-0.9768625039518033,-0.010550745016320764,-0.008529704321826235,-0.04879776723326983,0,70,255.0,255.0,255.0
328,16.400000000000002,-3.409604310560715,9.00302960300338,-8.53394108372855,-0.21948670961432107,-0.17177570780160947,-0.9792670573994781,-0.009862515348951655,-0.009655748515064837,-0.04738437067371788,0,70,255.0,255.0,255.0
329,16.45,-3.420590687423255,8.994428278742575,-8.58296307814663,-0.2199626296400844,-0.17228664633219365,-0.9816009410191749,-0.009174285681582593,-0.010781792708303357,-0.045970974114166036,0,70,255.0,255.0,255.0
330,16.5,-3.4316,8.9858,-8.6321,-0.2204041381824793,-0.17285388707243982,-0.9838641548108945,-0.008486056014212151,-0.011907836901541291,-0.04455757755461054,0,70,255.0,255.0,255.0
331,16.55,-3.4426310846887738,8.977143105583622,-8.681349237008478,-0.2208446535610793,-0.17340819491530093,-0.9861119714479989,-0.009134559129786411,-0.010264476812902922,-0.04535508792956461,0,70,255.0,255.0,255.0
332,16.6,-3.4536850057753714,8.96846054997521,-8.730711861736781,-0.22131759409545795,-0.17388033475373013,-0.988399663603851,-0.00978306224536067,-0.008621116724264553,-0.04615259830451868,0,70,255.0,255.0,255.0
333,16.650000000000002,-3.4647633845175827,8.959756441574987,-8.780189867960845,-0.22182295978561536,-0.1742703065877274,-0.9907272312784509,-0.01043156536093493,-0.0069777566356261835,-0.046950108679472746,0,70,255.0,255.0,255.0
334,16.7,-3.4758678421731957,8.951034888783179,-8.829785249456602,-0.22236075063155142,-0.17457811041729274,-0.9930946744717982,-0.011080068476509143,-0.005334396546987931,-0.04774761905442676,0,70,255.0,255.0,255.0
335,16.75,-3.487,8.9423,-8.8795,-0.22293096663326623,-0.17480374624242614,-0.9955019931838934,-0.011728571592082293,-0.003691036458348451,-0.04854512942937372,0,70,255.0,255.0,255.0
336,16.8,-3.498161214969989,8.933554529143905,-8.929335840802256,-0.22351775064299706,-0.1750284829693767,-0.9979328335318538,-0.011742788797151515,-0.005298432619673555,-0.04868848448904313,0,70,255.0,255.0,255.0
337,16.85,-3.509351786911971,8.92479581220626,-8.979293402815735,-0.22410524551298142,-0.17533358950439348,-1.0003708416327979,-0.011757006002220738,-0.006905828780998659,-0.048831839548712536,0,70,255.0,255.0,255.0
338,16.900000000000002,-3.5205717513689585,8.916019830696664,-9.02937304442809,-0.22469345124321918,-0.17571906584747657,-1.002816017486725,-0.01177122320728996,-0.008513224942323762,-0.04897519460838194,0,70,255.0,255.0,255.0
339,16.95,-3.5318211438839633,8.907222566124712,-9.079575124026958,-0.22528236783371036,-0.17618491199862585,-1.005268361093636,-0.011785440412359183,-0.010120621103648753,-0.049118549668051334,0,70,255.0,255.0,255.0
340,17.0,-3.5431,8.8984,-9.1299,-0.22587199528445503,-0.17673112795784143,-1.0077278724535301,-0.011799657617428627,-0.011728017264973856,-0.04926190472771985,0,70,255.0,255.0,255.0
341,17.05,-3.5544080554312716,8.88954917784076,-9.180347399782498,-0.22644434386693044,-0.17729387320717507,-1.0101566944245772,-0.011094285681586536,-0.01078179270837166,-0.047890974114161704,0,70,255.0,255.0,255.0
342,17.1,-3.565743846576747,8.880671401199749,-9.230914527000282,-0.2269814238526137,-0.1778093072286786,-1.0125169698649463,-0.010388913745744445,-0.009835568151769464,-0.046520043500603556,0,70,255.0,255.0,255.0
343,17.150000000000002,-3.5771056100065866,8.871769035638353,-9.281597954326815,-0.22748323524150488,-0.17827743002235202,-1.0148086987746374,-0.009683541809902356,-0.008889343595167269,-0.0451491128870454,0,70,255.0,255.0,255.0
344,17.2,-3.5884915822909504,8.862844446717975,-9.332394254435563,-0.22794977803360392,-0.1786982415881953,-1.017031881153651,-0.008978169874060315,-0.007943119038565141,-0.04377818227348735,0,70,255.0,255.0,255.0
345,17.25,-3.5999,8.8539,-9.3833,-0.22838105222891086,-0.17907174192620856,-1.0191865170019863,-0.008272797938217114,-0.006996894481963167,-0.042407251659932754,0,70,255.0,255.0,255.0
346,17.3,-3.611329763304926,8.84493755949306,-9.434312960067755,-0.22881687388927935,-0.1794280242019322,-1.0213443887698455,-0.009160068476521234,-0.007254396546982815,-0.0439076190544345,0,70,255.0,255.0,255.0
347,17.35,-3.6227824267810433,8.835956982994752,-9.485435689183149,-0.229297059076563,-0.17979718158090685,-1.0235772789074298,-0.010047339014825355,-0.007511898612002462,-0.04540798644893624,0,70,255.0,255.0,255.0
348,17.400000000000002,-3.6342602086046973,8.826957626749914,-9.536671938264663,-0.22982160779076188,-0.18017921406313248,-1.025885187414739,-0.010934609553129474,-0.0077694006770221095,-0.046908353843437986,0,70,255.0,255.0,255.0
349,17.45,-3.6457653269522345,8.817938847003386,-9.588025458230783,-0.2303905200318759,-0.18057412164860906,-1.0282681142917736,-0.011821880091433533,-0.008026902742041738,-0.04840872123793962,0,70,255.0,255.0,255.0
350,17.5,-3.6573,8.8089,-9.6395,-0.2310037957999052,-0.1809819043373366,-1.030726059538533,-0.012709150629737653,-0.008284404807061163,-0.04990908863243426,0,70,255.0,255.0,255.0
351,17.55,-3.6688656913490254,8.799840584187,-9.691098359946483,-0.23161616057595721,-0.18139402998510276,-1.0332017504960442,-0.011785440412342293,-0.008200621103585036,-0.04911854966801278,0,70,255.0,255.0,255.0
352,17.6,-3.680460846299082,8.790760666821242,-9.742819516267136,-0.23218233984113945,-0.1818019664476951,-1.0356379145053345,-0.010861730194946935,-0.00811683740010891,-0.048328010703591294,0,70,255.0,255.0,255.0
353,17.650000000000002,-3.6920831555746254,8.781660457361983,-9.794661492614548,-0.23270233359545192,-0.18220571372511365,-1.0380345515664033,-0.009938019977551575,-0.008033053696632783,-0.04753747173916981,0,70,255.0,255.0,255.0
354,17.7,-3.703730309900112,8.772540165268484,-9.846622312641305,-0.2331761418388946,-0.1826052718173584,-1.0403916616792512,-0.009014309760156283,-0.007949269993156661,-0.04674693277474838,0,70,255.0,255.0,255.0
355,17.75,-3.7154,8.7634,-9.8987,-0.2336037645714675,-0.18300064072442931,-1.0427092448438782,-0.008090599542759813,-0.007865486289680534,-0.045956393810319796,0,70,255.0,255.0,255.0
356,17.8,-3.7270906712989733,8.754240103758939,-9.950892800146317,-0.23403048380688798,-0.18339585585763715,-1.0450006092459743,-0.008978169874059428,-0.007943119038633607,-0.045698182273516956,0,70,255.0,255.0,255.0
357,17.85,-3.738803788022632,8.74506034972028,-10.003199845748318,-0.23450158155887346,-0.18379495262829268,-1.0472790630712299,-0.009865740205359044,-0.00802075178758668,-0.04543997073671412,0,70,255.0,255.0,255.0
358,17.900000000000002,-3.750541569096804,8.73586054380215,-10.05562049127716,-0.2350170578274239,-0.18419793103639584,-1.0495446063196456,-0.01075331053665866,-0.008098384536539752,-0.045181759199911284,0,70,255.0,255.0,255.0
359,17.95,-3.7623062334473163,8.726640491922684,-10.108154091204,-0.2355769126125393,-0.18460479108194666,-1.051797238991221,-0.011640880867958213,-0.00817601728549282,-0.04492354766310847,0,70,255.0,255.0,255.0
360,18.0,-3.7741,8.7174,-10.1608,-0.2361811459142197,-0.1850155327649451,-1.0540369610859566,-0.012528451199256496,-0.008253650034444782,-0.04466533612630741,0,70,255.0,255.0,255.0
361,18.05,-3.7859244234550817,8.708139000777248,-10.213557639468252,-0.2367899041964874,-0.18542254658435725,-1.056267812520063,-0.011821880091450278,-0.008026902742041205,-0.044568721237946814,0,70,255.0,255.0,255.0
362,18.1,-3.7977784016103926,8.69885793429764,-10.2664267007396,-0.23736333392336473,-0.18581822303914922,-1.0584938332097513,-0.01111530898364406,-0.00780015544963763,-0.044472106349586225,0,70,255.0,255.0,255.0
363,18.150000000000002,-3.809660168038162,8.689557367429408,-10.31940694227682,-0.23790143509485182,-0.18620256212932101,-1.0607150231550218,-0.010408737875837841,-0.007573408157234053,-0.04437549146122563,0,70,255.0,255.0,255.0
364,18.2,-3.8215679563106204,8.680237867040786,-10.372498122542694,-0.2384042077109485,-0.18657556385487262,-1.0629313823558737,-0.009702166768031671,-0.007346660864830493,-0.04427887657286505,0,70,255.0,255.0,255.0
365,18.25,-3.8335,8.6709,-10.4257,-0.23887165177165495,-0.18693722821580402,-1.0651429108123083,-0.008995595660225009,-0.007119913572426695,-0.044182261684499124,0,70,255.0,255.0,255.0
366,18.3,-3.8454548348807,8.66154389313207,-10.479012641980678,-0.23932189940716425,-0.18731395780494192,-1.0673681406737887,-0.009014309760147254,-0.007949269993088726,-0.04482693277471236,0,70,255.0,255.0,255.0
367,18.35,-3.8574322055357997,8.652167913089153,-10.532437351293291,-0.23977308274766967,-0.1877321552151129,-1.0696256040897796,-0.009033023860069501,-0.008778626413750757,-0.04547160386492559,0,70,255.0,255.0,255.0
368,18.400000000000002,-3.8694321587505502,8.642769986480205,-10.585975739615565,-0.24022520179317125,-0.18819182044631702,-1.0719153010602813,-0.009051737959991746,-0.00960798283441279,-0.04611627495513882,0,70,255.0,255.0,255.0
369,18.45,-3.8814547413102,8.633348039914173,-10.639629418625224,-0.24067825654366884,-0.18869295349855414,-1.0742372315852933,-0.009070452059913992,-0.010437339255074762,-0.046760946045352005,0,70,255.0,255.0,255.0
370,18.5,-3.8935,8.6239,-10.6934,-0.2411322469991626,-0.18923555437182446,-1.0765913956648163,-0.009089166159837125,-0.011266695675736349,-0.047405617135561684,0,70,255.0,255.0,255.0
371,18.55,-3.90556823702212,8.614424626694477,-10.747288592609047,-0.2416024981748574,-0.18976962219585675,-1.078947624784783,-0.009720880867954093,-0.010096017285555831,-0.0468435476631054,0,70,255.0,255.0,255.0
372,18.6,-3.9176607762464095,8.60492401334574,-10.801294294087253,-0.24210433508595802,-0.19024515610038006,-1.081275750431127,-0.010352595576071062,-0.008925338895375312,-0.04628147819064912,0,70,255.0,255.0,255.0
373,18.650000000000002,-3.929779196959639,8.595401086649765,-10.855415699260934,-0.24263775773246452,-0.1906621560853943,-1.083575772603848,-0.010984310284188031,-0.007754660505194794,-0.04571940871819284,0,70,255.0,255.0,255.0
374,18.7,-3.941925078448579,8.585858773302526,-10.909651402956408,-0.2432027661143768,-0.19102062215089954,-1.0858476913029462,-0.011616024992304954,-0.006583982115014359,-0.0451573392457366,0,70,255.0,255.0,255.0
375,18.75,-3.9541,8.5763,-10.964,-0.24379936023169496,-0.19132055429689573,-1.0880915065284216,-0.012247739700420368,-0.005413303724832952,-0.04459526977328032,0,70,255.0,255.0,255.0
376,18.8,-3.966305017030822,8.566727200090023,-11.018460187583138,-0.24439610789340613,-0.19159155341163744,-1.0903133601870754,-0.011622166768026333,-0.005426660864834476,-0.04427887657286469,0,70,255.0,255.0,255.0
377,18.85,-3.9785390894785637,8.557140833527885,-11.07303107235771,-0.24496157690849762,-0.1918632203833792,-1.092519394185708,-0.0109965938356323,-0.005440018004836001,-0.04396248337244905,0,70,255.0,255.0,255.0
378,18.900000000000002,-3.990800653410895,8.547540866920736,-11.12771186334071,-0.2454957672769694,-0.19213555521212103,-1.0947096085243202,-0.010371020903238265,-0.005453375144837525,-0.043646090172033414,0,70,255.0,255.0,255.0
379,18.95,-4.003088144895484,8.537927266875725,-11.18250176954914,-0.2459986789988214,-0.19240855789786293,-1.0968840032029112,-0.009745447970844277,-0.005466732284839048,-0.043329696971617794,0,70,255.0,255.0,255.0
380,19.0,-4.0154,8.5283,-11.2374,-0.2464703120740538,-0.19268222844060495,-1.0990425782214819,-0.00911987503845113,-0.005480089424839907,-0.04301330377120571,0,70,255.0,255.0,255.0
381,19.05,-4.027734894854593,8.518658572945425,-11.292405857058403,-0.2469250702515134,-0.19298416415760133,-1.1011909344668969,-0.009070452059932066,-0.006597339255015127,-0.04292094604539507,0,70,255.0,255.0,255.0
382,19.1,-4.040092465839336,8.509000652542715,-11.347519016481918,-0.247377357280047,-0.19334196236610648,-1.1033346728260214,-0.009021029081413,-0.007714589085190347,-0.04282858831958442,0,70,255.0,255.0,255.0
383,19.150000000000002,-4.052472589396782,8.49932344566729,-11.402739247376235,-0.2478271731596547,-0.19375562306612037,-1.1054737932988554,-0.008971606102893935,-0.008831838915365568,-0.04273623059377378,0,70,255.0,255.0,255.0
384,19.200000000000003,-4.064875141969487,8.489624159194577,-11.458066318847035,-0.24827451789033642,-0.19422514625764303,-1.107608295885399,-0.008922183124374868,-0.009949088745540787,-0.04264387286796313,0,70,255.0,255.0,255.0
385,19.25,-4.0773,8.4799,-11.5135,-0.24871939147209216,-0.1947505319406744,-1.1097381805856519,-0.008872760145854475,-0.011066338575715262,-0.04255151514215427,0,70,255.0,255.0,255.0
386,19.3,-4.089747403550806,8.470148908128273,-11.569040384183255,-0.249183611100546,-0.19528778995794413,-1.1118829019453484,-0.009696024992299457,-0.010423982115073241,-0.04323733924570591,0,70,255.0,255.0,255.0
387,19.35,-4.102219047164094,8.460371756301257,-11.624688861714622,-0.24968899397132213,-0.19579293015218174,-1.1140619145102226,-0.01051928983874444,-0.009781625654431218,-0.04392316334925754,0,70,255.0,255.0,255.0
388,19.400000000000002,-4.114716989001979,8.450570150410103,-11.680447147154364,-0.25023554008442045,-0.19626595252338724,-1.1162752182802742,-0.011342554685189424,-0.009139269193789197,-0.044608987452809175,0,70,255.0,255.0,255.0
389,19.450000000000003,-4.127243287226575,8.440745696345967,-11.73631695506274,-0.2508232494398411,-0.19670685707156066,-1.1185228132555036,-0.012165819531634404,-0.008496912733147174,-0.04529481155636081,0,70,255.0,255.0,255.0
390,19.5,-4.1398,8.4309,-11.7923,-0.2514521220375839,-0.197115643796702,-1.1208046994359104,-0.012989084378077553,-0.00785455627250542,-0.04598063565991062,0,70,255.0,255.0,255.0
391,19.55,-4.1523882909421825,8.421034594541485,-11.848397406208584,-0.2520684853463066,-0.1974966760106355,-1.1230854577516987,-0.01166544797083116,-0.007386732284834523,-0.045249696971612595,0,70,255.0,255.0,255.0
392,19.6,-4.165005745504292,8.411150722252257,-11.904607936659596,-0.252618666834667,-0.19785431702518544,-1.1253296691330716,-0.010341811563584765,-0.006918908297163627,-0.04451875828331458,0,70,255.0,255.0,255.0
393,19.650000000000002,-4.17764905459531,8.40124955269229,-11.960929764006318,-0.2531026665026651,-0.19818856684035188,-1.12753733358003,-0.00901817515633837,-0.006451084309492729,-0.043787819595016556,0,70,255.0,255.0,255.0
394,19.700000000000003,-4.190314909124219,8.391332255421547,-12.017361060902028,-0.2535204843503009,-0.19849942545613472,-1.1297084510925735,-0.007694538749091975,-0.005983260321821833,-0.04305688090671853,0,70,255.0,255.0,255.0
395,19.75,-4.203,8.3814,-12.0739,-0.2538721203775743,-0.19878689287253407,-1.1318430216707018,-0.0063709023418456745,-0.005515436334150747,-0.04232594221841701,0,70,255.0,255.0,255.0
396,19.8,-4.215701832680466,8.371453513705784,-12.130545190982412,-0.2542064475142299,-0.19907750599952487,-1.1339672670478624,-0.0070021831243791775,-0.006109088745480803,-0.04264387286799796,0,70,255.0,255.0,255.0
397,19.85,-4.228421170818742,8.361491754689704,-12.187296991646997,-0.2545723386900122,-0.19939780174708216,-1.1361074089575016,-0.007633463906912681,-0.00670274115681086,-0.04296180351757891,0,70,255.0,255.0,255.0
398,19.900000000000002,-4.2411595926167855,8.351513238820733,-12.244156196820372,-0.2549697939049212,-0.19974778011520597,-1.1382634473996203,-0.008264744689446185,-0.007296393568140916,-0.043279734167159856,0,70,255.0,255.0,255.0
399,19.950000000000003,-4.253918676276554,8.34151648196784,-12.301123601329168,-0.25539881315895685,-0.20012744110389627,-1.1404353823742177,-0.008896025471979688,-0.007890045979470973,-0.04359766481674081,0,70,255.0,255.0,255.0
400,20.0,-4.2667,8.3315,-12.3582,-0.25585939645211914,-0.20053678471315303,-1.1426232138812942,-0.009527306254514922,-0.008483698390800987,-0.043915595466311075,0,70,255.0,255.0,255.0
401,20.05,-4.279505178335957,8.321462550635378,-12.415385829861771,-0.256353724596773,-0.2009612999912526,-1.1448054740568603,-0.010245819531638844,-0.008496912733181584,-0.043374811556327934,0,70,255.0,255.0,255.0
402,20.1,-4.2923359712207425,8.311403858988923,-12.472680096752429,-0.256883978405283,-0.2013864759864712,-1.1469606950369269,-0.010964332808762765,-0.008510127075562179,-0.042834027646344794,0,70,255.0,255.0,255.0
403,20.150000000000002,-4.30519417493755,8.301323892024778,-12.530081448712204,-0.25745015787764924,-0.20181231269880884,-1.1490888768214946,-0.011682846085886687,-0.008523341417942776,-0.04229324373636165,0,70,255.0,255.0,255.0
404,20.200000000000003,-4.318081585769571,8.29122261670709,-12.587588533781323,-0.25805226301387174,-0.2022388101282655,-1.1511900194105633,-0.012401359363010608,-0.008536555760323373,-0.04175245982637851,0,70,255.0,255.0,255.0
405,20.25,-4.331,8.2811,-12.6452,-0.2586902938139503,-0.20266596827484115,-1.1532641228041325,-0.01311987264013359,-0.00854977010270308,-0.0412116759163883,0,70,255.0,255.0,255.0
406,20.3,-4.34395025397571,8.270956283752707,-12.702914689570516,-0.2593066540986807,-0.20307729403545502,-1.1553228367247093,-0.011534538749082368,-0.007903260321851171,-0.04113688090668681,0,70,255.0,255.0,255.0
407,20.35,-4.356929344298293,8.260792809354605,-12.7607322213433,-0.2598437476888586,-0.20345629430702628,-1.1573778108948012,-0.009949204858031146,-0.007256750540999261,-0.04106208589698532,0,70,255.0,255.0,255.0
408,20.400000000000002,-4.36993330763302,8.250611193080154,-12.818652408330824,-0.26030157458448383,-0.20380296908955495,-1.1594290453144078,-0.008363870966979924,-0.006610240760147351,-0.04098729088728383,0,70,255.0,255.0,255.0
409,20.450000000000003,-4.382958180645165,8.240413051203799,-12.876675063545566,-0.26068013478555657,-0.20411731838304104,-1.1614765399835298,-0.006778537075928702,-0.005963730979295442,-0.04091249587758234,0,70,255.0,255.0,255.0
410,20.5,-4.396,8.2302,-12.9348,-0.2609794282920767,-0.20439934218748448,-1.1635202949021661,-0.005193203184878481,-0.005317221198443134,-0.040837700867880855,0,70,255.0,255.0,255.0
411,20.55,-4.409056205761205,8.219973114353802,-12.993027411856172,-0.2612836590084983,-0.2046815238669316,-1.1655831790442825,-0.0069760254719853955,-0.0059700459794413165,-0.04167766481677654,0,70,255.0,255.0,255.0
412,20.6,-4.422129851586089,8.209731303592656,-13.051359017874386,-0.26167703083927524,-0.2049963467854286,-1.1676880613838438,-0.00875884775909231,-0.006622870760439499,-0.04251762876567222,0,70,255.0,255.0,255.0
413,20.650000000000002,-4.435225394530371,8.199472935654608,-13.109796917964514,-0.26215954378440753,-0.20534381094297555,-1.16983494192085,-0.010541670046199225,-0.0072756955414376824,-0.043357592714567905,0,70,255.0,255.0,255.0
414,20.700000000000003,-4.448347291649769,8.189196378477707,-13.168343212036431,-0.2627311978438952,-0.2057239163395724,-1.1720238206553009,-0.012324492333306137,-0.007928520322435864,-0.04419755666346359,0,70,255.0,255.0,255.0
415,20.75,-4.4615,8.1789,-13.227,-0.26339199301773814,-0.20613666297521915,-1.1742546975871961,-0.014107314620412925,-0.008581345103435112,-0.04503752061236277,0,70,255.0,255.0,255.0
416,20.8,-4.4746865229794714,8.168582458832086,-13.2857684630048,-0.26405470986732416,-0.2065646104968131,-1.1764724470981656,-0.012401359363027062,-0.008536555760323417,-0.04367245982640673,0,70,255.0,255.0,255.0
417,20.85,-4.487904049357352,8.15824357627477,-13.344646107159164,-0.2646321289540408,-0.20699031855125152,-1.1786219435698368,-0.0106954041056412,-0.00849176641721172,-0.042307399040450694,0,70,255.0,255.0,255.0
418,20.900000000000002,-4.501148314245495,8.147883464301412,-13.40362951981113,-0.26512425027788833,-0.2074137871385343,-1.1807031870022107,-0.008989448848255338,-0.008446977074100024,-0.040942338254494656,0,70,255.0,255.0,255.0
419,20.950000000000003,-4.514415052755759,8.137502234885371,-13.462715288308733,-0.2655310738388664,-0.20783501625866152,-1.1827161773952863,-0.007283493590869475,-0.008402187730988329,-0.03957727746853862,0,70,255.0,255.0,255.0
420,21.0,-4.5277,8.1271,-13.5219,-0.2658525996369753,-0.2082540059116331,-1.1846609147490645,-0.005577538333485066,-0.008357398387876858,-0.03821221668257735,0,70,255.0,255.0,255.0
421,21.05,-4.541000102320909,8.116677050317854,-13.58118113612464,-0.26616150152221024,-0.20866003414581316,-1.1865910325630669,-0.006778537075912378,-0.007883730979324925,-0.03899249587751471,0,70,255.0,255.0,255.0
422,21.1,-4.554317150984506,8.10623439130826,-13.64055975348897,-0.2665304533445665,-0.2090423790095656,-1.188560164336816,-0.00797953581833969,-0.007410063570772993,-0.03977277507245207,0,70,255.0,255.0,255.0
423,21.150000000000002,-4.567654148487651,8.095773207139738,-13.700037802790986,-0.2669594551040442,-0.20940104050289043,-1.1905683100703122,-0.009180534560767003,-0.006936396162221061,-0.040553054267389435,0,70,255.0,255.0,255.0
424,21.200000000000003,-4.5810140973271976,8.08529468198081,-13.759617234728667,-0.26744850680064325,-0.2097360186257877,-1.1926154697635551,-0.010381533303194315,-0.006462728753669129,-0.041333333462326795,0,70,255.0,255.0,255.0
425,21.25,-4.5944,8.0748,-13.8193,-0.2679976084343636,-0.21004731337825738,-1.1947016434165445,-0.011582532045620653,-0.005989061345116564,-0.04211361265725877,0,70,255.0,255.0,255.0
426,21.3,-4.607813867736896,8.064290139896498,-13.879087792496653,-0.26854728404383643,-0.21034725291994547,-1.1968114226495636,-0.01040449233329282,-0.006008520322406331,-0.04227755666350355,0,70,255.0,255.0,255.0
427,21.35,-4.621253746704624,8.053765258492191,-13.938981278884963,-0.2690380576676929,-0.21064816541049802,-1.1989293990828949,-0.009226452620964987,-0.006027979299696096,-0.042441500669748326,0,70,255.0,255.0,255.0
428,21.400000000000002,-4.634716691803905,8.043225307139632,-13.99898086902495,-0.26946992930593294,-0.21095005084991508,-1.2010555727165386,-0.008048412908637153,-0.006047438276985863,-0.04260544467599311,0,70,255.0,255.0,255.0
429,21.450000000000003,-4.6481997579354575,8.032670237191384,-14.059086972776624,-0.2698428989585566,-0.21125290923819662,-1.2031899435504942,-0.00687037319630932,-0.006066897254275628,-0.04276938868223788,0,70,255.0,255.0,255.0
430,21.5,-4.6617,8.0221,-14.1193,-0.2701569666255639,-0.2115567405753426,-1.205332511584762,-0.0056923334839797946,-0.006086356231564727,-0.04293333268847732,0,70,255.0,255.0,255.0
431,21.55,-4.675215626731511,8.011514390096153,-14.179619693888759,-0.2704813623024355,-0.21187095417440613,-1.2074432768386871,-0.007283493590886914,-0.0064821877309757135,-0.041497277468533135,0,70,255.0,255.0,255.0
432,21.6,-4.688749462196999,8.000912574722976,-14.240043130971188,-0.2708853159846526,-0.2122049593484402,-1.2094822393316154,-0.008874653697794034,-0.006878019230386701,-0.04006122224858895,0,70,255.0,255.0,255.0
433,21.650000000000002,-4.7023054842967325,7.990293564301724,-14.30056672110924,-0.27136882767221493,-0.2125587560974448,-1.2114493990635462,-0.010465813804701154,-0.007273850729797688,-0.03862516702864476,0,70,255.0,255.0,255.0
434,21.700000000000003,-4.715887670930978,7.979656369253648,-14.361186874164861,-0.2719318973651227,-0.21293234442141995,-1.2133447560344799,-0.012056973911608274,-0.007669682229208674,-0.037189111808700576,0,70,255.0,255.0,255.0
435,21.75,-4.7295,7.969,-14.4219,-0.27257452506337576,-0.21332572432036567,-1.2151683102444162,-0.013648134018516167,-0.008065513728619855,-0.03575305658875649,0,70,255.0,255.0,255.0
436,21.8,-4.743145225337061,7.958323499718894,-14.482703831948323,-0.2732232667464189,-0.21373693038242364,-1.2169994699956925,-0.01230153330320716,-0.008382728753698747,-0.03749333346229949,0,70,255.0,255.0,255.0
437,21.85,-4.756821204507379,7.947626042615903,-14.5436013972303,-0.2738046783936965,-0.21416399719573556,-1.2189176435906461,-0.010954932587898154,-0.00869994377877764,-0.03923361033584248,0,70,255.0,255.0,255.0
438,21.900000000000002,-4.770524571009168,7.936906835653465,-14.604597046538117,-0.2743187600052087,-0.2146069247603014,-1.2209228310292768,-0.009608331872589148,-0.00901715880385653,-0.04097388720938547,0,70,255.0,255.0,255.0
439,21.950000000000003,-4.784251958340637,7.926165085794018,-14.665695130563957,-0.2747655115809554,-0.2150657130761212,-1.2230150323115847,-0.00826173115728014,-0.009334373828935424,-0.04271416408292846,0,70,255.0,255.0,255.0
440,22.0,-4.798,7.9154,-14.7269,-0.2751449331209367,-0.21554036214319497,-1.2251942474375697,-0.006915130441970341,-0.00965158885401407,-0.04445444095646778,0,70,255.0,255.0,255.0
441,22.05,-4.811765871920247,7.904611611028272,-14.78821457831796,-0.27548957071189323,-0.2159813242959021,-1.2273748431785372,-0.00687037319629109,-0.007986897254270462,-0.042769388682233234,0,70,255.0,255.0,255.0
442,22.1,-4.825548919773485,7.89380325481341,-14.849636080107627,-0.27583197044056584,-0.216339051868622,-1.229471186305793,-0.006825615950611839,-0.0063222056545268555,-0.04108433640799869,0,70,255.0,255.0,255.0
443,22.150000000000002,-4.8393490316665995,7.882979093084409,-14.911160292738312,-0.2761721323069544,-0.21661354486135478,-1.2314832768193371,-0.006780858704932589,-0.004657514054783247,-0.03939928413376414,0,70,255.0,255.0,255.0
444,22.200000000000003,-4.8531660957064755,7.872143287570274,-14.972783003579334,-0.27651005631105907,-0.21680480327410037,-1.2334111147191695,-0.006736101459253338,-0.0029928224550396397,-0.037714231859529594,0,70,255.0,255.0,255.0
445,22.25,-4.867,7.8613,-15.0345,-0.2768457424528797,-0.21691282710685875,-1.2352547000052898,-0.0066913442135727585,-0.001328130855295706,-0.03602917958529339,0,70,255.0,255.0,255.0
446,22.3,-4.880851286981952,7.8504516561680155,-15.09630825477984,-0.277218450406009,-0.21704177243397116,-1.2370851572901407,-0.008216973911600367,-0.003829682229200673,-0.037189111808735846,0,70,255.0,255.0,255.0
447,22.35,-4.8947231163986835,7.839593738130458,-15.1582094823392,-0.27766743984403974,-0.2172957953297788,-1.2389736111861633,-0.009742603609627976,-0.0063312336031056396,-0.0383490440321783,0,70,255.0,255.0,255.0
448,22.400000000000002,-4.908619302324438,7.828719992008892,-15.220206582508645,-0.27819271076697183,-0.21767489579428173,-1.2409200616933584,-0.011268233307655582,-0.008832784977010606,-0.03950897625562076,0,70,255.0,255.0,255.0
449,22.450000000000003,-4.922543658833463,7.817824163924884,-15.282302455118726,-0.2787942631748053,-0.21817907382747992,-1.2429245088117256,-0.01279386300568319,-0.011334336350915573,-0.040668908479063216,0,70,255.0,255.0,255.0
450,22.5,-4.9365,7.8069,-15.3445,-0.2794720970675401,-0.21880832942937323,-1.2449869525412647,-0.014319492703709802,-0.013835887724819251,-0.04182884070250559,0,70,255.0,255.0,255.0
451,22.55,-4.950490580151945,7.7959433642996645,-15.406801202562685,-0.2801326276640655,-0.219435585968217,-1.2470525276609006,-0.012101731157304898,-0.011254373828930716,-0.04079416408293176,0,70,255.0,255.0,255.0
452,22.6,-4.964511414631785,7.784958592664758,-15.469204390535577,-0.28068227018327063,-0.21993376681226634,-1.249066368949558,-0.009883969610899993,-0.00867285993304218,-0.039759487463357925,0,70,255.0,255.0,255.0
453,22.650000000000002,-4.978556959035651,7.773952138880018,-15.531706977227126,-0.28112102462515554,-0.2203028719615212,-1.2510284764072366,-0.007666208064495089,-0.006091346037153646,-0.0387248108437841,0,70,255.0,255.0,255.0
454,22.700000000000003,-4.9926216689596785,7.762930456730185,-15.594306375945784,-0.28144889098972015,-0.22054290141598168,-1.2529388500339362,-0.0054484465180901845,-0.00350983214126511,-0.03769013422421027,0,70,255.0,255.0,255.0
455,22.75,-5.0067,7.7519,-15.657,-0.28166586927696446,-0.22065385517564773,-1.2547974898296572,-0.003230684971685882,-0.0009283182453758698,-0.03665545760462763,0,70,255.0,255.0,255.0
456,22.8,-5.020787992410266,7.740865286633324,-15.71978613496943,-0.2818670389377376,-0.2207518836931581,-1.2566567320662603,-0.004816101459240607,-0.0029928224550394527,-0.03771423185949133,0,70,255.0,255.0,255.0
457,22.85,-5.0348880250741805,7.729823091210509,-15.782666555518507,-0.2821474794228885,-0.2209531374211517,-1.2585689130156064,-0.006401517946795333,-0.005057326664703036,-0.038773006114355045,0,70,255.0,255.0,255.0
458,22.900000000000002,-5.049004061532962,7.718768252471033,-15.84564390858287,-0.2825071907324172,-0.22125761635962843,-1.260534032677696,-0.007986934434350057,-0.007121830874366618,-0.03983178036921875,0,70,255.0,255.0,255.0
459,22.950000000000003,-5.063140065327829,7.707695609154372,-15.908720841098157,-0.28294617286632356,-0.22166532050858836,-1.2625520910525283,-0.009572350921904784,-0.009186335084030202,-0.04089055462408246,0,70,255.0,255.0,255.0
460,23.0,-5.0773,7.6966,-15.9719,-0.2834644258246076,-0.2221762498680314,-1.2646230881401037,-0.011157767409458508,-0.01125083929369386,-0.04194932887894787,0,70,255.0,255.0,255.0
461,23.05,-5.091487050206991,7.685477889167041,-16.035183057559603,-0.28401521658498585,-0.22269287925914716,-1.266688544074055,-0.010873863005669723,-0.009414336350936754,-0.04066890847910079,0,70,255.0,255.0,255.0
462,23.1,-5.105701285071496,7.674332242493205,-16.098567787390405,-0.2845518121251746,-0.22311768350312508,-1.2686899789880137,-0.010589958601880936,-0.007577833408179649,-0.039388488079253714,0,70,255.0,255.0,255.0
463,23.150000000000002,-5.119941994832505,7.663167651235846,-16.162050988441408,-0.28507421244517395,-0.22345066259996513,-1.2706273928819802,-0.01030605419809215,-0.0057413304654225445,-0.03810806767940663,0,70,255.0,255.0,255.0
464,23.200000000000003,-5.134208469729011,7.651988706652326,-16.225629459661608,-0.28558241754498387,-0.22369181654966733,-1.2725007857559545,-0.010022149794303365,-0.003904827522665439,-0.036827647279559554,0,70,255.0,255.0,255.0
465,23.25,-5.1485,7.6408,-16.2893,-0.28607642742460426,-0.22384114535223168,-1.2743101576099363,-0.0097382453905146,-0.002068324579908909,-0.03554722687971967,0,70,255.0,255.0,255.0
466,23.3,-5.162815806761771,7.629604756698512,-16.35306003479216,-0.28655209472231963,-0.22398059927026062,-1.2760930916375346,-0.009288446518098497,-0.003509832141248002,-0.03577013422421267,0,70,255.0,255.0,255.0
467,23.35,-5.177154834639839,7.618400738816672,-16.416909494919874,-0.28700527207641413,-0.22419212856635648,-1.2778871710323576,-0.008838647645682395,-0.004951339702587095,-0.03599304156870567,0,70,255.0,255.0,255.0
468,23.400000000000002,-5.19151595913702,7.607184342585575,-16.480848937651515,-0.2874359594868879,-0.2244757332405193,-1.279692395794405,-0.008388848773266292,-0.006392847263926188,-0.03621594891319867,0,70,255.0,255.0,255.0
469,23.450000000000003,-5.205898055756134,7.595951964236319,-16.54487892025544,-0.28784415695374077,-0.2248314132927491,-1.2815087659236775,-0.00793904990085019,-0.007834354825265281,-0.036438856257691665,0,70,255.0,255.0,255.0
470,23.5,-5.2203,7.5847,-16.609,-0.2882298644769729,-0.22525916872304586,-1.2833362814201743,-0.007489251028434563,-0.009275862386603606,-0.036661763602191755,0,70,255.0,255.0,255.0
471,23.55,-5.2347209227459235,7.573425484038907,-16.67321280327177,-0.28860840452573144,-0.22572072365981125,-1.2851790893758297,-0.007652350921908726,-0.009186335084012497,-0.03705055462402421,0,70,255.0,255.0,255.0
472,23.6,-5.249160976369152,7.562128002240104,-16.737518232930103,-0.2889950995691638,-0.22617780223144712,-1.2870413368825768,-0.00781545081538289,-0.009096807781421388,-0.03743934564585666,0,70,255.0,255.0,255.0
473,23.650000000000002,-5.263620568619418,7.550807778421848,-16.80191726095255,-0.28938994960726977,-0.2266304044379534,-1.2889230239404155,-0.007978550708857054,-0.009007280478830279,-0.03782813666768911,0,70,255.0,255.0,255.0
474,23.700000000000003,-5.278100107246456,7.539465036402394,-16.866410859316666,-0.2897929546400495,-0.22707853027933017,-1.2908241505493459,-0.008141650602331216,-0.008917753176239168,-0.03821692768952156,0,70,255.0,255.0,255.0
475,23.75,-5.2926,7.5281,-16.931,-0.2902041146675029,-0.22752217975557731,-1.2927447167093677,-0.008304750495807145,-0.008828225873648066,-0.03860571871135576,0,70,255.0,255.0,255.0
476,23.8,-5.307120502254537,7.516713307145858,-16.995685552120765,-0.29061428717475585,-0.2279365060904858,-1.2946785508591414,-0.008102149794308474,-0.007744827522690996,-0.038747647279590326,0,70,255.0,255.0,255.0
477,23.85,-5.321661259883558,7.50530725222291,-17.060467973359724,-0.29101432964693374,-0.22829666250784644,-1.2966194814373266,-0.007899549092809804,-0.006661429171733926,-0.03888957584782489,0,70,255.0,255.0,255.0
478,23.900000000000002,-5.336221766385313,7.493884543727033,-17.125347618538306,-0.2914042420840368,-0.2286026490076592,-1.2985675084439239,-0.007696948391311134,-0.005578030820776856,-0.03903150441605945,0,70,255.0,255.0,255.0
479,23.950000000000003,-5.350801515258045,7.482447890154103,-17.190324842477928,-0.2917840244860649,-0.22885446558992412,-1.300522631878933,-0.007494347689812463,-0.0044946324698197865,-0.039173432984294015,0,70,255.0,255.0,255.0
480,24.0,-5.3654,7.471,-17.2554,-0.2921536768530181,-0.22905211225464117,-1.302484851742353,-0.007291746988316028,-0.0034112341188627937,-0.03931536155252324,0,70,255.0,255.0,255.0
481,24.05,-5.380017068235934,7.4595428873776575,-17.32057298824519,-0.2925344467752468,-0.2292372519782446,-1.3044267071876083,-0.007939049900833882,-0.003994354825274024,-0.03835885625768859,0,70,255.0,255.0,255.0
482,24.1,-5.394653984096619,7.448075788868254,-17.38584187363102,-0.2929475818431015,-0.22945154773716858,-1.3063207373681218,-0.008586352813351735,-0.004577475531685254,-0.03740235096285393,0,70,255.0,255.0,255.0
483,24.150000000000002,-5.409312365839337,7.4365972466700185,-17.451204264894255,-0.293393082056582,-0.22969499953141312,-1.3081669422838937,-0.009233655725869589,-0.005160596238096485,-0.036445845668019276,0,70,255.0,255.0,255.0
484,24.200000000000003,-5.423993831721371,7.425105802981189,-17.516657770771662,-0.2938709474156884,-0.22996760736097824,-1.309965321934924,-0.009880958638387442,-0.0057437169445077145,-0.03548934037318462,0,70,255.0,255.0,255.0
485,24.25,-5.4387,7.4136,-17.5822,-0.2943811779204208,-0.23026937122586388,-1.311715876321212,-0.010528261550906581,-0.006326837650919348,-0.034532835078344704,0,70,255.0,255.0,255.0
486,24.3,-5.453432024801731,7.402078343343507,-17.6478288948985,-0.2948959257242521,-0.23060248599654212,-1.313438620390409,-0.010061650602344312,-0.00699775317620973,-0.034376927689532266,0,70,255.0,255.0,255.0
487,24.35,-5.468189203729969,7.390539192304074,-17.71354373211622,-0.2953873429806552,-0.23096914654348488,-1.3151535690901652,-0.009595039653782042,-0.0076686687015001115,-0.03422102030071982,0,70,255.0,255.0,255.0
488,24.400000000000002,-5.482970370257339,7.378980869592887,-17.77934412188469,-0.2958554296896303,-0.23136935286669214,-1.316860722420481,-0.009128428705219772,-0.008339584226790493,-0.034065112911907384,0,70,255.0,255.0,255.0
489,24.450000000000003,-5.497774357856476,7.3674016979211325,-17.845229674435444,-0.29630018585117723,-0.23180310496616394,-1.318560080381356,-0.008661817756657504,-0.009010499752080875,-0.03390920552309495,0,70,255.0,255.0,255.0
490,24.5,-5.5126,7.3558,-17.9112,-0.296721611465296,-0.2322704028419002,-1.3202516429727904,-0.00819520680809438,-0.009681415277370764,-0.03375329813428962,0,70,255.0,255.0,255.0
491,24.55,-5.527446032557142,7.344174939248311,-17.97725543216083,-0.29711385032774373,-0.23272080403558018,-1.3219788112507553,-0.007494347689812998,-0.008334632469827666,-0.03533343298430369,0,70,255.0,255.0,255.0
492,24.6,-5.542310800983509,7.332529041915449,-18.04339919790412,-0.2974710462342773,-0.23310386608888298,-1.3237849862712208,-0.006793488571531617,-0.006987849662284568,-0.03691356783431776,0,70,255.0,255.0,255.0
493,24.650000000000002,-5.557192553131305,7.320865674958428,-18.109635247566995,-0.2977931991848969,-0.23341958900180865,-1.3256701680341871,-0.006092629453250235,-0.0056410668547414704,-0.03849370268433183,0,70,255.0,255.0,255.0
494,24.700000000000003,-5.572089536852735,7.309188205334273,-18.17596753148658,-0.2980803091796024,-0.23366797277435714,-1.327634356539654,-0.005391770334968854,-0.004294284047198373,-0.0400738375343459,0,70,255.0,255.0,255.0
495,24.75,-5.587,7.2975,-18.2424,-0.29833237621839376,-0.2338490174065285,-1.3296775517876216,-0.004690911216686633,-0.0029475012396560363,-0.041653972384363414,0,70,255.0,255.0,255.0
496,24.8,-5.601923044969699,7.285803499663246,-18.308934976458186,-0.2986006729647709,-0.23401829786113315,-1.33170213460656,-0.006040958638396995,-0.0038237169445296216,-0.0393293403731725,0,70,255.0,255.0,255.0
497,24.85,-5.616861192335994,7.274097440034133,-18.375568276267316,-0.29893647208223345,-0.23423138910098146,-1.333610485824939,-0.007391006060107357,-0.004699932649403207,-0.037004708361981574,0,70,255.0,255.0,255.0
498,24.900000000000002,-5.631817817217441,7.2623796305733945,-18.44229408784734,-0.2993397735707816,-0.23448829112607347,-1.3354026054427581,-0.00874105348181772,-0.005576148354276793,-0.03468007635079066,0,70,255.0,255.0,255.0
499,24.950000000000003,-5.646796294732592,7.250647880741771,-18.509106599618253,-0.2998105774304153,-0.23478900393640917,-1.3370784934600182,-0.010091100903528081,-0.006452364059150378,-0.032355444339599734,0,70,255.0,255.0,255.0
500,25.0,-5.6618,7.2389,-18.576,-0.30034888366113444,-0.23513352753198852,-1.3386381498767184,-0.011441148325238792,-0.007328579764023235,-0.03003081232842142,0,70,255.0,255.0,255.0
501,25.05,-5.67683138756406,7.2271342620987005,-18.642970262006415,-0.3008994578131813,-0.23549400451989078,-1.3401886503230067,-0.010581817756635725,-0.007090499752067544,-0.031989205523105496,0,70,255.0,255.0,255.0
502,25.1,-5.691889229672512,7.2153507979480205,-18.710020497026633,-0.301407065436798,-0.23584257750719528,-1.3418370704290288,-0.009722487188032656,-0.006852419740111852,-0.03394759871778957,0,70,255.0,255.0,255.0
503,25.150000000000002,-5.706971377998934,7.203550202747991,-18.777155601043646,-0.3018717065319846,-0.236179246493902,-1.3435834101947854,-0.008863156619429588,-0.006614339728156161,-0.03590599191247365,0,70,255.0,255.0,255.0
504,25.200000000000003,-5.722075684216903,7.191733071698641,-18.84438047004044,-0.302293381098741,-0.2365040114800109,-1.3454276696202765,-0.008003826050826519,-0.006376259716200469,-0.03786438510715773,0,70,255.0,255.0,255.0
505,25.25,-5.7372,7.1799,-18.9117,-0.3026720891370672,-0.23681687246552202,-1.3473698487055015,-0.007144495482223512,-0.006138179704244795,-0.03982277830184344,0,70,255.0,255.0,255.0
506,25.3,-5.752342604774062,7.168051451941951,-18.979117575516167,-0.30303349578249733,-0.237125684059308,-1.3493192641014062,-0.0073117703349810294,-0.006214284047194508,-0.038153837534348846,0,70,255.0,255.0,255.0
507,25.35,-5.76750348897396,7.156187368173783,-19.046630535626168,-0.30340326617056534,-0.23743830087024148,-1.3511852324589364,-0.007479045187738547,-0.006290388390144222,-0.03648489676685424,0,70,255.0,255.0,255.0
508,25.400000000000002,-5.782683070786829,7.144307558434641,-19.11423470797809,-0.30378140030127115,-0.23775472289832242,-1.3529677537780918,-0.007646320040496065,-0.006366492733093935,-0.034815955999359646,0,70,255.0,255.0,255.0
509,25.450000000000003,-5.797881768399798,7.1324118324636645,-19.181925920220007,-0.304167898174615,-0.2380749501435509,-1.3546668280588725,-0.007813594893253582,-0.0064425970760436475,-0.03314701523186504,0,70,255.0,255.0,255.0
510,25.5,-5.8131,7.1205,-19.2497,-0.3045627597905965,-0.23839898260592676,-1.3562824553012782,-0.007980869746009756,-0.006518701418993578,-0.03147807446437412,0,70,255.0,255.0,255.0
511,25.55,-5.828338193339694,7.108571930133496,-19.317553835928926,-0.30496655905683506,-0.23872325924288038,-1.3578782932713778,-0.00817110090353266,-0.006452364059150417,-0.032355444339606985,0,70,255.0,255.0,255.0
512,25.6,-5.843596814431649,7.096627729356845,-19.3854885604687,-0.3053798698809498,-0.23904421901184184,-1.359517999735239,-0.008361332061055566,-0.006386026699307255,-0.03323281421483986,0,70,255.0,255.0,255.0
513,25.650000000000002,-5.858876338853755,7.084667563513445,-19.453506367044017,-0.30580269226294066,-0.23936186191281109,-1.3612015746928618,-0.00855156321857847,-0.006319689339464094,-0.03411018409007273,0,70,255.0,255.0,255.0
514,25.700000000000003,-5.874177242183908,7.072691598446696,-19.521609449079556,-0.3062350262028076,-0.23967618794578824,-1.3629290181442464,-0.008741794376101375,-0.006253351979620932,-0.034987553965305604,0,70,255.0,255.0,255.0
515,25.75,-5.8895,7.0607,-19.5898,-0.3066768717005508,-0.23998719711077318,-1.3647003300893923,-0.008932025533623822,-0.006187014619778219,-0.03586492384053841,0,70,255.0,255.0,255.0
516,25.8,-5.90484462186716,7.048692827524063,-19.65807988076813,-0.30710026799016166,-0.24030127896917267,-1.366495562813083,-0.008003826050809324,-0.006376259716200619,-0.035944385107094946,0,70,255.0,255.0,255.0
517,25.85,-5.920209253299447,7.036669714398835,-19.726449622499032,-0.3074772543056317,-0.24062482308239327,-1.3682947686001017,-0.007075626567994826,-0.006565504812623018,-0.03602384637365148,0,70,255.0,255.0,255.0
518,25.900000000000002,-5.935591573798155,7.024630187511576,-19.794909423845866,-0.30780783064696116,-0.24095782945043495,-1.3700979474504482,-0.0061474270851803285,-0.006754749909045418,-0.03610330764020802,0,70,255.0,255.0,255.0
519,25.950000000000003,-5.950989262864574,7.012573773749544,-19.8634594834618,-0.3080919970141498,-0.2413002980732978,-1.3719050993641226,-0.005219227602365831,-0.006943995005467818,-0.036182768906764556,0,70,255.0,255.0,255.0
520,26.0,-5.9664,7.0005,-19.9321,-0.3083297534071977,-0.2416522289509817,-1.3737162243411247,-0.004291028119552287,-0.007133240101889093,-0.03626223017331753,0,70,255.0,255.0,255.0
521,26.05,-5.981822519191666,6.988408759770251,-20.000830640998547,-0.30858436898251834,-0.24199162488043002,-1.3754994554762559,-0.005893594893274768,-0.0064425970760431895,-0.03506701523192886,0,70,255.0,255.0,255.0
522,26.1,-5.997259772370564,6.976301413047811,-20.069648949535175,-0.3089191128965252,-0.24229648865858602,-1.3772229258643176,-0.0074961616669972485,-0.005751954050197286,-0.03387180029054019,0,70,255.0,255.0,255.0
523,26.150000000000002,-6.01271576595363,6.9641796864402465,-20.13855193757253,-0.3093339851492181,-0.24256682028544976,-1.37888663550531,-0.009098728440719728,-0.005061311024351383,-0.032676585349151514,0,70,255.0,255.0,255.0
524,26.200000000000003,-6.0281945063577975,6.952045306555121,-20.207536617073256,-0.3098289857405972,-0.2428026197610212,-1.380490584399233,-0.01070129521444221,-0.004370667998505478,-0.03148137040776284,0,70,255.0,255.0,255.0
525,26.25,-6.0437,6.9399,-20.2766,-0.3104041146706623,-0.24300388708530032,-1.3820347725460864,-0.012303861988164577,-0.0036800249726598455,-0.030286155466372477,0,70,255.0,255.0,255.0
526,26.3,-6.059234901366181,6.927744933394933,-20.34573995523768,-0.3109782560797684,-0.24320422150910748,-1.3835706152818803,-0.010661794376079723,-0.0043333519796257755,-0.031147553965381658,0,70,255.0,255.0,255.0
527,26.35,-6.074796457218301,6.915579033409917,-20.41495777936027,-0.3114702941082703,-0.2434372222832629,-1.3851495279426247,-0.009019726763994871,-0.004986678986591705,-0.03200895246439084,0,70,255.0,255.0,255.0
528,26.400000000000002,-6.090380562387332,6.903400666727434,-20.484255625864026,-0.31188022875616794,-0.24370288940776663,-1.3867715105283194,-0.0073776591519100175,-0.005640005993557634,-0.03287035096340002,0,70,255.0,255.0,255.0
529,26.450000000000003,-6.105983111704242,6.891208200029967,-20.553635648245187,-0.3122080600234613,-0.24400122288261866,-1.3884365630389646,-0.0057355915398251646,-0.006293333000523564,-0.033731749462409207,0,70,255.0,255.0,255.0
530,26.5,-6.1216,6.879,-20.6231,-0.3124537879101505,-0.24433222270781899,-1.3901446854745603,-0.004093523927742648,-0.006946660007488559,-0.034593147961407666,0,70,255.0,255.0,255.0
531,26.55,-6.137228275343615,6.866774706650017,-20.692650338050743,-0.31268660669840365,-0.24467948908314244,-1.3918660833962613,-0.005219227602383929,-0.006943995005449777,-0.034262768906627265,0,70,255.0,255.0,255.0
532,26.6,-6.1528695987562365,6.8545320533125205,-20.76228633302375,-0.31297571067038893,-0.24502662220836396,-1.393570962365223,-0.006344931277025211,-0.0069413300034109945,-0.03393238985184687,0,70,255.0,255.0,255.0
533,26.650000000000002,-6.1685267844970495,6.842272046650015,-20.83200715897139,-0.31332109982610623,-0.24537362208348357,-1.395259322381446,-0.0074706349516664924,-0.006938665001372212,-0.03360201079706647,0,70,255.0,255.0,255.0
534,26.700000000000003,-6.184202646825243,6.829994693325006,-20.90181198994602,-0.31372277416555555,-0.24572048870850122,-1.3969311634449297,-0.008596338626307773,-0.006935999999333431,-0.03327163174228607,0,70,255.0,255.0,255.0
535,26.75,-6.1999,6.8177,-20.9717,-0.31418073368873695,-0.24606722208341691,-1.3985864855556742,-0.009722042300948974,-0.006933334997295315,-0.03294125268750392,0,70,255.0,255.0,255.0
536,26.8,-6.215620797259361,6.805388240005,-21.041670692559357,-0.3146433171266214,-0.24639782215831227,-1.4002450511330558,-0.008781295214429084,-0.00629066799851862,-0.03340137040776128,0,70,255.0,255.0,255.0
537,26.85,-6.231363547756757,6.793060753340001,-21.11172488854474,-0.3150588632101799,-0.2466962888832688,-1.4019266225964504,-0.007840548127909193,-0.005648000999741924,-0.033861488128018646,0,70,255.0,255.0,255.0
538,26.900000000000002,-6.247125899624474,6.780719146672504,-21.181863738250442,-0.31542737193941234,-0.24696262225828647,-1.4036311999458577,-0.006899801041389302,-0.005005334000965228,-0.03432160584827601,0,70,255.0,255.0,255.0
539,26.950000000000003,-6.262905500994793,6.768365026670005,-21.25208839197076,-0.31574884331431885,-0.24719682228336531,-1.405358783181278,-0.005959053954869411,-0.004362667002188533,-0.03478172356853338,0,70,255.0,255.0,255.0
540,27.0,-6.2787,6.756,-21.3224,-0.3160232773348993,-0.24739888895850531,-1.4071093723027113,-0.005018306868351807,-0.003720000003411439,-0.03524184128878893,0,70,255.0,255.0,255.0
541,27.05,-6.294507735618943,6.743625133329988,-21.39279889171182,-0.31629212479510377,-0.2476012222836042,-1.4088337120714944,-0.005735591539827044,-0.004373333000544398,-0.03373174946253987,0,70,255.0,255.0,255.0
542,27.1,-6.310329810216737,6.731239333327476,-21.463282112797295,-0.31659683648888204,-0.24783622225855978,-1.4104825472489653,-0.006452876211302281,-0.005026665997677356,-0.03222165763629081,0,70,255.0,255.0,255.0
543,27.150000000000002,-6.326168017005058,6.718840966659967,-21.533845888026864,-0.316937412416234,-0.24810388888337195,-1.4120558778351235,-0.007170160882777518,-0.005679998994810314,-0.030711565810041756,0,70,255.0,255.0,255.0
544,27.200000000000003,-6.342024149195587,6.706428399994973,-21.604486442170952,-0.31731385257715977,-0.2484042221580408,-1.4135537038299695,-0.007887445554252755,-0.006333331991943273,-0.029201473983792695,0,70,255.0,255.0,255.0
545,27.25,-6.3579,6.694,-21.6752,-0.31772615697165935,-0.24873722208256627,-1.4149760252335029,-0.008604730225730162,-0.0069866649890757415,-0.027691382157547295,0,70,255.0,255.0,255.0
546,27.3,-6.373797060264865,6.6815544266750475,-21.745984140593368,-0.3181561836929608,-0.2490852887072761,-1.416404100580997,-0.00859633862632494,-0.006935999999316688,-0.029431631742226853,0,70,255.0,255.0,255.0
547,27.35,-6.389715611376297,6.6690915133500965,-21.816841860266088,-0.31858579083429184,-0.24943082208249795,-1.4179191884077256,-0.008587947026919717,-0.0068853350095576344,-0.03117188132690641,0,70,255.0,255.0,255.0
548,27.400000000000002,-6.405655632355296,6.656611386687622,-21.887777509642127,-0.31901497839565274,-0.24977382220823185,-1.4195212887136879,-0.008579555427514495,-0.006834670019798581,-0.032912130911585964,0,70,255.0,255.0,255.0
549,27.450000000000003,-6.4216171022228625,6.644114173350098,-21.95879543934545,-0.3194437463770433,-0.25011428908447786,-1.4212104014988842,-0.008571163828109274,-0.006784005030039527,-0.034652380496265525,0,70,255.0,255.0,255.0
550,27.5,-6.4376,6.6316,-22.0299,-0.3198720947784636,-0.2504522227112358,-1.4229865267633144,-0.008562772228704052,-0.006733340040280922,-0.03639263008094851,0,70,255.0,255.0,255.0
551,27.55,-6.453604023321595,6.61906915996982,-22.101094145914722,-0.3202831404330529,-0.250777622887297,-1.4247658856045498,-0.00787905395486569,-0.006282667002167124,-0.034781723568466184,0,70,255.0,255.0,255.0
552,27.6,-6.469627744278077,6.606522613272135,-22.172375246138365,-0.3206600001739502,-0.2510804894114525,-1.426464699120161,-0.007195335681027329,-0.0058319939640533265,-0.033170817055983855,0,70,255.0,255.0,255.0
553,27.650000000000002,-6.485669453573762,6.5939614865895395,-22.243739273404646,-0.3210026740011556,-0.2513608222837023,-1.4280829673101483,-0.006511617407188967,-0.005381320925939528,-0.03155991054350153,0,70,255.0,255.0,255.0
554,27.700000000000003,-6.501727441912965,6.581386906604629,-22.315182200447286,-0.3213111619146691,-0.2516186215040465,-1.4296206901745112,-0.005827899133350606,-0.004930647887825731,-0.02994900403101921,0,70,255.0,255.0,255.0
555,27.75,-6.5178,6.5688,-22.3867,-0.3215854639144907,-0.2518538870724849,-1.4310778677132503,-0.005144180859510961,-0.004479974849710189,-0.028338097518538774,0,70,255.0,255.0,255.0
556,27.8,-6.533886046448756,6.556201733445672,-22.458289675747757,-0.3218632545748345,-0.2520762197435268,-1.4325163570008086,-0.005967445554240503,-0.004413331991963786,-0.02920147398379315,0,70,255.0,255.0,255.0
557,27.85,-6.549987011511397,6.543592433561361,-22.529952355180473,-0.3221822084699148,-0.25229522027168133,-1.4339980151116296,-0.006790710248970046,-0.004346689134217384,-0.030064850449047522,0,70,255.0,255.0,255.0
558,27.900000000000002,-6.56610495334966,6.530972266954217,-22.60169019673931,-0.3225423255997315,-0.25251088865694854,-1.4355228420457133,-0.007613974943699588,-0.004280046276470981,-0.030928226914301898,0,70,255.0,255.0,255.0
559,27.950000000000003,-6.5822419301252815,6.518341400231381,-22.673505358865434,-0.32294360596428473,-0.25272322489932836,-1.4370908378030598,-0.008437239638429132,-0.004213403418724578,-0.03179160337955627,0,70,255.0,255.0,255.0
