idx,t,px,py,pz,vx,vy,vz,ax,ay,az,yaw,mode,ledr,ledg,ledb
0,0.0,10.5,-4.5,0.0,-8.800578307288816e-05,4.1895934591788635e-05,0.0020666455162631873,0.015456069396912152,-0.006102751215131045,-0.03519974619515825,0,70,255.0,255.0,255.0
1,0.05,10.50001523179181,-4.500005691746355,5.999923858547474e-05,0.0007035173397880771,-0.0002727278700890152,0.0003466569374810662,0.016204855517526456,-0.006482200972101107,-0.033599796956126596,0,70,255.0,255.0,255.0
2,0.1,10.500070975722412,-4.50002758899514,3.5998984780632966e-05,0.0015324797686797574,-0.0006063241626183221,-0.0012933341793494725,0.01695364163814076,-0.006861650729071169,-0.03199984771709495,0,70,255.0,255.0,255.0
3,0.15000000000000002,10.500169103757113,-4.500066640370748,-6.800088831694618e-05,0.0023988815036021537,-0.0009588929429961323,-0.00285332783422843,0.017702427758755065,-0.007241100486041232,-0.0303998984780633,0,70,255.0,255.0,255.0
4,0.2,10.500311487861207,-4.50012379449757,-0.0002480005076096836,0.003302722544555264,-0.0013304342112224453,-0.004333324027155802,0.01845121387936937,-0.007620550243011294,-0.02879994923903165,0,70,255.0,255.0,255.0
5,0.25,10.5005,-4.5002,-0.0005,0.00424400289153909,-0.0017209479672972614,-0.005733322758131594,0.019199999999983668,-0.007999999999981359,-0.027200000000000023,0,70,255.0,255.0,255.0
6,0.30000000000000004,10.500736512138795,-4.500296205502431,-0.0008199994923903167,0.005222722544553632,-0.002130434211220581,-0.007053324027155805,0.019948786120597976,-0.008379449756951419,-0.02560005076096836,0,70,255.0,255.0,255.0
7,0.35000000000000003,10.501022896242889,-4.5004133596292535,-0.0012039991116830544,0.006238881503598888,-0.0025588929429924035,-0.00829332783422843,0.020697572241212287,-0.008758899513921479,-0.024000101521936698,0,70,255.0,255.0,255.0
8,0.4,10.501361024277589,-4.500552411004861,-0.0016479989847806335,0.00729247976867486,-0.0030063241626127287,-0.009453334179349475,0.021446358361826595,-0.009138349270891539,-0.02240015228290504,0,70,255.0,255.0,255.0
9,0.45,10.501752768208192,-4.500714308253645,-0.002147999238585475,0.008383517339781548,-0.0034727278700815573,-0.010533343062518933,0.022195144482440903,-0.009517799027861599,-0.020800203043873377,0,70,255.0,255.0,255.0
10,0.5,10.5022,-4.5009,-0.0027,0.009511994216918949,-0.003958104065398889,-0.011533354483736812,0.022943930603055204,-0.009897248784831662,-0.019200253804841763,0,70,255.0,255.0,255.0
11,0.55,10.502704319653015,-4.501110286243923,-0.0033016012690242095,0.010661592481995552,-0.004453535285020382,-0.012549360828857856,0.023040000000008835,-0.009920000000028038,-0.021440000000000008,0,70,255.0,255.0,255.0
12,0.6000000000000001,10.50326623930603,-4.501345372487848,-0.003956802538048419,0.011815994216919834,-0.004950104065401694,-0.013677354483736814,0.023136069396962465,-0.009942751215224414,-0.023679746195158252,0,70,255.0,255.0,255.0
13,0.65,10.503885999132539,-4.50160531560981,-0.004671203172560523,0.012975199421691798,-0.005447810406542823,-0.014917335448373682,0.023232138793916092,-0.00996550243042079,-0.025919492390316493,0,70,255.0,255.0,255.0
14,0.7000000000000001,10.504563839306032,-4.501890172487848,-0.005450402538048418,0.014139208096311442,-0.005946654308443773,-0.016269303722768462,0.023328208190869722,-0.009988253645617166,-0.02815923858547474,0,70,255.0,255.0,255.0
15,0.75,10.5053,-4.5022,-0.0063,0.015308020240778769,-0.0064466357711045405,-0.017733259306921156,0.023424277587823297,-0.010011004860813577,-0.030398984780633187,0,70,255.0,255.0,255.0
16,0.8,10.506094209249145,-4.502534649521874,-0.0072239954315128484,0.016450907527459216,-0.006935424648700478,-0.01921323265741278,0.022291213879394502,-0.009540550243023882,-0.028799949239031706,0,70,255.0,255.0,255.0
17,0.8500000000000001,10.50694414653299,-4.5028931504193555,-0.008219990736123279,0.01753714162871822,-0.007400690795406929,-0.02061325423082433,0.021158150170965707,-0.009070095625234186,-0.027200913697430225,0,70,255.0,255.0,255.0
18,0.9,10.50784697919226,-4.5032743265559,-0.009283988324977281,0.018566722544555787,-0.007842434211223897,-0.021933324027155802,0.020025086462536916,-0.008599641007444491,-0.025601878155828747,0,70,255.0,255.0,255.0
19,0.9500000000000001,10.508799874567687,-4.503677001794963,-0.010411990609220857,0.019539650274971912,-0.008260654896151378,-0.023173442046407207,0.018892022754108118,-0.008129186389654796,-0.02400284261422727,0,70,255.0,255.0,255.0
20,1.0,10.5098,-4.5041,-0.0116,0.0204559248199666,-0.008655352850189375,-0.024333608288578532,0.01775895904567934,-0.007658731771865102,-0.022403807072625875,0,70,255.0,255.0,255.0
21,1.05,10.510845243350404,-4.504542315668582,-0.012844817004924396,0.021358777408168977,-0.009036766120181804,-0.025461708541491015,0.018355144482415747,-0.007597799027831964,-0.022720203043873406,0,70,255.0,255.0,255.0
22,1.1,10.511936374562014,-4.505003625834732,-0.014146434517458477,0.022291439268208174,-0.009415132752972573,-0.026605628592965874,0.018951329919152157,-0.007536866283798826,-0.023036599015120934,0,70,255.0,255.0,255.0
23,1.1500000000000001,10.513074884098423,-4.5054837781665915,-0.015505643527530357,0.023253910400084194,-0.009790452748561686,-0.02776536844300311,0.019547515355888563,-0.0074759335397656885,-0.023352994986368465,0,70,255.0,255.0,255.0
24,1.2000000000000002,10.514262262423221,-4.505982620332302,-0.016923235025068165,0.024246190803797033,-0.010162726106949141,-0.028940928091602723,0.02014370079262497,-0.007415000795732552,-0.023669390957615995,0,70,255.0,255.0,255.0
25,1.25,10.5155,-4.5065,-0.0184,0.025268280479346688,-0.010531952828134942,-0.03013230753876471,0.020739886229361487,-0.0073540680516994555,-0.02398578692886344,0,70,255.0,255.0,255.0
26,1.3,10.516789617349236,-4.507036087803802,-0.01993673654878957,0.026321982839853434,-0.010917510870568395,-0.03133993317662317,0.021408208190908325,-0.00806825364563872,-0.0243192385854748,0,70,255.0,255.0,255.0
27,1.35,10.518132755218952,-4.507592346241719,-0.02153427119404283,0.02740910129843752,-0.011338778192698814,-0.03256423139731219,0.02207653015245516,-0.008782439239577987,-0.02465269024208616,0,70,255.0,255.0,255.0
28,1.4000000000000001,10.51953108441405,-4.508170560777733,-0.023193437564901304,0.02852963585509895,-0.011795754794526197,-0.03380520220083178,0.022744852114001998,-0.009496624833517252,-0.024986141898697523,0,70,255.0,255.0,255.0
29,1.4500000000000002,10.520986275739432,-4.508772516875832,-0.02491506929050652,0.029683586509837726,-0.012288440676050541,-0.03506284558718195,0.023413174075548833,-0.010210810427456519,-0.025319593555308884,0,70,255.0,255.0,255.0
30,1.5,10.5225,-4.5094,-0.0267,0.030870953262653832,-0.012816835837271848,-0.036337161556362664,0.024081496037095668,-0.010924996021395794,-0.02565304521192019,0,70,255.0,255.0,255.0
31,1.55,10.524073087252644,-4.510054133116211,-0.028549036799917334,0.032041291232433704,-0.013341190397548,-0.037626558752016356,0.022732022754099163,-0.01004918638965031,-0.02592284261422727,0,70,255.0,255.0,255.0
32,1.6,10.525703004562175,-4.510733389198395,-0.030462880706370227,0.033144155538063755,-0.013821754476236878,-0.03892944581778539,0.021382549471102654,-0.009173376757904826,-0.026192640016534353,0,70,255.0,255.0,255.0
33,1.6500000000000001,10.527386378245382,-4.511435578722475,-0.03244220621286446,0.034179546179543975,-0.014258528073338484,-0.04024582275366979,0.02003307618810615,-0.008297567126159342,-0.026462437418841436,0,70,255.0,255.0,255.0
34,1.7000000000000002,10.52911983461906,-4.512158512164369,-0.0344876878129058,0.035147463156874365,-0.014651511188852814,-0.04157568955966954,0.01868360290510964,-0.007421757494413858,-0.026732234821148518,0,70,255.0,255.0,255.0
35,1.75,10.5309,-4.5129,-0.0366,0.03604790647005493,-0.01500070382277987,-0.04291904623578464,0.017334129622112893,-0.006545947862668322,-0.027002032223455708,0,70,255.0,255.0,255.0
36,1.8,10.532724433640185,-4.513658579731356,-0.03877911625154112,0.03693685223042178,-0.015349727539239466,-0.04423383181531143,0.018223700792561193,-0.007415000795715499,-0.025589390957615952,0,70,255.0,255.0,255.0
37,1.85,10.534594426532351,-4.514435696964702,-0.041022205980476276,0.037870276549311056,-0.015742203902351423,-0.04547798533154623,0.019113271963009493,-0.008284053728762676,-0.024176749691776196,0,70,255.0,255.0,255.0
38,1.9000000000000001,10.536512202604426,-4.515233524332369,-0.04332573758364088,0.03884817942672274,-0.016178132912115735,-0.04665150678448905,0.020002843133457796,-0.009153106661809853,-0.022764108425936444,0,70,255.0,255.0,255.0
39,1.9500000000000002,10.538479985784333,-4.51605423446669,-0.045686179457870325,0.03987056086265683,-0.016657514568532407,-0.04775439617413988,0.020892414303906096,-0.010022159594857031,-0.02135146716009669,0,70,255.0,255.0,255.0
40,2.0,10.5405,-4.5169,-0.0481,0.04093742085711334,-0.01718034887160143,-0.04878665350049872,0.021781985474354504,-0.01089121252790401,-0.01993882589425716,0,70,255.0,255.0,255.0
41,2.0500000000000003,10.542573978186615,-4.517772347958364,-0.050564898193918205,0.0420192998458619,-0.017707899445485873,-0.04982211398673788,0.021493174075587505,-0.01021081042747353,-0.02147959355530906,0,70,255.0,255.0,255.0
42,2.1,10.54470168930842,-4.518670222942798,-0.053083495371724666,0.04308673826467209,-0.018201429914348786,-0.050934612856029626,0.02120436267682051,-0.009530408327043053,-0.023020361216360943,0,70,255.0,255.0,255.0
43,2.15,10.546882411336917,-4.519591923948049,-0.05565964345257202,0.044139736113543944,-0.018660940278190177,-0.052124150108373964,0.020915551278053512,-0.00885000622661258,-0.024561128877412828,0,70,255.0,255.0,255.0
44,2.2,10.549115422243608,-4.520535749968866,-0.05829719435561294,0.04517829339247744,-0.019086430537010042,-0.05339072574377091,0.020626739879286513,-0.008169604126182098,-0.026101896538464724,0,70,255.0,255.0,255.0
45,2.25,10.5514,-4.5215,-0.061,0.0462024101014726,-0.019477900690808382,-0.05473433976222043,0.020337928480519463,-0.007489202025751596,-0.027642664199516886,0,70,255.0,255.0,255.0
46,2.3000000000000003,10.55373565361335,-4.522483228435185,-0.06377089097278611,0.04722594838611407,-0.01985067467881295,-0.05609371223773708,0.020603602905139087,-0.007421757494430936,-0.026732234821148653,0,70,255.0,255.0,255.0
47,2.35,10.556122816233966,-4.523485011264105,-0.06660861253262507,0.04826277039198651,-0.020220076440251478,-0.057407563244335304,0.02086927732975871,-0.007354312963110276,-0.02582180544278043,0,70,255.0,255.0,255.0
48,2.4000000000000004,10.558562152047902,-4.524505179875433,-0.069510888606071,0.04931287611908994,-0.020586105975123975,-0.05867589278201513,0.02113495175437833,-0.007286868431789616,-0.024911376064412197,0,70,255.0,255.0,255.0
49,2.45,10.561054325241226,-4.52554356565784,-0.07247544311967795,0.05037626556742435,-0.020948763283430438,-0.059898700850776525,0.02140062617899795,-0.007219423900468957,-0.024000946686043974,0,70,255.0,255.0,255.0
50,2.5,10.5636,-4.5266,-0.0755,0.05145293873698972,-0.021308048365170872,-0.06107598745061951,0.021666300603617294,-0.007151979369148381,-0.023090517307675418,0,70,255.0,255.0,255.0
51,2.5500000000000003,10.56619940735998,-4.527674738300897,-0.07858273791493743,0.05251690660967782,-0.02168940183927027,-0.062235037062313814,0.020892414303906065,-0.00810215959482733,-0.023271467160096516,0,70,255.0,255.0,255.0
52,2.6,10.568851045755718,-4.528769732000781,-0.08172365449777508,0.053542180167380334,-0.022118264324653605,-0.06340313416662917,0.020118528004194846,-0.009052339820506268,-0.02345241701251761,0,70,255.0,255.0,255.0
53,2.6500000000000004,10.571552980471468,-4.529887356550217,-0.08492320212314404,0.0545287594100973,-0.022594635821320895,-0.06458027876356558,0.019344641704483617,-0.010002520046185216,-0.02363336686493871,0,70,255.0,255.0,255.0
54,2.7,10.574303276791477,-4.531029987399768,-0.08818183316567532,0.055476644337828694,-0.023118516329272126,-0.06576647085312304,0.018570755404772397,-0.010952700271864155,-0.02381431671735981,0,70,255.0,255.0,255.0
55,2.75,10.5771,-4.5322,-0.0915,0.05638583495057454,-0.023689905848507307,-0.06696171043530154,0.01779686910506112,-0.011902880497542984,-0.02399526656978057,0,70,255.0,255.0,255.0
56,2.8000000000000003,10.579941916946732,-4.533398618361225,-0.09487815736746426,0.057298425175182494,-0.024239717964100748,-0.06816613951300768,0.0187067398792569,-0.010089604126194581,-0.024181896538464875,0,70,255.0,255.0,255.0
57,2.85,10.582830600743165,-4.534622460732766,-0.09831676947627467,0.05825650893850023,-0.024698866261126766,-0.06937990008914802,0.019616610653452674,-0.008276327754846192,-0.02436852650714918,0,70,255.0,255.0,255.0
58,2.9000000000000004,10.585768326066228,-4.535866993923696,-0.10181630290135299,0.05926008624052777,-0.025067350739585367,-0.0706029921637226,0.020526481427648454,-0.00646305138349779,-0.024555156475833485,0,70,255.0,255.0,255.0
59,2.95,10.588757367592862,-4.537127684743083,-0.10537722421762084,0.06030915708126508,-0.025345171399476545,-0.07183541573673138,0.021436352201844224,-0.004649775012149403,-0.02474178644451779,0,70,255.0,255.0,255.0
60,3.0,10.5918,-4.5384,-0.109,0.06140372146071218,-0.025532328240800307,-0.07307717080817436,0.02234622297604033,-0.0028364986408009607,-0.024928416413202426,0,70,255.0,255.0,255.0
61,3.0500000000000003,10.59489772485309,-4.5396811882542,-0.1126846326152056,0.06249739268958815,-0.025735726304332168,-0.07430040488565552,0.021400626178997944,-0.005299423900473495,-0.024000946686044106,0,70,255.0,255.0,255.0
62,3.1,10.598048951271627,-4.54097562506815,-0.11642926759712627,0.06354378407861198,-0.026062270630847654,-0.07547726547677877,0.020455029381955567,-0.007762349160146008,-0.023073476958885796,0,70,255.0,255.0,255.0
63,3.1500000000000004,10.601251315263617,-4.542289467755001,-0.12023158627144417,0.0645428956277837,-0.02651196122034677,-0.07660775258154412,0.01950943258491318,-0.010225274419818544,-0.022146007231727476,0,70,255.0,255.0,255.0
64,3.2,10.604502452837075,-4.543628873627901,-0.12408926996384137,0.06549472733710329,-0.02708479807282951,-0.07769186619995151,0.018563835787870804,-0.012688199679491056,-0.021218537504569167,0,70,255.0,255.0,255.0
65,3.25,10.6078,-4.545,-0.128,0.06639927920657078,-0.027780781188295873,-0.07872960633200103,0.017618238990828705,-0.015151124939163513,-0.020291067777411187,0,70,255.0,255.0,255.0
66,3.3000000000000003,10.611142383640905,-4.546407028621977,-0.13196251217171348,0.06730400406646167,-0.028481376818571026,-0.0797842409443703,0.018570755404806533,-0.012872700271842556,-0.02189431671735956,0,70,255.0,255.0,255.0
67,3.35,10.614531194170324,-4.547846238994635,-0.13597976013522034,0.06825635474705144,-0.029068051215480128,-0.080919038003737,0.01952327181878435,-0.01059427560452162,-0.02349756565730792,0,70,255.0,255.0,255.0
68,3.4000000000000004,10.617968812879289,-4.549311935056303,-0.1400557520128705,0.0692563312483401,-0.029540804379023188,-0.0821339975101011,0.02047578823276218,-0.008315850937200664,-0.025100814597256292,0,70,255.0,255.0,255.0
69,3.45,10.621457621058838,-4.550798420745314,-0.14419449592701375,0.07030393357032766,-0.0298996363092002,-0.08342911946346261,0.021428304646739997,-0.006037426269879728,-0.026704063537204652,0,70,255.0,255.0,255.0
70,3.5,10.625,-4.5523,-0.1484,0.07139916171301408,-0.03014454700601116,-0.08480440386382156,0.022380821060717926,-0.0037590016025587925,-0.028307312477153013,0,70,255.0,255.0,255.0
71,3.5500000000000003,10.628597540583286,-4.553812297257891,-0.15267491869794061,0.07249459104457728,-0.030354766421379294,-0.08617863133686333,0.0214363522018103,-0.004649775012166456,-0.02666178644451757,0,70,255.0,255.0,255.0
72,3.6,10.632248672047075,-4.555336218953313,-0.15701649186199249,0.07354279693319511,-0.030609524507227807,-0.08747058250827332,0.02049188334290268,-0.005540548421774112,-0.025016260411882138,0,70,255.0,255.0,255.0
73,3.6500000000000004,10.635951033219223,-4.5568739920197885,-0.1614206056770741,0.07454377937886757,-0.030908821263556707,-0.08868025737805153,0.019547414483995055,-0.006431321831381776,-0.023370734379246694,0,70,255.0,255.0,255.0
74,3.7,10.639702262927578,-4.5584278433908425,-0.1658831463281038,0.07549753838159462,-0.03125265669036598,-0.08980765594619798,0.01860294562508744,-0.007322095240989432,-0.021725208346611263,0,70,255.0,255.0,255.0
75,3.75,10.6435,-4.56,-0.1704,0.0764040739413763,-0.03164103078765565,-0.09085277821271266,0.01765847676617982,-0.008212868650597116,-0.02007968231397539,0,70,255.0,255.0,255.0
76,3.8000000000000003,10.647342654025952,-4.561592582346457,-0.1749682130365242,0.07730963175522758,-0.03206755749590808,-0.09188523370817628,0.018563835787870936,-0.008848199679499971,-0.02121853750456946,0,70,255.0,255.0,255.0
77,3.85,10.651231717641375,-4.563207285192115,-0.1795894724168098,0.07826045752016339,-0.03252585075560564,-0.0929746319631696,0.01946919480956204,-0.009483530708402823,-0.022357392695163528,0,70,255.0,255.0,255.0
78,3.9000000000000004,10.655169454243818,-4.564845696864542,-0.18426662527883333,0.07925655123618379,-0.03301591056674836,-0.09412097297769265,0.020374553831253157,-0.010118861737305678,-0.0234962478857576,0,70,255.0,255.0,255.0
79,3.95,10.659158127230842,-4.5665094056913125,-0.18900251876057123,0.0802979129032887,-0.03353773692933622,-0.09532425675174537,0.021279912852944262,-0.010754192766208528,-0.024635103076351667,0,70,255.0,255.0,255.0
80,4.0,10.6632,-4.5682,-0.1938,0.0813845425214782,-0.03409132984336921,-0.09658448328532779,0.022185271874634926,-0.011389523795111378,-0.025773958266945618,0,70,255.0,255.0,255.0
81,4.05,10.667296643312906,-4.569918173356277,-0.19866102915596268,0.08247488193451341,-0.03462300359499376,-0.09784843383043156,0.0214283046467739,-0.009877426269870787,-0.024784063537204973,0,70,255.0,255.0,255.0
82,4.1000000000000005,10.671446857387426,-4.571661040278228,-0.2035840184707684,0.08352737298615559,-0.03507907247035629,-0.09906288963904829,0.020671337418912864,-0.008365328744630168,-0.02379416880746431,0,70,255.0,255.0,255.0
83,4.15,10.675648749805497,-4.573424820522042,-0.20856649320759274,0.08454201567640471,-0.035459536469456786,-0.10022785071117798,0.019914370191051838,-0.006853231219389577,-0.022804274077723667,0,70,255.0,255.0,255.0
84,4.2,10.679900428149045,-4.575205733843903,-0.21360597862961142,0.08551881000526078,-0.03576439559229525,-0.10134331704682066,0.019157402963190816,-0.005341133694148986,-0.021814379347983023,0,70,255.0,255.0,255.0
85,4.25,10.6842,-4.577,-0.2187,0.08645775597272379,-0.03599364983887169,-0.10240928864597629,0.018400435735330012,-0.0038290361689084507,-0.020824484618241934,0,70,255.0,255.0,255.0
86,4.3,10.688545972722427,-4.578805124228435,-0.22384687033962508,0.08738284050673337,-0.03622442812411882,-0.1034730309700976,0.01860294562505351,-0.005402095240976862,-0.0217252083466104,0,70,255.0,255.0,255.0
87,4.3500000000000005,10.692938452808917,-4.580623753694971,-0.2290480537001168,0.08831805053522915,-0.03653385936296938,-0.10458180948063733,0.018805455514777015,-0.0069751543130453005,-0.022625932074978882,0,70,255.0,255.0,255.0
88,4.4,10.697377946534191,-4.5824598210472915,-0.23430580189079586,0.08926338605821107,-0.03692194355542336,-0.10573562417759548,0.019007965404500518,-0.008548213385113712,-0.023526655803347347,0,70,255.0,255.0,255.0
89,4.45,10.701864960172978,-4.584317258933074,-0.2396223667209833,0.0902188470756792,-0.03738868070148075,-0.10693447506097208,0.019210475294224018,-0.010121272457182123,-0.024427379531715813,0,70,255.0,255.0,255.0
90,4.5,10.7064,-4.5862,-0.245,0.09118443358763349,-0.03793407080114156,-0.10817836213076705,0.019412985183947407,-0.011694331529250424,-0.025328103260084167,0,70,255.0,255.0,255.0
91,4.55,10.710983465797389,-4.588110929729983,-0.25044028948553687,0.09215375603855502,-0.038495283908528466,-0.10942744228917795,0.019359912852914295,-0.010754192766225527,-0.024635103076351663,0,70,255.0,255.0,255.0
92,4.6000000000000005,10.715615331376913,-4.590048744941884,-0.2559421667287647,0.09312042487292493,-0.03900949007776412,-0.11064187243840222,0.019306840521881186,-0.009814054003200613,-0.02394210289261915,0,70,255.0,255.0,255.0
93,4.65,10.72029546405774,-4.592011095288791,-0.261503899229224,0.09408444009074315,-0.039476689308848525,-0.11182165257843987,0.019253768190848074,-0.008873915240175716,-0.023249102708886644,0,70,255.0,255.0,255.0
94,4.7,10.725023731159043,-4.593995630423798,-0.2671237544864556,0.09504580169200974,-0.03989688160178169,-0.11296678270929088,0.019200695859814966,-0.007933776477150819,-0.02255610252515414,0,70,255.0,255.0,255.0
95,4.75,10.7298,-4.596,-0.2728,0.09600450967672464,-0.040270066956563606,-0.11407726283095528,0.01914762352878152,-0.006993637714125811,-0.02186310234142208,0,70,255.0,255.0,255.0
96,4.800000000000001,10.73462416408801,-4.598022356851629,-0.2785311717182274,0.09696213533902567,-0.04062643624177037,-0.11516919987319042,0.019157402963259074,-0.007261133694144554,-0.02181437934798358,0,70,255.0,255.0,255.0
97,4.8500000000000005,10.73949622168343,-4.600062866537494,-0.2843168793848246,0.09792024997305054,-0.04099618032597807,-0.11625870076575365,0.019167182397736626,-0.007528629674163292,-0.021765656354545082,0,70,255.0,255.0,255.0
98,4.9,10.744416197234845,-4.602122197797544,-0.2901570011923082,0.09887885357879932,-0.0413792992091867,-0.11734576550864494,0.01917696183221418,-0.007796125654182031,-0.021716933361106583,0,70,255.0,255.0,255.0
99,4.95,10.74938411519084,-4.60420101937173,-0.29605141533319446,0.09983794615627196,-0.04177579289139626,-0.11843039410186429,0.01918674126669173,-0.008063621634200768,-0.021668210367668084,0,70,255.0,255.0,255.0
100,5.0,10.7544,-4.6063,-0.302,0.10079752770546849,-0.04218566137260677,-0.11951258654541173,0.01919652070116884,-0.008331117614219508,-0.021619487374229807,0,70,255.0,255.0,255.0
101,5.050000000000001,10.759463877850564,-4.6084196428635,-0.30800302364155413,0.10175770260535331,-0.0425989711243915,-0.12061575821806039,0.019210475294223928,-0.008201272457169515,-0.022507379531715922,0,70,255.0,255.0,255.0
102,5.1000000000000005,10.764575781889365,-4.610559788908142,-0.31406231573193727,0.10271857523489089,-0.04300578861832373,-0.12176332449858333,0.019224429887279015,-0.008071427300119526,-0.023395271689202024,0,70,255.0,255.0,255.0
103,5.15,10.769735747002882,-4.612720113521035,-0.3201800960015436,0.10368014559408122,-0.04340611385440345,-0.1229552853869806,0.019238384480334103,-0.007941582143069536,-0.024283163846688122,0,70,255.0,255.0,255.0
104,5.2,10.774943808077598,-4.614900292089284,-0.32635858418076663,0.10464241368292429,-0.04379994683263068,-0.12419164088325213,0.01925233907338919,-0.007811736986019546,-0.02517105600417422,0,70,255.0,255.0,255.0
105,5.25,10.7802,-4.6171,-0.3326,0.10560537950142013,-0.0441872875530054,-0.125472390987398,0.0192662936664445,-0.007681891828969278,-0.026058948161660433,0,70,255.0,255.0,255.0
106,5.300000000000001,10.785504324509736,-4.619319071694373,-0.3389055337155569,0.10656705423957492,-0.04457767926065883,-0.1267357672545684,0.01920069585974673,-0.007933776477167757,-0.02447610252515402,0,70,255.0,255.0,255.0
107,5.3500000000000005,10.79085665075912,-4.621557977829939,-0.3452722576874265,0.10752544908739481,-0.04498066520072217,-0.12792000123991343,0.01913509805304896,-0.008185661125366232,-0.022893256888647635,0,70,255.0,255.0,255.0
108,5.4,10.796256814753637,-4.623817348118319,-0.3516962148015177,0.10848056404487981,-0.04539624537319545,-0.12902509294343317,0.01906950024635119,-0.008437545773564705,-0.021310411252141247,0,70,255.0,255.0,255.0
109,5.45,10.801704652498769,-4.626097812271132,-0.35817344794373934,0.10943239911202991,-0.04582441977807865,-0.13005104236512754,0.01900390243965342,-0.008689430421763178,-0.01972756561563486,0,70,255.0,255.0,255.0
110,5.5,10.8072,-4.6284,-0.3647,0.11038095428884516,-0.04626518841537176,-0.13099784950499666,0.018938304632955538,-0.008941315069961375,-0.018144719979128254,0,70,255.0,255.0,255.0
111,5.550000000000001,10.812742824110497,-4.630724070359007,-0.37127324149621915,0.1113340804363372,-0.04669031183297581,-0.13194517276366655,0.019186741266725506,-0.008063621634200734,-0.019748210367667097,0,70,255.0,255.0,255.0
112,5.6000000000000005,10.818333615074163,-4.633068299772101,-0.3778958535183572,0.11229962841551773,-0.04707155057879183,-0.1329726705417634,0.019435177900495475,-0.0071859281984401075,-0.02135170075620591,0,70,255.0,255.0,255.0
113,5.65,10.823972993982578,-4.635430494005691,-0.38457184479238576,0.11327759822638675,-0.04740890465281983,-0.13408034283928713,0.01968361453426544,-0.0063082347626794814,-0.022955191144744723,0,70,255.0,255.0,255.0
114,5.7,10.82966158192733,-4.6378084588261865,-0.39130522404427637,0.11426798986894425,-0.04770237405505978,-0.13526818965623785,0.019932051168035404,-0.005430541326918855,-0.024558681533283538,0,70,255.0,255.0,255.0
115,5.75,10.8354,-4.6402,-0.3981,0.11527080334319026,-0.04795195878551171,-0.13653621099261548,0.020180487801805036,-0.004552847891158118,-0.02616217192182191,0,70,255.0,255.0,255.0
116,5.800000000000001,10.841188379048274,-4.642603846869596,-0.4049591002995675,0.11625662401507098,-0.04821307340744083,-0.1378195416907654,0.019252339073423327,-0.005891736986006854,-0.025171056004174183,0,70,255.0,255.0,255.0
117,5.8500000000000005,10.847024888944233,-4.645022423081657,-0.4118811282391452,0.1171960372505326,-0.0485411324841124,-0.1390533165930329,0.018324190345041638,-0.007230626080855566,-0.024179940086526474,0,70,255.0,255.0,255.0
118,5.9,10.852907209316056,-4.64745907585892,-0.4188636060289393,0.11808904304957514,-0.04893613601552639,-0.14023753569941802,0.017396041616659946,-0.008569515175704277,-0.02318882416887877,0,70,255.0,255.0,255.0
119,5.95,10.858833019791916,-4.649917152424122,-0.42590405587915564,0.11893564141219859,-0.049398084001682815,-0.1413721990099208,0.016467892888278254,-0.009908404270552989,-0.02219770825123106,0,70,255.0,255.0,255.0
120,6.0,10.8648,-4.6524,-0.433,0.11973583233840296,-0.049926976442581684,-0.1424573065245411,0.01553974415989634,-0.0112472933654017,-0.021206592333582686,0,70,255.0,255.0,255.0
121,6.050000000000001,10.870806859696405,-4.654910142162609,-0.44014955730551164,0.12055142350339097,-0.0504733945372607,-0.1435286604732716,0.01708390243962381,-0.010609430421758572,-0.021647565615635727,0,70,255.0,255.0,255.0
122,6.1000000000000005,10.876856429148907,-4.657446807901274,-0.4473532335250623,0.12144422258236535,-0.050987919484757546,-0.1446220630861047,0.018628060719351254,-0.009971567478115454,-0.022088538897688765,0,70,255.0,255.0,255.0
123,6.15,10.882952568753208,-4.660008402558633,-0.4546121310918571,0.12241422957532609,-0.05147055128507224,-0.14573751436304044,0.020172218999078693,-0.009333704534472338,-0.0225295121797418,0,70,255.0,255.0,255.0
124,6.2,10.889099138905005,-4.662593331477328,-0.4619273524391013,0.12346144448227321,-0.05192128993820478,-0.14687501430407887,0.021716377278806136,-0.008695841590829222,-0.022970485461794834,0,70,255.0,255.0,255.0
125,6.25,10.8953,-4.6652,-0.4693,0.12458586730320668,-0.05234013544415517,-0.1480345629092199,0.02326053555853369,-0.00805797864718616,-0.023411458743846758,0,70,255.0,255.0,255.0
126,6.300000000000001,10.901557782166114,-4.667826784479966,-0.47673067047838646,0.12571368197136995,-0.05272534844350811,-0.14918581641614817,0.021852051167996756,-0.007350541326931371,-0.022638681533283377,0,70,255.0,255.0,255.0
127,6.3500000000000005,10.907870194460145,-4.67047194531325,-0.4842179376606061,0.12677107242000638,-0.05307518957684831,-0.15029843106254825,0.02044356677745985,-0.006643104006676595,-0.021865904322720012,0,70,255.0,255.0,255.0
128,6.4,10.914233715671122,-4.673133713906551,-0.49175986960363244,0.12775803864911592,-0.05338965884417577,-0.15137240684842015,0.019035082386922943,-0.0059356666864218205,-0.021093127112156645,0,70,255.0,255.0,255.0
129,6.45,10.920644824588067,-4.675810321666567,-0.4993545343644392,0.12867458065869866,-0.05366875624549049,-0.1524077437737639,0.017626597996386034,-0.0052282293661670455,-0.02032034990159328,0,70,255.0,255.0,255.0
130,6.5,10.9271,-4.6785,-0.507,0.12952069844875455,-0.05391248178079247,-0.15340444183857946,0.016218113605849238,-0.00452079204591227,-0.01954757269102969,0,70,255.0,255.0,255.0
131,6.550000000000001,10.933596411639146,-4.681201919917523,-0.514694960780943,0.13033784861110945,-0.054177211688704326,-0.154400073862136,0.01646789288834634,-0.006068404270561944,-0.020277708251231152,0,70,255.0,255.0,255.0
132,6.6000000000000005,10.940133993010512,-4.683919010845725,-0.5224406158325139,0.13116748773758918,-0.054519322207848664,-0.1554322126637026,0.016717672170843436,-0.007616016495211592,-0.0210078438114326,0,70,255.0,255.0,255.0
133,6.65,10.946713368562307,-4.686655141815162,-0.5302387904936133,0.1320096158281938,-0.054938813338225485,-0.15650085824327925,0.016967451453340533,-0.009163628719861238,-0.021737979371634047,0,70,255.0,255.0,255.0
134,6.7,10.953335162742734,-4.6894141818564,-0.5380913101031419,0.13286423288292323,-0.05543568507983479,-0.157606010600866,0.01721723073583763,-0.010711240944510887,-0.022468114931835495,0,70,255.0,255.0,255.0
135,6.75,10.96,-4.6922,-0.546,0.13373133890177755,-0.056009937432676564,-0.1587476697364628,0.017467010018334728,-0.012258853169160144,-0.023198250492036054,0,70,255.0,255.0,255.0
136,6.800000000000001,10.966708571277303,-4.695015135849937,-0.5539662863978424,0.13461492358420546,-0.05658180480167619,-0.15990188813530853,0.017876377278780935,-0.010615841590824657,-0.022970485461792874,0,70,255.0,255.0,255.0
137,6.8500000000000005,10.973461833497806,-4.697856811303852,-0.5619899990093391,0.13551897662965567,-0.05707152159175904,-0.16104471828264208,0.018285744539227138,-0.008972830012489202,-0.0227427204315497,0,70,255.0,255.0,255.0
138,6.9,10.980260810079654,-4.700720918832798,-0.5700705684219147,0.13644349803812816,-0.057479087802925106,-0.16217616017846348,0.01869511179967334,-0.007329818434153745,-0.022514955401306522,0,70,255.0,255.0,255.0
139,6.95,10.987106524441002,-4.703603350907829,-0.5782074252229935,0.13738848780962298,-0.057804503435174404,-0.16329621382277273,0.019104479060119542,-0.005686806855818288,-0.02228719037106335,0,70,255.0,255.0,255.0
140,7.0,10.994,-4.7065,-0.5864,0.13835394594414008,-0.058047768488506936,-0.16440487921556984,0.019513846320564632,-0.00404379527748272,-0.022059425340820837,0,70,255.0,255.0,255.0
141,7.050000000000001,11.000942103251639,-4.709407936682727,-0.5946478936276882,0.13933045705206287,-0.05827956910459776,-0.16551237359663018,0.01954659799634726,-0.005228229366150045,-0.022240349901592096,0,70,255.0,255.0,255.0
142,7.1000000000000005,11.00793307299827,-4.712328943938867,-0.6029513881301304,0.1403086057437748,-0.05857059142512194,-0.16662891420572906,0.019579349672129886,-0.006412663454817348,-0.02242127446236335,0,70,255.0,255.0,255.0
143,7.15,11.01497299111908,-4.715265982853646,-0.6113109358187285,0.14128839201927587,-0.05892083545007949,-0.16775450104286652,0.019612101347912515,-0.007597097543484652,-0.02260219902313461,0,70,255.0,255.0,255.0
144,7.2,11.02206193949326,-4.718222014512282,-0.6197269890048843,0.14226981587856605,-0.059330301179470406,-0.16888913410804252,0.01964485302369514,-0.008781531632151954,-0.022783123583905864,0,70,255.0,255.0,255.0
145,7.25,11.0292,-4.7212,-0.6282,0.14325287732164535,-0.059798988613294676,-0.1700328134012571,0.019677604699477547,-0.009965965720819203,-0.022964048144676674,0,70,255.0,255.0,255.0
146,7.300000000000001,11.036387015716139,-4.724201917419159,-0.6367301390914051,0.14422324820752985,-0.06026791877992804,-0.17116861747816994,0.019137230735901626,-0.008791240944515184,-0.022468114931836952,0,70,255.0,255.0,255.0
147,7.3500000000000005,11.043621874509116,-4.727225812940678,-0.6453164484701398,0.14516660039523552,-0.0606781127077462,-0.17227962489444082,0.018596856772325716,-0.007616516168211183,-0.021972181718997237,0,70,255.0,255.0,255.0
148,7.4,11.050903225444024,-4.730268749752621,-0.6539576883031718,0.1460829338847624,-0.06102957039674915,-0.17336583565006966,0.018056482808749802,-0.006441791391907184,-0.021476248506157522,0,70,255.0,255.0,255.0
149,7.45,11.058229717585956,-4.733327791043039,-0.6626526187574693,0.1469722486761105,-0.06132229184693692,-0.17442724974505655,0.01751610884517389,-0.005267066615603185,-0.020980315293317807,0,70,255.0,255.0,255.0
150,7.5,11.0656,-4.7364,-0.6714,0.1478345447692798,-0.06155627705830947,-0.17546386717940143,0.016975734881597537,-0.0040923418392990185,-0.020484382080478092,0,70,255.0,255.0,255.0
151,7.550000000000001,11.073013033883806,-4.739483593640639,-0.6801987500066918,0.14868855011782198,-0.06180075577568783,-0.17648515649069,0.0171844790600892,-0.005686806855835303,-0.020367190371064048,0,70,255.0,255.0,255.0
152,7.6000000000000005,11.080469028965265,-4.742581404298416,-0.6890484179893114,0.14955299267528874,-0.062124957743893004,-0.17750058621650786,0.01739322323858086,-0.007281271872371559,-0.020249998661650004,0,70,255.0,255.0,255.0
153,7.65,11.087968507104819,-4.745697418135874,-0.6979487109685848,0.15042787244168004,-0.06252888296292498,-0.178510156356855,0.01760196741707252,-0.008875736888907814,-0.02013280695223596,0,70,255.0,255.0,255.0
154,7.7,11.095511990162914,-4.748835621315556,-0.7068993359652388,0.15131318941699598,-0.06301253143278378,-0.17951386691173143,0.017810711595564178,-0.010470201905444072,-0.020015615242821916,0,70,255.0,255.0,255.0
155,7.75,11.1031,-4.752,-0.7159,0.15220894360123646,-0.06357590315346938,-0.1805117178811372,0.01801945577405495,-0.01206466692198005,-0.019898423533408094,0,70,255.0,255.0,255.0
156,7.800000000000001,11.110732848748633,-4.7551933080182875,-0.7249508608818281,0.15310255132118034,-0.06414505811732257,-0.18153075655907006,0.017724853023699125,-0.010701531632147357,-0.020863123583905865,0,70,255.0,255.0,255.0
157,7.8500000000000005,11.118410009629825,-4.758413369865658,-0.7340538795726158,0.1539814289036064,-0.06464605631668412,-0.1825980302395278,0.017430250273343304,-0.00933839634231469,-0.02182782363440362,0,70,255.0,255.0,255.0
158,7.9,11.126130746136702,-4.761656777703882,-0.7432114678224896,0.15484557634851465,-0.06507889775155404,-0.18371353892251044,0.017135647522987484,-0.00797526105248202,-0.022792523684901374,0,70,255.0,255.0,255.0
159,7.95,11.133894321762387,-4.764920123694737,-0.7524260373815755,0.15569499365590514,-0.06544358242193232,-0.18487728260801792,0.016841044772631663,-0.006612125762649352,-0.023757223735399128,0,70,255.0,255.0,255.0
160,8.0,11.1417,-4.7682,-0.7617,0.1565296808257778,-0.06574011032781896,-0.18608926129605033,0.016546442022274954,-0.0052489904728161285,-0.024721923785896882,0,70,255.0,255.0,255.0
161,8.05,11.149547571121659,-4.771493574286208,-0.7710346064659965,0.15738124459746403,-0.06600301175502901,-0.18727981727303064,0.01751610884517355,-0.005267066615585936,-0.022900315293315394,0,70,255.0,255.0,255.0
162,8.1,11.157438932515433,-4.774800316238955,-0.7804264637202258,0.15828129171029517,-0.06626681698937754,-0.18837929282538185,0.018485775668072118,-0.005285142758355743,-0.02107870680073397,0,70,255.0,255.0,255.0
163,8.15,11.165376508348375,-4.778120271048598,-0.7898710177414575,0.15922982216427123,-0.0665315260308646,-0.18938768795310404,0.019455442490970715,-0.00530321890112555,-0.019257098308152486,0,70,255.0,255.0,255.0
164,8.200000000000001,11.173362722787546,-4.781453483905494,-0.7993637145084594,0.16022683595939227,-0.06679713887949011,-0.19030500265619713,0.020425109313869316,-0.005321295043895358,-0.017435489815570998,0,70,255.0,255.0,255.0
165,8.25,11.1814,-4.7848,-0.8089,0.16127233309565817,-0.0670636555352541,-0.19113123693466116,0.021394776136767435,-0.005339371186664832,-0.015613881322990242,0,70,255.0,255.0,255.0
166,8.3,11.189489666764727,-4.788160394836878,-0.8184771132541867,0.16230047028896635,-0.06736289486255705,-0.1919739743488065,0.019730711595559322,-0.006630201905452934,-0.018095615242822518,0,70,255.0,255.0,255.0
167,8.35,11.197628660308446,-4.791537365178521,-0.8280994655464804,0.1632454042552141,-0.06772667572579939,-0.1929407984589434,0.01806664705435127,-0.007921032624240988,-0.020577349162654704,0,70,255.0,255.0,255.0
168,8.4,11.205812820469799,-4.794934138101724,-0.8377732612116809,0.16410713499440147,-0.06815499812498116,-0.19403170926507196,0.01640258251314316,-0.00921186334302909,-0.023059083082486984,0,70,255.0,255.0,255.0
169,8.450000000000001,11.214037987087435,-4.798353940683285,-0.8475047045845877,0.16488566250652842,-0.06864786206010232,-0.19524670676719214,0.014738517971935048,-0.01050269406181719,-0.025540817002319256,0,70,255.0,255.0,255.0
170,8.5,11.2223,-4.8018,-0.8573,0.16558098679159497,-0.06920526753116285,-0.19658579096530387,0.013074453430726996,-0.011793524780605136,-0.028022550922151446,0,70,255.0,255.0,255.0
171,8.55,11.230596161819427,-4.805274446366277,-0.8671633405172567,0.16628087424667903,-0.06976140879474442,-0.19792828533174278,0.014921044772635898,-0.01045212576265724,-0.02567722373540301,0,70,255.0,255.0,255.0
172,8.6,11.238929626250785,-4.808775023046959,-0.8770908740938519,0.16707309126885855,-0.07025048010742857,-0.19915351333884415,0.016767636114544734,-0.009110726744709394,-0.023331896548654658,0,70,255.0,255.0,255.0
173,8.65,11.247305009772434,-4.812298376544504,-0.8870767374118189,0.16795763785813353,-0.07067248146921536,-0.2002614749866082,0.018614227456453636,-0.0077693277267615,-0.02098656936190622,0,70,255.0,255.0,255.0
174,8.700000000000001,11.25572692886272,-4.815841153361366,-0.8971150671531908,0.16893451401450396,-0.07102741288010472,-0.2012521702750348,0.02046081879836254,-0.006427928708813606,-0.018641242175157786,0,70,255.0,255.0,255.0
175,8.75,11.2642,-4.8194,-0.9072,0.17000371973796977,-0.07131527434009671,-0.20212559920412398,0.022307410140270933,-0.00508652969086576,-0.016295914988409876,0,70,255.0,255.0,255.0
176,8.8,11.272727285957563,-4.822972219698015,-0.9173271246767865,0.17107203272432245,-0.07157546995846531,-0.20296888432422347,0.020425109313834806,-0.0053212950438781305,-0.0174354898155695,0,70,255.0,255.0,255.0
177,8.85,11.28130563468841,-4.82655774263364,-0.9274978380781117,0.17204623066935326,-0.07184740384448453,-0.20386914818568092,0.018542808487398747,-0.0055560603968904925,-0.01857506464272908,0,70,255.0,255.0,255.0
178,8.9,11.289930340440476,-4.830157155720258,-0.9377149891410439,0.1729263135730623,-0.07213107599815437,-0.20482639078849638,0.016660507660962616,-0.005790825749902863,-0.019714639469888703,0,70,255.0,255.0,255.0
179,8.950000000000001,11.298596697461695,-4.83377104587125,-0.9479814268026509,0.17371228143544953,-0.07242648641947481,-0.20584061213266983,0.014778206834526492,-0.006025591102915234,-0.020854214297048326,0,70,255.0,255.0,255.0
180,9.0,11.3073,-4.8374,-0.9583,0.17440413425651496,-0.07273363510844588,-0.2069118122182012,0.012895906008090652,-0.006260356455927596,-0.021993789124207908,0,70,255.0,255.0,255.0
181,9.05,11.316037094350321,-4.841044674841661,-0.9686729607755982,0.17509499485601646,-0.07305671137139015,-0.2080041773713643,0.01473851797196926,-0.006662694061843061,-0.02170081700231527,0,70,255.0,255.0,255.0
182,9.1,11.324811034995571,-4.844706006418477,-0.9791001735937014,0.17587798605371188,-0.07339990451463019,-0.20908189391843274,0.016581129935847802,-0.007065031667758512,-0.021407844880422647,0,70,255.0,255.0,255.0
183,9.15,11.33362642846566,-4.848385000574462,-0.9895809060240064,0.17675310784960127,-0.073763214538166,-0.21014496185940656,0.018423741899726412,-0.0074673692736739765,-0.02111487275853001,0,70,255.0,255.0,255.0
184,9.200000000000001,11.342487881290502,-4.852082663153633,-1.0001144256362073,0.17772036024368457,-0.07414664144199759,-0.21119338119428577,0.020266353863605018,-0.007869706879589442,-0.020821900636637376,0,70,255.0,255.0,255.0
185,9.25,11.3514,-4.8558,-1.0107,0.17877974323596177,-0.07455018522612493,-0.2122271519230703,0.02210896582748334,-0.00827204448550456,-0.020528928514744305,0,70,255.0,255.0,255.0
186,9.3,11.360365936641152,-4.85953788093534,-1.0213370322208224,0.1798439878516079,-0.07496568455598235,-0.21325440619031796,0.020460818798362035,-0.008347928708792042,-0.02056124217516189,0,70,255.0,255.0,255.0
187,9.35,11.369383025329304,-4.86329663169245,-1.0320254675470821,0.18082582511579798,-0.07538497809700413,-0.21428327614058645,0.018812671769240785,-0.00842381293207952,-0.02059355583557947,0,70,255.0,255.0,255.0
188,9.4,11.378447145696876,-4.867076441981893,-1.042765386762931,0.18172525502853198,-0.0758080658491903,-0.2153137617738759,0.01716452474011948,-0.008499697155367004,-0.02062586949599705,0,70,255.0,255.0,255.0
189,9.450000000000001,11.3875541773763,-4.870877501514223,-1.05355687065252,0.18254227758980993,-0.07623494781254084,-0.21634586309018622,0.015516377710998173,-0.008575581378654487,-0.020658183156414635,0,70,255.0,255.0,255.0
190,9.5,11.3967,-4.8747,-1.0644,0.1832768927996318,-0.07666562398705574,-0.21737958008951735,0.013868230681876037,-0.008651465601941744,-0.02069049681683177,0,70,255.0,255.0,255.0
191,9.55,11.405881559085064,-4.87854380141698,-1.0752949103411138,0.18399305373754188,-0.07708055040467705,-0.21841819786736436,0.014778206834526455,-0.007945591102910722,-0.020854214297048215,0,70,255.0,255.0,255.0
192,9.600000000000001,11.415100063687214,-4.882407466811718,-1.0862419562179704,0.18475471348308448,-0.07746018309734683,-0.21946500151922219,0.015688182987176873,-0.0072397166038797,-0.02101793177726466,0,70,255.0,255.0,255.0
193,9.65,11.42435778874683,-4.886289231497966,-1.0972415469242696,0.18556187203625954,-0.07780452206506504,-0.22051999104509082,0.01659815913982726,-0.006533842104848703,-0.021181649257481096,0,70,255.0,255.0,255.0
194,9.700000000000001,11.4336570092043,-4.890187330789477,-1.1082940917537127,0.1864145293970672,-0.0781135673078317,-0.2215831664449703,0.017508135292477675,-0.0058279676058176815,-0.02134536673769754,0,70,255.0,255.0,255.0
195,9.75,11.443,-4.8941,-1.1194,0.18731268556550731,-0.07838731882564681,-0.2226545277188606,0.018418111445127616,-0.005122093106786796,-0.021509084217914642,0,70,255.0,255.0,255.0
196,9.8,11.452388627018589,-4.898026113396738,-1.1305593264147231,0.18823179719822575,-0.07866411382530676,-0.22371280234022436,0.0183463538636095,-0.005949706879610795,-0.020821900636635284,0,70,255.0,255.0,255.0
197,9.850000000000001,11.461823119921837,-4.9019671010606745,-1.1417707075810382,0.1891473209518683,-0.0789822895136079,-0.22473671778252416,0.01827459628209138,-0.006777320652434794,-0.020134717055355925,0,70,255.0,255.0,255.0
198,9.9,11.471303299315792,-4.905925032026242,-1.1530324255399913,0.19005925682643487,-0.07934184589055024,-0.22572627404575993,0.018202838700573265,-0.007604934425258764,-0.01944753347407659,0,70,255.0,255.0,255.0
199,9.950000000000001,11.480828985806497,-4.909901975327873,-1.16434276233263,0.19096760482192562,-0.07974278295613378,-0.2266814711299318,0.018131081119055148,-0.008432548198082764,-0.01876034989279723,0,70,255.0,255.0,255.0
200,10.0,11.4904,-4.9139,-1.1757,0.1918723649383404,-0.08018510071035849,-0.22760230903503964,0.018059323537536587,-0.009260161970905956,-0.01807316631151723,0,70,255.0,255.0,255.0
201,10.05,11.500015932840578,-4.9179205449960675,-1.1871029839999934,0.19275975746955368,-0.08063099429409706,-0.22852259277173806,0.01743637771099328,-0.008575581378637067,-0.018738183156418675,0,70,255.0,255.0,255.0
202,10.100000000000001,11.509675456625432,-4.921962528945583,-1.1985528134578782,0.19361600270943974,-0.0810426588482222,-0.22947612735068154,0.016813431884449975,-0.007891000786368178,-0.019403200001320117,0,70,255.0,255.0,255.0
203,10.15,11.519377013989999,-4.926024240397063,-1.2100511509157659,0.19444110065799866,-0.08142009437273388,-0.23046291277187006,0.01619048605790669,-0.007206420194099312,-0.020068216846221537,0,70,255.0,255.0,255.0
204,10.200000000000001,11.529119047569711,-4.930103967899029,-1.2215996589157692,0.1952350513152304,-0.08176330086763214,-0.23148294903530367,0.015567540231363385,-0.006521839601830422,-0.02073323369112298,0,70,255.0,255.0,255.0
205,10.25,11.5389,-4.9342,-1.2332,0.19599785468113498,-0.08207227833291693,-0.23253623614098234,0.014944594404819656,-0.005837259009561335,-0.0213982505360244,0,70,255.0,255.0,255.0
206,10.3,11.548718841619099,-4.93831090661899,-1.2448535375853036,0.19676117292356754,-0.08236390899830184,-0.23360482657282533,0.015588135292481873,-0.005827967605834927,-0.021345366737693803,0,70,255.0,255.0,255.0
207,10.350000000000001,11.558576653576429,-4.942436383156993,-1.256560438587451,0.1975566682103832,-0.08265507509350042,-0.23467077281475177,0.01623167618014409,-0.005818676202108519,-0.02129248293936321,0,70,255.0,255.0,255.0
208,10.4,11.56847504472421,-4.946576406385503,-1.2683205707969465,0.19838434054158194,-0.08294577661851268,-0.23573407486676162,0.016875217067806286,-0.005809384798382111,-0.021239599141032618,0,70,255.0,255.0,255.0
209,10.450000000000001,11.578415623914662,-4.950730953076009,-1.280133802004295,0.1992441899171638,-0.08323601357333864,-0.236794732728855,0.017518757955468502,-0.005800093394655703,-0.02118671534270202,0,70,255.0,255.0,255.0
210,10.5,11.5884,-4.9549,-1.292,0.20013621633712878,-0.08352578595797826,-0.23785274640103182,0.018162298843130698,-0.005790801990929073,-0.02113383154437143,0,70,255.0,255.0,255.0
211,10.55,11.598429500683025,-4.959083828527974,-1.3039188656587941,0.20104355083618256,-0.08383336971270323,-0.23889810093696104,0.018131081119020953,-0.006512548198069756,-0.02068034989279663,0,70,255.0,255.0,255.0
212,10.600000000000001,11.60850432906885,-4.963283938426444,-1.3158894321923202,0.2019493244490309,-0.08417704077778525,-0.23992078139031153,0.01809986339491121,-0.007234294405210438,-0.02022686824122183,0,70,255.0,255.0,255.0
213,10.65,11.618624407113158,-4.967502134060926,-1.327910565896449,0.2028535371756737,-0.08455679915322427,-0.24092078776108322,0.018068645670801464,-0.007956040612351094,-0.019773386589647043,0,70,255.0,255.0,255.0
214,10.700000000000001,11.628789656771644,-4.9717402197969385,-1.3399811330670521,0.20375618901611103,-0.08497264483902035,-0.24189812004927622,0.01803742794669172,-0.008677786819491776,-0.019319904938072244,0,70,255.0,255.0,255.0
215,10.75,11.639,-4.976,-1.3521,0.20465727997034283,-0.08542457783517345,-0.24285277825489043,0.01800621022258131,-0.009399533026632212,-0.018866423286497902,0,70,255.0,255.0,255.0
216,10.8,11.649255155648799,-4.980282579269115,-1.3642661997795216,0.2055446237316922,-0.0858706121508849,-0.24379476967933097,0.01748754023139271,-0.008441839601825816,-0.018813233691123355,0,70,255.0,255.0,255.0
217,10.850000000000001,11.659554030148175,-4.984586263137234,-1.3764794326432706,0.20640603399348215,-0.08626876179535604,-0.2447341016240028,0.01696887024020411,-0.007484146177019419,-0.018760044095748805,0,70,255.0,255.0,255.0
218,10.9,11.669895326823156,-4.988908657370796,-1.388739565617259,0.20724151075571262,-0.08661902676858683,-0.24567077408890584,0.016450200249015532,-0.006526452752213056,-0.018706854500374258,0,70,255.0,255.0,255.0
219,10.950000000000001,11.680277748998757,-4.99324736773624,-1.4010464657274984,0.20805105401838367,-0.08692140707057734,-0.2466047870740402,0.015931530257826933,-0.00556875932740666,-0.01865366490499971,0,70,255.0,255.0,255.0
220,11.0,11.6907,-4.9976,-1.4134,0.2088346637814953,-0.08717590270132752,-0.24753614057940582,0.015412860266637907,-0.004611065902600631,-0.018600475309624276,0,70,255.0,255.0,255.0
221,11.05,11.701161076721776,-5.0019650543955665,-1.4258003352231214,0.20960995423704806,-0.08743618168375894,-0.24848282034571398,0.015598757955472923,-0.005800093394655742,-0.0192667153427018,0,70,255.0,255.0,255.0
222,11.100000000000001,11.711661150338445,-5.0063446090246195,-1.4382488372345994,0.2103945395770426,-0.0877559120407931,-0.24946281211367602,0.01578465564430794,-0.006989120886710854,-0.019932955375779323,0,70,255.0,255.0,255.0
223,11.15,11.722200685594222,-5.01074163645589,-1.4507471716345164,0.21118841980147887,-0.08813509377243,-0.2504761158832919,0.015970553333142946,-0.008178148378765923,-0.020599195408856824,0,70,255.0,255.0,255.0
224,11.200000000000001,11.732780147233335,-5.015159109258106,-1.463297004022956,0.2119915949103569,-0.0885737268786697,-0.25152273165456174,0.016156451021977963,-0.009367175870821035,-0.021265435441934346,0,70,255.0,255.0,255.0
225,11.25,11.7434,-5.0196,-1.4759,0.21280406490367668,-0.08907181135951212,-0.25260265942748533,0.01634234871081186,-0.010556203362875438,-0.021931675475012735,0,70,255.0,255.0,255.0
226,11.3,11.754060537464088,-5.0240660031486195,-1.4885572593279945,0.21361555932011436,-0.08955266111407129,-0.2536819489378126,0.016117427946695302,-0.008677786819491313,-0.021239904938077005,0,70,255.0,255.0,255.0
227,11.350000000000001,11.764761368498041,-5.028553700764287,-1.5012676184183342,0.21441580769834623,-0.08993959004146126,-0.25472664992129307,0.015892507182578747,-0.006799370276107188,-0.020548134401141276,0,70,255.0,255.0,255.0
228,11.4,11.775501930799951,-5.033058396805646,-1.5140293478446762,0.21520481003837222,-0.09023259814168201,-0.2557367623779267,0.015667586418462196,-0.00492095373272313,-0.019856363864205567,0,70,255.0,255.0,255.0
229,11.450000000000001,11.786281662067907,-5.037575395231336,-1.5268407181806793,0.21598256634019244,-0.09043168541473356,-0.25671228630771364,0.01544266565434564,-0.003042537189339005,-0.019164593327269837,0,70,255.0,255.0,255.0
230,11.5,11.7971,-5.0421,-1.5397,0.21674907660380677,-0.09053685186061591,-0.25765322171065375,0.01521774489022798,-0.0011641206459547249,-0.018472822790334575,0,70,255.0,255.0,255.0
231,11.55,11.807956773421871,-5.046629333009956,-1.552605827464902,0.21752780848250813,-0.0906571738599505,-0.25858138390303703,0.015931530257826686,-0.0036487593274284877,-0.01865366490499483,0,70,255.0,255.0,255.0
232,11.600000000000001,11.818853375669391,-5.051167787918229,-1.5655582890920663,0.21834222962958946,-0.09090172779335877,-0.25951858820115326,0.016645315625425393,-0.0061333980089022504,-0.018834507019655083,0,70,255.0,255.0,255.0
233,11.65,11.829791591205973,-5.055721576321526,-1.5785578369867794,0.21919234004505067,-0.09127051366084071,-0.26046483460500247,0.017359100993024075,-0.008618036690375926,-0.01901534913431533,0,70,255.0,255.0,255.0
234,11.700000000000001,11.840773204495036,-5.060296909816548,-1.5916049232543288,0.22007813972889187,-0.09176353146239635,-0.2614201231145848,0.018072886360622778,-0.011102675371849688,-0.019196191248975585,0,70,255.0,255.0,255.0
235,11.75,11.8518,-5.0649,-1.6047,0.22099962868111292,-0.09238078119802567,-0.2623844537299,0.018786671728221238,-0.01358731405332314,-0.0193770333636345,0,70,255.0,255.0,255.0
236,11.8,11.862873168848422,-5.069535064811558,-1.617843430812399,0.22192120674986696,-0.09300264344612916,-0.26335251545003924,0.018076451021939322,-0.011287175870816192,-0.019345435441934542,0,70,255.0,255.0,255.0
237,11.850000000000001,11.8739915288244,-5.074198347562794,-1.631035225213403,0.22280727378330686,-0.09350949878510731,-0.26431899727409347,0.017366230315657406,-0.008987037688309243,-0.01931383752023459,0,70,255.0,255.0,255.0
238,11.9,11.885153304376164,-5.07888409790825,-1.644275304208207,0.22365782978143267,-0.09390134721496009,-0.2652838992020627,0.016656009609375515,-0.006686899505802374,-0.019282239598534635,0,70,255.0,255.0,255.0
239,11.950000000000001,11.896356719951953,-5.083586565502471,-1.6575635888020077,0.2244728747442444,-0.09417818873568753,-0.2662472212339469,0.015945788903093602,-0.004386761323295425,-0.019250641676834677,0,70,255.0,255.0,255.0
240,12.0,11.9076,-5.0883,-1.6709,0.22525240867174204,-0.09434002334728964,-0.2672089633697461,0.015235568196810823,-0.002086623140788557,-0.01921904375513428,0,70,255.0,255.0,255.0
241,12.05,11.91888175118444,-5.093020007743811,-1.6842844492855034,0.22601936451802093,-0.0944682523555424,-0.2681685542968062,0.015442665654344758,-0.0030425371893219614,-0.019164593327270652,0,70,255.0,255.0,255.0
242,12.100000000000001,11.930202109033019,-5.097747621830595,-1.6977168100543245,0.22679667523717653,-0.09464427706622183,-0.26912542270247314,0.015649763111878694,-0.003998451237855366,-0.01911014289940702,0,70,255.0,255.0,255.0
243,12.15,11.941561591289373,-5.102485232045474,-1.7111969461803938,0.2275843408292088,-0.09486809747932794,-0.2700795685867469,0.015856860569412625,-0.004954365286388736,-0.019055692471543394,0,70,255.0,255.0,255.0
244,12.200000000000001,11.952960715697152,-5.107235228173568,-1.7247247215376424,0.2283823612941178,-0.09513971359486072,-0.2710309919496275,0.01606395802694656,-0.0059102793349221396,-0.019001242043679766,0,70,255.0,255.0,255.0
245,12.25,11.9644,-5.112,-1.7383,0.22919073663190345,-0.09545912541282014,-0.27197969279111484,0.016271055484480046,-0.006866193383455288,-0.018946791615814806,0,70,255.0,255.0,255.0
246,12.3,11.975879826413815,-5.1167817042131984,-1.7519227720455894,0.23000133517803198,-0.09581234713170257,-0.27293326736273454,0.01615288636066112,-0.0072626753718413595,-0.019196191248974606,0,70,255.0,255.0,255.0
247,12.350000000000001,11.987400035043535,-5.121581565114827,-1.7655935345693012,0.2308060252679696,-0.09618539295000429,-0.2738993119160123,0.016034717236842196,-0.007659157360227431,-0.019445590882134406,0,70,255.0,255.0,255.0
248,12.4,11.998960330466343,-5.126400573909856,-1.7793129110702182,0.2316048069017162,-0.0965782628677253,-0.274877826450948,0.015916548113023277,-0.008055639348613489,-0.0196949905152942,0,70,255.0,255.0,255.0
249,12.450000000000001,12.010560417259434,-5.131239721803257,-1.793081525047424,0.23239768007927192,-0.09699095688486564,-0.27586881096754173,0.015798378989204352,-0.00845212133699956,-0.019944390148454,0,70,255.0,255.0,255.0
250,12.5,12.0222,-5.1361,-1.8069,0.2331846448006366,-0.09742347500142526,-0.2768722654657934,0.01568020986538521,-0.008848603325385396,-0.020193789781612015,0,70,255.0,255.0,255.0
251,12.55,12.033878943160296,-5.1409819754033945,-1.8207684625321399,0.23397529476984857,-0.09785035911764291,-0.2778583762522546,0.015945788903093398,-0.008226761323320578,-0.01925064167683804,0,70,255.0,255.0,255.0
252,12.600000000000001,12.045597750792851,-5.145884517710096,-1.8346850516684718,0.23477922369094598,-0.09824615113375733,-0.27879732963347725,0.016211367940801587,-0.007604919321255759,-0.018307493572064067,0,70,255.0,255.0,255.0
253,12.65,12.057357086845256,-5.150806072315101,-1.8486474095387333,0.23559643156392873,-0.09861085104976848,-0.2796891256094611,0.01647694697850977,-0.006983077319190963,-0.017364345467290127,0,70,255.0,255.0,255.0
254,12.700000000000001,12.069157615265107,-5.155745084613405,-1.8626531782726639,0.23642691838879695,-0.09894445886567642,-0.28053376418020626,0.016742526016217958,-0.006361235317126144,-0.01642119736251615,0,70,255.0,255.0,255.0
255,12.75,12.081,-5.1607,-1.8767,0.23727068416555055,-0.0992469745814811,-0.2813312453457127,0.017008105053926803,-0.0057393933150617915,-0.01547804925774221,0,70,255.0,255.0,255.0
256,12.8,12.092884400945,-5.165669594173226,-1.8907865778258521,0.23809748574257242,-0.09953821639773028,-0.2821452276282481,0.016063958026946542,-0.005910279334905202,-0.017081242043675293,0,70,255.0,255.0,255.0
257,12.850000000000001,12.104808961785066,-5.1706539640447895,-1.9049158587568136,0.23887707996824523,-0.09983800251497163,-0.28303936955008024,0.015119810999966283,-0.006081165354748613,-0.01868443482960838,0,70,255.0,255.0,255.0
258,12.9,12.116771322152635,-5.17565353682974,-1.9190918507748485,0.23960946684256904,-0.10014633293320514,-0.28401367111120895,0.014175663972986056,-0.006252051374592017,-0.020287627615541405,0,70,255.0,255.0,255.0
259,12.950000000000001,12.128769121680136,-5.180668739743126,-1.9333185618619226,0.24029464636554382,-0.10046320765243082,-0.28506813231163436,0.013231516946005797,-0.006422937394435428,-0.021890820401474487,0,70,255.0,255.0,255.0
260,13.0,12.1408,-5.1857,-1.9476,0.24093261853716957,-0.10078862667264869,-0.28620275315135646,0.012287369919024904,-0.006593823414279165,-0.023494013187406182,0,70,255.0,255.0,255.0
261,13.05,12.152862653059703,-5.190747647903701,-1.9619388261644526,0.24158676225987458,-0.10111677529143077,-0.2873367132347529,0.013878378989174257,-0.0065321213370039145,-0.021864390148452248,0,70,255.0,255.0,255.0
262,13.100000000000001,12.16496000206688,-5.1958116261107445,-1.9763323133042765,0.24232045643608702,-0.10144183880634909,-0.28838919216620174,0.015469388059323609,-0.006470419259728664,-0.020234767109498317,0,70,255.0,255.0,255.0
263,13.15,12.177096024544204,-5.200891780365939,-1.9907763873618736,0.24313370106580692,-0.10176381721740364,-0.28936018994570273,0.017060397129472903,-0.006408717182453416,-0.018605144070544442,0,70,255.0,255.0,255.0
264,13.200000000000001,12.189274698014353,-5.205987956414087,-2.005266974279648,0.24402649614903432,-0.10208271052459443,-0.2902497065732561,0.01865140619962226,-0.006347015105178165,-0.016975521031590512,0,70,255.0,255.0,255.0
265,13.25,12.2015,-5.2111,-2.0198,0.24499884168576913,-0.10239851872792145,-0.2910577420488618,0.020242415269770664,-0.006285313027902695,-0.015345897992635749,0,70,255.0,255.0,255.0
266,13.3,12.213774586816188,-5.216227814211969,-2.034372517516338,0.24597146521791877,-0.1027146824365476,-0.2918519194327407,0.018662526016213633,-0.006361235317143233,-0.01642119736252036,0,70,255.0,255.0,255.0
267,13.350000000000001,12.226095829947413,-5.221371531512229,-2.048986088026083,0.2468650942873905,-0.10303464225963578,-0.29269986178511387,0.0170826367626566,-0.006437157606383772,-0.017496496732404974,0,70,255.0,255.0,255.0
268,13.4,12.238459779670547,-5.226531341706506,-2.063643399777658,0.2476797288941844,-0.10335839819718598,-0.29360156910598123,0.015502747509099624,-0.006513079895624308,-0.018571796102289546,0,70,255.0,255.0,255.0
269,13.450000000000001,12.250862486262454,-5.231707434600523,-2.078347141019489,0.2484153690383005,-0.10368595024919822,-0.2945570413953428,0.01392285825554259,-0.006589002184864847,-0.019647095472174157,0,70,255.0,255.0,255.0
270,13.5,12.2633,-5.2369,-2.0931,0.24907201471973867,-0.10401729841567246,-0.2955662786531986,0.012342969001985171,-0.0066649244741051605,-0.020722394842057845,0,70,255.0,255.0,255.0
271,13.55,12.27576939967555,-5.242109095248427,-2.107903903770196,0.24971137686844017,-0.10434449496238513,-0.2965836090342868,0.013231516946073642,-0.00642293739440147,-0.019970820401469948,0,70,255.0,255.0,255.0
272,13.600000000000001,12.288271878143464,-5.24733424784034,-2.1227577345913953,0.25039516641434606,-0.10465959215511263,-0.29756336069334566,0.014120064890162112,-0.006180950314697779,-0.019219245960882047,0,70,255.0,255.0,255.0
273,13.65,12.300809656773602,-5.2525748528080385,-2.1376596135274966,0.2511233833574564,-0.10496258999385491,-0.298505533630375,0.015008612834250552,-0.005938963234994097,-0.018467671520294177,0,70,255.0,255.0,255.0
274,13.700000000000001,12.31338495693583,-5.257830305183825,-2.1526076616423993,0.2518960276977711,-0.10525348847861203,-0.299410127845375,0.015897160778339022,-0.005696976155290407,-0.01771609707970628,0,70,255.0,255.0,255.0
275,13.75,12.326,-5.2631,-2.1676,0.25271309943529024,-0.10553228760938395,-0.3002771433383456,0.016785708722426573,-0.005454989075587169,-0.016964522639117074,0,70,255.0,255.0,255.0
276,13.8,12.338656614481618,-5.268383804794326,-2.1826350674028805,0.25355102730833984,-0.10582733771390351,-0.301125644430113,0.016731406199557864,-0.0063470151051953656,-0.016975521031581575,0,70,255.0,255.0,255.0
277,13.850000000000001,12.351355057478731,-5.273683477126415,-2.1977125736083387,0.254386240055246,-0.1061669891199035,-0.3019746954415038,0.01667710367668915,-0.007239041134803562,-0.016986519424046075,0,70,255.0,255.0,255.0
278,13.9,12.36409519323504,-5.27900124706134,-2.2128325461123577,0.2552187376760088,-0.10655124182738387,-0.3028242963725177,0.016622801153820442,-0.008131067164411726,-0.016997517816510578,0,70,255.0,255.0,255.0
279,13.950000000000001,12.376876885994232,-5.284339344664178,-2.2279950124109176,0.25604852017062807,-0.10698009583634467,-0.30367444722315484,0.016568498630951733,-0.009023093194019923,-0.017008516208975078,0,70,255.0,255.0,255.0
280,14.0,12.3897,-5.2897,-2.2432,0.256875587539104,-0.10745355114678586,-0.3045251479934152,0.016514196108084356,-0.00991511922362831,-0.01701951460143869,0,70,255.0,255.0,255.0
281,14.05,12.402564142397985,-5.29508448557427,-2.2584478266182857,0.2576845138981946,-0.10791415418199851,-0.30539381324525583,0.015842858255538408,-0.008509002184877315,-0.017727095472186705,0,70,255.0,255.0,255.0
282,14.100000000000001,12.415467891941608,-5.300490243654001,-2.2737399709752513,0.25845987336465787,-0.1083044513652736,-0.3062978575406339,0.015171520402992458,-0.007102885146126319,-0.018434676342934716,0,70,255.0,255.0,255.0
283,14.15,12.428409570286242,-5.3059137589465974,-2.289078202023074,0.2592016659384938,-0.10862444269661113,-0.3072372808795493,0.014500182550446534,-0.005696768107375373,-0.019142257213682706,0,70,255.0,255.0,255.0
284,14.200000000000001,12.441387499087247,-5.311351516159463,-2.304464288713932,0.2599098916197025,-0.10887412817601114,-0.3082120832620021,0.013828844697900584,-0.004290651068624377,-0.01984983808443072,0,70,255.0,255.0,255.0
285,14.25,12.4544,-5.3168,-2.3199,0.2605845504082839,-0.10905350780347357,-0.3092222646879923,0.01315750684535466,-0.002884534029873209,-0.020557418955177376,0,70,255.0,255.0,255.0
286,14.3,12.467446015926443,-5.322256652908596,-2.335386426123979,0.26126291709887717,-0.10922004555810236,-0.31022710258886443,0.013977160778376975,-0.003776976155277891,-0.019636097079709446,0,70,255.0,255.0,255.0
287,14.350000000000001,12.480526974754833,-5.327722748257582,-2.3509219424906576,0.2619822664861216,-0.10943120541900136,-0.3111858743959633,0.014796814711399287,-0.0046694182806825725,-0.018714775204241516,0,70,255.0,255.0,255.0
288,14.4,12.493644925619998,-5.333200517152268,-2.366504245795346,0.2627425985700171,-0.10968698738617061,-0.31209858010928865,0.015616468644421571,-0.005561860406087222,-0.017793453328773617,0,70,255.0,255.0,255.0
289,14.450000000000001,12.506801917656778,-5.338692190697969,-2.3821310327333562,0.2635439133505637,-0.10998739145961009,-0.3129652197288406,0.016436122577443885,-0.006454302531491903,-0.016872131453305687,0,70,255.0,255.0,255.0
290,14.5,12.52,-5.3442,-2.3978,0.2643862108277615,-0.1103324176393198,-0.3137857932546192,0.01725577651046528,-0.007346744656896775,-0.015950809577835123,0,70,255.0,255.0,255.0
291,14.55,12.533240593896243,-5.3497257027913445,-2.4135096688858,0.2652318177062969,-0.11069366358559284,-0.314609776399289,0.016568498630952166,-0.007103093194024598,-0.017008516208956884,0,70,255.0,255.0,255.0
292,14.600000000000001,12.546522609039064,-5.355269163315674,-2.4292618590621218,0.2660430606908567,-0.11104272695872226,-0.3154866448755149,0.015881220751439055,-0.00685944173115242,-0.018066222840078645,0,70,255.0,255.0,255.0
293,14.65,12.559844327233764,-5.360829772444331,-2.445059214795544,0.2668199397814408,-0.11137960775870807,-0.3164163986832969,0.015193942871925964,-0.006615790268280251,-0.01912392947120037,0,70,255.0,255.0,255.0
294,14.700000000000001,12.57320403028564,-5.366406921048658,-2.4609043803526442,0.2675624549780493,-0.11170430598555028,-0.31739903782263496,0.01450666499241285,-0.006372138805408073,-0.020181636102322133,0,70,255.0,255.0,255.0
295,14.75,12.5866,-5.372,-2.4768,0.26827060628068217,-0.11201682163924888,-0.31843456229352907,0.013819387112901094,-0.006128487342535904,-0.021239342733442967,0,70,255.0,255.0,255.0
296,14.8,12.600030808488587,-5.377608535926027,-2.4927476983328227,0.2689618120759514,-0.11232530009952778,-0.3194617918139761,0.013828844697866938,-0.0062106510686198,-0.01984983808443859,0,70,255.0,255.0,255.0
297,14.850000000000001,12.613496189088918,-5.383232598479724,-2.5087450212608573,0.26965349075046885,-0.11263788674611087,-0.320419546101973,0.013838302282832782,-0.006292814794703696,-0.018460333435434212,0,70,255.0,255.0,255.0
298,14.9,12.626996165444956,-5.38887239307041,-2.524788495022479,0.27034564230423463,-0.11295458157899814,-0.32130782515751954,0.013847759867798626,-0.006374978520787589,-0.017070828786429883,0,70,255.0,255.0,255.0
299,14.950000000000001,12.640530761200662,-5.394528125107397,-2.540874645856068,0.27103826673724873,-0.11327538459818963,-0.32212662898061595,0.01385721745276447,-0.006457142246871485,-0.015681324137425505,0,70,255.0,255.0,255.0
300,15.0,12.6541,-5.4002,-2.557,0.27173136404951104,-0.1136002958036853,-0.3228759575712621,0.013866675037728093,-0.006539305972955489,-0.014291819488420288,0,70,255.0,255.0,255.0
301,15.05,12.667704172149413,-5.4058881535045495,-2.5731619377829094,0.27244093398989044,-0.1139251360162965,-0.3236070563448053,0.014516122577447109,-0.00645430253149195,-0.014952131453308946,0,70,255.0,255.0,255.0
302,15.100000000000001,12.68134463460527,-5.411592442765429,-2.589361255894451,0.27318297630725574,-0.1142457260568345,-0.324371170716593,0.015165570117166124,-0.00636929909002841,-0.015612443418197605,0,70,255.0,255.0,255.0
303,15.15,12.695023010986421,-5.417312655274032,-2.6055996051145387,0.27395749100160705,-0.11456206592529934,-0.3251683006866251,0.015815017656885116,-0.006284295648564874,-0.01627275538308624,0,70,255.0,255.0,255.0
304,15.200000000000001,12.708740924911718,-5.423048578521757,-2.621878636223085,0.27476447807294424,-0.11487415562169098,-0.3259984462549016,0.01646446519660413,-0.006199292207101335,-0.0169330673479749,0,70,255.0,255.0,255.0
305,15.25,12.7225,-5.4288,-2.6382,0.2756039375212674,-0.11518199514600945,-0.32686160742142256,0.01711391273632179,-0.0061142887656372436,-0.017593379312861757,0,70,255.0,255.0,255.0
306,15.3,12.736301302913756,-5.4345668500557744,-2.6545653505355413,0.2764424519644865,-0.11549415583528558,-0.3277579828068021,0.016426664992443465,-0.006372138805407905,-0.01826163610231718,0,70,255.0,255.0,255.0
307,15.350000000000001,12.750143672489996,-5.440349630458561,-2.6709763551613386,0.2772466040205117,-0.11581920902655025,-0.3286877710316543,0.01573941724856514,-0.006629988845178566,-0.0189298928917726,0,70,255.0,255.0,255.0
308,15.4,12.764025390609355,-5.446148985833462,-2.687434684519364,0.27801639368934306,-0.11615715471980344,-0.32965097209597927,0.015052169504686836,-0.0068878388849492175,-0.019598149681228,0,70,255.0,255.0,255.0
309,15.450000000000001,12.777944739152478,-5.451965560805576,-2.7039420092515942,0.2787518209709804,-0.11650799291504517,-0.3306475859997771,0.01436492176080851,-0.007145688924719879,-0.02026640647068342,0,70,255.0,255.0,255.0
310,15.5,12.7919,-5.4578,-2.7205,0.2794528858654239,-0.11687172361227542,-0.3316776127430477,0.013677674016930208,-0.007403538964490308,-0.020934663260139263,0,70,255.0,255.0,255.0
311,15.55,12.805889816195558,-5.463652446272354,-2.737109460074927,0.2801412581521654,-0.11721824064255948,-0.3326890124279868,0.013857217452729479,-0.006457142246871603,-0.019521324137425,0,70,255.0,255.0,255.0
312,15.600000000000001,12.819914275434746,-5.469521035400325,-2.753767723460197,0.28083860761069684,-0.11751743783696258,-0.3336297451567902,0.014036760888528748,-0.005510745529252898,-0.01810798501471074,0,70,255.0,255.0,255.0
313,15.65,12.833973826576157,-5.475403401392119,-2.770471256808003,0.28154493424101823,-0.11776931519548477,-0.33449981092945785,0.014216304324328011,-0.004564348811634226,-0.01669464589199653,0,70,255.0,255.0,255.0
314,15.700000000000001,12.848068918478377,-5.481297178255942,-2.78721652677054,0.28226023804312966,-0.11797387271812601,-0.3352992097459898,0.014395847760127282,-0.0036179520940155217,-0.015281306769282268,0,70,255.0,255.0,255.0
315,15.75,12.8622,-5.4872,-2.804,0.282984519017031,-0.11813111040488632,-0.3360279416063861,0.01457539119592477,-0.002671555376396628,-0.013867967646568058,0,70,255.0,255.0,255.0
316,15.8,12.876367432304015,-5.493110564854811,-2.820819209164753,0.2837125154268451,-0.11830488159447387,-0.33674996748124975,0.014544465196641187,-0.004279292207105502,-0.015013067347978576,0,70,255.0,255.0,255.0
317,15.850000000000001,12.890571225771017,-5.499031827940139,-2.837675950997877,0.2844389655366951,-0.11855903962559687,-0.337529248341184,0.014513539197357605,-0.005887029037814374,-0.016158167049389095,0,70,255.0,255.0,255.0
318,15.9,12.904811303086017,-5.504967808598063,-2.854573088248623,0.2851638693465809,-0.11889358449825531,-0.3383657841861887,0.014482613198074023,-0.0074947658685231905,-0.01730326675079957,0,70,255.0,255.0,255.0
319,15.950000000000001,12.91908758693401,-5.510922526170657,-2.8715134836662464,0.28588722685650253,-0.1193085162124492,-0.3392595750162639,0.01445168719879044,-0.009102502699232063,-0.01844836645221009,0,70,255.0,255.0,255.0
320,16.0,12.9334,-5.5169,-2.8885,0.28660903806645993,-0.1198038347681785,-0.3402106208314097,0.014420761199504195,-0.01071023952994088,-0.019593466153619676,0,70,255.0,255.0,255.0
321,16.05,12.94774845458839,-5.522902894308402,-2.9055345032660616,0.28732868014046686,-0.12029823297954534,-0.3411591176470172,0.014364921760773707,-0.009065688924732383,-0.018346406470679425,0,70,255.0,255.0,255.0
322,16.1,12.962132821481182,-5.528928452839116,-2.9226148725482997,0.2880455302425373,-0.12071040366065176,-0.3420452614784777,0.01430908232204322,-0.007421138319523887,-0.017099346787739177,0,70,255.0,255.0,255.0
323,16.150000000000002,12.97655296107978,-5.5349725642156296,-2.939737990197507,0.28875958837267124,-0.12104034681149775,-0.3428690523257911,0.014253242883312731,-0.005776587714315392,-0.015852287104798926,0,70,255.0,255.0,255.0
324,16.2,12.991008733785582,-5.541031117061428,-2.956900738564476,0.28947085453086857,-0.12128806243208329,-0.3436304901889575,0.014197403444582247,-0.004132037109107013,-0.014605227421858765,0,70,255.0,255.0,255.0
325,16.25,13.0055,-5.5471,-2.9741,0.29017932871712937,-0.12145355052240842,-0.3443295750679769,0.014141564005849538,-0.002487486503897962,-0.013358167738916293,0,70,255.0,255.0,255.0
326,16.3,13.020026749342428,-5.55317625791158,-2.991333977771002,0.2908927640112788,-0.12160618648735581,-0.34504556193068187,0.014395847760126482,-0.0036179520939982604,-0.015281306769281883,0,70,255.0,255.0,255.0
327,16.35,13.034589488304256,-5.559261560703395,-3.0086061588089272,0.291618913493142,-0.12181534573180826,-0.3458577057449051,0.014650131514403426,-0.004748417684098559,-0.017204445799647472,0,70,255.0,255.0,255.0
328,16.400000000000002,13.049188852594872,-5.565358734539419,-3.025921350961352,0.29235777716271916,-0.12208102825576568,-0.34676600651064665,0.01490441526868037,-0.005878883274198858,-0.01912758483001306,0,70,255.0,255.0,255.0
329,16.45,13.063825477923656,-5.571470605583629,-3.0432843620758496,0.29310935502001007,-0.12240323405922812,-0.3477704642279064,0.015158699022957297,-0.007009348864299076,-0.021050723860378512,0,70,255.0,255.0,255.0
330,16.5,13.0785,-5.5776,-3.0607,0.2938736470650148,-0.12278196314219557,-0.3488710788966844,0.015412982777232909,-0.008139814454399263,-0.02297386289074277,0,70,255.0,255.0,255.0
331,16.55,13.0932125480419,-5.5837488740452805,-3.078171185649932,0.2946202638144162,-0.12316502107103604,-0.3499546346302581,0.014451687198823646,-0.007182502699219571,-0.020368366452205373,0,70,255.0,255.0,255.0
332,16.6,13.107961225301793,-5.589915704347308,-3.0956932922159943,0.29531881578489716,-0.12350021341211753,-0.350907915541905,0.013490391620414384,-0.006225190944039878,-0.01776287001366798,0,70,255.0,255.0,255.0
333,16.650000000000002,13.122743628540741,-5.596098097626696,-3.1132598059570906,0.2959693029764577,-0.12378754016544004,-0.35173092163162495,0.01252909604200512,-0.005267879188860184,-0.015157373575130584,0,70,255.0,255.0,255.0
334,16.7,13.13755735451979,-5.602293660604055,-3.1308642131321243,0.29657172538909765,-0.12402700133100356,-0.352423652899418,0.011567800463595925,-0.00431056743368056,-0.012551877136593373,0,70,255.0,255.0,255.0
335,16.75,13.1524,-5.6085,-3.1485,0.2971260830228173,-0.12421859690880808,-0.3529861093452842,0.010606504885186219,-0.003353255678500866,-0.009946380698055535,0,70,255.0,255.0,255.0
336,16.8,13.167270258489982,-5.614715445907302,-3.1661628796292716,0.29769818073106075,-0.12440572922849871,-0.35355189954828214,0.012277403444551306,-0.004132037109123787,-0.01268522742186246,0,70,255.0,255.0,255.0
337,16.85,13.18217121048857,-5.620941221907375,-3.1838574723270985,0.2983538233672724,-0.12463180061972047,-0.35425463208747043,0.013948302003916394,-0.004910818539746708,-0.015424074145669386,0,70,255.0,255.0,255.0
338,16.900000000000002,13.197107033242174,-5.627179274953799,-3.2015906252102893,0.2990930109314524,-0.12489681108247337,-0.3550943069628491,0.01561920056328148,-0.00568959997036963,-0.018162920869476313,0,70,255.0,255.0,255.0
339,16.95,13.212081903997184,-5.633431552000149,-3.219369185395652,0.29991574342360056,-0.12520076061675742,-0.356070924174418,0.017290099122646452,-0.006468381400992496,-0.020901767593283042,0,70,255.0,255.0,255.0
340,17.0,13.2271,-5.6397,-3.2372,0.300822020843717,-0.12554364922257263,-0.3571844837221774,0.01896099768201065,-0.007247162831615972,-0.023640614317091302,0,70,255.0,255.0,255.0
341,17.05,13.24216401799818,-5.6459861423255155,-3.255087695832982,0.30172301326134104,-0.1259000620149701,-0.3583017671766144,0.017078699022951734,-0.00700934886428208,-0.021050723860386585,0,70,255.0,255.0,255.0
342,17.1,13.25727073274392,-5.652289808023191,-3.2730280184756144,0.3025298907460122,-0.12624458410900086,-0.3592895561082161,0.015196400363892817,-0.006771534896948188,-0.01846083340368187,0,70,255.0,255.0,255.0
343,17.150000000000002,13.272415438490567,-5.65861040255811,-3.291014493201757,0.30324265329773037,-0.12657721550466491,-0.3601478505169826,0.013314101704833901,-0.006533720929614296,-0.015870942946977152,0,70,255.0,255.0,255.0
344,17.2,13.287593429491475,-5.664947331395352,-3.309040645285265,0.3038613009164956,-0.12689795620196226,-0.3608766504029138,0.011431803045775117,-0.006295906962280421,-0.01328105249027262,0,70,255.0,255.0,255.0
345,17.25,13.3028,-5.6713,-3.3271,0.3043858336023078,-0.12720680620089295,-0.3614759557660098,0.009549504386714869,-0.006058092994945641,-0.010691162033567014,0,70,255.0,255.0,255.0
346,17.3,13.318032069517296,-5.677667984790637,-3.3451879370388022,0.3049137662235665,-0.1275140227116089,-0.3620570317452634,0.011567800463630047,-0.00623056743369266,-0.012551877136575244,0,70,255.0,255.0,255.0
347,17.35,13.333293058535753,-5.68405154599986,-3.3633072537704463,0.3055426136486708,-0.12782986294426224,-0.36273114347966734,0.013586096540545226,-0.0064030418724396795,-0.014412592239583475,0,70,255.0,255.0,255.0
348,17.400000000000002,13.348588012795561,-5.690451114813762,-3.381462601982689,0.306272375877621,-0.1281543268988529,-0.36349829096922176,0.015604392617460402,-0.006575516311186698,-0.016273307342591706,0,70,255.0,255.0,255.0
349,17.45,13.363921978036913,-5.6968671224184435,-3.399658633463287,0.3071030529104168,-0.12848741457538088,-0.36435847421392653,0.017622688694375437,-0.006747990749933705,-0.018134022445599803,0,70,255.0,255.0,255.0
350,17.5,13.3793,-5.7033,-3.4179,0.30803464474705855,-0.12882912597384624,-0.36531169321378165,0.01964098477129106,-0.0069204651886811686,-0.019994737548608477,0,70,255.0,255.0,255.0
351,17.55,13.394725303932631,-5.709749918511934,-3.43619015601181,0.3089579218444061,-0.12916384713858853,-0.3662861058423291,0.017290099122612156,-0.006468381401010197,-0.018981767593288963,0,70,255.0,255.0,255.0
352,17.6,13.410193833113068,-5.716216007977368,-3.4545277664426037,0.3097636546593198,-0.12947596411394727,-0.36720986997311056,0.014939213473933254,-0.006016297613339226,-0.01796879763796945,0,70,255.0,255.0,255.0
353,17.650000000000002,13.425699710327189,-5.722697138186838,-3.4729102988674927,0.31045184319179947,-0.1297654768999225,-0.36808298560612607,0.012588327825254353,-0.005564213825668254,-0.01695582768264994,0,70,255.0,255.0,255.0
354,17.7,13.441237058360873,-5.729192178930871,-3.4913352208615867,0.31102248744184524,-0.13003238549651408,-0.36890545274137554,0.010237442176575618,-0.005112130037997315,-0.0159428577273305,0,70,255.0,255.0,255.0
355,17.75,13.4568,-5.7357,-3.5098,0.31147558740945697,-0.1302766899037222,-0.3696772713788591,0.007886556527895383,-0.004660046250326566,-0.014929887772010098,0,70,255.0,255.0,255.0
356,17.8,13.472384314752183,-5.742219541161629,-3.5283026389139573,0.3119105463987988,-0.13050258873403706,-0.3704305448854165,0.009511803045778434,-0.004375906962267347,-0.015201052490284365,0,70,255.0,255.0,255.0
357,17.85,13.487992409011976,-5.748750022090664,-3.5468432804591408,0.3124267677140348,-0.13071428059994894,-0.37119737662788754,0.011137049563661485,-0.004091767674208127,-0.015472217208558632,0,70,255.0,255.0,255.0
358,17.900000000000002,13.503628345895685,-5.755290732438883,-3.565422602547345,0.313024251355165,-0.13091176550145786,-0.3719777666062723,0.012762296081544534,-0.003807628386148908,-0.0157433819268329,0,70,255.0,255.0,255.0
359,17.95,13.519296188519593,-5.761840961858068,-3.584041283090366,0.31370299732218926,-0.13109504343856385,-0.3727717148205708,0.014387542599427471,-0.003523489098089709,-0.01601454664510715,0,70,255.0,255.0,255.0
360,18.0,13.535,-5.7684,-3.6027,0.31446300561510765,-0.13126411441126684,-0.37357922127078297,0.016012789117310078,-0.0032393498100304896,-0.016285711363380084,0,70,255.0,255.0,255.0
361,18.05,13.550743037058645,-5.77496791684155,-3.621399288332361,0.31525589256040076,-0.13146579792526605,-0.3743917146160074,0.01570268869441484,-0.004827990749938338,-0.0162140224455956,0,70,255.0,255.0,255.0
362,18.1,13.566525330839022,-5.781547903659977,-3.6401391117208366,0.31603327448454915,-0.1317469134862607,-0.37520062351534256,0.015392588271519604,-0.006416631689846187,-0.016142333527811113,0,70,255.0,255.0,255.0
363,18.150000000000002,13.582346106090078,-5.7881439320576265,-3.658919290943131,0.31679515138755276,-0.13210746109425067,-0.3760059479687885,0.015082487848624369,-0.008005272629754034,-0.01607064461002663,0,70,255.0,255.0,255.0
364,18.2,13.598204587560758,-5.794759973636851,-3.6777396467769496,0.3175415232694116,-0.13254744074923608,-0.3768076879763452,0.014772387425729155,-0.009593913569661772,-0.015998955692242148,0,70,255.0,255.0,255.0
365,18.25,13.6141,-5.8014,-3.6966,0.3182723901301256,-0.13306685245121683,-0.37760584353801263,0.014462287002832586,-0.011182554509568954,-0.015927266774456328,0,70,255.0,255.0,255.0
366,18.3,13.630031537013249,-5.808066391472168,-3.715500207756599,0.31898588335960976,-0.13357021956490575,-0.3784025966505571,0.014077442176531545,-0.008952130037988417,-0.015942857727321604,0,70,255.0,255.0,255.0
367,18.35,13.64599826763194,-5.814755163269432,-3.734440272657517,0.31968013434777875,-0.13396206545501568,-0.3792001293107448,0.013692597350230507,-0.0067217055664078795,-0.015958448680186876,0,70,255.0,255.0,255.0
368,18.400000000000002,13.661999229744005,-5.82146073933061,-3.753420233680135,0.3203551430946328,-0.13424239012154657,-0.3799984415185758,0.013307752523929467,-0.004491281094827342,-0.01597403963305215,0,70,255.0,255.0,255.0
369,18.45,13.678033461237382,-5.828177543594526,-3.7724401298018346,0.32101090960017165,-0.13441119356449843,-0.38079753327404997,0.012922907697628456,-0.002260856623246963,-0.015989630585917423,0,70,255.0,255.0,255.0
370,18.5,13.6941,-5.8349,-3.7915,0.32164743386439554,-0.13446847578387125,-0.3815974045771675,0.012538062871326972,-3.043215166687041e-05,-0.01600522153878181,0,70,255.0,255.0,255.0
371,18.55,13.710198014888363,-5.841624117269778,-3.8105998806412433,0.3222725740011645,-0.13450932381511485,-0.3823978987817647,0.012467542599431879,-0.0016034890980774598,-0.016014546645106265,0,70,255.0,255.0,255.0
372,18.6,13.726327198633225,-5.8483522432623,-3.8297397976490988,0.32289418812433873,-0.134628824693679,-0.3831988592416781,0.012397022327536786,-0.0031765460444880492,-0.01602387175143072,0,70,255.0,255.0,255.0
373,18.650000000000002,13.742487374933903,-5.8550883106199345,-3.8489197743363337,0.3235122762339182,-0.13482697841956365,-0.3840002859569078,0.012326502055641694,-0.004749602990898639,-0.016033196857755172,0,70,255.0,255.0,255.0
374,18.7,13.758678367489722,-5.8618362519850455,-3.8681398340157105,0.3241268383299029,-0.13510378499276884,-0.38480217892745366,0.012255981783746607,-0.006322659937309116,-0.016042521964079626,0,70,255.0,255.0,255.0
375,18.75,13.7749,-5.8686,-3.8874,0.3247378744122929,-0.13545924441329457,-0.38560453815331575,0.01218546151185107,-0.007895716883719262,-0.016051847070404968,0,70,255.0,255.0,255.0
376,18.8,13.791152403433303,-5.875382739448722,-3.90670026967843,0.3253638206357325,-0.13584848517462964,-0.38640580822238213,0.012852387425732479,-0.007673913569682653,-0.015998955692250405,0,70,255.0,255.0,255.0
377,18.85,13.80743693783517,-5.882184663681367,-3.9260405367460898,0.32602311315486615,-0.13622663577026284,-0.3872044337225408,0.013519313339613889,-0.007452110255646043,-0.015946064314095842,0,70,255.0,255.0,255.0
378,18.900000000000002,13.823755270520385,-5.889005218189653,-3.9454206689745357,0.3267157519696939,-0.13659369620019424,-0.38800041465379176,0.014186239253495297,-0.007230306941609434,-0.015893172935941276,0,70,255.0,255.0,255.0
379,18.95,13.840109068803732,-5.895843848465292,-3.96484053413532,0.3274417370802157,-0.13694966646442377,-0.3887937510161349,0.01485316516737666,-0.00700850362757284,-0.015840281557786717,0,70,255.0,255.0,255.0
380,19.0,13.8565,-5.9027,-3.9843,0.3282010684864315,-0.13729454656295148,-0.3895844428095704,0.015520091081257625,-0.006786700313535565,-0.015787390179631267,0,70,255.0,255.0,255.0
381,19.05,13.87292917137843,-5.909572924935334,-4.00379904064504,0.3289601434559035,-0.13761673548637082,-0.3903788683287091,0.014842907697623699,-0.006100856623238106,-0.01598963058591654,0,70,255.0,255.0,255.0
382,19.1,13.889395450026104,-5.916461102012229,-4.023338055366544,0.3296853592561939,-0.13790463222527533,-0.391183405868162,0.014165724313989773,-0.005415012932940647,-0.01619187099220181,0,70,255.0,255.0,255.0
383,19.150000000000002,13.905897142984564,-5.923362816621454,-4.042917549765528,0.3303767158873025,-0.13815823677966488,-0.3919980554279293,0.013488540930355845,-0.004729169242643187,-0.016394111398487086,0,70,255.0,255.0,255.0
384,19.200000000000003,13.92243255729535,-5.930276354153787,-4.062538029443009,0.3310342133492295,-0.13837754914953962,-0.3928228170080108,0.01281135754672192,-0.004043325552345728,-0.01659635180477236,0,70,255.0,255.0,255.0
385,19.25,13.939,-5.9372,-4.0822,0.33165785164197475,-0.13856256933489947,-0.39365769060840644,0.012134174163089373,-0.003357481862047873,-0.016798592211055396,0,70,255.0,255.0,255.0
386,19.3,13.955598111052979,-5.9441327608099375,-4.101903567741416,0.33226760554064566,-0.1387565728798835,-0.39447871846278443,0.01225598178374705,-0.004402659937313406,-0.016042521964062473,0,70,255.0,255.0,255.0
387,19.35,13.972226862060415,-5.951076528269718,-4.12164724178774,0.3328834498203495,-0.1390028353286308,-0.39526194280481275,0.01237778940440473,-0.00544783801257894,-0.015286451717069549,0,70,255.0,255.0,255.0
388,19.400000000000002,13.988886557541365,-5.95803391532453,-4.141429131963358,0.33350538448108613,-0.1393013566811414,-0.39600736363449135,0.012499597025062408,-0.006493016087844472,-0.014530381470076625,0,70,255.0,255.0,255.0
389,19.450000000000003,14.005577502014875,-5.965007534919561,-4.161247348092651,0.33413340952285575,-0.1396521369374153,-0.3967149809518204,0.012621404645720088,-0.007538194163110005,-0.013774311223083703,0,70,255.0,255.0,255.0
390,19.5,14.0223,-5.972,-4.1811,0.3347675249456581,-0.14005517609745236,-0.3973847947567997,0.012743212266377313,-0.008583372238375686,-0.013018240976090834,0,70,255.0,255.0,255.0
391,19.55,14.039054384409658,-5.9790128318249165,-4.200985888389303,0.3354094343815029,-0.14044497299410108,-0.39805825782014703,0.01293316516741463,-0.007008503627572726,-0.01392028155779982,0,70,255.0,255.0,255.0
392,19.6,14.055841101732234,-5.986043184908902,-4.220906577482499,0.33606084146239956,-0.14075602646020963,-0.3987768229125797,0.01312311806845195,-0.005433635016769766,-0.014822322139508806,0,70,255.0,255.0,255.0
393,19.650000000000002,14.072660626849983,-5.9930871220804285,-4.240864322381046,0.3367217461883481,-0.14098833649577805,-0.3995404900340979,0.013313070969489268,-0.0038587664059668066,-0.015724362721217792,0,70,255.0,255.0,255.0
394,19.700000000000003,14.089513434645154,-6.000140706167971,-4.260861378186394,0.3373921485593485,-0.14114190310080632,-0.4003492591847015,0.013503023870526586,-0.0022838977951638462,-0.01662640330292678,0,70,255.0,255.0,255.0
395,19.75,14.1064,-6.0072,-4.2809,0.33807204857540074,-0.14121672627529444,-0.4012031303643906,0.013692976771563892,-0.0007090291843605545,-0.01752844388463526,0,70,255.0,255.0,255.0
396,19.8,14.123320351308394,-6.014262311890399,-4.300981678701375,0.3387346569333571,-0.14128753514371176,-0.40205625025662617,0.012811357546688728,-0.0021233255523328085,-0.016596351804787787,0,70,255.0,255.0,255.0
397,19.85,14.140272731010649,-6.0213299320946785,-4.321104848282263,0.33935318433006967,-0.14142905883052773,-0.40286276554486944,0.011929738321813562,-0.003537621920305063,-0.015664259724940316,0,70,255.0,255.0,255.0
398,19.900000000000002,14.157254935058711,-6.028406396353758,-4.341267178512463,0.33992763076553845,-0.14164129733574227,-0.4036226762291202,0.011048119096938399,-0.004951918288277317,-0.014732167645092846,0,70,255.0,255.0,255.0
399,19.950000000000003,14.174264759404515,-6.035495240408559,-4.361466339161776,0.34045799623976347,-0.14192425065935546,-0.40433598230937867,0.010166499872063233,-0.006366214656249571,-0.013800075565245377,0,70,255.0,255.0,255.0
400,20.0,14.1913,-6.0426,-4.3817,0.3409442807527448,-0.14227791880136723,-0.40500268378564475,0.009284880647188576,-0.007780511024221282,-0.012867983485397083,0,70,255.0,255.0,255.0
401,20.05,14.20835941035678,-6.04972352061349,-4.401966596805197,0.3414439378850668,-0.14266088643105093,-0.40566874115335594,0.010701404645689937,-0.0075381941631268625,-0.013774311223049387,0,70,255.0,255.0,255.0
402,20.1,14.225445574225171,-6.056865886712388,-4.422267629388451,0.3420144212173138,-0.14303173821767992,-0.40638011490794973,0.012117928644191296,-0.0072958773020324426,-0.01468063896070169,0,70,255.0,255.0,255.0
403,20.150000000000002,14.242562032915174,-6.064026492504541,-4.442605363569107,0.3426557307494859,-0.1433904741612542,-0.4071368050494261,0.013534452642692657,-0.0070535604409380235,-0.015586966698353993,0,70,255.0,255.0,255.0
404,20.200000000000003,14.259712327736787,-6.0712047321977956,-4.462982065166509,0.3433678664815831,-0.14373709426177375,-0.4079388115777851,0.014950976641194016,-0.0068112435798436035,-0.016493294436006296,0,70,255.0,255.0,255.0
405,20.25,14.2769,-6.0784,-4.4834,0.3441508284136053,-0.14407159851923856,-0.40878613449302664,0.016367500639695276,-0.006568926718749424,-0.017399622173657203,0,70,255.0,255.0,255.0
406,20.3,14.29412760726449,-6.085611605655642,-4.503860734077839,0.34494559152636245,-0.14438891913208618,-0.40963678512994167,0.01542302387059021,-0.006123897795154847,-0.016626403302943772,0,70,255.0,255.0,255.0
407,20.35,14.311393772088662,-6.092838521055772,-4.524363034163935,0.3456931308006643,-0.14468398829875406,-0.41044877482332104,0.014478547101485146,-0.00567886887156027,-0.015853184432230338,0,70,255.0,255.0,255.0
408,20.400000000000002,14.328696133280586,-6.100079633628082,-4.544904967211113,0.3463934462365109,-0.1449568060192422,-0.41122210357316474,0.01353407033238008,-0.0052338399479656935,-0.015079965561516907,0,70,255.0,255.0,255.0
409,20.450000000000003,14.34603232964834,-6.107333830800261,-4.565484600172193,0.3470465378339023,-0.14520737229355063,-0.4119567713794728,0.012589593563275017,-0.004788811024371117,-0.014306746690803474,0,70,255.0,255.0,255.0
410,20.5,14.3634,-6.1146,-4.5861,0.34765240559283844,-0.14543568712167934,-0.41265277824224506,0.011645116794170907,-0.00434378210077635,-0.013533527820089208,0,70,255.0,255.0,255.0
411,20.55,14.380797360585252,-6.121877256763942,-4.606749666883449,0.34824569600949334,-0.14565543704060466,-0.4133361183268789,0.012086499872025508,-0.00444621465623647,-0.013800075565262042,0,70,255.0,255.0,255.0
412,20.6,14.398224937420181,-6.129165629064524,-4.627433833955809,0.348861055580041,-0.145880308587303,-0.4140327857987713,0.012527882949880111,-0.004548647211696591,-0.014066623310434874,0,70,255.0,255.0,255.0
413,20.650000000000002,14.415683833962488,-6.136465372983134,-4.648153167586447,0.3494984843044814,-0.1461103017617743,-0.41474278065792236,0.012969266027734712,-0.004651079767156711,-0.014333171055607708,0,70,255.0,255.0,255.0
414,20.700000000000003,14.433175153669863,-6.143776744601165,-4.6689083341447235,0.3501579821828145,-0.14634541656401867,-0.41546610290433206,0.013410649105589315,-0.004753512322616832,-0.01459971880078054,0,70,255.0,255.0,255.0
415,20.75,14.4507,-6.1511,-4.6897,0.35083954921504035,-0.14658565299403603,-0.4162027525380004,0.01385203218344433,-0.0048559448780771675,-0.014866266545952467,0,70,255.0,255.0,255.0
416,20.8,14.468258950394505,-6.158435367288591,-4.71052859838837,0.3515116244356564,-0.1468293327054846,-0.4169387415625486,0.013030976641198132,-0.004891243579865368,-0.014573294435975633,0,70,255.0,255.0,255.0
417,20.85,14.485850478230612,-6.165782962686133,-4.73139363001283,0.3521426468791602,-0.14707477735202257,-0.41766008198159793,0.012209921098951936,-0.004926542281653568,-0.014280322325998799,0,70,255.0,255.0,255.0
418,20.900000000000002,14.50347253086947,-6.173142874439379,-4.752294362443107,0.35273261654555166,-0.14732198693364995,-0.4183667737951485,0.011388865556705739,-0.004961840983441769,-0.013987350216021963,0,70,255.0,255.0,255.0
419,20.950000000000003,14.521123055672218,-6.1805151907950835,-4.7732300632489215,0.35328153343483076,-0.14757096145036674,-0.41905881700320013,0.010567810014459542,-0.004997139685229969,-0.01369437810604513,0,70,255.0,255.0,255.0
420,21.0,14.5388,-6.1879,-4.7942,0.3537893975469975,-0.14782170090217298,-0.419736211605753,0.009746754472213848,-0.005032438387018834,-0.013401405996069204,0,70,255.0,255.0,255.0
421,21.05,14.556502037836728,-6.195297274081692,-4.815203939563072,0.3542998062478849,-0.14806723213745773,-0.42042891542292526,0.010669593563280268,-0.004788811024371272,-0.014306746690820762,0,70,255.0,255.0,255.0
422,21.1,14.574230749657366,-6.202706520190945,-4.836243645992872,0.35485635690332556,-0.14830058200461013,-0.4211668862748351,0.01159243265434669,-0.00454518366172371,-0.015212087385572318,0,70,255.0,255.0,255.0
423,21.150000000000002,14.591988442559638,-6.210127129259351,-4.857321382641136,0.3554590495133196,-0.14852175050363012,-0.4219501241614825,0.01251527174541311,-0.004301556299076149,-0.016117428080323876,0,70,255.0,255.0,255.0
424,21.200000000000003,14.609777423641274,-6.2175584922185045,-4.8784394128596,0.3561078840778669,-0.14873073763451772,-0.42277862908286745,0.013438110836479531,-0.004057928936428587,-0.01702276877507543,0,70,255.0,255.0,255.0
425,21.25,14.6276,-6.225,-4.8996,0.3568028605969675,-0.148927543397273,-0.42365240103898993,0.014360949927544997,-0.0038143015737812647,-0.01792810946982648,0,70,255.0,255.0,255.0
426,21.3,14.645457698258582,-6.232451536384643,-4.920804443359342,0.35749715057279585,-0.14914173874468295,-0.424513596745755,0.013410649105589275,-0.004753512322616884,-0.016519718800775587,0,70,255.0,255.0,255.0
427,21.35,14.663348923139928,-6.239914956550092,-4.942050186015686,0.35814392550752644,-0.14940289462953468,-0.42530437291906753,0.012460348283633555,-0.005692723071452504,-0.015111328131724692,0,70,255.0,255.0,255.0
428,21.400000000000002,14.681271298891982,-6.24739260852322,-4.963333706992358,0.3587431854011592,-0.14971101105182819,-0.42602472955892745,0.011510047461677834,-0.0066319338202881235,-0.013702937462673799,0,70,255.0,255.0,255.0
429,21.450000000000003,14.699222449762692,-6.2548868403309,-4.984651485312688,0.3592949302536942,-0.1500660880115635,-0.4266746666653349,0.010559746639722114,-0.007571144569123742,-0.012294546793622903,0,70,255.0,255.0,255.0
430,21.5,14.7172,-6.2624,-5.006,0.3597991600651314,-0.15046812550874056,-0.4272541842382897,0.009609445817767348,-0.008510355317959295,-0.010886156124571666,0,70,255.0,255.0,255.0
431,21.55,14.735202369128944,-6.269933380379738,-5.027376686999563,0.3603035914609371,-0.1508538128838202,-0.42782069759405483,0.010567810014460046,-0.006917139685225826,-0.011774378106033113,0,70,255.0,255.0,255.0
432,21.6,14.753231157782926,-6.277484053608688,-5.048782809944392,0.3608559410665774,-0.15115983947726314,-0.428431622048893,0.011526174211152745,-0.005323924052492357,-0.01266260008749456,0,70,255.0,255.0,255.0
433,21.650000000000002,14.771288761872434,-6.285048036647771,-5.070220589389438,0.3614562088820524,-0.15138620528906943,-0.4290869576028043,0.012484538407845443,-0.0037307084197588866,-0.013550822068956008,0,70,255.0,255.0,255.0
434,21.700000000000003,14.78937757730796,-6.292621346457903,-5.091692245889657,0.362104394907362,-0.15153291031923904,-0.42978670425578863,0.013442902604538141,-0.0021374927870254174,-0.014439044050417455,0,70,255.0,255.0,255.0
435,21.75,14.8075,-6.3002,-5.1132,0.3628004991425062,-0.15159995456777198,-0.430530862007846,0.01440126680122944,-0.000544277154292061,-0.015327266031880615,0,70,255.0,255.0,255.0
436,21.8,14.825657625225642,-6.3077813420964075,-5.134745608642409,0.36349648358344894,-0.15166700972003924,-0.4312916128780204,0.013438110836478131,-0.002137928936399214,-0.015102768775097261,0,70,255.0,255.0,255.0
437,21.85,14.843848845728376,-6.315368029015156,-5.1563289742067555,0.36414431022615407,-0.1518137474614119,-0.4320411388853558,0.012474954871726824,-0.0037315807185063672,-0.014878271518313906,0,70,255.0,255.0,255.0
438,21.900000000000002,14.862071253618286,-6.3229640448857,-5.177949535449897,0.36474397907062167,-0.1520401677918899,-0.43277944002985186,0.011511798906975516,-0.00532523250061352,-0.014653774261530552,0,70,255.0,255.0,255.0
439,21.950000000000003,14.880322441005465,-6.330573373837497,-5.199606731128694,0.36529549011685164,-0.15234627071147328,-0.4335065163115089,0.010548642942224207,-0.006918884282720673,-0.014429277004747196,0,70,255.0,255.0,255.0
440,22.0,14.8986,-6.3382,-5.2213,0.365798843364844,-0.15273205622016192,-0.43422236773032663,0.009585486977472524,-0.008512536064827492,-0.014204779747964302,0,70,255.0,255.0,255.0
441,22.05,14.91690232996849,-6.345846851234632,-5.243028878430804,0.36630247420527384,-0.15313414823601154,-0.4349328508938662,0.010559746639722891,-0.007571144569157826,-0.014214546793617621,0,70,255.0,255.0,255.0
442,22.1,14.935231059303579,-6.353512630330688,-5.264793293228593,0.36685481802881625,-0.1534891706770777,-0.4356438224096884,0.01153400630197326,-0.00662975307348816,-0.014224313839270942,0,70,255.0,255.0,255.0
443,22.150000000000002,14.953588623654424,-6.361194983809428,-5.286593268810979,0.3674558748354712,-0.1537971235433604,-0.4363552822777933,0.012508265964223627,-0.005688361577818495,-0.01423408088492426,0,70,255.0,255.0,255.0
444,22.200000000000003,14.97197745867018,-6.368891558192112,-5.308428829595576,0.36810564462523865,-0.15405800683485957,-0.43706723049818086,0.013482525626473996,-0.004746970082148829,-0.01424384793057758,0,70,255.0,255.0,255.0
445,22.25,14.9904,-6.3766,-5.3303,0.3688041273981186,-0.15427182055157526,-0.4377796670708511,0.014456785288722518,-0.0038055785864796743,-0.014253614976230455,0,70,255.0,255.0,255.0
446,22.3,15.008857854900398,-6.384318452965062,-5.352206877634377,0.3695016195954501,-0.15446839733591322,-0.4384969835465169,0.013442902604537184,-0.0040574927870383115,-0.014439044050400533,0,70,255.0,255.0,255.0
447,22.35,15.02734931705731,-6.392047049662091,-5.374149852878881,0.3701484176585723,-0.15467756983027908,-0.43922357147589114,0.012429019920351852,-0.0043094069875969495,-0.014624473124570608,0,70,255.0,255.0,255.0
448,22.400000000000002,15.045871851764018,-6.39978641987659,-5.3961293893061955,0.3707445215874853,-0.1548993380346729,-0.43995943085897393,0.01141513723616652,-0.004561321188155587,-0.014809902198740685,0,70,255.0,255.0,255.0
449,22.450000000000003,15.064422924313819,-6.40753719339406,-5.4181459504890075,0.371289931382189,-0.15513370194909468,-0.4407045616957653,0.010401254551981185,-0.004813235388714224,-0.01499533127291076,0,70,255.0,255.0,255.0
450,22.5,15.083,-6.4153,-5.4402,0.3717846470426834,-0.15538066157354433,-0.44145896398626494,0.009387371867795036,-0.005065149589273288,-0.015180760347076827,0,70,255.0,255.0,255.0
451,22.55,15.101601450429918,-6.42307533690512,-5.462291611031688,0.37228304741293383,-0.15563226242034345,-0.4421992149200609,0.010548642942223834,-0.004998884282690818,-0.014429277004763453,0,70,255.0,255.0,255.0
452,22.6,15.12022927246719,-6.430863171020946,-5.484419295255888,0.37283951133690574,-0.15588055000181342,-0.4429018916867413,0.011709914016652634,-0.0049326189761083475,-0.013677793662450078,0,70,255.0,255.0,255.0
453,22.650000000000002,15.138886369289503,-6.438663336684212,-5.5065811739642445,0.3734540388145991,-0.1561255243179543,-0.44356699428630597,0.012871185091081433,-0.004866353669525878,-0.012926310320136703,0,70,255.0,255.0,255.0
454,22.700000000000003,15.157575644074544,-6.446475668231653,-5.5287753684484,0.3741266298460139,-0.156367185368766,-0.44419452271875504,0.014032456165510233,-0.004800088362943407,-0.012174826977823329,0,70,255.0,255.0,255.0
455,22.75,15.1763,-6.4543,-5.551,0.3748572844311501,-0.1566055331542486,-0.44478447698408824,0.015193727239938504,-0.004733823056360054,-0.011423343635507788,0,70,255.0,255.0,255.0
456,22.8,15.195061143379936,-6.462136199414461,-5.573253878238872,0.37557419075281034,-0.15684255298271133,-0.4453781567732405,0.013482525626473472,-0.0047469700821486166,-0.012323847930582334,0,70,255.0,255.0,255.0
457,22.85,15.213855993073937,-6.4699842662541265,-5.595538566097571,0.37620553699379744,-0.15708023016246347,-0.44601686177714644,0.01177132401300844,-0.004760117107937179,-0.01322435222565688,0,70,255.0,255.0,255.0
458,22.900000000000002,15.232680271077971,-6.477844233386562,-5.617856314836834,0.37675132315411125,-0.15731856469350505,-0.4467005919958062,0.010060122399543407,-0.004773264133725742,-0.014124856520731427,0,70,255.0,255.0,255.0
459,22.950000000000003,15.251529699388003,-6.485716133679332,-5.640209375717397,0.37721154923375183,-0.15755755657583606,-0.44742934742921964,0.008348920786078375,-0.004786411159514304,-0.015025360815805973,0,70,255.0,255.0,255.0
460,23.0,15.2704,-6.4936,-5.6626,0.3775862152327191,-0.15779720580945644,-0.44820312807738677,0.0066377191726139095,-0.004799558185301311,-0.015925865110880455,0,70,255.0,255.0,255.0
461,23.05,15.289288376050346,-6.50149586543704,-5.685029676012825,0.3779641895758341,-0.15803752564880727,-0.4489761579869811,0.008481254551985389,-0.00481323538873113,-0.014995331272892263,0,70,255.0,255.0,255.0
462,23.1,15.308197955237066,-6.509403763962551,-5.707496840353834,0.3784343406879177,-0.15827852934832956,-0.449702661204676,0.010324789931356868,-0.004826912592160948,-0.014064797434904071,0,70,255.0,255.0,255.0
463,23.150000000000002,15.327133346398618,-6.517323729769541,-5.729999166688429,0.37899666856896985,-0.15852021690802337,-0.45038263773047155,0.012168325310728346,-0.004840589795590767,-0.013134263596915878,0,70,255.0,255.0,255.0
464,23.200000000000003,15.346099158373447,-6.525255797051022,-5.752534328682017,0.37965117321899056,-0.15876258832788864,-0.4510160875643676,0.014011860690099825,-0.004854266999020585,-0.012203729758927686,0,70,255.0,255.0,255.0
465,23.25,15.3651,-6.5332,-5.7751,0.38039785463797976,-0.1590056436079254,-0.4516030107063643,0.015855396069471173,-0.0048679442024490704,-0.011273195920940005,0,70,255.0,255.0,255.0
466,23.3,15.384138952418692,-6.541156338837383,-5.797694617709828,0.3811450509438535,-0.1592473444220602,-0.4521892112788334,0.0140324561654755,-0.004800088362942833,-0.01217482697782214,0,70,255.0,255.0,255.0
467,23.35,15.403212985977799,-6.549124677895673,-5.8203196724870985,0.3818011002545273,-0.1594856524442197,-0.45282049340414654,0.012209516261479827,-0.004732232523436595,-0.013076458034704279,0,70,255.0,255.0,255.0
468,23.400000000000002,15.422317543327559,-6.557104847535273,-5.842977418409457,0.3823660025700015,-0.15972056767440387,-0.4534968570823038,0.010386576357484157,-0.004664376683930357,-0.013978089091586415,0,70,255.0,255.0,255.0
469,23.450000000000003,15.441448067118213,-6.56509667811658,-5.865670109554543,0.38283975789027574,-0.15995209011261272,-0.45421830231330523,0.008563636453488484,-0.00459652084442412,-0.014879720148468552,0,70,255.0,255.0,255.0
470,23.5,15.4606,-6.5731,-5.8884,0.3832223662153503,-0.16018021975884625,-0.45498482909715066,0.00674069654949383,-0.0045286650049167765,-0.015781351205349736,0,70,255.0,255.0,255.0
471,23.55,15.479770214274886,-6.58111477921343,-5.911168653147869,0.3835996066487405,-0.16041309666295658,-0.45575499689767995,0.008348920786113401,-0.004786411159496454,-0.01502536081582252,0,70,255.0,255.0,255.0
472,23.6,15.498961300851738,-6.589141524454758,-5.933974869697778,0.3840572582939616,-0.1606588608747959,-0.45648736517873295,0.009957145022732972,-0.005044157314076133,-0.014269370426295303,0,70,255.0,255.0,255.0
473,23.650000000000002,15.518177280291146,-6.597180880089373,-5.9568167596737505,0.38459532115101375,-0.1609175123943642,-0.45718193394030954,0.011565369259352545,-0.0053019034686558105,-0.013513380036768087,0,70,255.0,255.0,255.0
474,23.700000000000003,15.537422173153704,-6.605233490482657,-5.979692433099817,0.3852137952198969,-0.1611890512216615,-0.45783870318240977,0.013173593495972115,-0.005559649623235489,-0.01275738964724087,0,70,255.0,255.0,255.0
475,23.75,15.5567,-6.6133,-6.0026,0.385912680500611,-0.16147347735668774,-0.4584576729050336,0.014781817732592017,-0.0058173957778147045,-0.01200139925771282,0,70,255.0,255.0,255.0
476,23.8,15.576013790481761,-6.621380544308899,-6.025537969698701,0.38663252246117913,-0.16174026892610902,-0.4590628011304496,0.014011860690133549,-0.0048542669990371354,-0.012203729758928009,0,70,255.0,255.0,255.0
477,23.85,15.595362610615249,-6.629473224285295,-6.048506448721796,0.38731386656962435,-0.16195890405659147,-0.45967804588092637,0.01324190364767508,-0.0038911382202595664,-0.012406060260143199,0,70,255.0,255.0,255.0
478,23.900000000000002,15.614744535507857,-6.637575632107242,-6.071505942895544,0.3879567128259467,-0.162129382748135,-0.46030340715646395,0.01247194660521661,-0.002928009441481997,-0.012608390761358388,0,70,255.0,255.0,255.0
479,23.950000000000003,15.634157640266976,-6.645685359952793,-6.094536958046195,0.38856106123014605,-0.16225170500073965,-0.46093888495706226,0.011701989562758142,-0.001964880662704428,-0.012810721262573576,0,70,255.0,255.0,255.0
480,24.0,15.6536,-6.6538,-6.1176,0.38912691178222253,-0.16232587081440544,-0.4615844792827213,0.010932032520299284,-0.0010017518839260386,-0.013013051763788752,0,70,255.0,255.0,255.0
481,24.05,15.673069823798068,-6.661918243550976,-6.140695468057335,0.3896623035065663,-0.16241782763261386,-0.462233798580527,0.010483636453449824,-0.0026765208444107253,-0.012959720148438691,0,70,255.0,255.0,255.0
482,24.1,15.692565856687269,-6.670043178404063,-6.1638233354150405,0.3901752754275675,-0.16259352289884652,-0.46288045129756517,0.010035240386600362,-0.004351289804895412,-0.01290638853308863,0,70,255.0,255.0,255.0
483,24.150000000000002,15.712086977677437,-6.678178991481661,-6.186983468744081,0.39066582754522633,-0.1628529566131034,-0.46352443743383587,0.009586844319750902,-0.006026058765380099,-0.012853056917738567,0,70,255.0,255.0,255.0
484,24.200000000000003,15.731632065778403,-6.6863298697061735,-6.2101757347154125,0.39113395985954263,-0.16319612877538453,-0.46416575698933904,0.00913844825290144,-0.0077008277258647844,-0.012799725302388506,0,70,255.0,255.0,255.0
485,24.25,15.7512,-6.6945,-6.2334,0.39157967237051644,-0.1636230393856899,-0.4648044099640747,0.008690052186051123,-0.009375596686349574,-0.012746393687038449,0,70,255.0,255.0,255.0
486,24.3,15.770790114325973,-6.7026920814872,-6.256656158071962,0.39203026351256554,-0.1640444205434294,-0.4654420045474321,0.009333593495912949,-0.007479649623230928,-0.012757389647257611,0,70,255.0,255.0,255.0
487,24.35,15.790403562635683,-6.710902862098457,-6.279944209618043,0.39251303172010776,-0.164371004348013,-0.46608014892880045,0.009977134805774775,-0.005583702560112282,-0.012768385607476774,0,70,255.0,255.0,255.0
488,24.400000000000002,15.810041953782408,-6.719127601966115,-6.303264182128143,0.393027976993143,-0.16460279079944065,-0.4667188431081798,0.010620676115636602,-0.0036877554969936355,-0.012779381567695937,0,70,255.0,255.0,255.0
489,24.450000000000003,15.829706896619422,-6.727361561222516,-6.326616103092162,0.3935750993316714,-0.16473977989771238,-0.4673580870855701,0.011264217425498428,-0.0017918084338749895,-0.012790377527915099,0,70,255.0,255.0,255.0
490,24.5,15.8494,-6.7356,-6.35,0.39415439873569286,-0.16478197164282812,-0.4679978808609712,0.01190775873535932,0.00010413862924507633,-0.012801373488131151,0,70,255.0,255.0,255.0
491,24.55,15.869122518898047,-6.743839830500226,-6.373415899654814,0.39474464244314755,-0.16482849019366544,-0.46863818322973927,0.011701989562826306,-0.0019648806627377297,-0.012810721262589642,0,70,255.0,255.0,255.0
492,24.6,15.888874292770005,-6.75208457320211,-6.396863826112787,0.3953245976919755,-0.1649784597091019,-0.4692789529872302,0.011496220390293294,-0.004033899954720536,-0.012820069037048132,0,70,255.0,255.0,255.0
493,24.650000000000002,15.908654807192935,-6.76033940065388,-6.420343802743351,0.39589426448217685,-0.16523188018913748,-0.46992019013344405,0.01129045121776028,-0.006102919246703342,-0.012829416811506622,0,70,255.0,255.0,255.0
494,24.700000000000003,15.928463547743911,-6.7686094854037675,-6.443855852915943,0.39645364281375156,-0.16558875163377224,-0.4705618946683809,0.011084682045227267,-0.008171938538686148,-0.012838764585965112,0,70,255.0,255.0,255.0
495,24.75,15.9483,-6.7769,-6.4674,0.3970027326866995,-0.16604907404300612,-0.4712040665920405,0.010878912872692048,-0.010240957830668584,-0.01284811236042227,0,70,255.0,255.0,255.0
496,24.8,15.968163810081835,-6.785214196511895,-6.490976243308778,0.39755116671483925,-0.16649761868191862,-0.4718452625336108,0.011058448252896194,-0.0077008277258308585,-0.012799725302388864,0,70,255.0,255.0,255.0
497,24.85,15.9880552662843,-6.793547645093105,-6.514584485930813,0.39810857751198914,-0.1668191568155892,-0.4724840391222794,0.01123798363310034,-0.0051606976209931325,-0.012751338244355457,0,70,255.0,255.0,255.0
498,24.900000000000002,16.007974817445852,-6.801893995418367,-6.538224606898459,0.3986749650781493,-0.16701368844401793,-0.47312039635804637,0.011417519013304485,-0.0026205675161554056,-0.012702951186322052,0,70,255.0,255.0,255.0
499,24.950000000000003,16.027922912404932,-6.81024689716242,-6.56189648524407,0.3992503294133196,-0.16708121356720476,-0.4737543342409116,0.011597054393508631,-8.043741131768048e-05,-0.012654564128288645,0,70,255.0,255.0,255.0
500,25.0,16.0479,-6.8186,-6.5856,0.39983467051750016,-0.1670217321851497,-0.4743858527708752,0.01177658977371232,0.002459692693519422,-0.012606177070255242,0,70,255.0,255.0,255.0
501,25.05,16.06790624077461,-6.826948983452194,-6.609335127110073,0.4004106906974804,-0.1669570350786587,-0.47502076663582904,0.011264217425498027,0.00012819156612092764,-0.012790377527896805,0,70,255.0,255.0,255.0
502,25.1,16.08794064209279,-6.835297646425473,-6.633102230163964,0.40096109226005,-0.16700891302853763,-0.4756648905236649,0.010751845077283736,-0.0022033095612775666,-0.012974577985538365,0,70,255.0,255.0,255.0
503,25.150000000000002,16.10800192302366,-6.8436518176726535,-6.656901769662822,0.4014858752052088,-0.16717736603478647,-0.4763182244343828,0.010239472729069443,-0.00453481068867606,-0.013158778443179926,0,70,255.0,255.0,255.0
504,25.200000000000003,16.12808880263636,-6.852017325946557,-6.680734206107786,0.4019850395329569,-0.16746239409740524,-0.4769807683679829,0.009727100380855152,-0.006866311816074555,-0.013342978900821489,0,70,255.0,255.0,255.0
505,25.25,16.1482,-6.8604,-6.7046,0.40245858524329436,-0.16786399721639386,-0.477652522324465,0.009214728032643116,-0.00919781294347266,-0.013527179358463037,0,70,255.0,255.0,255.0
506,25.3,16.168334426819712,-6.868804269679331,-6.728499248250933,0.40291807049524125,-0.16829824100344784,-0.47831167092307525,0.009164682045231309,-0.008171938538686016,-0.01283876458594725,0,70,255.0,255.0,255.0
507,25.35,16.188491765344533,-6.8772289692050075,-6.752430593413332,0.4033750534478175,-0.16868119107026247,-0.47893639878305977,0.009114636057819502,-0.00714606413389937,-0.012150349813431462,0,70,255.0,255.0,255.0
508,25.400000000000002,16.208671890459502,-6.88567153389102,-6.776392314450263,0.40382953410102324,-0.16901284741683778,-0.47952670590441837,0.009064590070407694,-0.006120189729112725,-0.011461935040915677,0,70,255.0,255.0,255.0
509,25.450000000000003,16.22887467704965,-6.894129399051354,-6.800382690324796,0.40428151245485827,-0.16929321004317374,-0.4800825922871513,0.009014544082995887,-0.005094315324326079,-0.010773520268399889,0,70,255.0,255.0,255.0
510,25.5,16.2491,-6.9026,-6.8244,0.4047309885093228,-0.16952227894927038,-0.4806040579312584,0.008964498095585416,-0.0040684409195390625,-0.010085105495885038,0,70,255.0,255.0,255.0
511,25.55,16.26934805194654,-6.911081137830484,-6.848443079886197,0.40519702732155033,-0.169722000907542,-0.48112454967186324,0.009677054393513016,-0.00392043741132597,-0.01073456412831054,0,70,255.0,255.0,255.0
512,25.6,16.289620296529066,-6.919572076754498,-6.8725129961827145,0.40569869394867414,-0.169914322690403,-0.48167751434408945,0.010389610691440619,-0.0037724339031128774,-0.011384022760736042,0,70,255.0,255.0,255.0
513,25.650000000000002,16.309918515138328,-6.9280724467632675,-6.8966113725361335,0.4062359883906944,-0.1700992442978533,-0.4822629519479369,0.01110216698936822,-0.0036244303948997853,-0.012033481393161544,0,70,255.0,255.0,255.0
514,25.700000000000003,16.330244489165057,-6.936581877848026,-6.920739832593036,0.406808910647611,-0.17027676572989295,-0.48288086248340567,0.011814723287295822,-0.0034764268866866923,-0.012682940025587045,0,70,255.0,255.0,255.0
515,25.75,16.3506,-6.9451,-6.9449,0.407417460719424,-0.17044688698652197,-0.4835312459504956,0.012527279585223816,-0.0033284233784744988,-0.013332398658013833,0,70,255.0,255.0,255.0
516,25.8,16.370986165394118,-6.953626378998732,-6.969093232204282,0.40802182021857586,-0.17060575536638592,-0.4841981303894669,0.011647100380851493,-0.003026311816083589,-0.01334297890083862,0,70,255.0,255.0,255.0
517,25.85,16.391401448539188,-6.962160323777003,-6.993319821855816,0.40858217075750913,-0.17074951816813033,-0.4848655438405795,0.010766921176479169,-0.0027242002536926792,-0.013353559143663407,0,70,255.0,255.0,255.0
518,25.900000000000002,16.411843648987197,-6.970701079055909,-7.017579795405209,0.4090985123362238,-0.1708781753917552,-0.4855334863038333,0.009886741972106846,-0.0024220886913017695,-0.013364139386488194,0,70,255.0,255.0,255.0
519,25.950000000000003,16.43231056629014,-6.979247889556544,-7.041873179303069,0.40957084495471985,-0.1709917270372605,-0.4862019577792283,0.009006562767734521,-0.0021199771289108597,-0.013374719629312982,0,70,255.0,255.0,255.0
520,26.0,16.4528,-6.9878,-7.0662,0.4099991686129972,-0.1710901731046463,-0.4868709582667646,0.00812638356336004,-0.0018178655665201937,-0.013385299872138656,0,70,255.0,255.0,255.0
521,26.05,16.473310486476986,-6.99635734617459,-7.0905599912966775,0.4104276918041544,-0.17121497762691715,-0.4875229287702775,0.009014544082927779,-0.0031743153243131788,-0.012693520268378835,0,70,255.0,255.0,255.0
522,26.1,16.493843509314182,-7.00492262813749,-7.114951716394026,0.41090062302128993,-0.17140760463707763,-0.4881403102936025,0.009902704602495519,-0.004530765082106164,-0.012001740664619013,0,70,255.0,255.0,255.0
523,26.150000000000002,16.514401288912886,-7.013499237013096,-7.139373445843035,0.4114179622644039,-0.17166805413512776,-0.4887231028367394,0.010790865122063259,-0.0058872148398991485,-0.01130996106085919,0,70,255.0,255.0,255.0
524,26.200000000000003,16.53498604567439,-7.022090563925801,-7.1638234501946965,0.41197970953349633,-0.17199632612106755,-0.4892713063996884,0.011679025641630997,-0.007243664597692134,-0.010618181457099368,0,70,255.0,255.0,255.0
525,26.25,16.5556,-7.0307,-7.1883,0.412585864828567,-0.17239242059489696,-0.4897849209824494,0.012567186161196897,-0.008600114355484134,-0.009926401853338263,0,70,255.0,255.0,255.0
526,26.3,16.57624468869793,-7.039329836302912,-7.212802002609011,0.4131954125647811,-0.17279033412595102,-0.4903021545294222,0.01181472328736416,-0.007316426886677689,-0.010762940025574264,0,70,255.0,255.0,255.0
527,26.35,16.596918914204082,-7.047977963673038,-7.237330912568087,0.41376733715730346,-0.17312406328356472,-0.49086121498500684,0.011062260413531422,-0.006032739417871243,-0.011599478197810266,0,70,255.0,255.0,255.0
528,26.400000000000002,16.617620795361265,-7.056641172891711,-7.261888821222656,0.4143016386061342,-0.17339360806773813,-0.4914621023492033,0.010309797539698686,-0.004749051949064798,-0.012436016370046267,0,70,255.0,255.0,255.0
529,26.450000000000003,16.638348451012302,-7.065316254740255,-7.286477819918151,0.41479831691127333,-0.17359896847847123,-0.4921048166220115,0.009557334665865948,-0.0034653644802583533,-0.01327255454228227,0,70,255.0,255.0,255.0
530,26.5,16.6591,-7.074,-7.3111,0.41525737207272073,-0.17374014451576394,-0.4927893578034314,0.008804871792031932,-0.0021816770114504447,-0.01410909271451688,0,70,255.0,255.0,255.0
531,26.55,16.67987395873128,-7.082689708613768,-7.335756798267279,0.41570265793671657,-0.17384768586927296,-0.49347645311202804,0.00900656276780172,-0.0021199771289107873,-0.013374719629347432,0,70,255.0,255.0,255.0
532,26.6,16.700670433869483,-7.091384717170359,-7.3604470333336325,0.4161580283495009,-0.17395214222865502,-0.4941268297663662,0.00920825374357151,-0.00205827724637113,-0.012640346544177984,0,70,255.0,255.0,255.0
533,26.650000000000002,16.721489929642043,-7.100084871420065,-7.385168869266345,0.41662348331107374,-0.17405351359391008,-0.49474048776644586,0.009409944719341298,-0.001996577363831473,-0.011905973459008536,0,70,255.0,255.0,255.0
534,26.700000000000003,16.742332950276406,-7.108790017113181,-7.409920470132707,0.417099022821435,-0.17415179996503818,-0.49531742711226706,0.009611635695111087,-0.0019348774812918156,-0.011171600373839088,0,70,255.0,255.0,255.0
535,26.75,16.7632,-7.1175,-7.4347,0.41758464688058483,-0.17424700134203924,-0.4958576478038297,0.009813326670878197,-0.0018731775987510524,-0.010437227288665696,0,70,255.0,255.0,255.0
536,26.8,16.78409147637694,-7.126215329242017,-7.459506004321873,0.4180739556883943,-0.17437892239695096,-0.49638403302247336,0.009759025641497486,-0.003403664597717726,-0.010618181457081025,0,70,255.0,255.0,255.0
537,26.85,16.805007350317982,-7.134939167645528,-7.484338554097389,0.4185605494447346,-0.174587367801811,-0.49691946594953784,0.009704724612116775,-0.004934151596684399,-0.010799135625496352,0,70,255.0,255.0,255.0
538,26.900000000000002,16.825947486070557,-7.143675341428031,-7.509198101711967,0.41904442814960596,-0.1748723375566194,-0.497463946585023,0.009650423582736064,-0.006464638595651072,-0.010980089793911681,0,70,255.0,255.0,255.0
539,26.950000000000003,16.846911747882086,-7.152427676807022,-7.534085099551032,0.4195255918030082,-0.17523383166137615,-0.49801747492892895,0.009596122553355355,-0.007995125594617746,-0.01116104396232701,0,70,255.0,255.0,255.0
540,27.0,16.8679,-7.1612,-7.559,0.4200040404049414,-0.17567185011608114,-0.4985800509812557,0.009541821523973315,-0.009525612593584531,-0.011341998130742326,0,70,255.0,255.0,255.0
541,27.05,16.88891213576096,-7.1699945744181655,-7.583943184445232,0.42048151930968736,-0.17609262454292698,-0.499147414798081,0.009557334665865459,-0.007305364480249134,-0.011352554542269643,0,70,255.0,255.0,255.0
542,27.1,16.909948164858584,-7.178807412247532,-7.608914750276818,0.42095977387152794,-0.17640238656410606,-0.4997153064354826,0.009572847807757601,-0.005085116366913737,-0.011363110953796962,0,70,255.0,255.0,255.0
543,27.150000000000002,16.93100812607573,-7.187632962867815,-7.63391472388579,0.42143880409046314,-0.17660113617961837,-0.5002837258934607,0.009588360949649745,-0.0028648682535783393,-0.01137366736532428,0,70,255.0,255.0,255.0
544,27.200000000000003,16.95209205819525,-7.196465675658733,-7.658943131663174,0.42191860996649294,-0.1766888733894639,-0.5008526731720151,0.009603874091541887,-0.0006446201402429425,-0.0113842237768516,0,70,255.0,255.0,255.0
545,27.25,16.9732,-7.2053,-7.684,0.42239919149961724,-0.1766655981936427,-0.5014221482711458,0.009619387233432697,0.0015756279730920753,-0.011394780188375364,0,70,255.0,255.0,255.0
546,27.3,16.994331980579215,-7.214131973085323,-7.709085257897204,0.4228799670728342,-0.17662657943134735,-0.5019863077852016,0.009611635695246434,-1.4877481278597216e-05,-0.011171600373852893,0,70,255.0,255.0,255.0
547,27.35,17.01548799024767,-7.222963983364346,-7.734198444795342,0.4233603550691419,-0.17666708594177055,-0.5025393083085311,0.009603884157060172,-0.0016053829356492697,-0.010948420559330423,0,70,255.0,255.0,255.0
548,27.400000000000002,17.036668009626514,-7.231800007100712,-7.75933900274488,0.42384035548854027,-0.17678711772491226,-0.5030811498411346,0.009596132618873909,-0.0031958883900199417,-0.010725240744807952,0,70,255.0,255.0,255.0
549,27.450000000000003,17.057872019336905,-7.240644020558051,-7.784506373796278,0.42431996833102925,-0.17698667478077257,-0.503611832383012,0.009588381080687646,-0.004786393844390615,-0.010502060930285483,0,70,255.0,255.0,255.0
550,27.5,17.0791,-7.2495,-7.8097,0.424799193596609,-0.17726575710935136,-0.5041313559341632,0.009580629542499608,-0.00637689929876184,-0.010278881115760363,0,70,255.0,255.0,255.0
551,27.55,17.100351941922185,-7.258371133240548,-7.8349197839659555,0.4252786123990036,-0.17757705773168553,-0.504667354061115,0.009596122553285902,-0.00607512559460512,-0.011161043962309072,0,70,255.0,255.0,255.0
552,27.6,17.121627874150743,-7.267257454295082,-7.860167470541818,0.42575880585193765,-0.1778732696688119,-0.5052474603303941,0.009611615564072196,-0.005773351890448399,-0.012043206808857778,0,70,255.0,255.0,255.0
553,27.650000000000002,17.142927835418217,-7.276158208729342,-7.885445265134702,0.4262397739554109,-0.17815439292073038,-0.5058716747420008,0.00962710857485849,-0.0054715781862916795,-0.012925369655406487,0,70,255.0,255.0,255.0
554,27.700000000000003,17.16425186445713,-7.285072642109069,-7.910755373151725,0.42672151670942343,-0.17842042748744105,-0.5065399972959349,0.009642601585644785,-0.005169804482134959,-0.013807532501955194,0,70,255.0,255.0,255.0
555,27.75,17.1856,-7.294,-7.9361,0.42720403411397534,-0.17867137336894384,-0.5072524279921963,0.009658094596431965,-0.00486803077797715,-0.014689695348500287,0,70,255.0,255.0,255.0
556,27.8,17.206972251732072,-7.302939493952486,-7.961480406238975,0.42768558333117296,-0.1789051896419,-0.5079522759703303,0.009603874091473584,-0.004484620140267998,-0.013304223776861848,0,70,255.0,255.0,255.0
557,27.85,17.228368513149363,-7.311890199455325,-7.986894073037391,0.4281644215231227,-0.17911983538297066,-0.5085828503698825,0.009549653586515204,-0.004101209502558845,-0.011918752205223409,0,70,255.0,255.0,255.0
558,27.900000000000002,17.24978864870063,-7.32085115798192,-8.01233753671632,0.4286405486898245,-0.17931531059215589,-0.5091441511908527,0.009495433081556823,-0.0037177988648496923,-0.01053328063358497,0,70,255.0,255.0,255.0
559,27.950000000000003,17.27123252283459,-7.3298214110056765,-8.037807333596833,0.4291139648312784,-0.17949161526945562,-0.5096361784332409,0.009441212576598442,-0.0033343882271405396,-0.009147809061946531,0,70,255.0,255.0,255.0
560,28.0,17.2927,-7.3388,-8.0633,0.4295846699474844,-0.17964874941486988,-0.5100589320970472,0.009386992071641398,-0.0029509775894307477,-0.00776233749030375,0,70,255.0,255.0,255.0
561,28.05,17.31419105114955,-7.347786090949503,-8.088812991078148,0.4300590542762943,-0.17979418370071557,-0.5104675420575625,0.00958838108075524,-0.002866393844395486,-0.008582060930305968,0,70,255.0,255.0,255.0
