idx,t,px,py,pz,vx,vy,vz,ax,ay,az,yaw,mode,ledr,ledg,ledb
0,0.0,-7.5,-1.5,0.0,0.000862940953018445,-0.0008664882395372805,0.0017139731156170027,-0.026355291436248,0.0031978588744481593,-0.050967677387404035,0,70,255.0,255.0,255.0
1,0.05,-7.499989734125691,-1.5000399935766233,2.1703032162212088e-05,-0.00045104716161262996,-0.0007465845901871108,-0.0008515723668161792,-0.026204233148994994,0.0015982870995586331,-0.05165414190992323,0,70,255.0,255.0,255.0
2,0.1,-7.500044978834255,-1.5000759914354977,-8.57292904503839e-05,-0.0017574823618810545,-0.0007066595295814172,-0.0034514410753753205,-0.02605317486174199,-1.2846753308930377e-06,-0.05234060643244241,0,70,255.0,255.0,255.0
3,0.15000000000000002,-7.5001653564799735,-1.5001119925060604,-0.00032401312914408594,-0.0030563646477868287,-0.0007467130577202001,-0.006085633010060421,-0.02590211657448898,-0.0016008564502204194,-0.053027070954961605,0,70,255.0,255.0,255.0
4,0.2,-7.500350489417128,-1.500151995717749,-0.000694864645225192,-0.004347694019329953,-0.0008667451746034592,-0.008754148170871482,-0.025751058287235975,-0.0032004282251099454,-0.05371353547748079,0,70,255.0,255.0,255.0
5,0.25,-7.5006,-1.5002,-0.0012,-0.005631470476510426,-0.0010667558802311945,-0.0114569865578085,-0.025599999999982984,-0.00479999999999947,-0.054399999999999976,0,70,255.0,255.0,255.0
6,0.30000000000000004,-7.5009135105828735,-1.500260004282251,-0.0018411353547748083,-0.006907694019328251,-0.0013467451746034065,-0.01419414817087148,-0.025448941712729968,-0.006399571774888998,-0.05508646452251919,0,70,255.0,255.0,255.0
7,0.35000000000000003,-7.5012906435200275,-1.5003360074939394,-0.0026199868708559142,-0.008176364647783424,-0.0017067130577200944,-0.016965633010060422,-0.025297883425476956,-0.007999143549778525,-0.0557729290450384,0,70,255.0,255.0,255.0
8,0.4,-7.501731021165745,-1.5004320085645022,-0.003538270709549616,-0.009437482361875946,-0.0021466595295812586,-0.01977144107537532,-0.02514682513822394,-0.009598715324668052,-0.05645939356755762,0,70,255.0,255.0,255.0
9,0.45,-7.502234265874309,-1.5005520064233768,-0.004597703032162212,-0.010691047161605818,-0.0026665845901868994,-0.02261157236681618,-0.024995766850970928,-0.011198287099557579,-0.057145858090076836,0,70,255.0,255.0,255.0
10,0.5,-7.5028,-1.5007,-0.0058,-0.01193705904697304,-0.003266488239537016,-0.025486026884383,-0.024844708563717927,-0.01279785887444711,-0.05783232261259602,0,70,255.0,255.0,255.0
11,0.55,-7.5034282235428185,-1.5008783892943722,-0.007145961613062981,-0.013198176761066415,-0.003850434711398272,-0.028339834949697905,-0.02560000000001707,-0.010560000000003102,-0.05632,0,70,255.0,255.0,255.0
12,0.6000000000000001,-7.504120447085636,-1.5010831785887444,-0.008632723226125962,-0.01449705904697475,-0.004322488239537328,-0.031118026884383,-0.026355291436316215,-0.008322141125559093,-0.05480767738740398,0,70,255.0,255.0,255.0
13,0.65,-7.504878558857046,-1.5013087732359305,-0.01025650403265745,-0.015833705904698035,-0.004682648823954182,-0.0338206026884383,-0.027110582872615356,-0.006084282251115089,-0.05329535477480797,0,70,255.0,255.0,255.0
14,0.7000000000000001,-7.505704447085636,-1.5015495785887445,-0.012013523226125962,-0.017208117334236286,-0.0049309164646488355,-0.0364475623618638,-0.027865874308914504,-0.0038464233766710796,-0.051783032162211945,0,70,255.0,255.0,255.0
15,0.75,-7.5066,-1.5018,-0.0139,-0.018620293335589486,-0.00506729116162129,-0.038998905904659494,-0.028621165745213645,-0.001608564502227107,-0.050270709549616155,0,70,255.0,255.0,255.0
16,0.8,-7.507566395245854,-1.5020560385402602,-0.01591341819297327,-0.020027598936401467,-0.005187515979804717,-0.04155051203033692,-0.02767105828726561,-0.0032004282251099554,-0.051793535477480904,0,70,255.0,255.0,255.0
17,0.8500000000000001,-7.508601968137424,-1.502320078151083,-0.01805632022464025,-0.021387399164316048,-0.0053873339841322854,-0.04417825945240759,-0.026720950829317573,-0.004792291947992804,-0.05331636140534565,0,70,255.0,255.0,255.0
18,0.9,-7.509704343406069,-1.5025960984917754,-0.020332513159820584,-0.02269969401933323,-0.005666745174603997,-0.04688214817087149,-0.02577084337136954,-0.006384155670875648,-0.054839187333210394,0,70,255.0,255.0,255.0
19,0.9500000000000001,-7.510871145783144,-1.5028880792216457,-0.022745804063333947,-0.023964483501453002,-0.0060257495512198505,-0.04966217818572863,-0.0248207359134215,-0.007976019393758497,-0.05636201326107514,0,70,255.0,255.0,255.0
20,1.0,-7.5121,-1.5032,-0.0253,-0.02518176761067538,-0.006464347113979847,-0.05251834949697899,-0.023870628455473497,-0.009567883116641335,-0.05788483918893972,0,70,255.0,255.0,255.0
21,1.05,-7.5133893954737685,-1.503535056544588,-0.027997965615043936,-0.026403427493335636,-0.006935501369384718,-0.0553941169289544,-0.02499576685093683,-0.009278287099553514,-0.05714585809007673,0,70,255.0,255.0,255.0
22,1.1,-7.514741280364663,-1.5038933088069242,-0.030838795875313057,-0.027681344295769066,-0.0073921758239351995,-0.05823293530598667,-0.026120905246400164,-0.008988691082465694,-0.05640687699121374,0,70,255.0,255.0,255.0
23,1.1500000000000001,-7.516158467518675,-1.504274032796967,-0.03382064332806022,-0.029015518017975656,-0.007834370477631289,-0.061034804628075784,-0.027246043641863497,-0.008699095065377874,-0.055667895892350744,0,70,255.0,255.0,255.0
24,1.2000000000000002,-7.51764376978179,-1.5046765045246733,-0.03694166052053826,-0.030405948659955415,-0.008262085330472988,-0.06379972489522175,-0.02837118203732683,-0.008409499048290052,-0.05492891479348776,0,70,255.0,255.0,255.0
25,1.25,-7.5192,-1.5051,-0.0402,-0.031852636221708336,-0.008675320382460293,-0.06652769610742455,-0.029496320432790046,-0.008119903031202247,-0.054189933694624215,0,70,255.0,255.0,255.0
26,1.3,-7.520828822859074,-1.5055437352813894,-0.04359391934685101,-0.03328669109025095,-0.009070478542657117,-0.06922502025384546,-0.02786587430891445,-0.007686423376670681,-0.05370303216221191,0,70,255.0,255.0,255.0
27,1.35,-7.5225273104039205,-1.5060066866212205,-0.047122096274107544,-0.034639223652599783,-0.009443962720127362,-0.07189799932364575,-0.026235428185038854,-0.007252943722139115,-0.053216130629799595,0,70,255.0,255.0,255.0
28,1.4000000000000001,-7.524291386519231,-1.5064877703203567,-0.05078331352793857,-0.03591023390875484,-0.009795772914871029,-0.07454663331682541,-0.024604982061163256,-0.006819464067607549,-0.05272922909738729,0,70,255.0,255.0,255.0
29,1.4500000000000002,-7.526116975089694,-1.5069859026796621,-0.05457635385451308,-0.03709972185871611,-0.010125909126888117,-0.07717092223338447,-0.02297453593728766,-0.006385984413075983,-0.052242327564974975,0,70,255.0,255.0,255.0
30,1.5,-7.528,-1.5075,-0.0585,-0.03820768750248361,-0.010434371356178624,-0.07977086607332291,-0.021344089813412237,-0.0059525047585443774,-0.05175542603256267,0,70,255.0,255.0,255.0
31,1.55,-7.529937713089932,-1.5080292023298554,-0.06255355699755208,-0.03931380814565499,-0.010734584459986202,-0.08237780205566386,-0.022900735913443118,-0.006056019393758697,-0.052522013261075105,0,70,255.0,255.0,255.0
32,1.6,-7.531932678019649,-1.5085735447081947,-0.06673841902825682,-0.040497761093827925,-0.011039973295554494,-0.08502306739943043,-0.024457382013473996,-0.006159534028973015,-0.05328860048958755,0,70,255.0,255.0,255.0
33,1.6500000000000001,-7.533988786404398,-1.509133285921607,-0.07105650256018554,-0.041759546347002394,-0.011350537862883503,-0.08770666210462262,-0.026014028113504877,-0.006263048664187335,-0.05405518771809999,0,70,255.0,255.0,255.0
34,1.7000000000000002,-7.536109929859432,-1.509708684756679,-0.07550972406140952,-0.04309916390517841,-0.011666278161973229,-0.09042858617124043,-0.027570674213535755,-0.006366563299401654,-0.054821774946612424,0,70,255.0,255.0,255.0
35,1.75,-7.5383,-1.5103,-0.0801,-0.044516613768355966,-0.01198719419282367,-0.09318883959928385,-0.029127320313566518,-0.0064700779346159865,-0.05558836217512508,0,70,255.0,255.0,255.0
36,1.8,-7.540561924781195,-1.5109074553991901,-0.08482865266294076,-0.0459540763271283,-0.012311183617396434,-0.09595177152349917,-0.028371182037326702,-0.0064894990482945395,-0.054928914793487424,0,70,255.0,255.0,255.0
37,1.85,-7.542894777517482,-1.511531134546001,-0.08969462761286522,-0.04735373197208864,-0.012636144097653125,-0.09868173107863261,-0.027615043761086887,-0.006508920161973092,-0.05426946741184977,0,70,255.0,255.0,255.0
38,1.9000000000000001,-7.545296667863173,-1.512171085993217,-0.09469627623131933,-0.04871558070323699,-0.012962075633593742,-0.10137871826468414,-0.02685890548484707,-0.006528341275651645,-0.05361002003021211,0,70,255.0,255.0,255.0
39,1.9500000000000002,-7.5477657054725755,-1.5128273582936218,-0.09983194989984896,-0.05003962252057335,-0.01328897822521829,-0.10404273308165382,-0.026102767208607255,-0.006547762389330197,-0.05295057264857445,0,70,255.0,255.0,255.0
40,2.0,-7.5503,-1.5135,-0.1051,-0.05132585742409771,-0.01361685187252676,-0.10667377552954159,-0.025346628932367554,-0.006567183503008764,-0.052291125266936356,0,70,255.0,255.0,255.0
41,2.0500000000000003,-7.552897787785288,-1.5141889760733844,-0.11049903235068496,-0.05258188654583899,-0.013940681070428774,-0.10928711185033939,-0.024894535937283354,-0.006385984413071706,-0.05224232756497475,0,70,255.0,255.0,255.0
42,2.1,-7.555557811910422,-1.5148939171078013,-0.11602867052028232,-0.053815311017826044,-0.014255450313833932,-0.11189800828603907,-0.02444244294219916,-0.006204785323134651,-0.052193529863013156,0,70,255.0,255.0,255.0
43,2.15,-7.558278942142908,-1.5156143701055262,-0.12168879251453718,-0.0550261308400589,-0.014561159602742237,-0.11450646483664068,-0.023990349947114964,-0.006023586233197595,-0.05214473216105155,0,70,255.0,255.0,255.0
44,2.2,-7.5610600482502655,-1.5163498820688337,-0.12747927633919476,-0.05621434601253755,-0.01485780893715369,-0.11711248150214423,-0.023538256952030767,-0.005842387143260538,-0.05209593445908996,0,70,255.0,255.0,255.0
45,2.25,-7.5639,-1.5171,-0.1334,-0.05737995653526198,-0.015145398317068291,-0.11971605828254966,-0.023086163956946404,-0.00566118805332351,-0.0520471367571278,0,70,255.0,255.0,255.0
46,2.3000000000000003,-7.56679812407765,-1.5178646403072724,-0.13945121793431953,-0.058550377489523416,-0.015446092100886422,-0.1223397810751432,-0.023730674213510432,-0.006366563299401679,-0.05290177494661306,0,70,255.0,255.0,255.0
47,2.35,-7.569755574840833,-1.5186451970227937,-0.14563469030600557,-0.05975302395661303,-0.01578205464700846,-0.12500623577721098,-0.024375184470074453,-0.007071938545479843,-0.053756413136098316,0,70,255.0,255.0,255.0
48,2.4000000000000004,-7.572773963565192,-1.5194434335846783,-0.15195255371053187,-0.06098789593653086,-0.01615328595543441,-0.12771542238875302,-0.02501969472663848,-0.007777313791558013,-0.054611051325583575,0,70,255.0,255.0,255.0
49,2.45,-7.575854901526367,-1.520261113431042,-0.1584069447433721,-0.06225499342927688,-0.01655978602616426,-0.13046734090976936,-0.0256642049832025,-0.008482689037636177,-0.05546568951506883,0,70,255.0,255.0,255.0
50,2.5,-7.579,-1.5211,-0.165,-0.0635543164348511,-0.01700155485919802,-0.13326199134025987,-0.0263087152397663,-0.00918806428371427,-0.05632032770455431,0,70,255.0,255.0,255.0
51,2.5500000000000003,-7.582210515904112,-1.521961262697525,-0.17173289591203705,-0.06486460349606087,-0.01744295052602434,-0.13604176384908812,-0.026102767208624297,-0.00846776238933848,-0.054870572648574395,0,70,255.0,255.0,255.0
52,2.6,-7.585486288726247,-1.5228436948010236,-0.17860296825569552,-0.06616459315571353,-0.01784833109813187,-0.1387490486051173,-0.0258968191774823,-0.007747460494962698,-0.05342081759259449,0,70,255.0,255.0,255.0
53,2.6500000000000004,-7.588826803596325,-1.5237454955557597,-0.18560659264333548,-0.0674542854138091,-0.018217696575520612,-0.14138384560834757,-0.025690871146340298,-0.007027158600586909,-0.05197106253661458,0,70,255.0,255.0,255.0
54,2.7,-7.592231545644268,-1.5246648642069973,-0.19274014468731696,-0.06873368027034757,-0.018551046958190563,-0.14394615485877876,-0.0254849231151983,-0.006306856706211126,-0.05052130748063467,0,70,255.0,255.0,255.0
55,2.75,-7.5957,-1.5256,-0.2,-0.07000277772532892,-0.018848382246141722,-0.146435976356411,-0.0252789750840563,-0.005586554811835287,-0.04907155242465433,0,70,255.0,255.0,255.0
56,2.8000000000000003,-7.5992318123058995,-1.5265495089026266,-0.20738359841753243,-0.07127120852623142,-0.019134105795018903,-0.1489171635285046,-0.025458256952043356,-0.005842387143252016,-0.05017593445908859,0,70,255.0,255.0,255.0
57,2.85,-7.6028272702541795,-1.5275136237731113,-0.2148926366712125,-0.07254860342053326,-0.019432620960466922,-0.15145356980231986,-0.025637538820030413,-0.006098219474668743,-0.051280316493522854,0,70,255.0,255.0,255.0
58,2.9000000000000004,-7.60648682204951,-1.528492984192283,-0.22252987571612648,-0.07383496240823446,-0.019743927742485783,-0.1540451951778569,-0.025816820688017474,-0.006354051806085472,-0.052384698527957116,0,70,255.0,255.0,255.0
59,2.95,-7.61021091589656,-1.5294882297409695,-0.23029807650736023,-0.07513028548933501,-0.02006802614107547,-0.15669203965511558,-0.02599610255600453,-0.006609884137502199,-0.05348908056239137,0,70,255.0,255.0,255.0
60,3.0,-7.614,-1.5305,-0.2382,-0.07643457266383492,-0.020404916156236,-0.15939410323409597,-0.02617538442399192,-0.006865716468918925,-0.05459346259682585,0,70,255.0,255.0,255.0
61,3.0500000000000003,-7.617854234872288,-1.5315287016919683,-0.24623751041783346,-0.07773056239901437,-0.02074062629389988,-0.1620975820368934,-0.02566420498318542,-0.0065626890376363585,-0.053545689515069834,0,70,255.0,255.0,255.0
62,3.1,-7.621772630257034,-1.5325738101065305,-0.2544088850594545,-0.07900099316215346,-0.021061185059999637,-0.16474867218560296,-0.025153025542378925,-0.006259661606353794,-0.05249791643331383,0,70,255.0,255.0,255.0
63,3.1500000000000004,-7.625753908205636,-1.5336345676751089,-0.262711504492159,-0.08024586495325225,-0.02136659245453526,-0.1673473736802248,-0.024641846101572426,-0.005956634175071227,-0.051450143351557814,0,70,255.0,255.0,255.0
64,3.2,-7.629796790769492,-1.5347102168291247,-0.2711427492832422,-0.08146517777231072,-0.02165684847750676,-0.16989368652075873,-0.02413066666076593,-0.005653606743788663,-0.05040237026980181,0,70,255.0,255.0,255.0
65,3.25,-7.6339,-1.5358,-0.2797,-0.08265893161932886,-0.02193195312891413,-0.17238761070720493,-0.02361948721995999,-0.005350579312506182,-0.049354597188047133,0,70,255.0,255.0,255.0
66,3.3000000000000003,-7.6380624482049475,-1.5369036843295005,-0.28838155991113396,-0.08383854187770837,-0.022223389029382173,-0.174884508323922,-0.023564923115219915,-0.006306856706215391,-0.05052130748063553,0,70,255.0,255.0,255.0
67,3.35,-7.642283808717683,-1.5380231358007663,-0.2971894230909694,-0.08501542393085086,-0.02256263879953567,-0.17743974145526847,-0.02351035901047984,-0.007263134099924591,-0.05168801777322392,0,70,255.0,255.0,255.0
68,3.4000000000000004,-7.646563945127945,-1.5391607451072822,-0.30612650631523797,-0.08618957777875634,-0.02294970243937463,-0.18005331010124442,-0.023455794905739766,-0.0082194114936338,-0.05285472806581232,0,70,255.0,255.0,255.0
69,3.45,-7.650902721025472,-1.540318902942532,-0.31519572635967097,-0.08736100342142483,-0.02338457994889905,-0.1827252142618497,-0.023401230800999696,-0.009175688887343,-0.0540214383584007,0,70,255.0,255.0,255.0
70,3.5,-7.6553,-1.5415,-0.3244,-0.08852970085885632,-0.023867271328108924,-0.18545545393708443,-0.023346666696259954,-0.010131966281052174,-0.05518814865098798,0,70,255.0,255.0,255.0
71,3.5500000000000003,-7.659755972307922,-1.5427053609900303,-0.3337410499376311,-0.08971527009016263,-0.024333817588572674,-0.18817238466741887,-0.024076102555992112,-0.008529884137497704,-0.05348908056238967,0,70,255.0,255.0,255.0
72,3.6,-7.664272134872233,-1.5439320466904043,-0.34321582257666805,-0.09093731111445554,-0.024720259741858697,-0.1908043619933234,-0.024805538415724263,-0.006927801993943247,-0.05179001247379138,0,70,255.0,255.0,255.0
73,3.6500000000000004,-7.668850311282584,-1.5451760518957633,-0.35282007024688966,-0.09219582393173505,-0.025026597787967,-0.19335138591479803,-0.025534974275456417,-0.005325719850388776,-0.05009094438519307,0,70,255.0,255.0,255.0
74,3.7,-7.673492325128623,-1.546433371400748,-0.3625495452780741,-0.09349080854200119,-0.025252831726897573,-0.19581345643184273,-0.026264410135188567,-0.0037236377068343204,-0.04839187629659478,0,70,255.0,255.0,255.0
75,3.75,-7.6782,-1.5477,-0.3724,-0.09482226494525389,-0.02539896155865043,-0.1981905735444575,-0.026993845994920385,-0.00212155556327992,-0.04669280820799471,0,70,255.0,255.0,255.0
76,3.8000000000000003,-7.682974462563367,-1.5489732717103786,-0.38236864033834206,-0.09614837776164553,-0.025545340616327152,-0.2005699530064024,-0.026050666660744553,-0.0037336067437889614,-0.048482370269801546,0,70,255.0,255.0,255.0
77,3.85,-7.687814051793387,-1.5502558774376165,-0.39245848660235844,-0.09742733161132835,-0.025772322233029325,-0.20303881057143766,-0.02510748732656873,-0.005345657924297989,-0.050271932331608364,0,70,255.0,255.0,255.0
78,3.9000000000000004,-7.692716409741722,-1.5515518473096652,-0.40267401269720393,-0.0986591264943024,-0.026079906408756952,-0.20559714623956324,-0.0241643079923929,-0.0069577091048070305,-0.052061494393415196,0,70,255.0,255.0,255.0
79,3.95,-7.697679178460039,-1.552865211454476,-0.41301969252803294,-0.09984376241056764,-0.02646809314351003,-0.20824496001077916,-0.02322112865821708,-0.008569760285316058,-0.05385105645522202,0,70,255.0,255.0,255.0
80,4.0,-7.7027,-1.5542,-0.4235,-0.1009812393601241,-0.026936882437288555,-0.2109822518850854,-0.022277949324041035,-0.01018181146582503,-0.055640618517029505,0,70,255.0,255.0,255.0
81,4.05,-7.70777737743861,-1.5555591521684557,-0.4341179887090011,-0.10212321886325054,-0.02742081994611775,-0.2137238033069712,-0.02340123080101692,-0.00917568888734294,-0.054021438358401945,0,70,255.0,255.0,255.0
82,4.1000000000000005,-7.712913257954223,-1.5569412435591299,-0.44487103101389835,-0.1033213624402258,-0.027854451326022853,-0.2163843957209256,-0.02452451227799283,-0.008169566308860832,-0.05240225819977436,0,70,255.0,255.0,255.0
83,4.15,-7.718110449750531,-1.558343758865576,-0.4557550789642949,-0.10457567009104984,-0.02823777657700384,-0.21896402912694862,-0.025647793754968715,-0.007163443730378742,-0.050783078041146804,0,70,255.0,255.0,255.0
84,4.2,-7.723371761031225,-1.559764182781348,-0.46676608460979435,-0.10588614181572266,-0.028570795699060722,-0.22146270352504027,-0.0267710752319446,-0.006157321151896652,-0.04916389788251924,0,70,255.0,255.0,255.0
85,4.25,-7.7287,-1.5612,-0.4779,-0.10725277761424427,-0.028853508692193504,-0.22388041891520055,-0.027894356708920598,-0.005151198573414673,-0.04754471772389168,0,70,255.0,255.0,255.0
86,4.3,-7.734096827682192,-1.5626493196157987,-0.4891538048256535,-0.10860674678534742,-0.02912337959919983,-0.22627883376571267,-0.026264410135205578,-0.005643637706838454,-0.04839187629659394,0,70,255.0,255.0,255.0
87,4.3500000000000005,-7.739559316389723,-1.5641127483258643,-0.5005285893420487,-0.10987921862776484,-0.029417872462877352,-0.22871960654485998,-0.024634463561490533,-0.006136076840262244,-0.049239034869296205,0,70,255.0,255.0,255.0
88,4.4,-7.745083391256158,-1.5655915172280308,-0.5120264714456169,-0.11107019314149648,-0.029736987283226057,-0.23120273725264232,-0.023004516987775513,-0.006628515973686026,-0.05008619344199845,0,70,255.0,255.0,255.0
89,4.45,-7.750664977415061,-1.5670868574201315,-0.5236495690327899,-0.11217967032654239,-0.030080724060245954,-0.2337282258890598,-0.021374570414060497,-0.007120955107109807,-0.05093335201470071,0,70,255.0,255.0,255.0
90,4.5,-7.7563,-1.5686,-0.5354,-0.11320765018290255,-0.030449082793937036,-0.23629607245411235,-0.019744623840345588,-0.007613394240533533,-0.051780510587402295,0,70,255.0,255.0,255.0
91,4.55,-7.76198571183262,-1.5701315693683495,-0.5472795919883847,-0.1142337939953663,-0.030805661657083278,-0.23888886163017792,-0.021301128658204365,-0.006649760285316201,-0.051931056455221156,0,70,255.0,255.0,255.0
92,4.6000000000000005,-7.767724676486885,-1.5716797631374122,-0.5592890116179078,-0.115337763048723,-0.03111405882246866,-0.2414891780996345,-0.02285763347606317,-0.005686126330098852,-0.05208160232304002,0,70,255.0,255.0,255.0
93,4.65,-7.77352078522484,-1.5732421722223005,-0.5714286352532382,-0.11651955734297262,-0.03137427429009317,-0.24409702186248194,-0.02441413829392195,-0.00472249237488152,-0.05223214819085888,0,70,255.0,255.0,255.0
94,4.7,-7.779377929308531,-1.5748163875381258,-0.5836988392590456,-0.11777917687811518,-0.03158630805995681,-0.24671239291872038,-0.02597064311178073,-0.003758858419664187,-0.05238269405867775,0,70,255.0,255.0,255.0
95,4.75,-7.7853,-1.5764,-0.5961,-0.11911662165415067,-0.031750160132059585,-0.2493352912683497,-0.027527147929639173,-0.0027952244644469104,-0.05253323992649728,0,70,255.0,255.0,255.0
96,4.800000000000001,-7.791289924987329,-1.5779916029108034,-0.6086318272208074,-0.12047407723318986,-0.03192597377246808,-0.2519257197135752,-0.02677107523192742,-0.004237321151892702,-0.05108389788252168,0,70,255.0,255.0,255.0
97,4.8500000000000005,-7.797346777662738,-1.5795937991244866,-0.6212913641863209,-0.12179372917734343,-0.032173892247248856,-0.2544436810566019,-0.026015002534215684,-0.005679417839338468,-0.04963455583854611,0,70,255.0,255.0,255.0
98,4.9,-7.803468667844482,-1.5812101938827678,-0.6340749875414309,-0.12307557748661141,-0.03249391555640192,-0.2568891752974298,-0.025258929836503945,-0.007121514526784233,-0.04818521379457054,0,70,255.0,255.0,255.0
99,4.95,-7.809653705350817,-1.582844392427366,-0.6469790739310273,-0.12431962216099382,-0.03288604369992728,-0.25926220243605896,-0.02450285713879221,-0.008563611214229999,-0.046735871750594966,0,70,255.0,255.0,255.0
100,5.0,-7.8159,-1.5845,-0.66,-0.1255258632004906,-0.03335027667782491,-0.26156276247248933,-0.02374678444108036,-0.010005707901675598,-0.04528652970661806,0,70,255.0,255.0,255.0
101,5.050000000000001,-7.822205788218065,-1.5861796189884374,-0.6731354991283863,-0.12670189707186946,-0.03382644325304455,-0.26387225951552223,-0.023294570414073273,-0.009040955107109514,-0.04709335201469769,0,70,255.0,255.0,255.0
102,5.1000000000000005,-7.828569812862164,-1.5878818403646424,-0.686388731636809,-0.12785532024189794,-0.034254372188535866,-0.26627209767395915,-0.022842356387066193,-0.008076202312543447,-0.04890017432277729,0,70,255.0,255.0,255.0
103,5.15,-7.834990943397233,-1.5896042522466287,-0.6997642145810389,-0.1289861327105761,-0.03463406348429889,-0.26876227694779997,-0.022390142360059116,-0.0071114495179773795,-0.050706996630856885,0,70,255.0,255.0,255.0
104,5.2,-7.841468049288199,-1.59134444275241,-0.7132664650168458,-0.13009433447790383,-0.0349655171403336,-0.2713427973370448,-0.021937928333052036,-0.006146696723411312,-0.05251381893893648,0,70,255.0,255.0,255.0
105,5.25,-7.848,-1.5931,-0.7269,-0.1311799255438813,-0.03524873315664001,-0.27401365884169354,-0.021485714306046066,-0.00518194392884519,-0.054320641247014745,0,70,255.0,255.0,255.0
106,5.300000000000001,-7.854586122140413,-1.5948691211354475,-0.7406677762656484,-0.13227033447932723,-0.035520253215352855,-0.2766812422243359,-0.022130643111789815,-0.005678858419668316,-0.052382694058677855,0,70,255.0,255.0,255.0
107,5.3500000000000005,-7.861227570888604,-1.5966524394169443,-0.7545665092664435,-0.1333929898550603,-0.035816618998606845,-0.27925192824756134,-0.02277557191753355,-0.0061757729104914335,-0.050444746870341,0,70,255.0,255.0,255.0
108,5.4,-7.86792595856659,-1.5984511971307174,-0.7685913541344143,-0.13454789167108056,-0.03613783050640199,-0.28172571691137,-0.023420500723277286,-0.006672687401314551,-0.04850679968200414,0,70,255.0,255.0,255.0
109,5.45,-7.874682897496384,-1.6002666365629934,-0.78273746600159,-0.13573503992738803,-0.0364838877387383,-0.2841026082157618,-0.024065429529021024,-0.007169601892137669,-0.04656885249366728,0,70,255.0,255.0,255.0
110,5.5,-7.8815,-1.6021,-0.797,-0.13695443462398268,-0.036854790695615765,-0.2863826021607367,-0.024710358334764537,-0.007666516382960953,-0.044630905305331314,0,70,255.0,255.0,255.0
111,5.550000000000001,-7.888378523220285,-1.6039518964697728,-0.811375795809021,-0.1381847650108216,-0.037212543885545436,-0.2886667715871349,-0.024502857138791655,-0.006643611214225872,-0.046735871750595355,0,70,255.0,255.0,255.0
112,5.6000000000000005,-7.895318303583419,-1.6058204019675806,-0.825868431297418,-0.13940472033786186,-0.037519151817038354,-0.29105618933579624,-0.024295355942818772,-0.005620706045490809,-0.04884083819585936,0,70,255.0,255.0,255.0
113,5.65,-7.902318822336409,-1.6077029592305025,-0.8404831688813049,-0.1406143006051035,-0.037774614490094525,-0.2935508554067208,-0.024087854746845893,-0.004597800876755746,-0.05094580464112336,0,70,255.0,255.0,255.0
114,5.7,-7.909379560726266,-1.6095970109956164,-0.8552252709767945,-0.14181350581254643,-0.03797893190471393,-0.29615076979990856,-0.02388035355087301,-0.0035748957080206827,-0.053050771086387366,0,70,255.0,255.0,255.0
115,5.75,-7.9165,-1.6115,-0.8701,-0.14300233596019074,-0.038132104060896586,-0.29885593251535947,-0.02367285235489991,-0.00255199053928562,-0.05515573753165004,0,70,255.0,255.0,255.0
116,5.800000000000001,-7.923679784978444,-1.613410492985462,-0.885110640498269,-0.14419060547738946,-0.038301571242464014,-0.3015476714271242,-0.023857928333048232,-0.004226696723411462,-0.05251381893893519,0,70,255.0,255.0,255.0
117,5.8500000000000005,-7.930919214777721,-1.6153315527127332,-0.9002525655438852,-0.14538812879349558,-0.03855477373323773,-0.30410731440925304,-0.02404300431119655,-0.0059014029075372745,-0.049871900346220396,0,70,255.0,255.0,255.0
118,5.9,-7.938218752087776,-1.6172673659472727,-0.915519170340367,-0.1465949059085091,-0.03889171153321774,-0.3065348614617462,-0.024228080289344867,-0.007576109091663087,-0.047229981753505595,0,70,255.0,255.0,255.0
119,5.95,-7.9455788595985535,-1.6192221194545418,-0.9309038500912326,-0.14781093682243007,-0.03931238464240404,-0.30883031258460353,-0.024413156267493186,-0.009250815275788898,-0.044588063160790795,0,70,255.0,255.0,255.0
120,6.0,-7.953,-1.6212,-0.9464,-0.14903622153525842,-0.03981679306079663,-0.3109936677778252,-0.024598232245641505,-0.010925521459914822,-0.04194614456807333,0,70,255.0,255.0,255.0
121,6.050000000000001,-7.960482336865938,-1.6232037315883783,-0.962003242197904,-0.15025281307962457,-0.04031717114459805,-0.3131585427043688,-0.024065429529004048,-0.009089601892141837,-0.044648852493669226,0,70,255.0,255.0,255.0
122,6.1000000000000005,-7.968024837305699,-1.6252301871814867,-0.9777181065270417,-0.15144276448815885,-0.040725753250010814,-0.31545855302719217,-0.023532626812366602,-0.007253682324368885,-0.047351560419265075,0,70,255.0,255.0,255.0
123,6.15,-7.97562616931249,-1.6272747769804061,-0.9935513497572277,-0.15260607576086122,-0.041042539377034934,-0.3178936987462953,-0.022999824095729156,-0.005417762756595932,-0.05005426834486093,0,70,255.0,255.0,255.0
124,6.2,-7.983285000879521,-1.629332911186217,-1.0095097286582757,-0.15374274689773176,-0.04126752952567041,-0.32046397986167824,-0.02246702137909171,-0.0035818431888229793,-0.05275697627045678,0,70,255.0,255.0,255.0
125,6.25,-7.991,-1.6314,-1.0256,-0.15485277789877036,-0.041400723695917234,-0.3231693963733409,-0.021934218662453597,-0.0017459236210502493,-0.05545968419604952,0,70,255.0,255.0,255.0
126,6.300000000000001,-7.998770067557803,-1.6334729806610249,-1.0418267907101166,-0.15595014220410405,-0.041533744179143905,-0.3258821577554018,-0.021960353550894186,-0.003574895708016516,-0.05305077108638395,0,70,255.0,255.0,255.0
127,6.3500000000000005,-8.006595035999483,-1.6355548985613202,-1.058186208347949,-0.1570488132538598,-0.041758213266718885,-0.32847447348197933,-0.021986488439334772,-0.00540386779498275,-0.05064185797671843,0,70,255.0,255.0,255.0
128,6.4,-8.014474970662263,-1.6376503261311026,-1.074672230630723,-0.15814879104803753,-0.042074130958642174,-0.3309463435530736,-0.02201262332777536,-0.007232839881948985,-0.0482329448670529,0,70,255.0,255.0,255.0
129,6.45,-8.022409936883362,-1.6397638358005902,-1.0912788352756646,-0.15925007558663734,-0.04248149725491378,-0.3332977679686846,-0.022038758216215946,-0.009061811968915218,-0.045824031757387376,0,70,255.0,255.0,255.0
130,6.5,-8.0304,-1.6419,-1.108,-0.1603526668696591,-0.042980312155533704,-0.3355287467288123,-0.022064893104656313,-0.010890784055881508,-0.04341511864771963,0,70,255.0,255.0,255.0
131,6.550000000000001,-8.03844539290285,-1.6440619457675216,-1.1248311949616312,-0.16146661810396257,-0.04348385213882558,-0.337728826274025,-0.02249315626748079,-0.009250815275793122,-0.044588063160787623,0,70,255.0,255.0,255.0
132,6.6000000000000005,-8.046547018696367,-1.6462470185732323,-1.1417738600811638,-0.16260198249640717,-0.04390539368311302,-0.3399875530448911,-0.022921419430305262,-0.007610846495704765,-0.045761007673855596,0,70,255.0,255.0,255.0
133,6.65,-8.054705948038459,-1.6484511184951824,-1.158830927719881,-0.16375876004699305,-0.04424493678839605,-0.3423049270414105,-0.02334968259312973,-0.005970877715616407,-0.04693395218692356,0,70,255.0,255.0,255.0
134,6.7,-8.062923251587033,-1.6506701456114221,-1.1760053302390654,-0.16493695075572015,-0.04450248145467466,-0.3446809482635834,-0.0237779457559542,-0.004330908935528049,-0.04810689669999153,0,70,255.0,255.0,255.0
135,6.75,-8.0712,-1.6529,-1.1933,-0.16613655462258844,-0.044678027681948854,-0.3471156167114097,-0.02420620891877845,-0.0026909401554394696,-0.04927984121305906,0,70,255.0,255.0,255.0
136,6.800000000000001,-8.079537160830801,-1.6551376362688892,-1.210717229443361,-0.16735138538003552,-0.04483484726555531,-0.34957053714849773,-0.024387021379103983,-0.0035818431888187245,-0.04891697627045781,0,70,255.0,255.0,255.0
137,6.8500000000000005,-8.087935289215054,-1.6573842271457502,-1.2282567513273976,-0.16857525676049886,-0.04503621200083072,-0.3520073143384555,-0.024567833839429513,-0.004472746222197964,-0.04855411132785656,0,70,255.0,255.0,255.0
138,6.9,-8.096394837183903,-1.6596419998881666,-1.2459176584897542,-0.16980816876397847,-0.045282121887775105,-0.3544259482812833,-0.02474864629975504,-0.005363649255577203,-0.048191246385255314,0,70,255.0,255.0,255.0
139,6.95,-8.104916256768503,-1.661913181753722,-1.2636990437680737,-0.17105012139047435,-0.04557257692638844,-0.356826438976981,-0.02492945876008057,-0.006254552288956442,-0.04782838144265406,0,70,255.0,255.0,255.0
140,7.0,-8.1135,-1.6642,-1.2816,-0.1723011146399865,-0.04590757711667074,-0.35920878642554865,-0.025110271220405656,-0.007145455322335514,-0.0474655165000506,0,70,255.0,255.0,255.0
141,7.050000000000001,-8.122145963773939,-1.6665043091569225,-1.2996198872649267,-0.17352784037590194,-0.04626475879895202,-0.3615890251319846,-0.0239587582162111,-0.00714181196891549,-0.04774403175738549,0,70,255.0,255.0,255.0
142,7.1000000000000005,-8.13085182444342,-1.6688264728437672,-1.3177591346092465,-0.17469699046160764,-0.04662175831356229,-0.3639831896012872,-0.022807245212016568,-0.007138168615495466,-0.048022547014720376,0,70,255.0,255.0,255.0
143,7.15,-8.13961470322593,-1.6711664819521508,-1.3360184383211031,-0.17580856489710361,-0.046978575660501565,-0.3663912798334566,-0.021655732207822034,-0.007134525262075442,-0.048301062272055266,0,70,255.0,255.0,255.0
144,7.2,-8.148431721338959,-1.6735243273736895,-1.3543984946886398,-0.17686256368238984,-0.04733521083976984,-0.36881329582849276,-0.0205042192036275,-0.007130881908655418,-0.04857957752939015,0,70,255.0,255.0,255.0
145,7.25,-8.1573,-1.6759,-1.3729,-0.17785898681746634,-0.04769166385136711,-0.37124923758639555,-0.019352706199432967,-0.007127238555235116,-0.04885809278672193,0,70,255.0,255.0,255.0
146,7.300000000000001,-8.166217384073438,-1.678293127103421,-1.391523221496934,-0.17884125311635124,-0.048026117538636295,-0.3736733623235634,-0.019937945755963023,-0.0062509089355318945,-0.048106896699991075,0,70,255.0,255.0,255.0
147,7.3500000000000005,-8.175184613011265,-1.6807018814791808,-1.4102667102356177,-0.17985278139306266,-0.04831675474492031,-0.3760599272563947,-0.02052318531249307,-0.005374579315828689,-0.047355700613260235,0,70,255.0,255.0,255.0
148,7.4,-8.184203149912372,-1.6831240723032297,-1.4291285882258344,-0.18089357164760056,-0.04856357547021915,-0.37840893238488943,-0.021108424869023118,-0.004498249696125483,-0.046604504526529394,0,70,255.0,255.0,255.0
149,7.45,-8.193274457875656,-1.6855575087515193,-1.4481069774773674,-0.18196362387996495,-0.04876657971453285,-0.3807203777090476,-0.021693664425553164,-0.003621920076422277,-0.045853308439798554,0,70,255.0,255.0,255.0
150,7.5,-8.2024,-1.688,-1.4672,-0.18306293809015584,-0.048925767477861384,-0.38299426322886926,-0.0222789039820821,-0.0027455904567189604,-0.0451021123530686,0,70,255.0,255.0,255.0
151,7.550000000000001,-8.21158129993231,-1.690450382429394,-1.4864064267473391,-0.18419514715871002,-0.04910277104650317,-0.3852695255737624,-0.023009458760084565,-0.004334552288952321,-0.04590838144265411,0,70,255.0,255.0,255.0
152,7.6000000000000005,-8.220820123511519,-1.6929116012395105,-1.5057276244482845,-0.18536388396616432,-0.04935922270675662,-0.3875851013731347,-0.02374001353808702,-0.005923514121185653,-0.04671465053223961,0,70,255.0,255.0,255.0
153,7.65,-8.230118297124575,-1.6953876288349299,-1.5251656087755605,-0.1865691485125187,-0.04969512245862173,-0.3899409906269863,-0.024470568316089476,-0.007512475953418985,-0.0475209196218251,0,70,255.0,255.0,255.0
154,7.7,-8.23947764715842,-1.6978824376202328,-1.544722395401891,-0.18781094079777325,-0.05011047030209852,-0.3923371933353172,-0.025201123094091928,-0.009101437785652318,-0.0483271887114106,0,70,255.0,255.0,255.0
155,7.75,-8.2489,-1.7004,-1.5644,-0.18908926082192792,-0.05060526623718697,-0.3947737094981274,-0.02593167787209416,-0.010690399617885593,-0.04913345780099654,0,70,255.0,255.0,255.0
156,7.800000000000001,-8.258386216197326,-1.7029429431790026,-1.5841998715137113,-0.19034615824881992,-0.0510987982753506,-0.39721653538138707,-0.024344219203584427,-0.009050881908659335,-0.048579577529388365,0,70,255.0,255.0,255.0
157,7.8500000000000005,-8.26793329294266,-1.7055085135627774,-1.604121191971246,-0.1915236827422864,-0.05151035442805291,-0.39963166725106625,-0.02275676053507472,-0.007411364199433106,-0.048025697257780206,0,70,255.0,255.0,255.0
158,7.9,-8.27753726158933,-1.7080926123570503,-1.624162576671925,-0.19262183430232735,-0.05183993469529391,-0.4020191051071651,-0.021169301866565016,-0.0057718464902068774,-0.04747181698617204,0,70,255.0,255.0,255.0
159,7.95,-8.287194153490669,-1.710691140767549,-1.6443226409150693,-0.19364061292894286,-0.05208753907707359,-0.40437884894968346,-0.01958184319805531,-0.004132328780980648,-0.046917936714563874,0,70,255.0,255.0,255.0
160,8.0,-8.2969,-1.7133,-1.6646,-0.1945800186221329,-0.052253167573391976,-0.4067108987786214,-0.017994384529544716,-0.002492811071754475,-0.04636405644295438,0,70,255.0,255.0,255.0
161,8.05,-8.306652235278392,-1.7159162448545946,-1.684993287197817,-0.19552421984601046,-0.05240603585209629,-0.4090163329006902,-0.019773664425556774,-0.003621920076417989,-0.04585330843979855,0,70,255.0,255.0,255.0
162,8.1,-8.31645390471785,-1.7185415445093803,-1.7055012076667329,-0.19655738506468856,-0.05261535958103377,-0.4112962296226012,-0.021552944321568766,-0.004751029081081462,-0.04534256043664273,0,70,255.0,255.0,255.0
163,8.15,-8.326309456518107,-1.7211787217368686,-1.726122484536741,-0.19767951427816732,-0.052881138760204435,-0.4135505889443545,-0.023332224217580824,-0.005880138085744976,-0.044831812433486905,0,70,255.0,255.0,255.0
164,8.200000000000001,-8.336223338878913,-1.723830599309571,-1.7468558409378332,-0.19889060748644669,-0.05320337338960828,-0.41577941086594994,-0.025111504113592878,-0.00700924709040849,-0.04432106443033107,0,70,255.0,255.0,255.0
165,8.25,-8.3462,-1.7265,-1.7677,-0.2001906646895266,-0.053582063469245274,-0.4179826953873875,-0.026890784009604873,-0.008138356095071464,-0.04381031642717481,0,70,255.0,255.0,255.0
166,8.3,-8.356242442689107,-1.7291888774026187,-1.7886541796950222,-0.2014929623671199,-0.05396505831626337,-0.4201901330158521,-0.02520112309412623,-0.007181437785652342,-0.04448718871140756,0,70,255.0,255.0,255.0
167,8.35,-8.366347888185947,-1.7318957083997017,-1.809719577361822,-0.2027107769989392,-0.05430020724781051,-0.42243141425852826,-0.02351146217864765,-0.006224519476233255,-0.04516406099564029,0,70,255.0,255.0,255.0
168,8.4,-8.376512112338238,-1.7346181006954753,-1.8308978851811117,-0.20384410858498464,-0.054587510263886696,-0.4247065391154161,-0.021821801263169002,-0.005267601166814133,-0.04584093327987305,0,70,255.0,255.0,255.0
169,8.450000000000001,-8.386730890993684,-1.7373536619941659,-1.852190795333601,-0.20489295712525613,-0.05482696736449193,-0.42701550758651563,-0.020132140347690362,-0.0043106828573950115,-0.0465178055641058,0,70,255.0,255.0,255.0
170,8.5,-8.397,-1.7401,-1.8736,-0.2058573226197537,-0.0550185785496262,-0.42935831967182675,-0.018442479432212,-0.0033537645479761458,-0.047194677848338085,0,70,255.0,255.0,255.0
171,8.55,-8.40731639396518,-1.74285544553493,-1.8951267940220962,-0.2068079306855104,-0.05520573088285023,-0.4317111350358994,-0.01958184319805493,-0.004132328780985173,-0.04691793671456698,0,70,255.0,255.0,255.0
172,8.6,-8.417681742538358,-1.7456212218918126,-1.9167708828859782,-0.2078155069395592,-0.055431811427724714,-0.4340501133432834,-0.02072120696389782,-0.004910893013994172,-0.046641195580795894,0,70,255.0,255.0,255.0
173,8.65,-8.428098894128942,-1.74839927548123,-1.938531574738813,-0.20888005138190016,-0.05569682018424965,-0.43637525459397897,-0.021860570729740757,-0.005689457247003199,-0.04636445444702479,0,70,255.0,255.0,255.0
174,8.700000000000001,-8.438570697146352,-1.751191552713765,-1.9604081777277653,-0.2100015640125333,-0.05600075715242504,-0.438686558787986,-0.022999934495583685,-0.006468021480012225,-0.04608771331325369,0,70,255.0,255.0,255.0
175,8.75,-8.4491,-1.754,-1.9824,-0.21118004483145855,-0.056343622332250876,-0.4409840259253044,-0.024139298261426356,-0.007246585713021059,-0.04581097217948127,0,70,255.0,255.0,255.0
176,8.8,-8.459688781450172,-1.7568261404576613,-2.0045066442165944,-0.21236331489083332,-0.0567000181523365,-0.44328532684054983,-0.02319150411356293,-0.007009247090403821,-0.04624106443033398,0,70,255.0,255.0,255.0
177,8.85,-8.470335541660626,-1.759669804033048,-2.0267288910942636,-0.21349919524281485,-0.057044547041291256,-0.44560813236833774,-0.022243709965699538,-0.006771908467786593,-0.04667115668118668,0,70,255.0,255.0,255.0
178,8.9,-8.481037911145997,-1.7625303973796047,-2.049067815863637,-0.21458768588740323,-0.05737720899911516,-0.4479524425086685,-0.021295915817836113,-0.006534569845169356,-0.0471012489320394,0,70,255.0,255.0,255.0
179,8.950000000000001,-8.491793520420911,-1.7654073271507742,-2.0715244937553403,-0.2156287868245985,-0.0576980040258082,-0.45031825726154173,-0.02034812166997269,-0.0062972312225521195,-0.047531341182892116,0,70,255.0,255.0,255.0
180,9.0,-8.5026,-1.7683,-2.0941,-0.21662249805440048,-0.05800693212137036,-0.45270557662695765,-0.019400327522109073,-0.006059892599934835,-0.04796143343374659,0,70,255.0,255.0,255.0
181,9.05,-8.513455680234134,-1.771207992634426,-2.1167946291115283,-0.21761080975114636,-0.05831419650780361,-0.4550675576019038,-0.020132140347724824,-0.006230682857394956,-0.046517805564098305,0,70,255.0,255.0,255.0
182,9.1,-8.524361690819136,-1.774131561975995,-2.1396055527369655,-0.21863571208917296,-0.058630000407109854,-0.45735735718336745,-0.020863953173340548,-0.00640147311485507,-0.04507417769445007,0,70,255.0,255.0,255.0
183,9.15,-8.535319861287071,-1.777071135000351,-2.1625291618066402,-0.21969720506848037,-0.05895434381928912,-0.4595749753713488,-0.021595765998956303,-0.006572263372315192,-0.04363054982480178,0,70,255.0,255.0,255.0
184,9.200000000000001,-8.546332021170006,-1.7800271386831383,-2.1855618472508764,-0.22079528868906861,-0.059287226744341386,-0.46172041216584775,-0.02232757882457205,-0.006743053629775312,-0.04218692195515349,0,70,255.0,255.0,255.0
185,9.25,-8.5574,-1.783,-2.2087,-0.22192996295093761,-0.059628649182266645,-0.4637936675668642,-0.023059391650187555,-0.006913843887235205,-0.0407432940855057,0,70,255.0,255.0,255.0
186,9.3,-8.568525297613293,-1.785989889004636,-2.2319412393372953,-0.22308144610458192,-0.05996319581644794,-0.4658684427518333,-0.02299993449558353,-0.006468021480016356,-0.0422477133132577,0,70,255.0,255.0,255.0
187,9.35,-8.579708095062829,-1.788995948062972,-2.2552880979578727,-0.22422995640049598,-0.06027545133026828,-0.46801843889818995,-0.022940477340979506,-0.006022199072797521,-0.04375213254100964,0,70,255.0,255.0,255.0
188,9.4,-8.590948243705716,-1.79201706261899,-2.278744336909804,-0.22537549383867983,-0.06056541572372769,-0.47024365600593426,-0.022881020186375476,-0.005576376665578672,-0.04525655176876163,0,70,255.0,255.0,255.0
189,9.450000000000001,-8.602245594899069,-1.7950521181166723,-2.302313717241157,-0.22651805841913356,-0.06083308899682616,-0.4725440940750662,-0.02282156303177145,-0.005130554258359822,-0.04676097099651363,0,70,255.0,255.0,255.0
190,9.5,-8.6136,-1.7981,-2.326,-0.227657650141857,-0.061078471149563676,-0.4749197531055856,-0.022762105877166983,-0.004684731851141044,-0.04826539022426557,0,70,255.0,255.0,255.0
191,9.55,-8.625011129312686,-1.8011596513470303,-2.349806013539293,-0.22878340583053536,-0.06130502022640591,-0.47731467139076467,-0.02226812166996787,-0.004377231222548046,-0.04753134118289698,0,70,255.0,255.0,255.0
192,9.600000000000001,-8.63647792892955,-1.804230245772117,-2.3737308554315426,-0.22988446230885382,-0.06151619427181849,-0.47967288722387535,-0.02177413746276876,-0.004069730593955048,-0.04679729214152839,0,70,255.0,255.0,255.0
193,9.65,-8.647999163890066,-1.8073110145236881,-2.397772690554146,-0.23096081957681225,-0.06171199328580141,-0.48199440060491755,-0.021280153255569662,-0.0037622299653620604,-0.04606324310015983,0,70,255.0,255.0,255.0
194,9.700000000000001,-8.659573599233722,-1.8104011888501732,-2.4219296837844997,-0.23201247763441077,-0.0618924172683547,-0.4842792115338913,-0.02078616904837055,-0.0034547293367690624,-0.04532919405879124,0,70,255.0,255.0,255.0
195,9.75,-8.6712,-1.8135,-2.4462,-0.23303943648164926,-0.062057466219478316,-0.48652732001079657,-0.02029218484116946,-0.003147228708175853,-0.044595145017421345,0,70,255.0,255.0,255.0
196,9.8,-8.682877385135962,-1.816607505607243,-2.4705819065055366,-0.23405693057329205,-0.0622567232779271,-0.48874487168511066,-0.020407578824541875,-0.004823053629775355,-0.04410692195514069,0,70,255.0,255.0,255.0
197,9.850000000000001,-8.694605789218985,-1.8197270688485607,-2.49507408031596,-0.23508019436410346,-0.06253977158245586,-0.4909380122063107,-0.020522972807914288,-0.006498878551374857,-0.04361869889286004,0,70,255.0,255.0,255.0
198,9.9,-8.706385500734024,-1.8228628792862567,-2.5196753008736152,-0.23610922785408348,-0.06290661113306457,-0.4931067415743966,-0.0206383667912867,-0.0081747034729743,-0.043130475830579405,0,70,255.0,255.0,255.0
199,9.950000000000001,-8.718216808166044,-1.826019126482635,-2.5443843476208476,-0.23714403104323215,-0.0633572419297533,-0.4952510597893686,-0.020753760774659118,-0.009850528394573801,-0.04264225276829875,0,70,255.0,255.0,255.0
200,10.0,-8.7301,-1.8292,-2.5692,-0.23818460393154942,-0.06389166397252195,-0.4973709668512265,-0.02086915475803175,-0.011526353316173021,-0.042154029706019,0,70,255.0,255.0,255.0
201,10.05,-8.742035330143473,-1.8324079262239974,-2.5941215604385652,-0.23922887187629463,-0.06440408666188538,-0.4994978418687901,-0.020901563031776104,-0.008970554258363647,-0.04292097099652318,0,70,255.0,255.0,255.0
202,10.100000000000001,-8.754022914194525,-1.8356382788336403,-2.6191504233046214,-0.24027476023472705,-0.06478871939835833,-0.5016630639508789,-0.020933971305520462,-0.006414755200554272,-0.043687912287027356,0,70,255.0,255.0,255.0
203,10.15,-8.766062833173839,-1.838884668331285,-2.644288505951395,-0.24132226900684667,-0.0650455621819408,-0.5038666330974928,-0.020966379579264817,-0.0038589561427449888,-0.0444548535775315,0,70,255.0,255.0,255.0
204,10.200000000000001,-8.778155168102105,-1.8421407052192862,-2.669537725732113,-0.24237139819265352,-0.06517461501263283,-0.506108549308632,-0.02099878785300917,-0.001303157084935615,-0.045221794868035674,0,70,255.0,255.0,255.0
205,10.25,-8.7903,-1.8454,-2.6949,-0.24342214779214758,-0.06517587789043436,-0.5083888125842964,-0.021031196126753526,0.0012526419728740024,-0.04598873615853982,0,70,255.0,255.0,255.0
206,10.3,-8.80249729429015,-1.8486583894967679,-2.7203766517402053,-0.24446758192152654,-0.06518293007453163,-0.5106717608397296,-0.020786169048403687,-0.0015347293367649457,-0.04532919405879027,0,70,255.0,255.0,255.0
207,10.350000000000001,-8.814746554002923,-1.851920615816878,-2.7459666264655573,-0.24550076469698795,-0.06532935082411084,-0.5129217319901755,-0.02054114197005385,-0.004322100646403894,-0.04466965195904071,0,70,255.0,255.0,255.0
208,10.4,-8.827047166570617,-1.855193647388604,-2.771668275320806,-0.2465216961185319,-0.06561514013917201,-0.5151387260356337,-0.02029611489170402,-0.007109471956042742,-0.044010109859291185,0,70,255.0,255.0,255.0
209,10.450000000000001,-8.839398519425542,-1.8584844526402198,-2.797479949450704,-0.2475303761861584,-0.06604029801971513,-0.5173227429761045,-0.020051087813354178,-0.00989684326568169,-0.04335056775954163,0,70,255.0,255.0,255.0
210,10.5,-8.8518,-1.8618,-2.8234,-0.24852680489986734,-0.06660482446574018,-0.5194737828115878,-0.01980606073500457,-0.012684214575320762,-0.04269102565979033,0,70,255.0,255.0,255.0
211,10.55,-8.864251492695928,-1.8651449157889308,-2.849427032600616,-0.2495408004376081,-0.06716819303998765,-0.5216071147722902,-0.020753760774625197,-0.009850528394578055,-0.0426422527682984,0,70,255.0,255.0,255.0
212,10.600000000000001,-8.876754869793794,-1.8685144578988482,-2.8755606708331536,-0.2506021809773299,-0.06758987730519798,-0.5237380080884178,-0.021701460814245826,-0.0070168422138353476,-0.042593479876806485,0,70,255.0,255.0,255.0
213,10.65,-8.889312500543696,-1.8719015421143002,-2.9018007927653815,-0.2517109465190327,-0.06786987726137118,-0.5258664627599707,-0.02264916085386642,-0.004183156033092741,-0.04254470698531456,0,70,255.0,255.0,255.0
214,10.700000000000001,-8.901926754195733,-1.8752990842198345,-2.928147276465074,-0.25286709706271654,-0.06800819290850726,-0.5279924787869492,-0.023596860893487046,-0.0013494698523500333,-0.042495934093822636,0,70,255.0,255.0,255.0
215,10.75,-8.9146,-1.8787,-2.9546,-0.2540706326083813,-0.06800482424660621,-0.5301160561693529,-0.024544560933106307,0.0014842163283922405,-0.042447161202328054,0,70,255.0,255.0,255.0
216,10.8,-8.927333534926136,-1.8820995473475088,-2.981159217857332,-0.25525721632803405,-0.06800029776551969,-0.5322597800711119,-0.02291878785300436,-0.0013031570849312674,-0.04330179486803144,0,70,255.0,255.0,255.0
217,10.850000000000001,-8.940124366821903,-1.8855023525877301,-3.007826690201833,-0.2563625113936818,-0.06813513995509934,-0.5344462356561561,-0.021293014772902418,-0.004090530498254775,-0.04415642853373483,0,70,255.0,255.0,255.0
218,10.9,-8.952968431254604,-1.8889153841541966,-3.0346045536176685,-0.25738651780532434,-0.06840935081534516,-0.5366754229244853,-0.01966724169280053,-0.006877903911578184,-0.045011062199438186,0,70,255.0,255.0,255.0
219,10.950000000000001,-8.965861663791536,-1.8923456104804421,-3.061494944689003,-0.2583292355629618,-0.06882293034625715,-0.5389473418760998,-0.018041468612698584,-0.009665277324901692,-0.045865695865141574,0,70,255.0,255.0,255.0
220,11.0,-8.9788,-1.8958,-3.0885,-0.25919066466659413,-0.06937587854783532,-0.5412619925109996,-0.016415695532594476,-0.012452650738225324,-0.04672032953084582,0,70,255.0,255.0,255.0
221,11.05,-8.99178076759953,-1.8992832948210345,-3.1156208959700593,-0.2600543342502438,-0.06993461589793301,-0.5435617649432595,-0.018131087813392656,-0.009896843265681706,-0.04527056775954532,0,70,255.0,255.0,255.0
222,11.100000000000001,-9.004806862918592,-1.902791331750233,-3.142854968359517,-0.2610037734479334,-0.07036556287440351,-0.5457890492869542,-0.019846480094190835,-0.007341035793138089,-0.04382080598824483,0,70,255.0,255.0,255.0
223,11.15,-9.01788257443789,-1.9063177212689142,-3.170198592763945,-0.2620389822596629,-0.07066871947724682,-0.5479438455420839,-0.021561872374988956,-0.004785228320594563,-0.04237104421694439,0,70,255.0,255.0,255.0
224,11.200000000000001,-9.031012190638126,-1.9098560738583972,-3.1976481447789156,-0.2631599606854323,-0.07084408570646296,-0.5500261537086486,-0.023277264655787135,-0.0022294208480509465,-0.04092128244564389,0,70,255.0,255.0,255.0
225,11.25,-9.0442,-1.9134,-3.2252,-0.26436670872524154,-0.07089166156205193,-0.5520359737866484,-0.024992656936583924,0.00032638662449224753,-0.03947152067434079,0,70,255.0,255.0,255.0
226,11.3,-9.057448994675749,-1.916944873368354,-3.2528515982624335,-0.2655814466709933,-0.07091723864274849,-0.5540371601558525,-0.023596860893486386,-0.0013494698523546028,-0.040575934093823755,0,70,255.0,255.0,255.0
227,11.350000000000001,-9.070756981503731,-1.9204931204113391,-3.2806046363601027,-0.2667263948145902,-0.07102660854728739,-0.5560935671960308,-0.022201064850388846,-0.003025326329201453,-0.04168034751330672,0,70,255.0,255.0,255.0
228,11.4,-9.084120470993838,-1.9240489307701467,-3.3084618753265533,-0.2678015531560322,-0.07121977127566863,-0.5582051949071832,-0.020805268807291357,-0.004701182806048244,-0.042784760932789656,0,70,255.0,255.0,255.0
229,11.450000000000001,-9.097535973655964,-1.92761649408597,-3.3364260761953366,-0.26880692169531933,-0.07149672682789222,-0.5603720432893098,-0.019409472764193816,-0.006377039282895094,-0.043889174352272624,0,70,255.0,255.0,255.0
230,11.5,-9.111,-1.9312,-3.3645,-0.2697425004324515,-0.07185747520395813,-0.5625941123424104,-0.018013676721094996,-0.008052895759742107,-0.04499358777175555,0,70,255.0,255.0,255.0
231,11.55,-9.12450965369748,-1.93480281170555,-3.392685510980208,-0.27064387906579546,-0.07225242953107414,-0.5648175944333326,-0.01804146861266336,-0.007745277324897688,-0.043945695865130384,0,70,255.0,255.0,255.0
232,11.600000000000001,-9.13806441106649,-1.9384249866044119,-3.420980886200079,-0.27154664729371786,-0.07263200293644792,-0.5669886819289236,-0.018069260504231723,-0.00743765889005327,-0.04289780395850521,0,70,255.0,255.0,255.0
233,11.65,-9.151664341586763,-1.942065755650499,-3.4493835059298448,-0.27245080511621866,-0.07299619542007946,-0.569107374829183,-0.018097052395800083,-0.007130040455208862,-0.04184991205188008,0,70,255.0,255.0,255.0
234,11.700000000000001,-9.165309514738023,-1.9457243497977241,-3.477890750439741,-0.2733563525332979,-0.07334500698196879,-0.5711736731341115,-0.018124844287368446,-0.006822422020364443,-0.040802020145254914,0,70,255.0,255.0,255.0
235,11.75,-9.179,-1.9494,-3.5065,-0.2742632895449555,-0.07367843762211591,-0.5731875768437087,-0.01815263617893592,-0.006514803585520368,-0.03975412823863067,0,70,255.0,255.0,255.0
236,11.8,-9.192736390534337,-1.953091879809447,-3.535209557816737,-0.2752030370658238,-0.0739930432329552,-0.5752044621108158,-0.019437264655795178,-0.0060694208480507935,-0.040921282445651755,0,70,255.0,255.0,255.0
237,11.850000000000001,-9.206521374230313,-1.9567989331710145,-3.5640214188395882,-0.27620701601053504,-0.074285379706921,-0.577279705088274,-0.020721893132654438,-0.005624038110581218,-0.042088436652672846,0,70,255.0,255.0,255.0
238,11.9,-9.220358162659121,-1.960520046627858,-3.5929385009540704,-0.27727522637908925,-0.07455544704401332,-0.5794133057760831,-0.02200652160951365,-0.0051786553731116595,-0.04325559085969389,0,70,255.0,255.0,255.0
239,11.950000000000001,-9.234249967391953,-1.9642541067231347,-3.621963722045702,-0.27840766817148643,-0.07480324524423217,-0.5816052641742433,-0.02329115008637291,-0.004733272635642084,-0.04442274506671498,0,70,255.0,255.0,255.0
240,12.0,-9.2482,-1.968,-3.6511,-0.27960434138772644,-0.07502877430757754,-0.5838555802827545,-0.024575778563230788,-0.0042878898981724145,-0.04558989927373602,0,70,255.0,255.0,255.0
241,12.05,-9.262210384165176,-1.971756869056662,-3.680349057752846,-0.28079997267091183,-0.07524739753710434,-0.5860925571234048,-0.02324947276418399,-0.004457039282899446,-0.043889174352272395,0,70,255.0,255.0,255.0
242,12.100000000000001,-9.27627889201226,-1.975524880711531,-3.709707838441574,-0.28192928866414485,-0.07547447823586749,-0.5882444977179818,-0.021923166965137193,-0.004626188667626479,-0.042188449430808767,0,70,255.0,255.0,255.0
243,12.15,-9.290402207776756,-1.9793044578380694,-3.7391720902538763,-0.28299228936742554,-0.07571001640386699,-0.5903114020664857,-0.02059686116609044,-0.004795338052353505,-0.0404877245093452,0,70,255.0,255.0,255.0
244,12.200000000000001,-9.30457701569417,-1.9830960233097383,-3.768737561377454,-0.2839889747807539,-0.07595401204110283,-0.5922932701689163,-0.019270555367043647,-0.004964487437080537,-0.03878699958788157,0,70,255.0,255.0,255.0
245,12.25,-9.3188,-1.9869,-3.7984,-0.2849193449041299,-0.07620646514757504,-0.5941901020252737,-0.017944249567996007,-0.0051336368218077855,-0.03708627466641534,0,70,255.0,255.0,255.0
246,12.3,-9.333068472804966,-1.9907166439639055,-3.8281566111718797,-0.285821072250514,-0.07645736661862924,-0.5960893093955654,-0.018124844287368005,-0.004902422020360705,-0.038882020145251266,0,70,255.0,255.0,255.0
247,12.350000000000001,-9.34738225772065,-1.994545543982862,-3.8580104273941234,-0.28673182933286673,-0.07669670734961112,-0.5980783040397989,-0.018305439006740004,-0.004671207218913624,-0.04067776562408719,0,70,255.0,255.0,255.0
248,12.4,-9.361741806233853,-1.9983861220198655,-3.8879659380304252,-0.287651616151188,-0.07692448734052061,-0.6001570859579741,-0.018486033726111996,-0.004439992417466552,-0.04247351110292305,0,70,255.0,255.0,255.0
249,12.450000000000001,-9.37614756983137,-2.0022378000379124,-3.9180276324444856,-0.2885804327054779,-0.07714070659135776,-0.6023256551500912,-0.018666628445483995,-0.004208777616019472,-0.04426925658175897,0,70,255.0,255.0,255.0
250,12.5,-9.3906,-2.0061,-3.9482,-0.28951827899573634,-0.07734536510212256,-0.6045840116161498,-0.018847223164853766,-0.0039775628145719555,-0.04606500206059394,0,70,255.0,255.0,255.0
251,12.55,-9.40509972461496,-2.0099725550877166,-3.978486097559636,-0.29047573832701806,-0.0775631359883778,-0.6068462052943325,-0.019451150086414702,-0.004733272635637642,-0.04442274506671564,0,70,255.0,255.0,255.0
252,12.600000000000001,-9.419648077105137,-2.0138569433570224,-4.008883251981939,-0.2914633940043778,-0.07781869236568634,-0.6090262861228215,-0.020055077007975635,-0.005488982456703328,-0.04278048807283734,0,70,255.0,255.0,255.0
253,12.65,-9.43424656728783,-2.01775505408247,-4.039387357624423,-0.29248124602781567,-0.07811203423404814,-0.6111242541016163,-0.02065900392953655,-0.006244692277768987,-0.0411382310789591,0,70,255.0,255.0,255.0
254,12.700000000000001,-9.448896704980353,-2.021668776538611,-4.069994308844605,-0.2935292943973315,-0.07844316159346322,-0.6131401092307173,-0.021262930851097483,-0.007000402098834673,-0.03949597408508079,0,70,255.0,255.0,255.0
255,12.75,-9.4636,-2.0256,-4.1007,-0.2946075391129253,-0.07881207444393158,-0.6150738515101243,-0.021866857772657067,-0.0077561119198999995,-0.03785371709119989,0,70,255.0,255.0,255.0
256,12.8,-9.478357428735194,-2.0295499356852287,-4.131501398589577,-0.29568397444141775,-0.07917808942785642,-0.6169898694271015,-0.02119055536703901,-0.0068844874370932105,-0.0387869995878882,0,70,255.0,255.0,255.0
257,12.850000000000001,-9.493167833858804,-2.03351708258905,-4.162399764678124,-0.2967265946496292,-0.07950052318764092,-0.6189525514689131,-0.020514252961420957,-0.0060128629542864215,-0.0397202820845765,0,70,255.0,255.0,255.0
258,12.9,-9.508029524614818,-2.037499261650257,-4.193397431471883,-0.2977353997375598,-0.07977937572328506,-0.6209618976355592,-0.019837950555802925,-0.005141238471479664,-0.040653564581264776,0,70,255.0,255.0,255.0
259,12.950000000000001,-9.522940810247222,-2.041494293807643,-4.224496732177094,-0.2987103897052095,-0.08001464703478887,-0.6230179079270396,-0.01916164815018487,-0.004269613988672875,-0.04158684707795308,0,70,255.0,255.0,255.0
260,13.0,-9.5379,-2.0455,-4.2557,-0.29965156455257835,-0.08020633712215235,-0.6251205823433544,-0.018485345744567283,-0.003397989505866339,-0.042520129574639576,0,70,255.0,255.0,255.0
261,13.05,-9.552905760444268,-2.049514902171369,-4.2870091080820565,-0.3005803639073288,-0.08039650630019939,-0.6272423169972641,-0.01866662844544891,-0.004208777616015203,-0.042349256581745286,0,70,255.0,255.0,255.0
262,13.100000000000001,-9.56795818745965,-2.0535403262867784,-4.318424089305567,-0.3015182273971233,-0.08062721488375388,-0.6293555080015291,-0.018847911146330536,-0.0050195657261640665,-0.042178383588850996,0,70,255.0,255.0,255.0
263,13.15,-9.583057734252899,-2.057578299316503,-4.349944516488049,-0.3024651550219618,-0.08089846287281578,-0.6314601553561492,-0.019029193847212158,-0.005830353836312902,-0.042007510595956706,0,70,255.0,255.0,255.0
264,13.200000000000001,-9.598204854030765,-2.0616308482308185,-4.381569962447021,-0.3034211467818445,-0.08121025026738515,-0.6335562590611247,-0.019210476548093783,-0.0066411419464617654,-0.041836637603062415,0,70,255.0,255.0,255.0
265,13.25,-9.6134,-2.0657,-4.4133,-0.3043862026767712,-0.08156257706746198,-0.6356438191164553,-0.019391759248976292,-0.0074519300566102675,-0.041665764610167244,0,70,255.0,255.0,255.0
266,13.3,-9.628643529487734,-2.069787255629295,-4.4451341690822,-0.3053545699292723,-0.08192388537134788,-0.6377208625838369,-0.019342930851067308,-0.0070004020988256805,-0.04141597408509234,0,70,255.0,255.0,255.0
267,13.350000000000001,-9.643935416302597,-2.0738920122638365,-4.477071878099614,-0.306320495761878,-0.08226261727734455,-0.6397854165249646,-0.019294102453158324,-0.0065488741410410925,-0.04116618356001744,0,70,255.0,255.0,255.0
268,13.4,-9.65927553837359,-2.0780131410837313,-4.509112502575926,-0.30728398017458813,-0.08257877278545199,-0.6418374809398385,-0.01924527405524934,-0.006097346183256521,-0.040916393034942544,0,70,255.0,255.0,255.0
269,13.450000000000001,-9.674663773629723,-2.0821495132690835,-4.541255418034826,-0.3082450231674029,-0.0828723518956702,-0.6438770558284589,-0.019196445657340355,-0.005645818225471934,-0.04066660250986764,0,70,255.0,255.0,255.0
270,13.5,-9.6901,-2.0863,-4.5735,-0.30920362474032215,-0.08314335460799917,-0.6459041411908252,-0.019147617259429595,-0.0051942902676870295,-0.04041681198478653,0,70,255.0,255.0,255.0
271,13.55,-9.705584121604794,-2.0904632753114516,-4.605845415589145,-0.3101613563755642,-0.08337995221440839,-0.6479062326673938,-0.019161648150252654,-0.004269613988681495,-0.039666847077955036,0,70,255.0,255.0,255.0
272,13.600000000000001,-9.721116147329965,-2.094637224657875,-4.638289998295986,-0.3111197895553474,-0.08357031600686733,-0.6498708258986208,-0.01917567904107571,-0.0033449377096759617,-0.038916882171123546,0,70,255.0,255.0,255.0
273,13.65,-9.736696112252739,-2.0988195363485724,-4.670831873208251,-0.31207892427967177,-0.08371444598537599,-0.6517979208845062,-0.01918970993189877,-0.0024202614306704606,-0.03816691726429208,0,70,255.0,255.0,255.0
274,13.700000000000001,-9.752324051450342,-2.1030078986928467,-4.703469165413679,-0.3130387605485373,-0.08381234214993437,-0.65368751762505,-0.019203740822721825,-0.001495585151664927,-0.03741695235746059,0,70,255.0,255.0,255.0
275,13.75,-9.768,-2.1072,-4.7362,-0.31399929836194396,-0.08386400450054249,-0.655539616120252,-0.019217771713543996,-0.0005709088726595368,-0.03666698745062824,0,70,255.0,255.0,255.0
276,13.8,-9.783723984093088,-2.1113948431248986,-4.769023368561224,-0.31496000456848405,-0.08394830577102032,-0.6574062067465937,-0.01921047654806003,-0.002801141946453654,-0.037996637603037814,0,70,255.0,255.0,255.0
277,13.850000000000001,-9.799495994377544,-2.1155966891046636,-4.801941728716454,-0.31592034601675,-0.08414411869518786,-0.6593392798805559,-0.01920318138257606,-0.005031375020247772,-0.039326287755447394,0,70,255.0,255.0,255.0
278,13.9,-9.815316012615458,-2.119811113521979,-4.834958404591072,-0.31688032270674166,-0.08445144327304509,-0.6613388355221385,-0.019195886217092097,-0.007261608094041809,-0.04065593790785692,0,70,255.0,255.0,255.0
279,13.950000000000001,-9.831184020568914,-2.12404369195953,-4.868076720310461,-0.3178399346384592,-0.08487027950459203,-0.6634048736713416,-0.01918859105160813,-0.009491841167835927,-0.04198558806026649,0,70,255.0,255.0,255.0
280,14.0,-9.8471,-2.1283,-4.9013,-0.31879918181190253,-0.08540062738982866,-0.6655373943281649,-0.019181295886123717,-0.011722074241630076,-0.04331523821267691,0,70,255.0,255.0,255.0
281,14.05,-9.863063942022857,-2.1325837521889532,-4.934630710165965,-0.3197586253504891,-0.08593082470150641,-0.6676849403462288,-0.019196445657339377,-0.009485818225479904,-0.04258660250987826,0,70,255.0,255.0,255.0
282,14.100000000000001,-9.879075875159858,-2.136891218923471,-4.968067886838205,-0.3207188263776365,-0.08634920921237665,-0.6697960545791528,-0.01921159542855504,-0.0072495622093297326,-0.04185796680707961,0,70,255.0,255.0,255.0
283,14.15,-9.895135837285432,-2.141216809563511,-5.001609708427462,-0.3216797848933446,-0.08665578092243939,-0.6718707370269368,-0.0192267451997707,-0.00501330619317964,-0.04112933110428098,0,70,255.0,255.0,255.0
284,14.200000000000001,-9.911243866274003,-2.1455549334690343,-5.035254353344479,-0.32264150089761356,-0.08685053983169462,-0.673908987689581,-0.019241894970986363,-0.002777050177029469,-0.04040069540148233,0,70,255.0,255.0,255.0
285,14.25,-9.9274,-2.1499,-5.069,-0.32360397439044325,-0.08693348594014236,-0.6759108065670851,-0.019257044742202023,-0.0005407941608799316,-0.03967205969868459,0,70,255.0,255.0,255.0
286,14.3,-9.943604247815484,-2.1542477481192877,-5.10284499077492,-0.3245654940295672,-0.08698439542295598,-0.6778860318684891,-0.019203740822755666,-0.0014955851516652045,-0.03933695235747194,0,70,255.0,255.0,255.0
287,14.350000000000001,-9.959856504983023,-2.158599235201455,-5.136788323930731,-0.3255243484727189,-0.08708304445530889,-0.6798445018028324,-0.01915043690330931,-0.0024503761424504774,-0.039001845016259286,0,70,255.0,255.0,255.0
288,14.4,-9.976156638242824,-2.162956848223978,-5.170829161699085,-0.32648053771989816,-0.08722943303720103,-0.681786216370115,-0.019097132983862952,-0.003405167133235716,-0.03866673767504664,0,70,255.0,255.0,255.0
289,14.450000000000001,-9.99250451433508,-2.167322974164334,-5.204966666311626,-0.3274340617711051,-0.08742356116863245,-0.683711175570337,-0.019043829064416595,-0.0043599581240209885,-0.038331630333833994,0,70,255.0,255.0,255.0
290,14.5,-10.0089,-2.1717,-5.2392,-0.3283849206263398,-0.08766542884960314,-0.6856193794034984,-0.018990525144968462,-0.005314749114806783,-0.03799652299262313,0,70,255.0,255.0,255.0
291,14.55,-10.025343066715209,-2.176090055333896,-5.273528526734361,-0.3293393985312525,-0.087939593606669,-0.6875229321798204,-0.0191885910515393,-0.005651841167827803,-0.03814558806025872,0,70,255.0,255.0,255.0
292,14.600000000000001,-10.041834104908048,-2.1804942402707117,-5.307952417438874,-0.3303037797314937,-0.08823061296638593,-0.6894339382095244,-0.01938665695811013,-0.005988933220848823,-0.03829465312789431,0,70,255.0,255.0,255.0
293,14.65,-10.058373609743281,-2.1849133975405786,-5.342472044776204,-0.33127806422706346,-0.08853848692875389,-0.6913523974926099,-0.01958472286468096,-0.006326025273869831,-0.0384437181955299,0,70,255.0,255.0,255.0
294,14.700000000000001,-10.074962076385676,-2.1893483698736307,-5.377087781409023,-0.33226225201796183,-0.0888632154937729,-0.6932783100290772,-0.019782788771251794,-0.006663117326890851,-0.03859278326316549,0,70,255.0,255.0,255.0
295,14.75,-10.0916,-2.1938,-5.4118,-0.33325634310418867,-0.08920479866144297,-0.6952116758189264,-0.019980854677821736,-0.007000209379912081,-0.0387418483307993,0,70,255.0,255.0,255.0
296,14.8,-10.108287485323679,-2.1982688305451297,-5.44660890228764,-0.33423691184540977,-0.08954523015036672,-0.6971422394122331,-0.019241894971020457,-0.006617050177037881,-0.03848069540146958,0,70,255.0,255.0,255.0
297,14.850000000000001,-10.125023075384785,-2.202754203715701,-5.481514006313783,-0.3351805326012907,-0.08986650367914677,-0.6990597453590734,-0.01850293526421918,-0.006233890974163681,-0.03821954247213987,0,70,255.0,255.0,255.0
298,14.9,-10.141804922784052,-2.207255161613708,-5.516514659196106,-0.3360872053718316,-0.09016861924778309,-0.7009641936594472,-0.017763975557417926,-0.005850731771289494,-0.03795838954281017,0,70,255.0,255.0,255.0
299,14.950000000000001,-10.158631180122212,-2.2117707463411436,-5.5516102080522876,-0.33695693015703254,-0.09045157685627572,-0.7028555843133544,-0.01702501585061665,-0.005467572568415294,-0.03769723661348045,0,70,255.0,255.0,255.0
300,15.0,-10.1755,-2.2163,-5.5868,-0.3377897069568933,-0.09071537650462462,-0.7047339173207952,-0.016286056143815397,-0.005084413365540885,-0.03743608368414719,0,70,255.0,255.0,255.0
301,15.05,-10.192410191990072,-2.2208418224855877,-5.622083864115083,-0.3386249540871001,-0.09095148579186367,-0.7066281101712447,-0.017123829064454654,-0.004359958124021113,-0.038331630333833654,0,70,255.0,255.0,255.0
302,15.100000000000001,-10.20936319355281,-2.225394544866485,-5.657463557306,-0.3395020898633388,-0.09115137231702675,-0.7085670803541786,-0.017961601985093913,-0.0036355028825013416,-0.03922717698352012,0,70,255.0,255.0,255.0
303,15.15,-10.226361099120508,-2.229956356004589,-5.692941318439375,-0.34042111428560945,-0.0913150360801138,-0.7105508278695967,-0.018799374905733142,-0.002911047640981596,-0.040122723633206556,0,70,255.0,255.0,255.0
304,15.200000000000001,-10.243406003125473,-2.234525444761795,-5.728519386381834,-0.3413820273539121,-0.09144247708112489,-0.7125793527174993,-0.019637147826372398,-0.002186592399461824,-0.04101827028289302,0,70,255.0,255.0,255.0
305,15.25,-10.2605,-2.2391,-5.7642,-0.3423848290682467,-0.09153369532005999,-0.7146526548978859,-0.02047492074700985,-0.0014621371579423004,-0.041913816932576786,0,70,255.0,255.0,255.0
306,15.3,-10.277644546716024,-2.243679079512521,-5.799984441252032,-0.3433912718062024,-0.09164082668218083,-0.7167133199027798,-0.01978278877121661,-0.002823117326891508,-0.04051278326317751,0,70,255.0,255.0,255.0
307,15.350000000000001,-10.294838550403975,-2.2482652168183592,-5.835870164462221,-0.3443631079453684,-0.09181600705274914,-0.7187039332242037,-0.01909065679542337,-0.004184097495840716,-0.039111749593778236,0,70,255.0,255.0,255.0
308,15.4,-10.312080280733912,-2.2528618143679364,-5.871853667046394,-0.34530033748574473,-0.0920592364317649,-0.7206244948621576,-0.01839852481963015,-0.005545077664789876,-0.03771071592437902,0,70,255.0,255.0,255.0
309,15.450000000000001,-10.329368007375903,-2.2574722746116764,-5.9079314464203785,-0.3462029604273314,-0.09237051481922813,-0.7224750048166416,-0.01770639284383691,-0.006906057833739083,-0.03630968225497974,0,70,255.0,255.0,255.0
310,15.5,-10.3467,-2.2621,-5.9441,-0.3470709767701283,-0.09274984221513881,-0.7242554630876556,-0.017014260868042363,-0.008267038002688687,-0.0349086485855814,0,70,255.0,255.0,255.0
311,15.55,-10.364074821145834,-2.2667474594643298,-5.980356770876793,-0.34792195868809395,-0.0931412074794161,-0.7260226102176323,-0.017025015850582647,-0.007387572568402332,-0.03577723661348388,0,70,255.0,255.0,255.0
312,15.600000000000001,-10.381492204831297,-2.27141338786008,-6.016702984845121,-0.3487734783551866,-0.09348859947197904,-0.7278331867490041,-0.01703577083312293,-0.006508107134115979,-0.036645824641386354,0,70,255.0,255.0,255.0
313,15.65,-10.398952177943839,-2.276095586523666,-6.05314081337505,-0.34962553577140626,-0.09379201819282769,-0.729687192681771,-0.017046525815663217,-0.005628641699829655,-0.037514412669288795,0,70,255.0,255.0,255.0
314,15.700000000000001,-10.416454767370922,-2.280791856791501,-6.089672427936653,-0.3504781309367529,-0.09405146364196201,-0.7315846280159329,-0.0170572807982035,-0.004749176265543302,-0.03838300069719127,0,70,255.0,255.0,255.0
315,15.75,-10.434,-2.2855,-6.1263,-0.3513312638512266,-0.09426693581938203,-0.7335254927514901,-0.017068035780744673,-0.0038697108312570894,-0.03925158872509282,0,70,255.0,255.0,255.0
316,15.8,-10.45158816870064,-2.2902182826301614,-6.163025275240797,-0.3522008934414055,-0.09446634340015032,-0.7354842392266898,-0.017717147826410883,-0.004106592399474399,-0.03909827028289481,0,70,255.0,255.0,255.0
317,15.850000000000001,-10.469220630270845,-2.294946831741322,-6.199848296157301,-0.35310297863386775,-0.09467759505932948,-0.7374353197797797,-0.01836625987207709,-0.004343473967691709,-0.03894495184069679,0,70,255.0,255.0,255.0
318,15.9,-10.486899007490731,-2.2996862395374014,-6.236768679453405,-0.3540375194286132,-0.09490069079691948,-0.7393787344107596,-0.019015371917743277,-0.00458035553590901,-0.03879163339849878,0,70,255.0,255.0,255.0
319,15.950000000000001,-10.50462492314041,-2.3044370982223206,-6.273786041833008,-0.355004515825642,-0.09513563061292038,-0.7413144831196296,-0.019664483963409488,-0.00481723710412632,-0.03863831495630077,0,70,255.0,255.0,255.0
320,16.0,-10.5224,-2.3092,-6.3109,-0.3560039678249542,-0.0953824145073321,-0.7432425659063895,-0.02031359600907523,-0.005054118672342844,-0.038484996514101866,0,70,255.0,255.0,255.0
321,16.05,-10.540225304051607,-2.3139754100150243,-6.348110128160021,-0.3570024675462777,-0.09563341891998427,-0.7451604328756161,-0.019626392843865127,-0.004986057833743439,-0.03822968225495948,0,70,255.0,255.0,255.0
322,16.1,-10.558099674085323,-2.3187632851746334,-6.38541583052568,-0.35796660710934075,-0.09588102029070646,-0.7470655341318855,-0.018939189678655023,-0.004917996995144034,-0.0379743679958171,0,70,255.0,255.0,255.0
323,16.150000000000002,-10.576021392093235,-2.3235634553267297,-6.422816468811328,-0.35889638651414324,-0.09612521861949869,-0.7489578696751978,-0.018251986513444923,-0.004849936156544629,-0.03771905373667471,0,70,255.0,255.0,255.0
324,16.2,-10.593988740067433,-2.3283757503192173,-6.460311404731316,-0.3597918057606852,-0.0963660139063609,-0.7508374395055528,-0.01756478334823487,-0.004781875317945229,-0.03746373947753235,0,70,255.0,255.0,255.0
325,16.25,-10.612,-2.3332,-6.4979,-0.3606528648489667,-0.09660340615129318,-0.7527042436229511,-0.016877580183025653,-0.0047138144793448244,-0.037208425218389074,0,70,255.0,255.0,255.0
326,16.3,-10.630053815092934,-2.3380360773097415,-6.53558141211912,-0.36150123637349657,-0.09683998091991496,-0.7545460292708407,-0.017057280798170198,-0.004749176265526201,-0.03646300069719518,0,70,255.0,255.0,255.0
327,16.35,-10.648150273387861,-2.3428840275601472,-6.5733539817399835,-0.3623585929287837,-0.0970783237778458,-0.7563505436926706,-0.01723698141331474,-0.004784538051707577,-0.03571757617600129,0,70,255.0,255.0,255.0
328,16.400000000000002,-10.666289824136324,-2.3477439391556816,-6.611215845301287,-0.3632249345148281,-0.09731843472508572,-0.7581177868884409,-0.017416682028459283,-0.004819899837888954,-0.034972151654807396,0,70,255.0,255.0,255.0
329,16.45,-10.684472916589858,-2.3526159005008105,-6.649165139241725,-0.36410026113162963,-0.09756031376163468,-0.7598477588581514,-0.01759638264360381,-0.004855261624070328,-0.034226727133613556,0,70,255.0,255.0,255.0
330,16.5,-10.7027,-2.3575,-6.6872,-0.36498457277918844,-0.09780396088749273,-0.7615404596018022,-0.017776083258748354,-0.004890623410251371,-0.03348130261241611,0,70,255.0,255.0,255.0
331,16.55,-10.72097143557666,-2.36239628074601,-6.7253194233635,-0.3658725869597416,-0.09804665740035237,-0.7632474500410207,-0.017744483963379753,-0.004817237104134596,-0.034798314956324655,0,70,255.0,255.0,255.0
332,16.6,-10.739287232363228,-2.3673046045847803,-6.763525842514389,-0.36675902117552645,-0.0982856845979062,-0.7650202910974347,-0.01771288466801115,-0.004743850798017821,-0.03611532730023321,0,70,255.0,255.0,255.0
333,16.650000000000002,-10.757647311361467,-2.372224788050546,-6.80182254998353,-0.3676438754265428,-0.09852104248015417,-0.766858982771044,-0.01768128537264255,-0.004670464491901047,-0.037432339644141756,0,70,255.0,255.0,255.0
334,16.7,-10.776051593573136,-2.3771566476775403,-6.840212838301779,-0.36852714971279066,-0.0987527310470963,-0.7687635250618488,-0.017649686077273952,-0.004597078185784277,-0.03874935198805021,0,70,255.0,255.0,255.0
335,16.75,-10.7945,-2.3821,-6.8787,-0.36940884403427016,-0.09898075029873257,-0.770733917969849,-0.017618086781903575,-0.004523691879667391,-0.04006636433195876,0,70,255.0,255.0,255.0
336,16.8,-10.812992442600427,-2.387054799706219,-6.917286494426886,-0.37028841578752447,-0.09921338947867309,-0.7727201705650858,-0.01756478334826861,-0.00478187531795338,-0.03938373947751169,0,70,255.0,255.0,255.0
337,16.85,-10.831528797159224,-2.3920215541007326,-6.955971448202464,-0.37116532236909705,-0.09945893783052792,-0.7746722919176003,-0.017511479914633643,-0.00504005875623937,-0.03870111462306463,0,70,255.0,255.0,255.0
338,16.900000000000002,-10.850108930417807,-2.397000908642137,-6.994753154764601,-0.3720395637789879,-0.09971739535429704,-0.7765902820273923,-0.017458176480998674,-0.00529824219452536,-0.03801848976861756,0,70,255.0,255.0,255.0
339,16.95,-10.868732709117593,-2.401993508789027,-7.033629907551156,-0.37291114001719683,-0.09998876204998045,-0.778474140894462,-0.01740487304736371,-0.005556425632811331,-0.03733586491417055,0,70,255.0,255.0,255.0
340,17.0,-10.8874,-2.407,-7.0726,-0.3737800510837242,-0.10027303791757816,-0.7803238685188092,-0.017351569613727857,-0.005814609071097321,-0.03665324005972259,0,70,255.0,255.0,255.0
341,17.05,-10.906110794021632,-2.412020520429115,-7.111661798928964,-0.37465374989015837,-0.10053978468495713,-0.7821438676986421,-0.017596382643637925,-0.004855261624061611,-0.03614672713359077,0,70,255.0,255.0,255.0
342,17.1,-10.924865578999874,-2.41705317901229,-7.150813964675762,-0.375539689348088,-0.10075856407998433,-0.7839385412321683,-0.01784119567354799,-0.0038959141770259003,-0.03564021420745894,0,70,255.0,255.0,255.0
343,17.150000000000002,-10.943664966967301,-2.4220955773809076,-7.190055230958076,-0.3764378694575132,-0.10092937610265973,-0.7857078891193879,-0.018086008703458056,-0.00293656672999019,-0.03513370128132711,0,70,255.0,255.0,255.0
344,17.2,-10.962509569956483,-2.42714531716635,-7.229384331493592,-0.37734829021843375,-0.10105222075298334,-0.787451911360301,-0.018330821733368103,-0.001977219282954548,-0.03462718835519532,0,70,255.0,255.0,255.0
345,17.25,-10.9814,-2.4322,-7.2688,-0.3782709516308499,-0.1011270980309552,-0.7891706079549076,-0.01857563476327595,-0.0010178718359187267,-0.03412067542906616,0,70,255.0,255.0,255.0
346,17.3,-11.000336381313044,-2.437258318577322,-7.308301509857265,-0.3791765846518619,-0.10121947178149766,-0.7908963586403361,-0.01764968607720457,-0.0026770781857800253,-0.03490935198807695,0,70,255.0,255.0,255.0
347,17.35,-11.019316886841283,-2.442323329850108,-7.3478902930945,-0.38003592023857036,-0.1013948058495332,-0.7926615431537153,-0.016723737391133194,-0.004336284535641324,-0.03569802854708774,0,70,255.0,255.0,255.0
348,17.400000000000002,-11.038339201712999,-2.4473991818342338,-7.387568321403104,-0.38084895839097527,-0.1016531002350618,-0.794466161495045,-0.015797788705061815,-0.0059954908855026235,-0.03648670510609854,0,70,255.0,255.0,255.0
349,17.45,-11.057401011056474,-2.4524900225455726,-7.42733756647447,-0.38161569910907656,-0.10199435493808344,-0.7963102136643251,-0.014871840018990503,-0.007654697235363804,-0.037275381665109276,0,70,255.0,255.0,255.0
350,17.5,-11.0765,-2.4576,-7.4672,-0.3823361423928742,-0.10241856995859816,-0.798193699661556,-0.013945891332917792,-0.009313903585224992,-0.03806405822412273,0,70,255.0,255.0,255.0
351,17.55,-11.095634880726191,-2.4627318052615976,-7.5071569616419795,-0.3830719115023814,-0.1028383281890494,-0.8000786977400137,-0.015484873047368031,-0.007476425632823931,-0.03733586491418669,0,70,255.0,255.0,255.0
352,17.6,-11.114808473635,-2.4678823015872773,-7.5472072629462446,-0.38388462969761106,-0.10316621252188056,-0.8019272861529747,-0.01702385476181827,-0.005638947680422871,-0.03660767160425065,0,70,255.0,255.0,255.0
353,17.650000000000002,-11.134024626180713,-2.473046895282159,-7.58734908342952,-0.3847742969785632,-0.10340222295709169,-0.8037394649004388,-0.018562836476268506,-0.0038014697280218104,-0.03587947829431461,0,70,255.0,255.0,255.0
354,17.7,-11.153287185817618,-2.47822099265136,-7.6275806026085275,-0.38574091334523786,-0.10354635949468274,-0.8055152339824061,-0.020101818190718636,-0.001963991775620881,-0.03515128498437862,0,70,255.0,255.0,255.0
355,17.75,-11.1726,-2.4834,-7.6679,-0.38678447879763506,-0.10359862213465378,-0.8072545933988766,-0.021640799905167984,-0.00012651382322015348,-0.03442309167443902,0,70,255.0,255.0,255.0
356,17.8,-11.19196569578219,-2.4885808603762865,-7.708305843574821,-0.38783176933860003,-0.10365121546230793,-0.8089808503996166,-0.020250821733430582,-0.0019772192829461454,-0.034627188355160855,0,70,255.0,255.0,255.0
357,17.85,-11.211382018618718,-2.493766663800781,-7.74879825512053,-0.38880956097097813,-0.10379634406294838,-0.8107173122343927,-0.01886084356169318,-0.003827924742672137,-0.03483128503588269,0,70,255.0,255.0,255.0
358,17.900000000000002,-11.230845493564146,-2.4989620370371317,-7.789377744878829,-0.38971785369476936,-0.10403400793657516,-0.812463978903205,-0.017470865389955778,-0.005678630202398128,-0.03503538171660453,0,70,255.0,255.0,255.0
359,17.95,-11.250352645673049,-2.504171606848988,-7.830044823091416,-0.3905566475099737,-0.10436420708318819,-0.8142208504060531,-0.016080887218218473,-0.007529335662123988,-0.03523947839732635,0,70,255.0,255.0,255.0
360,18.0,-11.2699,-2.5094,-7.8708,-0.3913259424165912,-0.10478694150278754,-0.8159879267429375,-0.014690909046479295,-0.009380041121849758,-0.035443575078042855,0,70,255.0,255.0,255.0
361,18.05,-11.289484736145043,-2.514650353233255,-7.91164366405874,-0.39206501114322706,-0.10521280996171788,-0.8177579006615169,-0.014871840018955054,-0.007654697235363536,-0.03535538166513099,0,70,255.0,255.0,255.0
362,18.1,-11.309106651890133,-2.5199198432096,-7.952575716571642,-0.39281312641848676,-0.1055524112263239,-0.8195234649094507,-0.015052770991430814,-0.005929353348877315,-0.035267188252219125,0,70,255.0,255.0,255.0
363,18.150000000000002,-11.328766199562702,-2.525204156569316,-7.993595937055176,-0.3935702882423701,-0.10580574529660561,-0.8212846194867388,-0.015233701963906573,-0.004204009462391094,-0.03517899483930726,0,70,255.0,255.0,255.0
364,18.2,-11.34846383149018,-2.530498979952688,-8.034704105025803,-0.39433649661487735,-0.10597281217256302,-0.8230413643933814,-0.01541463293638232,-0.0024786655759049944,-0.0350908014263954,0,70,255.0,255.0,255.0
365,18.25,-11.3682,-2.5358,-8.0759,-0.39511175153600836,-0.10605361185419611,-0.8247936996293782,-0.01559556390885719,-0.0007533216894185513,-0.035002608013480874,0,70,255.0,255.0,255.0
366,18.3,-11.387975359637638,-2.5411041266906906,-8.117183500190226,-0.39590818608849715,-0.10612154469082209,-0.8265475469543246,-0.016261818190693153,-0.0019639917756210275,-0.03515128498437772,0,70,255.0,255.0,255.0
367,18.35,-11.40779137382075,-2.5464131633608207,-8.158554878592911,-0.3967379333550777,-0.10625001103175821,-0.828308828127816,-0.01692807247252912,-0.0031746618618235032,-0.035299961955274566,0,70,255.0,255.0,255.0
368,18.400000000000002,-11.427649708185047,-2.5517301366856056,-8.200014506900486,-0.39760099333575005,-0.10643901087700446,-0.8300775431498522,-0.01759432675436508,-0.00438533194802598,-0.035448638926171415,0,70,255.0,255.0,255.0
369,18.45,-11.447552028366227,-2.5570580733402597,-8.241562756805369,-0.39849736603051417,-0.10668854422656081,-0.8318536920204331,-0.018260581036201,-0.005596002034228369,-0.035597315897068244,0,70,255.0,255.0,255.0
370,18.5,-11.4675,-2.5624,-8.2832,-0.39942705143937013,-0.10699861108042727,-0.8336372747395591,-0.018926835318034296,-0.006806672120431179,-0.03574599286796598,0,70,255.0,255.0,255.0
371,18.55,-11.487494625304407,-2.5677579400039807,-8.324926335180368,-0.4003502445027772,-0.10730901127499128,-0.8354119115211901,-0.018000887218246473,-0.005609335662128628,-0.035239478397273406,0,70,255.0,255.0,255.0
372,18.6,-11.507534252826863,-2.5731299033471173,-8.366740769056728,-0.40122714016119476,-0.10755954464664014,-0.8371612225792864,-0.01707493911845865,-0.004411999203826077,-0.03473296392658084,0,70,255.0,255.0,255.0
373,18.650000000000002,-11.52761656769711,-2.578512896688263,-8.408642035342906,-0.40205773841462306,-0.10775021119537388,-0.8388852079138482,-0.016148991018670827,-0.0032146627455235267,-0.034226449455888264,0,70,255.0,255.0,255.0
374,18.7,-11.547739255044906,-2.5839039266862724,-8.45062886775272,-0.40284203926306184,-0.10788101092119248,-0.8405838675248752,-0.01522304291888307,-0.002017326287221061,-0.03371993498519573,0,70,255.0,255.0,255.0
375,18.75,-11.5679,-2.5893,-8.4927,-0.4035800427065113,-0.10795194382409598,-0.8422572014123678,-0.014297094819095246,-0.0008199898289185104,-0.03321342051450227,0,70,255.0,255.0,255.0
376,18.8,-11.588097339144731,-2.5946993132933858,-8.534854359088309,-0.4043228359003983,-0.10803441020921656,-0.8439168069608916,-0.015414632936382516,-0.0024786655759048383,-0.03317080142644837,0,70,255.0,255.0,255.0
377,18.85,-11.608333214871804,-2.600104823250711,-8.577091645180182,-0.4051215060001496,-0.10819981038168647,-0.8455742815550127,-0.016532171053669786,-0.004137341322891166,-0.03312818233839447,0,70,255.0,255.0,255.0
378,18.900000000000002,-11.628610421026513,-2.6055206765613437,-8.619411751727906,-0.4059760530057653,-0.10844814434150568,-0.8472296251947311,-0.017649709170957054,-0.005796017069877495,-0.03308556325034057,0,70,255.0,255.0,255.0
379,18.95,-11.648931751454144,-2.610951019914651,-8.661814572183747,-0.4068864769172452,-0.1087794120886742,-0.8488828378800467,-0.018767247288244242,-0.007454692816863705,-0.03304294416228668,0,70,255.0,255.0,255.0
380,19.0,-11.6693,-2.6164,-8.7043,-0.4078527777345896,-0.10919361362319205,-0.8505339196109596,-0.01988478540553107,-0.009113368563849145,-0.03300032507422834,0,70,255.0,255.0,255.0
381,19.05,-11.689716818116665,-2.6218704068224774,-8.7468682284664,-0.40880641189563294,-0.10960934788814365,-0.8522008606352421,-0.018260581036200006,-0.007516002034215074,-0.033677315897072554,0,70,255.0,255.0,255.0
382,19.1,-11.710179287685921,-2.6273596036500404,-8.789520650222544,-0.40967883583820963,-0.10994521382661357,-0.8539016512006669,-0.016636376666868943,-0.005918635504581004,-0.034354306719916766,0,70,255.0,255.0,255.0
383,19.150000000000002,-11.730683348196846,-2.6328635970663643,-8.832258957745488,-0.4104700495623198,-0.11020121143860177,-0.855636291307234,-0.015012172297537882,-0.004321268974946933,-0.035031297542760985,0,70,255.0,255.0,255.0
384,19.200000000000003,-11.751224939138515,-2.6383783936551253,-8.875084843512289,-0.41118005306796346,-0.11037734072410826,-0.8574047809549431,-0.01338796792820682,-0.0027239024453128624,-0.0357082883656052,0,70,255.0,255.0,255.0
385,19.25,-11.7718,-2.6439,-8.918,-0.41180884635514053,-0.11047360168313304,-0.8592071201437944,-0.011763763558877205,-0.0011265359156781285,-0.036385279188452024,0,70,255.0,255.0,255.0
386,19.3,-11.792405788388606,-2.649425459416706,-8.96100552704609,-0.4124355165170838,-0.11055219823820595,-0.8610077504981356,-0.013303042918853801,-0.002017326287238043,-0.035639934985192835,0,70,255.0,255.0,255.0
387,19.35,-11.81304483438451,-2.6549559621491303,-9.004100153929645,-0.41313915064702594,-0.11067533431185685,-0.8627711136423137,-0.0148423222788304,-0.0029081166587979577,-0.034894590781933646,0,70,255.0,255.0,255.0
388,19.400000000000002,-11.83372098618611,-2.6604937351732016,-9.047282017290152,-0.4139197487449669,-0.11084300990408574,-0.864497209576329,-0.016381601638806996,-0.0037989070303578723,-0.03414924657867446,0,70,255.0,255.0,255.0
389,19.450000000000003,-11.854438091991808,-2.666041005464849,-9.090549253767108,-0.4147773108109067,-0.11105522501489264,-0.8661860383001813,-0.017920880998783594,-0.004689697401917787,-0.03340390237541527,0,70,255.0,255.0,255.0
390,19.5,-11.8752,-2.6716,-9.1339,-0.41571183684484514,-0.1113119796442775,-0.8678375998138703,-0.019460160358759637,-0.005580487773477305,-0.032658558172151686,0,70,255.0,255.0,255.0
391,19.55,-11.89600962832891,-2.6771725555106993,-9.177332863349237,-0.4166675220360202,-0.11158985915903592,-0.8694801373722312,-0.018767247288243628,-0.005534692816859409,-0.0330429441622826,0,70,255.0,255.0,255.0
392,19.6,-11.916866174776045,-2.68275894775344,-9.220848334058884,-0.4175885615736695,-0.11186544892596344,-0.8711418942300986,-0.018074334217727618,-0.005488897860241514,-0.03342733015241352,0,70,255.0,255.0,255.0
393,19.650000000000002,-11.93776790705872,-2.688359062240832,-9.264447373093907,-0.41847495545779306,-0.11213874894506008,-0.8728228703874726,-0.017381421147211612,-0.005443102903623618,-0.033811716142544426,0,70,255.0,255.0,255.0
394,19.700000000000003,-11.958713092894264,-2.693972784485483,-9.30813094141929,-0.4193267036883907,-0.11240975921632582,-0.8745230658443531,-0.016688508076695602,-0.005397307947005723,-0.03419610213267534,0,70,255.0,255.0,255.0
395,19.75,-11.9797,-2.6996,-9.3519,-0.4201438062654626,-0.11267847973976064,-0.8762424806007401,-0.015995595006179197,-0.005351512990387164,-0.034580488122808006,0,70,255.0,255.0,255.0
396,19.8,-12.00072689829575,-2.705240318540499,-9.39575501955696,-0.42092639533882387,-0.11292836512565281,-0.8779517000129489,-0.015307967928271084,-0.004643902445299365,-0.03378828836554461,0,70,255.0,255.0,255.0
397,19.85,-12.021792066511317,-2.710892246837111,-9.439694509834831,-0.42167460305828974,-0.11314286998429059,-0.8796213094372946,-0.01462034085036297,-0.003936291900211566,-0.0329960886082812,0,70,255.0,255.0,255.0
398,19.900000000000002,-12.042893785579013,-2.716554015863474,-9.483716490334226,-0.4223884294238602,-0.11332199431567397,-0.881251308873777,-0.013932713772454856,-0.003228681355123767,-0.032203888851017805,0,70,255.0,255.0,255.0
399,19.950000000000003,-12.064030336431141,-2.722223856593225,-9.527818980555747,-0.42306787443553523,-0.11346573811980296,-0.8828416983223963,-0.013245086694546743,-0.002521070810035968,-0.0314116890937544,0,70,255.0,255.0,255.0
400,20.0,-12.0852,-2.7279,-9.572,-0.4237129380933148,-0.11357410139667756,-0.8843924777831524,-0.012557459616635569,-0.001813460264948219,-0.030619489336492833,0,70,255.0,255.0,255.0
401,20.05,-12.106401978488096,-2.7335813703273057,-9.61625825842293,-0.42437889660869876,-0.11368868033834954,-0.885945062575952,-0.014080880998722933,-0.0027696974019306843,-0.03148390237548605,0,70,255.0,255.0,255.0
402,20.1,-12.127639159178688,-2.739269664898116,-9.660595226601794,-0.4251210261931871,-0.11385107113687062,-0.8875408680207011,-0.015604302380810297,-0.0037259345389131495,-0.03234831541447927,0,70,255.0,255.0,255.0
403,20.150000000000002,-12.148915350625234,-2.744967274305274,-9.705013065569197,-0.42593932684677976,-0.11406127379224086,-0.8891798941174,-0.01712772376289766,-0.004682171675895615,-0.033212728453472486,0,70,255.0,255.0,255.0
404,20.200000000000003,-12.170234361381187,-2.750676589141621,-9.749513936357735,-0.4268337985694769,-0.11431928830446021,-0.8908621408660483,-0.018651145144985025,-0.00563840881287808,-0.034077141492465705,0,70,255.0,255.0,255.0
405,20.25,-12.1916,-2.7564,-9.7941,-0.42780444136127826,-0.11462511467352866,-0.8925876082666463,-0.02017456652707139,-0.006594645949860367,-0.0349415545314562,0,70,255.0,255.0,255.0
406,20.3,-12.213014787751867,-2.7621390001502797,-9.838772746751332,-0.42877401822637234,-0.11492491352095031,-0.8943160496832495,-0.0186085080766915,-0.0053973079470053306,-0.034196102132675134,0,70,255.0,255.0,255.0
407,20.35,-12.23447609677393,-2.7678914935704264,-9.883530983757995,-0.42966529216894744,-0.11516484546822921,-0.8960072184799138,-0.017042449626311608,-0.004199969944150294,-0.03345064973389407,0,70,255.0,255.0,255.0
408,20.400000000000002,-12.255980011920053,-2.773654486915434,-9.92837284738899,-0.43047826318900356,-0.11534491051536536,-0.897661114656639,-0.015476391175931713,-0.0030026319412952574,-0.032705197335113005,0,70,255.0,255.0,255.0
409,20.450000000000003,-12.27752261804412,-2.7794249868402936,-9.973296474013326,-0.43121293128654065,-0.11546510866235873,-0.8992777382134253,-0.013910332725551821,-0.0018052939384402208,-0.03195974493633194,0,70,255.0,255.0,255.0
410,20.5,-12.2991,-2.7852,-10.0183,-0.43186929646155875,-0.11552543990920937,-0.9008570891502722,-0.012344274275173373,-0.0006079559355850472,-0.0312142925375527,0,70,255.0,255.0,255.0
411,20.55,-12.32070927050443,-2.7909778290715774,-10.063381954571753,-0.4325090304858034,-0.11560366557784968,-0.902422738691054,-0.01324508669461394,-0.002521070810027442,-0.0314116890937223,0,70,255.0,255.0,255.0
412,20.6,-12.342351653725595,-2.7967619608201804,-10.108542438366236,-0.4331938051310201,-0.11577754699021212,-0.9039982580596445,-0.014145899114054509,-0.004434185684469837,-0.03160908564989189,0,70,255.0,255.0,255.0
413,20.650000000000002,-12.36402940169455,-2.8025571780329948,-10.153781944874849,-0.4339236203972089,-0.11604708414629666,-0.9055836472560432,-0.015046711533495077,-0.006347300558912232,-0.03180648220606149,0,70,255.0,255.0,255.0
414,20.700000000000003,-12.385744766442336,-2.808368263497206,-10.199100967588972,-0.4346984762843697,-0.11641227704610334,-0.9071789062802507,-0.015947523952935645,-0.008260415433354627,-0.03200387876223108,0,70,255.0,255.0,255.0
415,20.75,-12.4075,-2.8142,-10.2445,-0.43551837279250244,-0.11687312568963211,-0.9087840351322665,-0.016848336372374373,-0.010173530307797107,-0.03220127531840333,0,70,255.0,255.0,255.0
416,20.8,-12.429296930230413,-2.82005528356341,-10.289979434961667,-0.4363578598304348,-0.1173164241676491,-0.9103929955525383,-0.016731145144919867,-0.007558408812882196,-0.03215714149246871,0,70,255.0,255.0,255.0
417,20.85,-12.451135688323689,-2.8259294631488525,-10.335539262777067,-0.4371914873069945,-0.11762896657092034,-0.9119997492815134,-0.016613953917465358,-0.0049432873179672855,-0.032113007666534084,0,70,255.0,255.0,255.0
418,20.900000000000002,-12.473015981301758,-2.83181600095259,-10.381179373111632,-0.4380192552221813,-0.11781075289944584,-0.9136042963191917,-0.016496762690010852,-0.0023281658230523746,-0.03206887384059946,0,70,255.0,255.0,255.0
419,20.950000000000003,-12.494937516186551,-2.8377083591708847,-10.4268996556308,-0.43884116357599556,-0.11786178315322558,-0.9152066366655733,-0.016379571462556346,0.0002869556718625363,-0.03202474001466484,0,70,255.0,255.0,255.0
420,21.0,-12.5169,-2.8436,-10.4727,-0.43965721236843697,-0.11778205733225959,-0.9168067703206582,-0.016262380235102736,0.0029020771667774836,-0.03198060618873022,0,70,255.0,255.0,255.0
421,21.05,-12.53890300857392,-2.849486636674782,-10.51858030558158,-0.44045953019245326,-0.11770663775155127,-0.9184052790987848,-0.01583033272554894,0.00011470606155541876,-0.031959744936332156,0,70,255.0,255.0,255.0
422,21.1,-12.560945592979653,-2.8553729865844097,-10.564540510525504,-0.4412402456409919,-0.11777058672610405,-0.9200027448142915,-0.015398285215995143,-0.002672665043666646,-0.03193888368393409,0,70,255.0,255.0,255.0
423,21.150000000000002,-12.583026673098429,-2.8612660181566465,-10.610580562678635,-0.44199935871405277,-0.11797390425591794,-0.9215991674671782,-0.014966237706441347,-0.00546003614888871,-0.031918022431536026,0,70,255.0,255.0,255.0
424,21.200000000000003,-12.605145168811468,-2.867172699819256,-10.656700409887845,-0.44273686941163604,-0.11831659034099293,-0.9231945470574451,-0.01453419019688755,-0.008247407254110776,-0.03189716117913797,0,70,255.0,255.0,255.0
425,21.25,-12.6273,-2.8731,-10.7029,-0.44345277773374153,-0.118798644981329,-0.9247888835850919,-0.014102142687333785,-0.011034778359332309,-0.03187629992673102,0,70,255.0,255.0,255.0
426,21.3,-12.649490235473907,-2.879052569737463,-10.749179342712011,-0.44415601939974925,-0.11928102482614618,-0.9263858880523168,-0.014027523952973285,-0.008260415433354412,-0.03200387876226323,0,70,255.0,255.0,255.0
427,21.35,-12.671715539757697,-2.88502579051351,-10.795538695120928,-0.4448555301290389,-0.11962468652466444,-0.9279892714613184,-0.013952905218612786,-0.005486052507376514,-0.03213145759779543,0,70,255.0,255.0,255.0
428,21.400000000000002,-12.693975726304533,-2.8910127264208247,-10.841978376173842,-0.4455513099216105,-0.11982963007688384,-0.9295990338120963,-0.013878286484252286,-0.0027116895813986165,-0.03225903643332764,0,70,255.0,255.0,255.0
429,21.450000000000003,-12.71627060856758,-2.8970064415520933,-10.888498704817836,-0.4462433587774641,-0.11989585548280432,-0.9312151751046511,-0.013803667749891786,6.267334457928098e-05,-0.03238661526885985,0,70,255.0,255.0,255.0
430,21.5,-12.7386,-2.903,-10.9351,-0.44693167669659967,-0.1198233627424259,-0.9328376953389823,-0.013729049015529515,0.002837036270558202,-0.03251419410439027,0,70,255.0,255.0,255.0
431,21.55,-12.760964049530452,-2.908988684375366,-10.981782323570378,-0.44763639220855106,-0.11974526294386516,-0.9344511686919579,-0.014459571462526376,0.00028695567187132223,-0.0320247400146318,0,70,255.0,255.0,255.0
432,21.6,-12.78336424798956,-2.9149766513615525,-11.02854470899079,-0.4483776338428523,-0.11979466717523878,-0.9360401693404455,-0.015190093909523238,-0.0022631249268155575,-0.03153528592487332,0,70,255.0,255.0,255.0
433,21.650000000000002,-12.805802421683444,-2.920970276160056,-11.075385932626014,-0.44915540159950346,-0.11997157543654673,-0.9376046972844453,-0.0159206163565201,-0.004813205525502438,-0.031045831835114848,0,70,255.0,255.0,255.0
434,21.700000000000003,-12.828280396918219,-2.926975933972373,-11.122304770840826,-0.44996969547850435,-0.12027598772778901,-0.939144752523957,-0.01665113880351696,-0.007363286124189317,-0.030556377745356373,0,70,255.0,255.0,255.0
435,21.75,-12.8508,-2.933,-11.1693,-0.4508205154798551,-0.12070790404896561,-0.9406603350589808,-0.01738166125051377,-0.009913366722875905,-0.03006692365559971,0,70,255.0,255.0,255.0
436,21.8,-12.873362366404283,-2.939047092761073,-11.216370563006487,-0.4516664117660409,-0.12116192339839049,-0.9421614371798493,-0.01645419019691755,-0.00824740725411932,-0.029977161179139955,0,70,255.0,255.0,255.0
437,21.85,-12.89596586828406,-2.9451148040402817,-11.263516068915923,-0.45246593449954686,-0.12153264477437756,-0.9436580511768949,-0.015526719143321328,-0.006581447785362734,-0.029887398702680198,0,70,255.0,255.0,255.0
438,21.900000000000002,-12.918608186961695,-2.9511989689389537,-11.310736293322114,-0.453219083680373,-0.12182006817692678,-0.9451501770501174,-0.014599248089725108,-0.004915488316606149,-0.029797636226220444,0,70,255.0,255.0,255.0
439,21.950000000000003,-12.941287003759552,-2.957295422558417,-11.358031011818872,-0.45392585930851936,-0.12202419360603818,-0.9466378147995169,-0.013671777036128888,-0.003249528847849564,-0.02970787374976069,0,70,255.0,255.0,255.0
440,22.0,-12.964,-2.9634,-11.4054,-0.4545862613839859,-0.12214502106171173,-0.9481209644250934,-0.012744305982531845,-0.001583569379092764,-0.029618111273297387,0,70,255.0,255.0,255.0
441,22.05,-12.986745684852414,-2.969509344580341,-11.452843424403678,-0.45524996072729557,-0.12223104346257466,-0.9496230825886474,-0.013803667749856634,-0.0018573266554243334,-0.03046661526886184,0,70,255.0,255.0,255.0
442,22.1,-13.009525878874204,-2.9756233324773214,-11.50036301534553,-0.4559666281589716,-0.12233075372725416,-0.9511676259519796,-0.014863029517181423,-0.0021310839317559027,-0.031315119264426296,0,70,255.0,255.0,255.0
443,22.150000000000002,-13.032343230469786,-2.9817426480841305,-11.54796089408554,-0.45673626367901377,-0.12244415185575025,-0.9527545945150901,-0.01592239128450621,-0.002404841208087472,-0.03216362325999075,0,70,255.0,255.0,255.0
444,22.200000000000003,-13.055200388043577,-2.98786797579396,-11.595639181883703,-0.4575588672874222,-0.12257123784806291,-0.9543839882779788,-0.016981753051831,-0.0026785984844190413,-0.033012127255555204,0,70,255.0,255.0,255.0
445,22.25,-13.0781,-2.994,-11.6434,-0.45843443898419683,-0.12271201170419214,-0.9560558072406454,-0.0180411148191566,-0.0029523557607510353,-0.03386063125110983,0,70,255.0,255.0,255.0
446,22.3,-13.10104369418606,-3.000139528917562,-11.691244539378802,-0.4593017453247637,-0.12287390275131524,-0.957714232465557,-0.016651138803517433,-0.0035232861241726835,-0.03247637774534995,0,70,255.0,255.0,255.0
447,22.35,-13.12402901621913,-3.006287866050435,-11.739170269701967,-0.46009955286454857,-0.12306434031660941,-0.9593034450151805,-0.015261162787878263,-0.004094216487594332,-0.031092124239590076,0,70,255.0,255.0,255.0
448,22.400000000000002,-13.147052491159169,-3.012446438724526,-11.787173730335734,-0.46082786160355155,-0.12328332440007468,-0.960823444889516,-0.013871186772239093,-0.00466514685101598,-0.029707870733830195,0,70,255.0,255.0,255.0
449,22.450000000000003,-13.17011064406614,-3.018616674265745,-11.835251460646335,-0.46148667154177253,-0.12353085500171103,-0.9622742320885636,-0.012481210756599925,-0.005236077214437628,-0.02832361722807032,0,70,255.0,255.0,255.0
450,22.5,-13.1932,-3.0248,-11.8834,-0.46207598267921146,-0.12380693212151843,-0.9636558066123231,-0.011091234740958633,-0.00580700757785968,-0.02693936372230965,0,70,255.0,255.0,255.0
451,22.55,-13.216317938403343,-3.0309973397494105,-11.931616818081116,-0.4626470579736404,-0.12408134553216126,-0.9650239875491249,-0.011751777036200482,-0.005169528847853591,-0.027787873749764824,0,70,255.0,255.0,255.0
452,22.6,-13.239465256249275,-3.0372076033209408,-11.979903105846603,-0.4632511603828315,-0.1243238850063038,-0.9664345939872996,-0.01241231933144233,-0.004532050117847501,-0.02863638377722,0,70,255.0,255.0,255.0
453,22.650000000000002,-13.262643604893539,-3.0434291970177663,-12.028260984571537,-0.46388828990678466,-0.12453455054394602,-0.967887625926847,-0.01307286162668418,-0.003894571387841412,-0.029484893804675175,0,70,255.0,255.0,255.0
454,22.700000000000003,-13.28585463569187,-3.049660527143061,-12.076692575530977,-0.4645584465455,-0.12471334214508795,-0.9693830833677671,-0.013733403921926029,-0.0032570926578353223,-0.03033340383213035,0,70,255.0,255.0,255.0
455,22.75,-13.3091,-3.0559,-12.1252,-0.4652616302989772,-0.12486025980972956,-0.97092096631006,-0.014393946217166498,-0.0026196139278293895,-0.03118191385958724,0,70,255.0,255.0,255.0
456,22.8,-13.33238135220057,-3.0621463120847947,-12.173784988296743,-0.4659980227807006,-0.12499271512003621,-0.9724778173379386,-0.015061753051767744,-0.0026785984844361465,-0.031092127255556077,0,70,255.0,255.0,255.0
457,22.85,-13.355700358783768,-3.0683993206658005,-12.222447706911623,-0.466767805604154,-0.1251281196581732,-0.9740301790356156,-0.01572955988636899,-0.002737583041042903,-0.031002340651524914,0,70,255.0,255.0,255.0
458,22.900000000000002,-13.37905868926668,-3.0746591732044095,-12.271187931378137,-0.4675709787693375,-0.12526647342414052,-0.9755780514030911,-0.016397366720970235,-0.00279656759764966,-0.030912554047493754,0,70,255.0,255.0,255.0
459,22.950000000000003,-13.402458013166397,-3.080926017162012,-12.320005437229765,-0.46840754227625103,-0.12540777641793813,-0.977121434440365,-0.01706517355557148,-0.0028555521542564166,-0.03082276744346259,0,70,255.0,255.0,255.0
460,23.0,-13.4259,-3.0872,-12.3689,-0.4692774961248946,-0.12555202863956613,-0.9786603281474374,-0.017732980390171793,-0.0029145367108636133,-0.03073298083943765,0,70,255.0,255.0,255.0
461,23.05,-13.449385452794386,-3.09348141191141,-12.417871228731917,-0.47012885090356277,-0.12570779398769835,-0.9801847430991251,-0.016321210756555685,-0.003316077214425356,-0.03024361722806769,0,70,255.0,255.0,255.0
462,23.1,-13.472911708615662,-3.0997711140158564,-12.466918066506903,-0.4709096172005502,-0.1258836363610087,-0.9816846898702443,-0.014909441122939574,-0.003717617717987099,-0.029754253616697732,0,70,255.0,255.0,255.0
463,23.150000000000002,-13.496475238039746,-3.1060701101645978,-12.516039289915934,-0.47161979501585677,-0.1260795557594971,-0.9831601684607948,-0.013497671489323466,-0.004119158221548841,-0.02926489000532777,0,70,255.0,255.0,255.0
464,23.200000000000003,-13.520072511642555,-3.112379404208893,-12.565233675549976,-0.47225938434948256,-0.12629555218316357,-0.984611178870777,-0.012085901855707357,-0.0045206987251105845,-0.028775526393957813,0,70,255.0,255.0,255.0
465,23.25,-13.5437,-3.1187,-12.6145,-0.47282838520142756,-0.12653162563200812,-0.9860377211001906,-0.010674132222091792,-0.004922239228672298,-0.028286162782589663,0,70,255.0,255.0,255.0
466,23.3,-13.567355236621891,-3.1250328402695655,-12.663837296775592,-0.4733905736050298,-0.12678410892917072,-0.9874552102655587,-0.011813403921997983,-0.00517709265783091,-0.028413403832134955,0,70,255.0,255.0,255.0
467,23.35,-13.591040006753586,-3.1313786232707748,-12.713245627060767,-0.4740097255936274,-0.12704933489779122,-0.9888790614834042,-0.012952675621904174,-0.0054319460869895215,-0.028540644881680247,0,70,255.0,255.0,255.0
468,23.400000000000002,-13.614757158574337,-3.137737986137202,-12.762725308958142,-0.47468584116722023,-0.12732730353786967,-0.9903092747537268,-0.014091947321810365,-0.005686799516148133,-0.028667885931225538,0,70,255.0,255.0,255.0
469,23.450000000000003,-13.638509540263392,-3.1441115660024197,-12.812276660570348,-0.4754189203258084,-0.12761801484940605,-0.9917458500765268,-0.015231219021716556,-0.005941652945306745,-0.02879512698077083,0,70,255.0,255.0,255.0
470,23.5,-13.6623,-3.1505,-12.8619,-0.4762089630693919,-0.1279214688324003,-0.9931887874518037,-0.01637049072162311,-0.006196506374465116,-0.02892236803031345,0,70,255.0,255.0,255.0
471,23.55,-13.686130400718053,-3.1569032270103294,-12.911595584165719,-0.4769968546763219,-0.12819577029561843,-0.9946344158386483,-0.015145173555575368,-0.004775552154260667,-0.0289027674434692,0,70,255.0,255.0,255.0
472,23.6,-13.709998664369994,-3.1633183929010458,-12.961363425250044,-0.4777234804249495,-0.12839902404782635,-0.9960790641961507,-0.013919856389527628,-0.0033545979340562177,-0.028883166856624953,0,70,255.0,255.0,255.0
473,23.650000000000002,-13.73390172766291,-3.169741945286596,-13.011203474251513,-0.4783888403152747,-0.12853123008902406,-0.9975227325243108,-0.012694539223479887,-0.001933643713851769,-0.028863566269780705,0,70,255.0,255.0,255.0
474,23.700000000000003,-13.757836527303883,-3.1761703317814307,-13.061115682168655,-0.4789929343472975,-0.12859238841921156,-0.9989654208231289,-0.011469222057432147,-0.0005126894936473194,-0.028843965682936457,0,70,255.0,255.0,255.0
475,23.75,-13.7818,-3.1826,-13.1111,-0.47953576252101787,-0.1285824990383888,-1.0004071290926044,-0.010243904891384492,0.0009082647265570287,-0.028824365096090432,0,70,255.0,255.0,255.0
476,23.8,-13.8057903605059,-3.189028651689116,-13.161156366561542,-0.48009400768969435,-0.12857680988835268,-1.0018471263798547,-0.012085901855673712,-0.0006806987251110513,-0.028775526393924267,0,70,255.0,255.0,255.0
477,23.85,-13.829810935766439,-3.195459005125045,-13.211284671939069,-0.4807443527065852,-0.1286505689108999,-1.003284681731997,-0.013927898819962932,-0.0022696621767791312,-0.0287266876917581,0,70,255.0,255.0,255.0
478,23.900000000000002,-13.85386633077403,-3.201895032716416,-13.261484794035827,-0.48148679757169066,-0.12880377610603058,-1.0047197951490308,-0.015769895784252155,-0.003858625628447211,-0.028677848989591935,0,70,255.0,255.0,255.0
479,23.950000000000003,-13.877961150521081,-3.2083407068718577,-13.311756610755056,-0.4823213422850105,-0.12903643147374463,-1.006152466630956,-0.017611892748541372,-0.005447589080115291,-0.028629010287425767,0,70,255.0,255.0,255.0
480,24.0,-13.9021,-3.2148,-13.3621,-0.4832479868465447,-0.1293485350140421,-1.007582696177773,-0.01945388971283002,-0.007036552531783258,-0.028580171585264935,0,70,255.0,255.0,255.0
481,24.05,-13.926285757258348,-3.2212757662332057,-13.412514949588118,-0.4841631145649083,-0.12967299015096956,-1.0090170786419248,-0.017151219021712516,-0.005941652945315019,-0.028795126980806888,0,70,255.0,255.0,255.0
482,24.1,-13.950514392564251,-3.2277663865987747,-13.46300188699369,-0.48496310874871595,-0.1299427003085736,-1.0104622088758537,-0.014848548330595013,-0.004846753358846781,-0.02901008237634884,0,70,255.0,255.0,255.0
483,24.150000000000002,-13.974780149240978,-3.2342691238477417,-13.513561349605201,-0.4856479693979678,-0.13015766548685423,-1.0119180868795596,-0.012545877639477511,-0.0037518537723785416,-0.029225037771890793,0,70,255.0,255.0,255.0
484,24.200000000000003,-13.999077270611805,-3.2407812407311387,-13.564193874811144,-0.4862176965126637,-0.13031788568581146,-1.0133847126530429,-0.010243206948360008,-0.002656954185910303,-0.029439993167432746,0,70,255.0,255.0,255.0
485,24.25,-14.0234,-3.2473,-13.6149,-0.4866722900928038,-0.1304233609054453,-1.0148620861963031,-0.007940536257242226,-0.00156205459944192,-0.02965494856298001,0,70,255.0,255.0,255.0
486,24.3,-14.047744210460714,-3.253823483378061,-13.665679835085987,-0.4871095340506708,-0.1305232295077722,-1.016324559052451,-0.009549222057436357,-0.002432689493634189,-0.028843965682935735,0,70,255.0,255.0,255.0
487,24.35,-14.072112293976568,-3.260353048479856,-13.71653178008618,-0.48762721229854744,-0.1306666298548087,-1.0177464827645968,-0.01115790785763049,-0.0033033243878264587,-0.02803298280289146,0,70,255.0,255.0,255.0
488,24.400000000000002,-14.096508272262069,-3.2668908718926204,-13.767453807543381,-0.4882253248364339,-0.13085356194655484,-1.01912785733274,-0.012766593657824623,-0.004173959282018728,-0.027221999922847184,0,70,255.0,255.0,255.0
489,24.450000000000003,-14.120936167031712,-3.2734391302035903,-13.81844389000039,-0.48890387166432997,-0.1310840257830106,-1.0204686827568814,-0.014375279458018756,-0.0050445941762109975,-0.02641101704280291,0,70,255.0,255.0,255.0
490,24.5,-14.1454,-3.28,-13.8695,-0.48966285278223576,-0.13135802136417593,-1.0217689590370207,-0.01598396525821144,-0.005915229070402761,-0.025600034162760466,0,70,255.0,255.0,255.0
491,24.55,-14.169903000898808,-3.2865751002545505,-13.92062091006794,-0.4904547492324047,-0.1316420918179391,-1.0230766851482747,-0.015691892748544586,-0.0054475890801235875,-0.0267090102873958,0,70,255.0,255.0,255.0
492,24.6,-14.194445231529484,-3.293163819481802,-13.971808592661601,-0.49123204205709026,-0.1319027802721883,-1.0244398600657603,-0.015399820238877728,-0.004979949089844413,-0.027817986412031134,0,70,255.0,255.0,255.0
493,24.650000000000002,-14.21902596171076,-3.299764988581778,-14.023065820221287,-0.49199473125629245,-0.13214008672692354,-1.0258584837894777,-0.015107747729210873,-0.004512309099565239,-0.02892696253666647,0,70,255.0,255.0,255.0
494,24.700000000000003,-14.243644461261356,-3.306377438454503,-14.07439536518732,-0.49274281683001137,-0.13235401118214482,-1.0273325563194269,-0.014815675219544017,-0.004044669109286065,-0.030035938661301803,0,70,255.0,255.0,255.0
495,24.75,-14.2683,-3.313,-14.1258,-0.49347629877824684,-0.13254455363785214,-1.028862077655608,-0.014523602709874517,-0.0035770291190064807,-0.031144914785935285,0,70,255.0,255.0,255.0
496,24.8,-14.292991785944066,-3.3196313156037363,-14.177281324642255,-0.49419146901970246,-0.13270040322047505,-1.030376700354443,-0.014083206948350474,-0.0026569541859103075,-0.02943999316746788,0,70,255.0,255.0,255.0
497,24.85,-14.317718779905503,-3.326269273592937,-14.228836249267431,-0.49488461947308193,-0.13281024905644317,-1.031806076972355,-0.01364281118682643,-0.0017368792528141346,-0.027735071549000474,0,70,255.0,255.0,255.0
498,24.900000000000002,-14.342479880894908,-3.3329115737802697,-14.280460511571478,-0.4955557501383851,-0.13287409114575646,-1.0331502075093433,-0.013202415425302386,-0.0008168043197179617,-0.02603014993053307,0,70,255.0,255.0,255.0
499,24.950000000000003,-14.367273987922875,-3.3395559159784023,-14.33214984925035,-0.4962048610156122,-0.13289192948841497,-1.0344090919654083,-0.012762019663778343,0.00010327061337821143,-0.024325228312065662,0,70,255.0,255.0,255.0
500,25.0,-14.3921,-3.3462,-14.3839,-0.49683195210476294,-0.13286376408441863,-1.0355827303405498,-0.012321623902251666,0.0010233455464749852,-0.022620306693591274,0,70,255.0,255.0,255.0
501,25.05,-14.41695705532493,-3.3528428373305057,-14.435708191363041,-0.49745137468877065,-0.13286829530016184,-1.0367605134339588,-0.012455279458056447,-0.0012045941762026543,-0.024491017042772636,0,70,255.0,255.0,255.0
502,25.1,-14.441845248848507,-3.3594886861464524,-14.48757761026869,-0.49807748005056857,-0.1329842235020389,-1.0380318320448272,-0.012588935013861229,-0.0034325338988802937,-0.026361727391954002,0,70,255.0,255.0,255.0
503,25.150000000000002,-14.466764914709618,-3.366143116297146,-14.539512933492816,-0.4987102681901568,-0.13321154869004986,-1.0393966861731545,-0.01272259056966601,-0.005660473621557933,-0.028232437741135367,0,70,255.0,255.0,255.0
504,25.200000000000003,-14.491716387047154,-3.3728116976318927,-14.591518837811297,-0.4993497391075352,-0.1335502708641947,-1.0408550758189408,-0.01285624612547079,-0.007888413344235573,-0.03010314809031673,0,70,255.0,255.0,255.0
505,25.25,-14.5167,-3.3795,-14.6436,-0.4999958928027038,-0.1340003900244734,-1.042407000982186,-0.01298990168127423,-0.010116353066912609,-0.03197385843949796,0,70,255.0,255.0,255.0
506,25.3,-14.541715992756211,-3.386211735074242,-14.695759509905585,-0.5006430322252234,-0.13445041557887835,-1.043957245909706,-0.0128956752195136,-0.007884669109285414,-0.03003593866130349,0,70,255.0,255.0,255.0
507,25.35,-14.56676422470047,-3.3929431818212565,-14.747994109657823,-0.5012854603246552,-0.13478885693540194,-1.0454105948483163,-0.012801448757752973,-0.005652985151658222,-0.028098018883109022,0,70,255.0,255.0,255.0
508,25.400000000000002,-14.591844460266627,-3.3996887610311513,-14.800298954457269,-0.5019231771009989,-0.13501571409404417,-1.0467670477980169,-0.012707222295992344,-0.003421301194031028,-0.026160099104914555,0,70,255.0,255.0,255.0
509,25.450000000000003,-14.61695646388852,-3.40644289349403,-14.852669199504478,-0.5025561825542544,-0.13513098705480506,-1.0480266047588078,-0.012612995834231717,-0.0011896172364038345,-0.024222179326720085,0,70,255.0,255.0,255.0
510,25.5,-14.6421,-3.4132,-14.9051,-0.503184476684422,-0.13513467581768457,-1.049189265730689,-0.012518769372469762,0.0010420667212232004,-0.022284259548525753,0,70,255.0,255.0,255.0
511,25.55,-14.667274973650224,-3.4199558223725273,-14.957588169014622,-0.5038164964103281,-0.13510604238431975,-1.0503545029272052,-0.012762019663776773,0.00010327061336993018,-0.02432522831213116,0,70,255.0,255.0,255.0
512,25.6,-14.69248185234961,-3.426711386568522,-15.010137151100023,-0.5044606786507998,-0.13512434875634757,-1.0516217885619021,-0.013005269955083783,-0.0008355254944833401,-0.026366197075736567,0,70,255.0,255.0,255.0
513,25.650000000000002,-14.717721244223881,-3.433469039578252,-15.062752048678115,-0.5051170234058366,-0.1351895949337681,-1.052991122634779,-0.013248520246390793,-0.0017743216023366104,-0.028407165839341973,0,70,255.0,255.0,255.0
514,25.700000000000003,-14.742993757398768,-3.440231128391989,-15.115437964170805,-0.5057855306754387,-0.13530178091658124,-1.0544625051458363,-0.013491770537697803,-0.0027131177101898806,-0.03044813460294738,0,70,255.0,255.0,255.0
515,25.75,-14.7683,-3.447,-15.1682,-0.5064662004596063,-0.13546090670478705,-1.0560359360950737,-0.013735020829006572,-0.0036519138180430843,-0.032489103366545535,0,70,255.0,255.0,255.0
516,25.8,-14.79364011264289,-3.4537777754356482,-15.221041414035932,-0.5071309821334691,-0.13565341488384403,-1.0576007423814935,-0.012856246125505054,-0.004048413344235696,-0.030103148090245533,0,70,255.0,255.0,255.0
517,25.85,-14.819012365901095,-3.4605656719046562,-15.273958085942086,-0.5077518250721569,-0.13586574803921064,-1.0590462509040983,-0.011977471422003536,-0.004444912870428308,-0.027717192813945534,0,70,255.0,255.0,255.0
518,25.900000000000002,-14.844414562837853,-3.467364680655841,-15.32694405083028,-0.5083287292756695,-0.13609790617088688,-1.0603724616628882,-0.011098696718502016,-0.00484141239662092,-0.025331237537645532,0,70,255.0,255.0,255.0
519,25.950000000000003,-14.869844506516412,-3.4741757929380173,-15.379993343812314,-0.508861694744007,-0.13634988927887273,-1.061579374657863,-0.010219922015000498,-0.005237911922813532,-0.022945282261345533,0,70,255.0,255.0,255.0
520,26.0,-14.8953,-3.481,-15.4331,-0.5093507214771695,-0.13662169736316818,-1.0626669898890224,-0.00934114731149549,-0.00563441144900545,-0.02055932698503682,0,70,255.0,255.0,255.0
521,26.05,-14.920779775778216,-3.487837875884881,-15.48625977484166,-0.509851575055811,-0.13688829808030317,-1.0637385275468165,-0.01069299583416596,-0.00502961723639487,-0.02230217932672363,0,70,255.0,255.0,255.0
522,26.1,-14.94628628404602,-3.494688325812853,-15.539475305131635,-0.5104200210605861,-0.13712465908680768,-1.0648972078216947,-0.012044844356836431,-0.00442482302378429,-0.02404503166841044,0,70,255.0,255.0,255.0
523,26.150000000000002,-14.97182290442471,-3.5015498377983847,-15.59275094800078,-0.5110560594914947,-0.13733078038268162,-1.0661430307136575,-0.013396692879506901,-0.003820028811173711,-0.025787884010097246,0,70,255.0,255.0,255.0
524,26.200000000000003,-14.997393016535604,-3.5084208998559445,-15.646091060579954,-0.5117596903485369,-0.13750666196792505,-1.0674759962227045,-0.014748541402177372,-0.0032152345985631313,-0.027530736351784057,0,70,255.0,255.0,255.0
525,26.25,-15.023,-3.5153,-15.6995,-0.5125309136317125,-0.13765230384253793,-1.0688961043488359,-0.01610038992485041,-0.0026104403859521508,-0.029273588693470742,0,70,255.0,255.0,255.0
526,26.3,-15.048646384244247,-3.522185921024828,-15.752981086597437,-0.5133187176432771,-0.1377853927949417,-1.0703411474312465,-0.015411770537729364,-0.002713117710198311,-0.028528134602950662,0,70,255.0,255.0,255.0
527,26.35,-15.074331297914839,-3.5290786248439314,-15.806533493531385,-0.5140720906854854,-0.1379236156135578,-1.0717489178091308,-0.014723151150608318,-0.002815795034444471,-0.02778268051243058,0,70,255.0,255.0,255.0
528,26.400000000000002,-15.100053019463306,-3.5359783681506207,-15.860155357166612,-0.5147910327583379,-0.13806697229838616,-1.0731194154824895,-0.014034531763487273,-0.002918472358690631,-0.0270372264219105,0,70,255.0,255.0,255.0
529,26.450000000000003,-15.125809827341184,-3.5428854076382064,-15.913844813867893,-0.5154755438618343,-0.13821546284942682,-1.0744526404513222,-0.013345912376366226,-0.0030211496829367916,-0.02629177233139042,0,70,255.0,255.0,255.0
530,26.5,-15.1516,-3.5498,-15.9676,-0.5161256239959746,-0.1383690872666798,-1.0757485927156285,-0.012657292989247892,-0.003123827007181834,-0.025546318240863286,0,70,255.0,255.0,255.0
531,26.55,-15.177421887244796,-3.556722440015808,-16.02141907876859,-0.5167455543710816,-0.13853013073992956,-1.0770088827281843,-0.012139922015028752,-0.0033179119228088387,-0.02486528226136783,0,70,255.0,255.0,255.0
532,26.6,-15.20327412429463,-3.5636531748114226,-16.075300320742834,-0.5173396161974775,-0.13870087845896067,-1.0782351209417653,-0.011622551040809611,-0.0035119968384358436,-0.024184246281872372,0,70,255.0,255.0,255.0
533,26.650000000000002,-15.229155417722067,-3.5705926895991342,-16.129242023332786,-0.5179078094751625,-0.13888133042377315,-1.0794273073563716,-0.01110518006659047,-0.003706081754062848,-0.023503210302376912,0,70,255.0,255.0,255.0
534,26.700000000000003,-15.25506447409967,-3.5775414695912295,-16.183242483948494,-0.5184501342041365,-0.13907148663436697,-1.080585441972003,-0.01058780909237133,-0.003900166669689853,-0.022822174322881455,0,70,255.0,255.0,255.0
535,26.75,-15.281,-3.5845,-16.2373,-0.5189665903843996,-0.13927134709074213,-1.0817095247886597,-0.010070438118152225,-0.004094251585317732,-0.0221411383433896,0,70,255.0,255.0,255.0
536,26.8,-15.30696126677657,-3.5914683189119407,-16.291413798328197,-0.5194910648724065,-0.13945408424533937,-1.0828553216560393,-0.01090854140211911,-0.0032152345985720795,-0.02369073635179577,0,70,255.0,255.0,255.0
537,26.85,-15.332949804906645,-3.598444675910378,-16.345586823497282,-0.5200574445246116,-0.13959287055059935,-1.0840785984238392,-0.011746644686085996,-0.002336217611826427,-0.025240334360201944,0,70,255.0,255.0,255.0
538,26.900000000000002,-15.358967709648436,-3.605426873452845,-16.39982294950226,-0.5206657293410151,-0.13968770600652203,-1.0853793550920594,-0.012584747970052882,-0.001457200625080775,-0.026789932368608115,0,70,255.0,255.0,255.0
539,26.950000000000003,-15.385017076260151,-3.612412713996875,-16.45412605033816,-0.5213159193216168,-0.13973859061310742,-1.0867575916607002,-0.013422851254019767,-0.0005781836383351225,-0.02833953037701429,0,70,255.0,255.0,255.0
540,27.0,-15.4111,-3.6194,-16.5085,-0.522008014466417,-0.13974552437035553,-1.088213308129761,-0.014260954537984816,0.0003008333484100234,-0.029889128385416797,0,70,255.0,255.0,255.0
541,27.05,-15.437217845648926,-3.626387484336429,-16.562947327918618,-0.5226981861392767,-0.13976553227871838,-1.0896658306476792,-0.013345912376401245,-0.00110114968292365,-0.02821177233131278,0,70,255.0,255.0,255.0
542,27.1,-15.463369056078795,-3.6333777215470646,-16.617465185268056,-0.5233426057040571,-0.1398556393386479,-1.0910344853628922,-0.012430870214817676,-0.0025031327142573234,-0.026534416277208758,0,70,255.0,255.0,255.0
543,27.150000000000002,-15.489551343684198,-3.640374216589487,-16.672049378658194,-0.5239412731607584,-0.14001584555014412,-1.0923192722754,-0.011515828053234107,-0.0039051157455909967,-0.024857060223104736,0,70,255.0,255.0,255.0
544,27.200000000000003,-15.515762420859735,-3.6473804744212726,-16.72669571469889,-0.5244941885093806,-0.140246150913207,-1.0935201913852028,-0.010600785891650536,-0.00530709877692467,-0.02317970416900072,0,70,255.0,255.0,255.0
545,27.25,-15.542,-3.6544,-16.7814,-0.5250013517499235,-0.14054655542783656,-1.0946372426923001,-0.009685743730067031,-0.006709081808258688,-0.021502348114889713,0,70,255.0,255.0,255.0
546,27.3,-15.568262550627725,-3.6614353437423444,-16.83615928999735,-0.5255081905704854,-0.14085978663978538,-1.095745355753245,-0.010587809092405833,-0.005820166669694325,-0.022822174322914907,0,70,255.0,255.0,255.0
547,27.35,-15.594551570778183,-3.668485237901363,-16.8909756354305,-0.5260601326591641,-0.141128572094806,-1.0969194601245917,-0.011489874454744635,-0.004931251531129962,-0.024142000530940105,0,70,255.0,255.0,255.0
548,27.400000000000002,-15.620869315614778,-3.67554746018921,-16.94585233586498,-0.5266571780159598,-0.14135291179289838,-1.0981595558063393,-0.012391939817083435,-0.0040423363925655995,-0.0254618267389653,0,70,255.0,255.0,255.0
549,27.450000000000003,-15.647218040300917,-3.682619788318038,-17.00079269086631,-0.5272993266408724,-0.14153280573406257,-1.0994656427984881,-0.013294005179422237,-0.0031534212540012367,-0.026781652946990496,0,70,255.0,255.0,255.0
550,27.5,-15.6736,-3.6897,-17.0558,-0.5279865785339021,-0.1416682539182985,-1.100837721101038,-0.014196070541763639,-0.002264506115436715,-0.028101479155003162,0,70,255.0,255.0,255.0
551,27.55,-15.70001675184017,-3.696786340694194,-17.110876312092007,-0.528677051578795,-0.1417873211621429,-1.1022007463393386,-0.013422851253951318,-0.0024981836383393607,-0.026419530377014742,0,70,255.0,255.0,255.0
552,27.6,-15.726467060808472,-3.7038789268474837,-17.166018673009955,-0.5293288636592973,-0.1419180722821324,-1.1034796741387394,-0.012649631966138997,-0.002731861161242006,-0.024737581599026323,0,70,255.0,255.0,255.0
553,27.650000000000002,-15.752948993856693,-3.710978342653677,-17.2212228778819,-0.5299420147754089,-0.1420605072782671,-1.1046745044992412,-0.011876412678326675,-0.0029655386841446517,-0.023055632821037904,0,70,255.0,255.0,255.0
554,27.700000000000003,-15.779460617936609,-3.71808517230658,-17.2764847218359,-0.5305165049271299,-0.14221462615054692,-1.1057852374208434,-0.011103193390514354,-0.0031992162070472972,-0.021373684043049485,0,70,255.0,255.0,255.0
555,27.75,-15.806,-3.7252,-17.3318,-0.5310523341144604,-0.14238042889897182,-1.1068118729035459,-0.010329974102704753,-0.003432893729949482,-0.019691735265045196,0,70,255.0,255.0,255.0
