idx,t,px,py,pz,vx,vy,vz,ax,ay,az,yaw,mode,ledr,ledg,ledb
0,0.0,10.5,-7.5,0.0,-0.0005804914478847439,0.00013320421530371935,0.0005651296553921548,0.017365897374677954,-0.007998450583672349,-0.019581555864705863,0,70,255.0,255.0,255.0
1,0.05,10.499992702307877,-7.500003204648249,3.5446675941175628e-06,0.00028897393397555893,-0.0002587260609614618,-0.00042804035851960916,0.01741271789973416,-0.007678760466934896,-0.020145244691764687,0,70,255.0,255.0,255.0
2,0.1,10.500028936410502,-7.500025606197665,-4.32737765411766e-05,0.001160780342088672,-0.0006346718313897704,-0.0014493948137843144,0.017459538424790366,-0.007359070350197443,-0.020708933518823514,0,70,255.0,255.0,255.0
3,0.15000000000000002,10.50010881935919,-7.500066405422958,-0.0001418645544735296,0.0020349277764545957,-0.0009946330959812062,-0.002498933710401961,0.01750635894984657,-0.00703938023345999,-0.021272622345882338,0,70,255.0,255.0,255.0
4,0.2,10.500232468205251,-7.500124803098833,-0.00029363688827058833,0.0029114162370733293,-0.0013386098547357693,-0.0035766570483725486,0.017553179474902775,-0.006719690116722537,-0.021836311172941165,0,70,255.0,255.0,255.0
5,0.25,10.5004,-7.5002,-0.0005,0.003790245723944873,-0.0016666021076534598,-0.004682564827696077,0.01759999999995899,-0.0063999999999850826,-0.022399999999999975,0,70,255.0,255.0,255.0
6,0.30000000000000004,10.50061153179475,-7.500291196901168,-0.000762363111729412,0.004671416237069228,-0.001978609854734278,-0.0058166570483725475,0.01764682052501519,-0.00608030988324763,-0.022963688827058817,0,70,255.0,255.0,255.0
7,0.35000000000000003,10.500867180640812,-7.500397594577043,-0.0010821354455264707,0.005554927776446393,-0.0022746330959782235,-0.00697893371040196,0.01769364105007139,-0.005760619766510178,-0.023527377654117658,0,70,255.0,255.0,255.0
8,0.4,10.501167063589499,-7.500518393802335,-0.0014607262234588236,0.006440780342076367,-0.002554671831385296,-0.008169394813784312,0.017740461575127594,-0.005440929649772727,-0.024091066481176503,0,70,255.0,255.0,255.0
9,0.45,10.501511297692124,-7.500652795351751,-0.0018995446675941175,0.007328973933959151,-0.002818726060955496,-0.00938804035851961,0.017787282100183793,-0.005121239533035275,-0.024654755308235344,0,70,255.0,255.0,255.0
10,0.5,10.5019,-7.5008,-0.0024,0.008219508552094747,-0.003066795784688823,-0.010634870344607847,0.01783410262524003,-0.004801549416297821,-0.02521844413529424,0,70,255.0,255.0,255.0
11,0.55,10.502333170513126,-7.500960007747081,-0.0029628922206764714,0.009105361117727282,-0.0033468345200967486,-0.011873331447990205,0.01760000000006131,-0.006400000000019192,-0.024320000000000026,0,70,255.0,255.0,255.0
12,0.6000000000000001,10.502810341026251,-7.501136015494163,-0.0035865844413529428,0.00997950855210088,-0.0037067957846907426,-0.013066870344607852,0.017365897374882585,-0.007998450583740564,-0.023421555864705814,0,70,255.0,255.0,255.0
13,0.65,10.503330926282814,-7.5013320193677036,-0.0042688305516911775,0.010841950855215539,-0.004146679578470805,-0.014215487034460786,0.017131794749703864,-0.009596901167461931,-0.022523111729411602,0,70,255.0,255.0,255.0
14,0.7000000000000001,10.503894341026253,-7.501552015494163,-0.005007384441352943,0.011692688027071265,-0.004666485901436935,-0.015319181517549012,0.01689769212452514,-0.011195351751183302,-0.021624667594117387,0,70,255.0,255.0,255.0
15,0.75,10.5045,-7.5018,-0.0058,0.012531720067668053,-0.005266214753589135,-0.016377953793872524,0.0166635894993465,-0.012793802334904673,-0.02072622345882308,0,70,255.0,255.0,255.0
16,0.8,10.505147786152747,-7.502078372110507,-0.006645268005564704,0.01338713929202514,-0.005850052064880018,-0.01744201715966663,0.01755317947493691,-0.010559690116730637,-0.021836311172941127,0,70,255.0,255.0,255.0
17,0.8500000000000001,10.505839455254181,-7.502383143446306,-0.007545126789061762,0.014287038015161745,-0.006322183765262199,-0.018561584911166638,0.01844276945052732,-0.008325577898556601,-0.022946398887059172,0,70,255.0,255.0,255.0
18,0.9,10.506577231279243,-7.502708728726852,-0.008502351569776467,0.01523141623707787,-0.006682609854735678,-0.019736657048372547,0.01933235942611773,-0.006091465680382571,-0.024056486601177218,0,70,255.0,255.0,255.0
19,0.9500000000000001,10.507363338202872,-7.503049542671599,-0.009519717566994115,0.016220273957773517,-0.006931330333300456,-0.02096723357128436,0.020221949401708142,-0.003857353462208536,-0.025166574315295266,0,70,255.0,255.0,255.0
20,1.0,10.5082,-7.5034,-0.0106,0.017253611177248687,-0.007068345200956532,-0.02225331447990207,0.021111539377298566,-0.0016232412440344637,-0.02627666202941334,0,70,255.0,255.0,255.0
21,1.05,10.509088484875885,-7.50375610381089,-0.011744835757064713,0.01827408171418393,-0.00718895722038296,-0.02352659991334329,0.019707282100111106,-0.0032012395330226788,-0.024654755308235368,0,70,255.0,255.0,255.0
22,1.1,10.510026237957021,-7.504120210720613,-0.012951308402400016,0.0192243393872598,-0.0073884691542588,-0.024718790010725605,0.018303024822923643,-0.004779237822010894,-0.0230328485870574,0,70,255.0,255.0,255.0
23,1.1500000000000001,10.511009748600213,-7.50449626572489,-0.01421536316920296,0.020104384196476296,-0.0076668810025840506,-0.02582988477204903,0.016898767545736184,-0.00635723611099911,-0.02141094186587943,0,70,255.0,255.0,255.0
24,1.2000000000000002,10.51203550616227,-7.504888213819446,-0.015532945290670607,0.02091421614183342,-0.008024192765358712,-0.026859884197313555,0.015494510268548723,-0.007935234399987324,-0.019789035144701463,0,70,255.0,255.0,255.0
25,1.25,10.5131,-7.5053,-0.0169,0.021653835223331166,-0.008460404442582782,-0.027808788286519177,0.014090252991361268,-0.009513232688975484,-0.01816712842352375,0,70,255.0,255.0,255.0
26,1.3,10.514200674343709,-7.505734812645933,-0.018313788966176442,0.022380533851229293,-0.008930119053586864,-0.02875558318696021,0.014977692124563752,-0.009275351751187762,-0.0197046675941175,0,70,255.0,255.0,255.0
27,1.35,10.515338792917735,-7.506192813671243,-0.01977683960133818,0.02315160443578754,-0.00938793961770156,-0.02977925504593093,0.015865131257766237,-0.009037470813400042,-0.02124220676471125,0,70,255.0,255.0,255.0
28,1.4000000000000001,10.5165165743199,-7.506673408373588,-0.021292995753411703,0.02396704697700592,-0.009833866134926868,-0.030879803863431334,0.01675257039096872,-0.00879958987561232,-0.022779745935305,0,70,255.0,255.0,255.0
29,1.4500000000000002,10.517736237148045,-7.507176002050622,-0.02286610127032348,0.024826861474884415,-0.010267898605262792,-0.032057229639461435,0.017640009524171205,-0.008561708937824599,-0.02431728510589875,0,70,255.0,255.0,255.0
30,1.5,10.519,-7.5077,-0.0245,0.02573104792942303,-0.010690037028709328,-0.03331153237402121,0.018527448657373657,-0.008323828000036823,-0.02585482427649244,0,70,255.0,255.0,255.0
31,1.55,10.52030961774927,-7.5082446456053775,-0.02619760837822951,0.02665178288090019,-0.011090566565265665,-0.0345870673388159,0.018301949401712637,-0.007697353462216613,-0.02516657431529512,0,70,255.0,255.0,255.0
32,1.6,10.521664990372043,-7.5088085345944116,-0.02795813319224726,0.027561242869594296,-0.011459772374930989,-0.03582818980555073,0.018076450146051613,-0.007070878924396402,-0.024478324354097802,0,70,255.0,255.0,255.0
33,1.6500000000000001,10.523065554120183,-7.509390100780756,-0.02977985381715026,0.028459427895505353,-0.011797654457705305,-0.03703489977422568,0.017850950890390592,-0.006444404386576192,-0.023790074392900484,0,70,255.0,255.0,255.0
34,1.7000000000000002,10.524510745245548,-7.5099877779780675,-0.0316610496280355,0.029346337958633357,-0.012104212813588611,-0.03820719724484077,0.01762545163472957,-0.005817929848755982,-0.023101824431703163,0,70,255.0,255.0,255.0
35,1.75,10.526,-7.5106,-0.0336,0.030221973058978304,-0.0123794474425809,-0.039345082217396,0.017399952379068467,-0.005191455310935733,-0.022413574470506015,0,70,255.0,255.0,255.0
36,1.8,10.527532854659212,-7.511225804932555,-0.03559497752090551,0.03109233462516862,-0.012659614685353662,-0.040448147457776196,0.017414510268544243,-0.006015234399974729,-0.021709035144701648,0,70,255.0,255.0,255.0
37,1.85,10.529109245594091,-7.51186664795111,-0.03764422762967278,0.031963424085832734,-0.012980970882578375,-0.04151598573186617,0.017429068158020016,-0.006839013489013725,-0.02100449581889728,0,70,255.0,255.0,255.0
38,1.9000000000000001,10.530729209199368,-7.512524588503387,-0.03974598897798729,0.03283524144097062,-0.013343516034255036,-0.042548597039665924,0.017443626047495792,-0.00766279257805272,-0.020299956493092918,0,70,255.0,255.0,255.0
39,1.9500000000000002,10.532392781869763,-7.513201686037109,-0.04189850021753455,0.03370778669058232,-0.013747250140383648,-0.043545981381175464,0.017458183936971565,-0.008486571667091717,-0.01959541716728855,0,70,255.0,255.0,255.0
40,2.0,10.5341,-7.5139,-0.0441,0.034581059834667784,-0.014192173200964206,-0.04450813875639478,0.01747274182644748,-0.009310350756130764,-0.018890877841484466,0,70,255.0,255.0,255.0
41,2.0500000000000003,10.53585096361389,-7.514620934664402,-0.046349681538148446,0.035458878618433255,-0.014638974693313093,-0.045492342830079364,0.01764000952417123,-0.008561708937824604,-0.020477285105898798,0,70,255.0,255.0,255.0
42,2.1,10.537646027251593,-7.515363273601149,-0.04865055628906162,0.0363450607870849,-0.015048344094746667,-0.04655586726698466,0.017807277221894978,-0.00781306711951845,-0.022063692370313116,0,70,255.0,255.0,255.0
43,2.15,10.539485609082348,-7.516125145205694,-0.05100659027090058,0.037239606340622754,-0.015420281405264935,-0.047698712067110675,0.01797454491961873,-0.007064425301212297,-0.023650099634727438,0,70,255.0,255.0,255.0
44,2.2,10.541370127275401,-7.516904677873494,-0.05342174950182637,0.03814251527904678,-0.015754786624867897,-0.04892087723045741,0.01814181261734248,-0.006315783482906137,-0.02523650689914177,0,70,255.0,255.0,255.0
45,2.25,10.5433,-7.5177,-0.0559,0.039053787602357,-0.01605185975355555,-0.050222362757024845,0.01830908031506623,-0.005567141664599956,-0.026822914163556033,0,70,255.0,255.0,255.0
46,2.3000000000000003,10.545275290885229,-7.518509656409835,-0.05844389632650076,0.03995215090110105,-0.016336486541389875,-0.05151848122190633,0.017625451634695383,-0.0058179298487729915,-0.025021824431703133,0,70,255.0,255.0,255.0
47,2.35,10.547294645399543,-7.519333857644292,-0.06105034721408076,0.04081633276582654,-0.01663365273843285,-0.052724545200195164,0.016941822954324545,-0.006068718032946025,-0.02322073469985025,0,70,255.0,255.0,255.0
48,2.4000000000000004,10.549356354471245,-7.520173230673831,-0.06371484993841041,0.0416463331965335,-0.016943358344684478,-0.05384055469189136,0.016258194273953704,-0.0063195062171190605,-0.02141964496799735,0,70,255.0,255.0,255.0
49,2.45,10.55145870902863,-7.5210284024689145,-0.06643290177516002,0.04244215219322191,-0.017265603360144755,-0.0548665096969949,0.015574565593582865,-0.006570294401292094,-0.019618555236144468,0,70,255.0,255.0,255.0
50,2.5,10.5536,-7.5219,-0.0692,0.04320378975589178,-0.01760038778481368,-0.0558024102155058,0.014890936913212027,-0.006821082585465099,-0.017817465504291585,0,70,255.0,255.0,255.0
51,2.5500000000000003,10.555779072845194,-7.522788439696256,-0.07201313315584858,0.043964517777147334,-0.017935079141127717,-0.05673773228229531,0.015538183937010223,-0.0065665716670962205,-0.019595417167288853,0,70,255.0,255.0,255.0
52,2.6,10.557996991150233,-7.523693295821681,-0.07487525485461535,0.0447576081495928,-0.018257044951523305,-0.057761951932234684,0.016185430960808413,-0.0063120607487273436,-0.0213733688302861,0,70,255.0,255.0,255.0
53,2.6500000000000004,10.560255373032675,-7.524613932098976,-0.07779080997545788,0.04558306087322818,-0.018566285216000452,-0.05887506916532392,0.01683267798460661,-0.006057549830358465,-0.02315132049328337,0,70,255.0,255.0,255.0
54,2.7,10.562555836610077,-7.525549712250848,-0.0807642433975336,0.04644087594805347,-0.018862799934559152,-0.06007708398156302,0.017479925008404798,-0.005803038911989588,-0.02492927215628062,0,70,255.0,255.0,255.0
55,2.75,10.5649,-7.5265,-0.0838,0.047331053374068656,-0.019146589107199404,-0.06136799638095197,0.018127172032203098,-0.005548527993620683,-0.026707223819277814,0,70,255.0,255.0,255.0
56,2.8000000000000003,10.567289217733988,-7.52746458480514,-0.08690117105010499,0.048237777990307304,-0.01944319689411215,-0.06266658964891247,0.018141812617342525,-0.006315783482889091,-0.02523650689914171,0,70,255.0,255.0,255.0
57,2.85,10.569723789999518,-7.528444959068986,-0.0900654333674578,0.04914523463580291,-0.019778167455488313,-0.06389164707086614,0.018156453202481947,-0.0070830389721574915,-0.023765789979005622,0,70,255.0,255.0,255.0
58,2.9000000000000004,10.572203753398055,-7.529443040930262,-0.09328911015975816,0.0500534233105555,-0.0201515007913279,-0.06504316864681303,0.018171093787621374,-0.0078502944614259,-0.02229507305886952,0,70,255.0,255.0,255.0
59,2.95,10.574729144531062,-7.530460748527694,-0.09656852463470567,0.05096234401456505,-0.020563196901630904,-0.0661211543767531,0.018185734372760796,-0.0086175499506943,-0.02082435613873343,0,70,255.0,255.0,255.0
60,3.0,10.5773,-7.5315,-0.0999,0.051871996747831564,-0.021013255786397327,-0.06712560426068638,0.018200374957900056,-0.009384805439962757,-0.019353639218597674,0,70,255.0,255.0,255.0
61,3.0500000000000003,10.579916056218854,-7.532562021083187,-0.10328058264373158,0.05276437026161853,-0.021460133282428163,-0.06809990912205494,0.017494565593578332,-0.00849029440127056,-0.01961855523614442,0,70,255.0,255.0,255.0
62,3.1,10.58257584885169,-7.533645267902378,-0.10671021167555346,0.053621453307189405,-0.021862285226524385,-0.06908745978430082,0.016788756229256616,-0.007595783362578372,-0.019883471253691165,0,70,255.0,255.0,255.0
63,3.1500000000000004,10.585277613375101,-7.5347475041799745,-0.1101895493855096,0.054443245884544196,-0.022219711618685998,-0.07008825624742406,0.016082946864934895,-0.006701272323886175,-0.020148387271237914,0,70,255.0,255.0,255.0
64,3.2,10.588019585265673,-7.53586649363838,-0.11371925806364383,0.05522974799368289,-0.022532412458913003,-0.07110229851142462,0.015377137500613178,-0.005806761285193987,-0.020413303288784657,0,70,255.0,255.0,255.0
65,3.25,10.5908,-7.537,-0.1173,0.055980959634605504,-0.022800387747205397,-0.07212958657630252,0.01467132813629124,-0.004912250246501798,-0.020678219306331624,0,70,255.0,255.0,255.0
66,3.3000000000000003,10.593617757390598,-7.538146530862113,-0.12093249837496889,0.05673674096322302,-0.023068269976168534,-0.07317377386286783,0.015559925008409263,-0.0058030389120236605,-0.021089272156280738,0,70,255.0,255.0,255.0
67,3.35,10.596474414593716,-7.539307569321505,-0.12461771993032841,0.057536952135446434,-0.023380691638407763,-0.0742385137919306,0.01644852188052728,-0.006693827577545515,-0.021500325006229847,0,70,255.0,255.0,255.0
68,3.4000000000000004,10.599372193101534,-7.540485342349841,-0.12835669229820354,0.05838159315127575,-0.023737652733923087,-0.07532380636349081,0.017337118752645302,-0.007584616243067378,-0.021911377856178964,0,70,255.0,255.0,255.0
69,3.45,10.602313314406237,-7.541682076918785,-0.13215044311071913,0.05927066401071096,-0.024139153262714503,-0.0764296515775485,0.01822571562476332,-0.008475404908589232,-0.022322430706128073,0,70,255.0,255.0,255.0
70,3.5,10.6053,-7.5429,-0.136,0.060204164713752076,-0.02458519322478201,-0.0775560494341036,0.01911431249688167,-0.009366193574111115,-0.022733483556077072,0,70,255.0,255.0,255.0
71,3.5500000000000003,10.608333714218757,-7.5441406554683645,-0.13990622385639306,0.061136665885493144,-0.02503478681290172,-0.07869299542647386,0.01818573437276087,-0.008617549950677258,-0.022744356138733136,0,70,255.0,255.0,255.0
72,3.6,10.611412892773446,-7.545402854811605,-0.14386930860313296,0.06202273815102817,-0.025446948219849736,-0.0798304850479769,0.01725715624864008,-0.007868906327243406,-0.022755228721389197,0,70,255.0,255.0,255.0
73,3.6500000000000004,10.614535214218755,-7.546684726420663,-0.14788928142167632,0.06286238151035715,-0.025821677445626065,-0.08096851829861278,0.01632857812451928,-0.007120262703809549,-0.02276610130404526,0,70,255.0,255.0,255.0
74,3.7,10.617698357109377,-7.547984398686481,-0.15196616949347977,0.0636555959634801,-0.026158974490230694,-0.08210709517838145,0.01540000000039849,-0.0063716190803756985,-0.022776973886701322,0,70,255.0,255.0,255.0
75,3.75,10.6209,-7.5493,-0.1561,0.064402381510397,-0.02645883935366363,-0.08324621568728291,0.014471421876277923,-0.005622975456941903,-0.022787846469357165,0,70,255.0,255.0,255.0
76,3.8000000000000003,10.624138585734377,-7.550630047264433,-0.16029060619945895,0.06514859549481841,-0.02674458277221703,-0.08437424443123648,0.015377137500579013,-0.005806761285194008,-0.022333303288785265,0,70,255.0,255.0,255.0
77,3.85,10.627415614312502,-7.551974611432078,-0.16453704565713984,0.06594009526045491,-0.027039515482183033,-0.08547954601616144,0.016282853124880092,-0.00599054711344611,-0.02187876010821337,0,70,255.0,255.0,255.0
78,3.9000000000000004,10.630733350023442,-7.5533341519675075,-0.16883818201509132,0.06677688080730644,-0.027343637483561643,-0.08656212044205781,0.017188568749181184,-0.0061743329416982145,-0.021424216927641467,0,70,255.0,255.0,255.0
79,3.95,10.634094057156254,-7.554709128335292,-0.17319287891536184,0.06765895213537301,-0.027656948776352854,-0.0876219677089256,0.018094284373482265,-0.0063581187699503165,-0.02096967374706957,0,70,255.0,255.0,255.0
80,4.0,10.6375,-7.5561,-0.1776,0.06858630924465467,-0.02797944936055667,-0.08865908781676476,0.0189999999977839,-0.006541904598202475,-0.020515130566497675,0,70,255.0,255.0,255.0
81,4.05,10.64095274284374,-7.557507155473905,-0.18205855134577117,0.0695169521352192,-0.028306882098227,-0.08968202684858041,0.01822571562479767,-0.006555404908610796,-0.02040243070612795,0,70,255.0,255.0,255.0
82,4.1000000000000005,10.644451049976544,-7.558930699460081,-0.1865681087683078,0.07040888080713445,-0.028634989851417755,-0.09069933088737757,0.017451431251811426,-0.006568905219019117,-0.020289730845758223,0,70,255.0,255.0,255.0
83,4.15,10.647992985687477,-7.560370665709305,-0.19112839051795869,0.07126209526040035,-0.02896377262012892,-0.09171099993315623,0.016677146878825194,-0.006582405529427438,-0.0201770309853885,0,70,255.0,255.0,255.0
84,4.2,10.651576614265606,-7.561827087972353,-0.19573911484507306,0.07207659549501697,-0.029293230404360496,-0.09271703398591641,0.015902862505838965,-0.006595905839835758,-0.020064331125018774,0,70,255.0,255.0,255.0
85,4.25,10.6552,-7.5633,-0.2004,0.07285238151098425,-0.029623363204112487,-0.0937174330456581,0.015128578132853177,-0.006609406150243885,-0.019951631264649494,0,70,255.0,255.0,255.0
86,4.3,10.658861642890662,-7.564789330839948,-0.2051111884174562,0.07361559596431554,-0.029947888834877548,-0.09473764817444187,0.015400000000398649,-0.006371619080358599,-0.02085697388670109,0,70,255.0,255.0,255.0
87,4.3500000000000005,10.662561785781321,-7.566294590727597,-0.20987451926962927,0.07439238151102412,-0.03026052511214835,-0.09580313043432823,0.015671421867944128,-0.0061338320104733085,-0.021762316508752697,0,70,255.0,255.0,255.0
88,4.4,10.666301107226653,-7.567815185195271,-0.21469225591307411,0.07518273815110997,-0.03056127203592488,-0.09691387982531714,0.0159428437354896,-0.005896044940588023,-0.02266765913080429,0,70,255.0,255.0,255.0
89,4.45,10.67008028578132,-7.569350519775297,-0.219566661704346,0.07598666588457308,-0.03085012960620715,-0.09806989634740865,0.016214265603035072,-0.005658257870702736,-0.023573001752855885,0,70,255.0,255.0,255.0
90,4.5,10.6739,-7.5709,-0.2245,0.07680416471141346,-0.03112709782299515,-0.09927118000060273,0.016485687470580324,-0.005420470800817423,-0.024478344374907257,0,70,255.0,255.0,255.0
91,4.55,10.677760685593618,-7.572463521166305,-0.22949349498440383,0.07762066400751429,-0.03142156256226434,-0.10045538045365215,0.01617428437345274,-0.006358118769950379,-0.02288967374706972,0,70,255.0,255.0,255.0
92,4.6000000000000005,10.68166180689817,-7.5740429376295335,-0.23454421415317542,0.07842159314875875,-0.03176290969999019,-0.1015601473753097,0.015862881276325156,-0.007295766739083352,-0.021301003119232158,0,70,255.0,255.0,255.0
93,4.65,10.685602585405913,-7.575640593509611,-0.23964818582974498,0.07920695213514681,-0.03215113923617268,-0.10258548076557537,0.015551478179197574,-0.00823341470821631,-0.019712332491394625,0,70,255.0,255.0,255.0
94,4.7,10.689582242609106,-7.577258832926459,-0.24480143833754306,0.0799767409666785,-0.03258625117081182,-0.10353138062444917,0.015240075082069992,-0.009171062677349266,-0.01812366186355709,0,70,255.0,255.0,255.0
95,4.75,10.6936,-7.5789,-0.25,0.0807309596433538,-0.033068245503907606,-0.10439784695193108,0.014928671984942188,-0.010108710646482222,-0.016534991235718666,0,70,255.0,255.0,255.0
96,4.800000000000001,10.697655614734865,-7.580565384494834,-0.2552412316449285,0.0815017480056242,-0.03353386091606545,-0.10526483001094951,0.01590286250587322,-0.008515905839831172,-0.018144331125018343,0,70,255.0,255.0,255.0
97,4.8500000000000005,10.701750986625996,-7.582252058754268,-0.26052782411766945,0.08232124589394114,-0.03391983608789073,-0.10621228006443292,0.016877053026804232,-0.0069231010331801505,-0.01975367101431799,0,70,255.0,255.0,255.0
98,4.9,10.705888551149695,-7.583956040766284,-0.26586380076794613,0.08318945330830461,-0.03422617101938346,-0.10724019711238131,0.01785124354773525,-0.00533029622652913,-0.02136301090361764,0,70,255.0,255.0,255.0
99,4.95,10.71007074378226,-7.585673348518867,-0.27125318494548195,0.08410637024871466,-0.034452865710543644,-0.10834858115479468,0.018825434068666262,-0.003737491419878108,-0.02297235079291729,0,70,255.0,255.0,255.0
100,5.0,10.7143,-7.5874,-0.2767,0.08507199671517125,-0.03459992016137127,-0.10953743219167303,0.01979962458959761,-0.002144686613227087,-0.02458169068221716,0,70,255.0,255.0,255.0
101,5.050000000000001,10.718577655466918,-7.589133340854359,-0.2822071784358826,0.08602034396998696,-0.03474699377346963,-0.11074129950254989,0.018134265603030594,-0.003738257870707207,-0.02357300175285658,0,70,255.0,255.0,255.0
102,5.1000000000000005,10.722900646597841,-7.590876027353394,-0.2877732893761472,0.08688542327547433,-0.034973745948441985,-0.1118947323669587,0.01646890661646361,-0.005331829128187299,-0.022564312823496014,0,70,255.0,255.0,255.0
103,5.15,10.72726480999531,-7.592632043425251,-0.2933958110984707,0.08766723463163334,-0.035280176686288356,-0.11299773078489948,0.014803547629896628,-0.006925400385667391,-0.02155562389413545,0,70,255.0,255.0,255.0
104,5.2,10.73166598226185,-7.594405372998072,-0.2990722218805294,0.08836577803846397,-0.035666285987008724,-0.11405029475637224,0.013138188643329645,-0.008518971643147483,-0.020546934964774884,0,70,255.0,255.0,255.0
105,5.25,10.7361,-7.5962,-0.3048,0.08898105349596629,-0.0361320738506031,-0.11505242428137696,0.01147282965676244,-0.010112542900627575,-0.01953824603541454,0,70,255.0,255.0,255.0
106,5.300000000000001,10.740564163397464,-7.598018852087729,-0.3105772546115416,0.0896008761144372,-0.036614163990052954,-0.11604197197885124,0.013320075082074249,-0.009171062677366303,-0.020043661863556047,0,70,255.0,255.0,255.0
107,5.3500000000000005,10.745061626982631,-7.599860631832152,-0.316404618377742,0.09031306100417372,-0.037049180118339735,-0.11705679046773257,0.015167320507386025,-0.008229582454105046,-0.020549077691697542,0,70,255.0,255.0,255.0
108,5.4,10.749597008869069,-7.601722985532711,-0.3222833548381716,0.0911176081651758,-0.03743712223546346,-0.118096879748021,0.017014565932697803,-0.00728810223084379,-0.021054493519839037,0,70,255.0,255.0,255.0
109,5.45,10.754174927170338,-7.603603559488846,-0.32821472753240083,0.09201451759744349,-0.037777990341424116,-0.11916223981971646,0.01886181135800958,-0.006346622007582533,-0.021559909347980535,0,70,255.0,255.0,255.0
110,5.5,10.7588,-7.6055,-0.3342,0.09300378930097677,-0.03807178443622171,-0.12025287068281902,0.020709056783321467,-0.005405141784321388,-0.022065325176122585,0,70,255.0,255.0,255.0
111,5.550000000000001,10.763475290943232,-7.607410450794723,-0.34023980311795154,0.09399215157227564,-0.038348350266326166,-0.12133081258204505,0.01882543406863235,-0.0056574914198566344,-0.021052350792917816,0,70,255.0,255.0,255.0
112,5.6000000000000005,10.768197645471632,-7.609335045317995,-0.34633223711288524,0.09488633270784001,-0.03863753357820738,-0.12235810576211081,0.01694181135394326,-0.005909841055391876,-0.02003937640971306,0,70,255.0,255.0,255.0
113,5.65,10.77296235452842,-7.611274414443907,-0.35247476954884327,0.09568633270766995,-0.03893933437186535,-0.12333475022301633,0.015058188639254174,-0.006162190690927118,-0.019026402026508307,0,70,255.0,255.0,255.0
114,5.7,10.777764709056804,-7.613229189046545,-0.35866486798986746,0.09639215157176542,-0.039253752647300084,-0.12426074596476164,0.01317456592456509,-0.0064145403264623604,-0.018013427643303555,0,70,255.0,255.0,255.0
115,5.75,10.7826,-7.6152,-0.3649,0.09700378930012647,-0.03958078840451158,-0.1251360929873467,0.011290943209876336,-0.00666688996199738,-0.01700045326009847,0,70,255.0,255.0,255.0
116,5.800000000000001,10.787465072829617,-7.617187344733378,-0.3711787329166528,0.09761451759645663,-0.039912434944640314,-0.12602677769296855,0.013138188643329633,-0.006598971643151839,-0.0186269349647749,0,70,255.0,255.0,255.0
117,5.8500000000000005,10.79236299113084,-7.619191186895865,-0.37750403317071746,0.09831760816445943,-0.04024068556882677,-0.12699878648382423,0.014985434076782897,-0.006531053324306301,-0.020253416669451303,0,70,255.0,255.0,255.0
118,5.9,10.797298373017258,-7.621211356691662,-0.38387996696645577,0.0991130610041349,-0.04056554027707095,-0.12805211935991367,0.016832679510236162,-0.006463135005460762,-0.021879898374127703,0,70,255.0,255.0,255.0
119,5.95,10.80227583660245,-7.623247684324973,-0.3903106005081294,0.10000087611548306,-0.04088699906937285,-0.12918677632123698,0.018679924943689426,-0.0063952166866152235,-0.023506380078804106,0,70,255.0,255.0,255.0
120,6.0,10.8073,-7.6253,-0.3968,0.10098105349850386,-0.041205061945732466,-0.13040275736779408,0.020527170377143245,-0.006327298367769685,-0.025132861783480065,0,70,255.0,255.0,255.0
121,6.050000000000001,10.812374017738305,-7.6273681702717635,-0.40335086521543767,0.10196577804188355,-0.04152190995511628,-0.1316180766460806,0.018861811358043854,-0.006346622007582625,-0.023479909347980343,0,70,255.0,255.0,255.0
122,6.1000000000000005,10.817495190005005,-7.629452207098544,-0.4099604302042452,0.10286723463430826,-0.04183972414649073,-0.13275074830259212,0.017196452338944495,-0.0063659456473955656,-0.021826956912480648,0,70,255.0,255.0,255.0
123,6.15,10.822659353402553,-7.631552158789446,-0.4166245625853339,0.103685423275778,-0.04215850451985583,-0.13380077233732865,0.015531093319845134,-0.006385269287208506,-0.020174004476980957,0,70,255.0,255.0,255.0
124,6.2,10.827862344533402,-7.633668073653564,-0.42333912997761514,0.10442034396629277,-0.04247825107521158,-0.13476814875029022,0.013865734300745773,-0.006404592927021446,-0.018521052041481263,0,70,255.0,255.0,255.0
125,6.25,10.8331,-7.6358,-0.4301,0.10507199670585259,-0.04279896381255798,-0.13565287754147676,0.012200375281646747,-0.006423916566834553,-0.016868099605980458,0,70,255.0,255.0,255.0
126,6.300000000000001,10.838369256217163,-7.6379479741795695,-0.436904206221597,0.10570637023600789,-0.04311992523489041,-0.1365249157227089,0.013174565924565266,-0.006414540326462303,-0.018013427643304353,0,70,255.0,255.0,255.0
127,6.3500000000000005,10.843671448849136,-7.6401119847099555,-0.44375344601230204,0.10638945329830912,-0.043440417845204214,-0.1374542203058072,0.014148756567483767,-0.006405164086090054,-0.019158755680628227,0,70,255.0,255.0,255.0
128,6.4,10.84900901337253,-7.642292008150556,-0.4506505826922087,0.10712124589275626,-0.04376044164349941,-0.13844079129077172,0.015122947210402266,-0.006395787845717804,-0.0203040837179521,0,70,255.0,255.0,255.0
129,6.45,10.854384385263948,-7.644488021060771,-0.45759847958141026,0.10790174801934935,-0.044079996629776,-0.1394846286776024,0.01609713785332077,-0.006386411605345555,-0.021449411755275975,0,70,255.0,255.0,255.0
130,6.5,10.8598,-7.6467,-0.4646,0.10873095967808832,-0.04439908280403397,-0.1405857324662993,0.017071328496239158,-0.006377035364973471,-0.022594739792599405,0,70,255.0,255.0,255.0
131,6.550000000000001,10.865257757393044,-7.648927933009959,-0.47165710989817505,0.10957674101408581,-0.044718389105324115,-0.14169026046308433,0.016759924943660028,-0.006395216686632277,-0.021586380078802033,0,70,255.0,255.0,255.0
132,6.6000000000000005,10.870757414598447,-7.6511718540616345,-0.47876818574654706,0.11040695217245433,-0.045038604472697204,-0.1427443704741795,0.0164485213910809,-0.006413398008291083,-0.020578020365004678,0,70,255.0,255.0,255.0
133,6.65,10.87629819310733,-7.65343180860833,-0.4859307066458315,0.1112215931531939,-0.045359728906153224,-0.1437480624995848,0.016137117838501778,-0.006431579329949888,-0.019569660651207327,0,70,255.0,255.0,255.0
134,6.7,10.881879314410806,-7.65570784210335,-0.49314215169674397,0.11202066395630451,-0.04568176240569219,-0.14470133653930026,0.01582571428592265,-0.006449760651608694,-0.018561300937409972,0,70,255.0,255.0,255.0
135,6.75,10.8875,-7.658,-0.5004,0.11280416458178615,-0.04600470497131409,-0.1456041925933258,0.01551431073334364,-0.006467941973267388,-0.017552941223612173,0,70,255.0,255.0,255.0
136,6.800000000000001,10.893159714210658,-7.660308293780596,-0.5077025541857033,0.11358666570763915,-0.04632651834382046,-0.14650604242495316,0.015785734300775747,-0.006404592926987362,-0.018521052041481682,0,70,255.0,255.0,255.0
137,6.8500000000000005,10.898858892757069,-7.662632599043511,-0.5150514110015103,0.11438273801186373,-0.046645164264012835,-0.14745629779747396,0.016057157868207852,-0.006341243880707336,-0.01948916285935117,0,70,255.0,255.0,255.0
138,6.9,10.90459821419815,-7.664972757416126,-0.5224489907244656,0.11519238149445993,-0.0469606427318912,-0.14845495871088826,0.016328581435639956,-0.00627789483442731,-0.020457273677220663,0,70,255.0,255.0,255.0
139,6.95,10.91037835709282,-7.667328610525828,-0.529897713631614,0.11601559615542772,-0.04727295374745556,-0.14950202516519603,0.01660000500307206,-0.006214545788147285,-0.02142538449509015,0,70,255.0,255.0,255.0
140,7.0,10.9162,-7.6697,-0.5374,0.11685238199476711,-0.04758209731070593,-0.1505974971603973,0.01687142857050339,-0.006151196741867426,-0.022393495312958978,0,70,255.0,255.0,255.0
141,7.050000000000001,10.92206338576432,-7.6720868918676555,-0.544957473359012,0.1176765961553627,-0.04789553751938669,-0.15169356983710322,0.016097137853320377,-0.006386411605362766,-0.021449411755276534,0,70,255.0,255.0,255.0
142,7.1000000000000005,10.927967014373271,-7.674489749764325,-0.5525685702474123,0.11846209578009916,-0.04822073847124221,-0.15274243833592496,0.015322847136137376,-0.006621626468858102,-0.02050532819759411,0,70,255.0,255.0,255.0
143,7.15,10.933908950100065,-7.676909161727166,-0.5602309304563066,0.11920888086897644,-0.0485577001662725,-0.1537441026568626,0.014548556418954379,-0.006856841332353438,-0.019561244639911685,0,70,255.0,255.0,255.0
144,7.2,10.939887257217904,-7.679345715793338,-0.5679421937768004,0.11991695142199459,-0.04890642260447755,-0.15469856279991612,0.01377426570177138,-0.007092056195848773,-0.018617161082229258,0,70,255.0,255.0,255.0
145,7.25,10.9459,-7.6818,-0.5757,0.12058630743915358,-0.049266905785857365,-0.15560581876508553,0.012999974984587714,-0.007327271059344276,-0.017673077524545944,0,70,255.0,255.0,255.0
146,7.300000000000001,10.951945942732063,-7.6842721387487805,-0.5835027523782488,0.1212589496709156,-0.04961133157863162,-0.15651167822663437,0.013905714285892903,-0.0064497606516257565,-0.018561300937407457,0,70,255.0,255.0,255.0
147,7.3500000000000005,10.958026649749842,-7.68676040189919,-0.5913519080088409,0.12197687886774287,-0.04991188185101995,-0.15746194885882628,0.014811453587198074,-0.005572250243907253,-0.019449524350268952,0,70,255.0,255.0,255.0
148,7.4,10.96414438540159,-7.689262595675209,-0.5992496874503088,0.1227400950296354,-0.05016855660302234,-0.15845663066166127,0.015717192888503248,-0.004694739836188748,-0.020337747763130447,0,70,255.0,255.0,255.0
149,7.45,10.970301414035557,-7.69177652630082,-0.6071983112611843,0.12354859815659319,-0.05038135583463881,-0.1594957236351393,0.01662293218980842,-0.0038172294284702446,-0.021225971175991946,0,70,255.0,255.0,255.0
150,7.5,10.9765,-7.6943,-0.6152,0.12440238824861623,-0.05055027954586937,-0.16057922777926043,0.017528671491113257,-0.002939719020751963,-0.02211419458885322,0,70,255.0,255.0,255.0
151,7.550000000000001,10.982741643307424,-7.696831753137223,-0.6232563171279935,0.12525560516097173,-0.05073113616609111,-0.1616677172563591,0.016600005003105843,-0.004294545788117828,-0.02142538449509236,0,70,255.0,255.0,255.0
152,7.6000000000000005,10.989024786627356,-7.699374242638915,-0.6313661977172246,0.12606238874892683,-0.050979734124681146,-0.1627217662287697,0.015671338515098443,-0.005649372555483671,-0.020736574401331514,0,70,255.0,255.0,255.0
153,7.65,10.995347108293577,-7.701930855571997,-0.6395279197424588,0.12682273901248156,-0.05129607342163948,-0.16374137469649222,0.014742672027091046,-0.007004199322849512,-0.020047764307570666,0,70,255.0,255.0,255.0
154,7.7,11.001706286639866,-7.704504979003386,-0.6477397611784622,0.12753665595163594,-0.0516801540569661,-0.16472654265952674,0.013814005539083648,-0.008359026090215355,-0.019358954213809818,0,70,255.0,255.0,255.0
155,7.75,11.0081,-7.7071,-0.656,0.1282041395663899,-0.05213197603066102,-0.16567727011787323,0.012885339051075695,-0.009713852857581362,-0.01867014412004875,0,70,255.0,255.0,255.0
156,7.800000000000001,11.014526684038238,-7.709718448702328,-0.6643071791097782,0.12887062968521024,-0.05260012375699709,-0.1666094527479301,0.013774265701736933,-0.009012056195861363,-0.018617161082226597,0,70,255.0,255.0,255.0
157,7.8500000000000005,11.02098780374073,-7.712359427545147,-0.6726609011222616,0.1295815661365636,-0.05303318165024716,-0.1675389862260959,0.014663192352398156,-0.008310259534141377,-0.018564178044404443,0,70,255.0,255.0,255.0
158,7.9,11.027485581424104,-7.715021182036802,-0.6810610335798561,0.13033694892045006,-0.05343114971041123,-0.16846587055237056,0.015552119003059379,-0.00760846287242139,-0.01851119500658229,0,70,255.0,255.0,255.0
159,7.95,11.034022239404985,-7.717701957685638,-0.689507444024967,0.13113677803686952,-0.053794027937489296,-0.16939010572675411,0.0164410456537206,-0.006906666210701404,-0.01845821196876014,0,70,255.0,255.0,255.0
160,8.0,11.0406,-7.7204,-0.698,0.13198105348582206,-0.05412181633148136,-0.17031169174924657,0.017329972304380714,-0.006204869548981362,-0.018405228930936657,0,70,255.0,255.0,255.0
161,8.05,11.047220420539624,-7.72311365205346,-0.7065389664328949,0.13282987609817679,-0.054420368805917975,-0.17125447175191977,0.016622932189808006,-0.005737229428482886,-0.019305971175991456,0,70,255.0,255.0,255.0
162,8.1,11.053882398409723,-7.725841647180491,-0.7151261977937294,0.13364334670480288,-0.05469553927432965,-0.1722422888668457,0.015915892075235322,-0.005269589307984427,-0.020206713421046223,0,70,255.0,255.0,255.0
163,8.15,11.060584166010008,-7.728582816280793,-0.7237639459381169,0.13442146530570032,-0.05494732773671641,-0.1732751430940244,0.015208851960662613,-0.004801949187485951,-0.021107455666101022,0,70,255.0,255.0,255.0
164,8.200000000000001,11.067323955740196,-7.731335990254062,-0.7324544627216696,0.13516423190086915,-0.05517573419307825,-0.17435303443345584,0.014501811846089903,-0.004334309066987475,-0.02200819791115582,0,70,255.0,255.0,255.0
165,8.25,11.0741,-7.7341,-0.7412,0.1358716464903093,-0.05538075864341515,-0.17547596288513995,0.013794771731516331,-0.0038666689464888493,-0.02290894015620948,0,70,255.0,255.0,255.0
166,8.3,11.080910833803268,-7.73687414308383,-0.750001755158643,0.13656186592207517,-0.055590401019332554,-0.1765806602443905,0.013814005539117337,-0.004519026090207333,-0.021278954213811718,0,70,255.0,255.0,255.0
167,8.35,11.087756202620382,-7.739659583732886,-0.7588567077028204,0.13725304704422103,-0.05583266125243588,-0.17760385830652112,0.01383323934671834,-0.005171383233925793,-0.019648968271414012,0,70,255.0,255.0,255.0
168,8.4,11.094636154535863,-7.742457952840027,-0.7677607826676764,0.137945189856747,-0.05610753934272514,-0.17854555707153189,0.013852473154319344,-0.005823740377644276,-0.018018982329016255,0,70,255.0,255.0,255.0
169,8.450000000000001,11.101550737634227,-7.7452708812981115,-0.776709905088355,0.13863829435965297,-0.05641503529020032,-0.17940575653942278,0.01387170696192035,-0.006476097521362759,-0.01638899638661849,0,70,255.0,255.0,255.0
170,8.5,11.1085,-7.7481,-0.7857,0.139332360552939,-0.056755149094861415,-0.18018445671019373,0.013890940769520688,-0.007128454665081274,-0.014759010444220788,0,70,255.0,255.0,255.0
171,8.55,11.11548424424731,-7.750946575611218,-0.7947284129325336,0.14004266021352013,-0.05710602711675599,-0.18096688727051824,0.01452104565372455,-0.00690666621070137,-0.016538211968760066,0,70,255.0,255.0,255.0
172,8.6,11.122504791108755,-7.753810417887964,-0.8037981713949888,0.14078446511831144,-0.057445815715931554,-0.18183827790706975,0.015151150537928388,-0.006684877756321474,-0.01831741349329928,0,70,255.0,255.0,255.0
173,8.65,11.129563215846545,-7.756690972359101,-0.8129137233911776,0.14155777526731297,-0.05777451489238813,-0.1827986286198482,0.01578125542213225,-0.00646308930194157,-0.020096615017838562,0,70,255.0,255.0,255.0
174,8.700000000000001,11.136661093722891,-7.759587684553491,-0.822079516924911,0.14236259066052467,-0.05809212464612572,-0.18384793940885363,0.016411360306336113,-0.006241300847561666,-0.02187581654237784,0,70,255.0,255.0,255.0
175,8.75,11.1438,-7.7625,-0.8313,0.14319891129794654,-0.05839864497714429,-0.184986210274086,0.01704146519053973,-0.006019512393181603,-0.023655018066917277,0,70,255.0,255.0,255.0
176,8.8,11.150980989207492,-7.765427554471295,-0.8405781931112233,0.1440354932238613,-0.0587054905136484,-0.18612779067353777,0.01642181184605115,-0.006254309066982869,-0.022008197911153025,0,70,255.0,255.0,255.0
177,8.85,11.158203032944598,-7.76837074471526,-0.8499114067172239,0.14484109248255164,-0.05902407588384257,-0.1871870300652013,0.015802158501562594,-0.006489105740784127,-0.02036137775538883,0,70,255.0,255.0,255.0
178,8.9,11.165464582077961,-7.771330157723575,-0.8592955237676134,0.14561570907401758,-0.05935440108772681,-0.18816392844907662,0.015182505157074018,-0.006723902414585394,-0.018714557599624582,0,70,255.0,255.0,255.0
179,8.950000000000001,11.172764087474214,-7.7743063804879275,-0.868726427212002,0.1463593429982591,-0.05969646612530112,-0.1890584858251638,0.01456285181258544,-0.0069586990883866605,-0.01706773744386033,0,70,255.0,255.0,255.0
180,9.0,11.1801,-7.7773,-0.8782,0.14707199425527615,-0.060050270996565486,-0.18987070219346266,0.013943198468096663,-0.0071934957621877516,-0.015420917288096136,0,70,255.0,255.0,255.0
181,9.05,11.18747099892272,-7.7803112065035975,-0.8877132146225745,0.14776736689102657,-0.06039201082865425,-0.19066595003533054,0.01387170696191977,-0.006476097521362724,-0.016388996386618497,0,70,255.0,255.0,255.0
182,9.1,11.194876677112848,-7.783338603250999,-0.8972674017361151,0.1484591649514681,-0.06069788074870176,-0.1915096018321245,0.013800215455742882,-0.005758699280537721,-0.01735707548514082,0,70,255.0,255.0,255.0
183,9.15,11.202316855841612,-7.7863803967466,-0.9068649815383689,0.14914738843660086,-0.06096788075670802,-0.19240165758384462,0.01372872394956599,-0.005041301039712693,-0.01832515458366318,0,70,255.0,255.0,255.0
184,9.200000000000001,11.209791356380252,-7.789434793494802,-0.9165083742270819,0.14983203734642472,-0.06120201085267303,-0.19334211729049083,0.013657232443389098,-0.0043239027988876645,-0.019293233682185537,0,70,255.0,255.0,255.0
185,9.25,11.2173,-7.7925,-0.9262,0.15051311168093973,-0.06140027103659679,-0.19433098095206314,0.0135857409372111,-0.003606504558062662,-0.020261312780706753,0,70,255.0,255.0,255.0
186,9.3,11.224843015101623,-7.795574819514315,-0.9359417483984799,0.1512150392120294,-0.06159846617173708,-0.19533640918514034,0.014491360306374204,-0.0043213008475490354,-0.019955816542380052,0,70,255.0,255.0,255.0
187,9.35,11.23242225860401,-7.798660442280749,-0.9457333863383153,0.15196224771157715,-0.06183240112135169,-0.19632656260630113,0.015396979675537275,-0.005036097137035384,-0.01965032030405336,0,70,255.0,255.0,255.0
188,9.4,11.240039994555588,-7.801758655290024,-0.9555741500789113,0.15275473717958307,-0.06210207588544062,-0.19730144121554566,0.01630259904470038,-0.005750893426521757,-0.01934482406572666,0,70,255.0,255.0,255.0
189,9.450000000000001,11.247698487004776,-7.804871245532867,-0.9654632758796716,0.1535925076160472,-0.06240749046400387,-0.19826104501287384,0.017208218413863482,-0.006465689716008131,-0.01903932782739996,0,70,255.0,255.0,255.0
190,9.5,11.2554,-7.808,-0.9754,0.1544755590209694,-0.06274864485704143,-0.19920537399828564,0.018113837783026332,-0.007180486005494702,-0.01873383158907238,0,70,255.0,255.0,255.0
191,9.55,11.263145740670788,-7.811146315439143,-0.9853837917835069,0.15534047626085876,-0.06310212448438889,-0.20014841322410892,0.01648285181254716,-0.0069586990884037605,-0.018987737443857892,0,70,255.0,255.0,255.0
192,9.600000000000001,11.270932688471111,-7.814310027626007,-0.9954150529106235,0.15612384420222417,-0.06344451476588182,-0.20110414774267144,0.014851865842067989,-0.006736912171312819,-0.019241643298643404,0,70,255.0,255.0,255.0
193,9.65,11.278756765936038,-7.817490582093301,-1.0054944181459862,0.15682566284506555,-0.06377581570152017,-0.20207257755397326,0.013220879871588875,-0.006515125254221886,-0.019495549153428906,0,70,255.0,255.0,255.0
194,9.700000000000001,11.286613895600642,-7.8206874243737285,-1.015622522254233,0.15744593218938302,-0.06409602729130401,-0.20305370265801434,0.011589893901109703,-0.006293338337130945,-0.019749455008214418,0,70,255.0,255.0,255.0
195,9.75,11.2945,-7.8239,-1.0258,0.15798465223517652,-0.06440514953523328,-0.2040475230547947,0.00995890793063059,-0.0060715514200399,-0.020003360863000585,0,70,255.0,255.0,255.0
196,9.8,11.30241242221522,-7.827127918729111,-1.0360270844674933,0.15852705574452797,-0.06471303589070679,-0.2050299379184243,0.011737232443427174,-0.006243902798900105,-0.01929323368218311,0,70,255.0,255.0,255.0
197,9.850000000000001,11.310354187511546,-7.83037144721522,-1.0463024020191922,0.15915837547951928,-0.06502953981512331,-0.20597684642301306,0.013515556956223758,-0.0064162541777603105,-0.018583106501365635,0,70,255.0,255.0,255.0
198,9.9,11.318329741700264,-7.833631016336773,-1.0566241773371439,0.15987861144015034,-0.06535466130848282,-0.2068882485685609,0.015293881469020278,-0.006588605556620509,-0.017872979320548182,0,70,255.0,255.0,255.0
199,9.950000000000001,11.326343530592656,-7.836907056972217,-1.0669906351033973,0.16068776362642126,-0.06568840037078534,-0.20776414435506785,0.01707220598181686,-0.006760956935480715,-0.017162852139730705,0,70,255.0,255.0,255.0
200,10.0,11.3344,-7.8402,-1.0774,0.161585832038332,-0.06603075700203088,-0.2086045337825339,0.01885053049461316,-0.0069333083143406915,-0.016452724958913922,0,70,255.0,255.0,255.0
201,10.05,11.342502170468334,-7.843510009644413,-1.0878510703465205,0.16248730076104306,-0.06636573195278918,-0.20944383510219192,0.017208218413829156,-0.006465689715991079,-0.017119327827406494,0,70,255.0,255.0,255.0
202,10.100000000000001,11.350647361482704,-7.846836183513115,-1.0983449390126099,0.16330665387971494,-0.06667732597363,-0.21031646656527458,0.015565906333045151,-0.005998071117641466,-0.017785930695899062,0,70,255.0,255.0,255.0
203,10.15,11.358831467262904,-7.8501773525596095,-1.1088832725054385,0.16404389139434755,-0.06696553906455333,-0.21122242817178183,0.013923594252261206,-0.00553045251929187,-0.01845253356439161,0,70,255.0,255.0,255.0
204,10.200000000000001,11.367050382028738,-7.853532347737405,-1.1194677373321784,0.16469901330494102,-0.0672303712255592,-0.21216171992171373,0.012281282171477201,-0.005062833920942257,-0.01911913643288418,0,70,255.0,255.0,255.0
205,10.25,11.3753,-7.8569,-1.1301,0.16527201961149532,-0.06747182245664754,-0.21313434181507027,0.010638970090693922,-0.0045952153225921055,-0.019785739301377392,0,70,255.0,255.0,255.0
206,10.3,11.383577295911442,-7.860279242693243,-1.140781434146425,0.1658277412112904,-0.0676960362981403,-0.21412272167281,0.011589893901109928,-0.004373338337118279,-0.019749455008210546,0,70,255.0,255.0,255.0
207,10.350000000000001,11.391883566557638,-7.863669418732326,-1.1515122419303705,0.16643100900160634,-0.06790915629035937,-0.21510928731589135,0.012540817711525936,-0.004151461351644453,-0.019713170715043703,0,70,255.0,255.0,255.0
208,10.4,11.40022118924811,-7.86706997342479,-1.1622923326411032,0.167081822982443,-0.06811118243330475,-0.21609403874431435,0.01349174152194191,-0.003929584366170634,-0.01967688642187686,0,70,255.0,255.0,255.0
209,10.450000000000001,11.408592541292391,-7.870480352078169,-1.1731216155678907,0.1677801831538005,-0.06830211472697643,-0.21707697595807904,0.014442665332357916,-0.003707707380696807,-0.019640602128710015,0,70,255.0,255.0,255.0
210,10.5,11.417,-7.8739,-1.184,0.1685260895156788,-0.06848195317137441,-0.21805809895718534,0.015393589142773889,-0.0034858303952228775,-0.01960431783554273,0,70,255.0,255.0,255.0
211,10.55,11.425445445885895,-7.877329019582622,-1.1949271930677807,0.16928973439379452,-0.06869012285464254,-0.2190252782065672,0.015152205981855045,-0.004840956935502303,-0.019082852139730325,0,70,255.0,255.0,255.0
212,10.600000000000001,11.433928772286746,-7.880770141557581,-1.2059020932659104,0.17004131011386434,-0.06896604886492465,-0.21996638417115838,0.014910822820936202,-0.006196083475781727,-0.018561386443917922,0,70,255.0,255.0,255.0
213,10.65,11.442449375744648,-7.88422675374123,-1.2169233969301498,0.17078081667588813,-0.06930973120222071,-0.22088141685095897,0.014669439660017368,-0.007551210016061104,-0.01803992074810554,0,70,255.0,255.0,255.0
214,10.700000000000001,11.4510066528017,-7.88770224394992,-1.2279898003962597,0.17150825407986606,-0.06972116986653075,-0.22177037624596896,0.014428056499098525,-0.008906336556340528,-0.017518455052293137,0,70,255.0,255.0,255.0
215,10.75,11.4596,-7.8912,-1.2391,0.172223622325798,-0.07020036485785476,-0.22263326235618827,0.01418667333817969,-0.010261463096619905,-0.016996989356480308,0,70,255.0,255.0,255.0
216,10.8,11.468228920544977,-7.894722278976275,-1.2502529935824536,0.1729333212135385,-0.07067947228329359,-0.2234881655009224,0.014201282171439056,-0.008902833920933032,-0.01719913643288469,0,70,255.0,255.0,255.0
217,10.850000000000001,11.476893344295382,-7.898266815037351,-1.2614489850059896,0.17364375054294193,-0.07109064824994808,-0.22435317599947677,0.014215891004698422,-0.007544204745246159,-0.017401283509289073,0,70,255.0,255.0,255.0
218,10.9,11.4855933077733,-7.90183021161029,-1.2726884796382982,0.17435491031400832,-0.07143389275781821,-0.2252282938518513,0.014230499837957789,-0.006185575569559333,-0.01760343058569345,0,70,255.0,255.0,255.0
219,10.950000000000001,11.494328847500812,-7.9054090721221515,-1.2839719828470717,0.17506680052673768,-0.071709205806904,-0.2261135190580461,0.014245108671217156,-0.00482694639387246,-0.01780557766209783,0,70,255.0,255.0,255.0
220,11.0,11.5031,-7.909,-1.2953,0.17577942118113005,-0.07191658739720545,-0.2270088516180611,0.014259717504475855,-0.0034683172181854127,-0.018007724738503317,0,70,255.0,255.0,255.0
221,11.05,11.511906871934197,-7.912600264512284,-1.3066728326024055,0.1764969807520509,-0.07209598801217751,-0.22790205978974146,0.0144426653323575,-0.0037077073806966155,-0.017720602128710447,0,70,255.0,255.0,255.0
222,11.100000000000001,11.520749850531729,-7.9162097982930195,-1.318089966710133,0.17722368771436584,-0.07228735813527512,-0.2287809118309322,0.014625613160239142,-0.003947097543207818,-0.017433479518917574,0,70,255.0,255.0,255.0
223,11.15,11.529629393162159,-7.919829199817614,-1.3295506845166571,0.1779595420680748,-0.07249069776649829,-0.22964540774163322,0.01480856098812078,-0.004186487705719013,-0.017146356909124714,0,70,255.0,255.0,255.0
224,11.200000000000001,11.53854595719506,-7.923459067561472,-1.3410542682154545,0.17870454381317788,-0.07270600690584701,-0.23049554752184465,0.014991508816002422,-0.004425877868230215,-0.01685923429933184,0,70,255.0,255.0,255.0
225,11.25,11.5475,-7.9271,-1.3526,0.17945869294967504,-0.07293328555332129,-0.23133133117156643,0.015174456643883172,-0.0046652680307406325,-0.016572111689539648,0,70,255.0,255.0,255.0
226,11.3,11.55649159171823,-7.930752662974592,-1.3641876760079248,0.18019875577825042,-0.07317657566799854,-0.23218359534011238,0.014428056499132404,-0.005066336556349255,-0.01751845505229716,0,70,255.0,255.0,255.0
227,11.350000000000001,11.565519253577703,-7.934417991790571,-1.3758191481534805,0.1809014985995883,-0.07343991920895623,-0.23308317667679615,0.013681656354381634,-0.005467405081957877,-0.018464798415054665,0,70,255.0,255.0,255.0
228,11.4,11.574581119578065,-7.938096989119258,-1.3874967822950734,0.1815669214136886,-0.07372331617619433,-0.23403007518161784,0.012935256209630892,-0.005868473607566485,-0.01941114177781214,0,70,255.0,255.0,255.0
229,11.450000000000001,11.583675323718952,-7.941790657631962,-1.3992229442911113,0.1821950242205514,-0.07402676656971288,-0.23502429085457738,0.012188856064880122,-0.006269542133175108,-0.02035748514056965,0,70,255.0,255.0,255.0
230,11.5,11.5928,-7.9455,-1.411,0.1827858070201766,-0.07435027038951184,-0.23606582369567475,0.01144245592012938,-0.0066706106587834935,-0.021303828503326017,0,70,255.0,255.0,255.0
231,11.55,11.601953961192889,-7.949225883589356,-1.4228292633658957,0.18337999613495953,-0.0746857093158277,-0.23709155884981015,0.01232510867118758,-0.00674694639385094,-0.0197255776620892,0,70,255.0,255.0,255.0
232,11.600000000000001,11.611138735157455,-7.952968634544696,-1.4347078406759473,0.1840183178872954,-0.07502496502889694,-0.2380383814618837,0.013207761422245782,-0.006823282128918386,-0.018147326820852384,0,70,255.0,255.0,255.0
233,11.65,11.620356528525578,-7.956728443705357,-1.4466317863030498,0.18470077227718412,-0.07536803752871954,-0.23890629153189538,0.01409041417330395,-0.00689961786398583,-0.01656907597961562,0,70,255.0,255.0,255.0
234,11.700000000000001,11.629609547929133,-7.96050550191068,-1.4585971546201022,0.18542735930462576,-0.07571492681529553,-0.23969528905984525,0.014973066924362151,-0.006975953599053277,-0.014990825138378804,0,70,255.0,255.0,255.0
235,11.75,11.6389,-7.9643,-1.4706,0.18619807896962032,-0.07606563288862485,-0.24040537404573323,0.01585571967542121,-0.0070522893341208315,-0.013412574297141822,0,70,255.0,255.0,255.0
236,11.8,11.648229363510216,-7.968111802667987,-1.4826376705284923,0.18696925968190592,-0.07640058706868437,-0.24111416926064522,0.014991508816002407,-0.00634587786825961,-0.014939234299337011,0,70,255.0,255.0,255.0
237,11.850000000000001,11.657596205792474,-7.971939470030647,-1.4947126891427331,0.1876972298512206,-0.07670022067545082,-0.24189929747566694,0.014127297956583604,-0.005639466402398387,-0.0164658943015322,0,70,255.0,255.0,255.0
238,11.9,11.666998366319623,-7.975781236059311,-1.5068288724927275,0.1883819894775643,-0.0769645337089242,-0.24276075869079844,0.013263087097164832,-0.004933054936537191,-0.017992554303727336,0,70,255.0,255.0,255.0
239,11.950000000000001,11.676433684564515,-7.979635334725318,-1.5189900372284817,0.18902353856093704,-0.07719352616910453,-0.2436985529060397,0.01239887623774603,-0.004226643470675969,-0.019519214305922527,0,70,255.0,255.0,255.0
240,12.0,11.6859,-7.9835,-1.5312,0.1896218771013389,-0.07738719805599181,-0.24471268012139066,0.011534665378328368,-0.0035202320048146607,-0.021045874308116774,0,70,255.0,255.0,255.0
241,12.05,11.695395784766243,-7.987374105738693,-1.543461654520135,0.19021496513741998,-0.07758394240944123,-0.24574776410760793,0.012188856064914386,-0.004349542133162311,-0.020357485140572996,0,70,255.0,255.0,255.0
242,12.100000000000001,11.704922041672647,-7.991259085332717,-1.5557742027531216,0.19084076270783035,-0.07782215226930805,-0.246748428635448,0.012843046751500406,-0.00517885226150996,-0.019669095973029217,0,70,255.0,255.0,255.0
243,12.15,11.71448040619593,-7.995157012057398,-1.5681359237260402,0.19149926981257,-0.07810182763559223,-0.24771467370491082,0.013497237438086401,-0.00600816238985758,-0.018980706805485466,0,70,255.0,255.0,255.0
244,12.200000000000001,11.724072513812809,-7.999069959188051,-1.5805450964659726,0.192190486451639,-0.0784229685082938,-0.24864649931599653,0.014151428124672419,-0.006837472518205229,-0.018292317637941688,0,70,255.0,255.0,255.0
245,12.25,11.7337,-8.003,-1.593,0.19291441262503725,-0.07878557488741275,-0.24954390546870503,0.01480561881125797,-0.007666782646552628,-0.01760392847039638,0,70,255.0,255.0,255.0
246,12.3,11.743364297424813,-8.006948574377242,-1.6054989113909683,0.1936588797684269,-0.07915164329355247,-0.2504067743089243,0.014973066924327984,-0.006975953599036124,-0.016910825138373553,0,70,255.0,255.0,255.0
247,12.350000000000001,11.753066027516939,-8.010914588638483,-1.6180400998447828,0.1944117193174701,-0.07948317024731638,-0.2512349879825424,0.015140515037398,-0.006285124551519619,-0.01621772180635073,0,70,255.0,255.0,255.0
248,12.4,11.762805608896656,-8.014896315711102,-1.6306218326031126,0.1951729312721667,-0.07978015574870444,-0.2520285464895594,0.015307963150468009,-0.005594295504003139,-0.015524618474327928,0,70,255.0,255.0,255.0
249,12.450000000000001,11.772583460184247,-8.01889202852248,-1.6432423769076288,0.19594251563251686,-0.08004259979771669,-0.2527874498299752,0.015475411263538023,-0.0049034664564866345,-0.014831515142305103,0,70,255.0,255.0,255.0
250,12.5,11.7824,-8.0229,-1.6559,0.1967204723985205,-0.08027050239435311,-0.2535116980037898,0.015642859376607587,-0.004212637408970488,-0.014138411810281859,0,70,255.0,255.0,255.0
251,12.55,11.792255025534507,-8.026918796752337,-1.6685938999159922,0.19746951578887925,-0.08048148441634513,-0.2542571386566949,0.014318876237742043,-0.004226643470710223,-0.015679214305922985,0,70,255.0,255.0,255.0
252,12.600000000000001,11.802145848259606,-8.030948160113354,-1.6813269978677496,0.19815236002229472,-0.08069316674142414,-0.2550796194343821,0.0129948930988765,-0.004240649532449958,-0.017220016801564108,0,70,255.0,255.0,255.0
253,12.65,11.812069158217454,-8.034988125098199,-1.6941031458615101,0.1987690050987669,-0.08090554936959013,-0.2559791403368514,0.011670909960011001,-0.0042546555941896935,-0.01876081929720518,0,70,255.0,255.0,255.0
254,12.700000000000001,11.822021645450201,-8.039038726722028,-1.7069261959035142,0.19931945101829582,-0.08111863230084311,-0.2569557013641026,0.010346926821145457,-0.004268661655929429,-0.0203016217928463,0,70,255.0,255.0,255.0
255,12.75,11.832,-8.0431,-1.7198,0.19980369778088145,-0.08133241553518308,-0.258009302516136,0.009022943682279516,-0.004282667717669719,-0.021842424288486928,0,70,255.0,255.0,255.0
256,12.8,11.842002000437166,-8.047172238613408,-1.732727088945063,0.20028705707605549,-0.08156241904107879,-0.25906067106429675,0.010311428124681107,-0.004917472518158537,-0.020212317637940624,0,70,255.0,255.0,255.0
257,12.850000000000001,11.85202977944464,-8.05125677090811,-1.7457047086842215,0.20083484059334958,-0.08182416278699894,-0.2600305342799301,0.011599912567082697,-0.005552277318647355,-0.01858221098739432,0,70,255.0,255.0,255.0
258,12.9,11.862086558233536,-8.055355183896108,-1.7587287839508472,0.20144704833276372,-0.08211764677294353,-0.26091889216303615,0.012888397009484241,-0.006187082119136149,-0.016952104336848073,0,70,255.0,255.0,255.0
259,12.950000000000001,11.872175558014954,-8.059469064589404,-1.771795239478316,0.202123680294298,-0.08244287099891255,-0.2617257447136149,0.01417688145188583,-0.0068218869196249666,-0.015321997686301768,0,70,255.0,255.0,255.0
260,13.0,11.8823,-8.0636,-1.7849,0.2028647364779523,-0.08279983546490603,-0.2624510919316663,0.015465365894286487,-0.007456691720113651,-0.013691891035754633,0,70,255.0,255.0,255.0
261,13.05,11.892462572716838,-8.067749048794035,-1.7980401443037557,0.2036382559068979,-0.08315683941932178,-0.26316417708611783,0.015475411263537575,-0.0068234664565162495,-0.014831515142304423,0,70,255.0,255.0,255.0
262,13.100000000000001,11.902663833961832,-8.071915156254212,-1.8112173673953675,0.20441227760430608,-0.08348218211055768,-0.2639342434458968,0.015485456632788663,-0.006190241192918848,-0.015971139248854214,0,70,255.0,255.0,255.0
263,13.15,11.91290380884841,-8.076096739317371,-1.824434518335101,0.2051868015701768,-0.08377586353861366,-0.2647612910110032,0.015495502002039752,-0.005557015929321469,-0.017110763355403964,0,70,255.0,255.0,255.0
264,13.200000000000001,11.923182522489991,-8.080292214920352,-1.8376944461832232,0.20596182780451006,-0.0840378837034898,-0.2656453197814372,0.01550554737129084,-0.004923790665724068,-0.018250387461953756,0,70,255.0,255.0,255.0
265,13.25,11.9335,-8.0845,-1.851,0.20673735630730583,-0.08426824260518606,-0.2665863297571986,0.015515592740540818,-0.004290565402126578,-0.019390011568504395,0,70,255.0,255.0,255.0
266,13.3,11.94385570869549,-8.088718766210452,-1.8643531338399142,0.20747991929634776,-0.08448222328163832,-0.2675306205912324,0.014186926821136207,-0.004268661655963867,-0.018381621792847087,0,70,255.0,255.0,255.0
267,13.350000000000001,11.954246884708036,-8.092948204075043,-1.8777522217343103,0.20815604898941947,-0.08469510877078246,-0.2684244919364833,0.012858260901731595,-0.004246757909801157,-0.01737323201718978,0,70,255.0,255.0,255.0
268,13.4,11.964670206372833,-8.097188258834407,-1.8911947427087497,0.20876574538652093,-0.08490689907261845,-0.2692679437929514,0.011529594982327031,-0.0042248541636384475,-0.01636484224153251,0,70,255.0,255.0,255.0
269,13.450000000000001,11.975122352025089,-8.101438875729183,-1.9046781757887927,0.2093090084876522,-0.0851175941871463,-0.27006097616063657,0.01020092906292242,-0.004202950417475737,-0.015356452465875204,0,70,255.0,255.0,255.0
270,13.5,11.9856,-8.1057,-1.9182,0.2097858382928132,-0.08532719411436603,-0.27080358903953894,0.008872263143517634,-0.004181046671312694,-0.014348062690218377,0,70,255.0,255.0,255.0
271,13.55,11.9961009925012,-8.109971886364162,-1.9317585203365881,0.2102660669076985,-0.08555426745413787,-0.2715453405489519,0.010336881451894419,-0.004901886919561071,-0.015321997686301195,0,70,255.0,255.0,255.0
272,13.600000000000001,12.006627827206026,-8.11425602744562,-1.9453553456673922,0.21081952643800267,-0.08581738280632213,-0.2723357888081691,0.011801499760271204,-0.005622727167809448,-0.016295932682384013,0,70,255.0,255.0,255.0
273,13.65,12.017184165660256,-8.118554225345001,-1.9589929108299016,0.2114462168837256,-0.08611654017091881,-0.2731749338171903,0.013266118068647935,-0.006343567416057799,-0.017269867678466794,0,70,255.0,255.0,255.0
274,13.700000000000001,12.027773669409656,-8.12286828216292,-1.9726736506616078,0.21214613824486744,-0.08645173954792791,-0.27406277557601577,0.01473073637702472,-0.007064407664306176,-0.018243802674549614,0,70,255.0,255.0,255.0
275,13.75,12.0384,-8.1272,-1.9864,0.21291929052142808,-0.08682298093734943,-0.2749993140846453,0.01619535468540101,-0.007785247912554527,-0.019217737670631507,0,70,255.0,255.0,255.0
276,13.8,12.049065921299713,-8.131550488332906,-2.000173584813734,0.2137118130728462,-0.08718870690180713,-0.2759360172129599,0.015505547371324226,-0.006843790665753655,-0.018250387461953628,0,70,255.0,255.0,255.0
277,13.850000000000001,12.059770606467856,-8.135918086142476,-2.0139927955961223,0.21446984525856053,-0.08750736000392481,-0.27682435283084067,0.014815740057247442,-0.005902333418952783,-0.017283037253275752,0,70,255.0,255.0,255.0
278,13.9,12.070512330986142,-8.140300439785593,-2.027855213971644,0.21519338707857094,-0.08777894024370242,-0.27766432093828747,0.014125932743170684,-0.004960876172151945,-0.016315687044597908,0,70,255.0,255.0,255.0
279,13.950000000000001,12.081289370336284,-8.14469519561914,-2.041758421564777,0.21588243853287759,-0.08800344762114,-0.2784559215353004,0.0134361254290939,-0.004019418925351072,-0.01534833683592003,0,70,255.0,255.0,255.0
280,14.0,12.0921,-8.1491,-2.0557,0.21653699962148032,-0.08818088213623754,-0.2791991546218795,0.012746318115016031,-0.003077961678550123,-0.014380986627242187,0,70,255.0,255.0,255.0
281,14.05,12.102942522299946,-8.153513360304217,-2.0696783404084775,0.21715868080092782,-0.08836290493863817,-0.27994259059920745,0.01212092906288368,-0.004202950417475575,-0.015356452465875862,0,70,255.0,255.0,255.0
282,14.100000000000001,12.11381534692255,-8.157937227984482,-2.08369507194812,0.2177490925277687,-0.0886011771779851,-0.2807347998684671,0.01149554001075133,-0.005327939156401028,-0.016331918304509536,0,70,255.0,255.0,255.0
283,14.15,12.124716910395179,-8.162374415512632,-2.097752633283523,0.21830823480200295,-0.08889569885427828,-0.2815757824296584,0.010870150958619002,-0.00645292789532644,-0.017307384143143173,0,70,255.0,255.0,255.0
284,14.200000000000001,12.135645649245207,-8.166827735360522,-2.1118534630792847,0.21883610762363062,-0.08924646996751774,-0.2824655382827814,0.010244761906486653,-0.007577916634251893,-0.018282849981776848,0,70,255.0,255.0,255.0
285,14.25,12.1466,-8.1713,-2.126,0.21933271099265164,-0.08965349051770347,-0.2834040674278361,0.00961937285435499,-0.008702905373177083,-0.019258315820411376,0,70,255.0,255.0,255.0
286,14.3,12.1575791895005,-8.175792870450223,-2.140193853552357,0.21984546372343639,-0.0900476733436397,-0.2843416203902102,0.010890736377033835,-0.007064407664271965,-0.01824380267455384,0,70,255.0,255.0,255.0
287,14.350000000000001,12.168585605841947,-8.180303401919607,-2.1544333166113994,0.22042178463035503,-0.09035993128413067,-0.2852284476952915,0.012162099899712678,-0.005425909955366846,-0.017229289528696304,0,70,255.0,255.0,255.0
288,14.4,12.17962242743314,-8.18482749816388,-2.1687158528942643,0.22106167371340762,-0.09059026433917639,-0.28606454934307984,0.013433463422391476,-0.0037874122464617846,-0.016214776382838806,0,70,255.0,255.0,255.0
289,14.450000000000001,12.190692832682888,-8.189361062938767,-2.183038926118086,0.22176513097259418,-0.09073867250877685,-0.2868499253335754,0.01470482694507032,-0.002148914537556666,-0.01520026323698127,0,70,255.0,255.0,255.0
290,14.5,12.2018,-8.1939,-2.1974,0.22253215640791468,-0.09080515579293207,-0.287584575666778,0.01597619046775023,-0.0005104168286514943,-0.014185750091122884,0,70,255.0,255.0,255.0
291,14.55,12.212946319698048,-8.198441557894887,-2.2117974453820968,0.22331546430533566,-0.09087040168678309,-0.28832292783995395,0.015356125429089032,-0.0020994189253896517,-0.015348336835915272,0,70,255.0,255.0,255.0
292,14.600000000000001,12.224131029709667,-8.202988364337093,-2.226233261606283,0.22406776895082361,-0.09101509768547104,-0.2891194093503695,0.014736060390427835,-0.0036884210221278086,-0.01651092358070766,0,70,255.0,255.0,255.0
293,14.65,12.235352579872265,-8.207544391831851,-2.2407103551394205,0.22478907034437845,-0.09123924378899587,-0.2899740201980247,0.01411599535176666,-0.005277423118865909,-0.017673510325500005,0,70,255.0,255.0,255.0
294,14.700000000000001,12.24660942002324,-8.212113612884405,-2.255231632448373,0.22547936848600028,-0.09154283999735763,-0.29088676038291955,0.013495930313105461,-0.0068664252156040665,-0.018836097070292393,0,70,255.0,255.0,255.0
295,14.75,12.2579,-8.2167,-2.2698,0.226138663375689,-0.09192588631055627,-0.29185762990505393,0.012875865274444287,-0.008455427312341723,-0.01999868381508385,0,70,255.0,255.0,255.0
296,14.8,12.269222731707307,-8.22130649797022,-2.2844171649192577,0.22676467905521216,-0.09232671990922196,-0.2928146682499755,0.01216476190648236,-0.007577916634285718,-0.01828284998177698,0,70,255.0,255.0,255.0
297,14.850000000000001,12.28057587531938,-8.225931940732023,-2.2990800369634705,0.22735513956633727,-0.09268367797398486,-0.29368591490323165,0.01145365853852043,-0.006700405956229713,-0.01656701614847011,0,70,255.0,255.0,255.0
298,14.9,12.2919576530778,-8.230574134508718,-2.3137843265480535,0.22791004490906422,-0.09299676050484493,-0.2944713698648225,0.010742555170558526,-0.005822895278173739,-0.014851182315163303,0,70,255.0,255.0,255.0
299,14.950000000000001,12.303366287224147,-8.23523088552361,-2.3285257440884246,0.22842939508339308,-0.09326596750180222,-0.29517103313474796,0.010031451802596599,-0.004945384600117734,-0.013135348481856431,0,70,255.0,255.0,255.0
300,15.0,12.3148,-8.2399,-2.3433,0.22891319008932384,-0.09349129896485671,-0.2957849047130081,0.009320348434635362,-0.00406787392206176,-0.011419514648549622,0,70,255.0,255.0,255.0
301,15.05,12.326257953472723,-8.244579650224235,-2.3581042949408735,0.2294178194738176,-0.09369471867634621,-0.29640239916014627,0.010864826945114347,-0.004068914537518231,-0.01328026323697709,0,70,255.0,255.0,255.0
302,15.100000000000001,12.337743069012808,-8.249269472734815,-2.372941790539839,0.2299996727838353,-0.09389819041860853,-0.29711293103670583,0.012409305455593333,-0.0040699551529747025,-0.015141011825404557,0,70,255.0,255.0,255.0
303,15.15,12.34925920781653,-8.253969470133276,-2.387817138668367,0.23065875001937694,-0.09410171419164368,-0.29791650034268674,0.013953783966072265,-0.004070995768431174,-0.01700176041383196,0,70,255.0,255.0,255.0
304,15.200000000000001,12.36081023108017,-8.258679645021159,-2.4027349911979314,0.23139505118044254,-0.09430528999545165,-0.298813107078089,0.015498262476551249,-0.004072036383887645,-0.01886250900225943,0,70,255.0,255.0,255.0
305,15.25,12.3724,-8.2634,-2.4177,0.23220857626703204,-0.09450891783003244,-0.29980275124291267,0.01704274098703018,-0.004073076999343894,-0.02072325759068505,0,70,255.0,255.0,255.0
306,15.3,12.384031054401806,-8.268130901132842,-2.4327152553172504,0.2330200430495336,-0.0947344053854054,-0.30079173510943713,0.015415930313032632,-0.004946425215574148,-0.018836097070291276,0,70,255.0,255.0,255.0
307,15.350000000000001,12.395700648629393,-8.272874168328721,-2.447777600877177,0.23375016929833534,-0.09500356035158987,-0.3016863609499418,0.013789119639035084,-0.005819773431804401,-0.0169489365498975,0,70,255.0,255.0,255.0
308,15.4,12.407404715656076,-8.27763198495818,-2.4628823187784783,0.2343989550134371,-0.09531638272858584,-0.30248662876442683,0.012162308965037593,-0.006693121648034623,-0.01506177602950379,0,70,255.0,255.0,255.0
309,15.450000000000001,12.419139188455175,-8.28240653439176,-2.478024691119853,0.23496640019483905,-0.09567287251639332,-0.3031925385528922,0.010535498291040045,-0.007566469864264876,-0.013174615509110015,0,70,255.0,255.0,255.0
310,15.5,12.4309,-8.2872,-2.4932,0.23545250484254113,-0.0960730297150123,-0.3038040903153378,0.008908687617041222,-0.008439818080494543,-0.01128745498871675,0,70,255.0,255.0,255.0
311,15.55,12.442684228920058,-8.292013545244401,-2.508405083790125,0.23592600832803293,-0.09645565978202834,-0.30441466040210235,0.010031451802630336,-0.00686538460014725,-0.01313534848186582,0,70,255.0,255.0,255.0
312,15.600000000000001,12.454493536469624,-8.296844253950303,-2.5236430059514547,0.23645565002280416,-0.09675956817502704,-0.3051176251635244,0.01115421598821945,-0.005290951119799958,-0.014983241975014891,0,70,255.0,255.0,255.0
313,15.65,12.466330729559159,-8.301688190034005,-2.538918386217721,0.23704142992685487,-0.09698475489400835,-0.30591298459960387,0.012276980173808523,-0.0037165176394527207,-0.016831135468163894,0,70,255.0,255.0,255.0
314,15.700000000000001,12.47819861509913,-8.306541417411804,-2.5542358443226596,0.23768334804018504,-0.09713121993897231,-0.30680073871034075,0.013399744359397638,-0.0021420841591054283,-0.018679028961312967,0,70,255.0,255.0,255.0
315,15.75,12.4901,-8.3114,-2.5696,0.2383814043627946,-0.09719896330991888,-0.3077808874957352,0.014522508544985602,-0.0005676506787574143,-0.020526922454462415,0,70,255.0,255.0,255.0
316,15.8,12.502036829917959,-8.316261317889555,-2.58501400952225,0.23908392363833397,-0.09726695548648512,-0.3087656232821532,0.013578262476589739,-0.0021520363838919204,-0.018862509002258474,0,70,255.0,255.0,255.0
317,15.850000000000001,12.51400760549211,-8.321128015870071,-2.6004751753170052,0.23973923061045357,-0.09741416694830808,-0.3096671383959611,0.012634016408193878,-0.003736422089026426,-0.017198095550054533,0,70,255.0,255.0,255.0
318,15.9,12.526009966107281,-8.326004054905809,-2.6159793363506356,0.24034732527915337,-0.09764059769538774,-0.3104854328371587,0.01168977033979805,-0.005320807794160875,-0.015533682097850653,0,70,255.0,255.0,255.0
319,15.950000000000001,12.538041551148302,-8.33089339596103,-2.6315223315895113,0.24090820764443338,-0.09794624772772416,-0.3112205066057461,0.010745524271402187,-0.0069051934992953815,-0.013869268645646714,0,70,255.0,255.0,255.0
320,16.0,12.5501,-8.3358,-2.6471,0.2414218777062936,-0.09833111704531727,-0.3118723597017233,0.009801278203006136,-0.008489579204429276,-0.0122048551934415,0,70,255.0,255.0,255.0
321,16.05,12.562183651408105,-8.340726783197379,-2.662709278120876,0.24193029711864306,-0.09873251827203376,-0.31250684646928684,0.010535498290971345,-0.0075664698642304495,-0.013174615509101099,0,70,255.0,255.0,255.0
322,16.1,12.574293641561939,-8.345672482569421,-2.6783514927805254,0.24247542753539075,-0.09908776403174033,-0.3131898212526334,0.011269718378936554,-0.006643360524031623,-0.014144375824760696,0,70,255.0,255.0,255.0
323,16.150000000000002,12.586431806011719,-8.35063479034277,-2.6940290683797365,0.24305726895653673,-0.09939685432443694,-0.31392128405176295,0.012003938466901762,-0.005720251183832797,-0.015114136140420295,0,70,255.0,255.0,255.0
324,16.2,12.598599980307666,-8.355611398744081,-2.7097444293192976,0.24367582138208094,-0.0996597891501236,-0.3147012348666754,0.01273815855486692,-0.0047971418436340355,-0.016083896456079824,0,70,255.0,255.0,255.0
325,16.25,12.6108,-8.3606,-2.7255,0.24433108481202342,-0.09987656850880032,-0.3155296736973709,0.013472378642833682,-0.0038740325034350986,-0.017053656771739423,0,70,255.0,255.0,255.0
326,16.3,12.623033364449618,-8.365598749320927,-2.741297677994246,0.24500288788708005,-0.10007497142536456,-0.3163749908406973,0.013399744359431675,-0.004062084159134852,-0.016759028961318107,0,70,255.0,255.0,255.0
327,16.35,12.635300228260137,-8.37060765385225,-2.7571372535608947,0.24567105924796662,-0.10028277692471381,-0.3172055765935027,0.013327110076029667,-0.004250135814834605,-0.01646440115089679,0,70,255.0,255.0,255.0
328,16.400000000000002,12.647600409845845,-8.375627183723111,-2.773017990130421,0.24633559889468307,-0.10049998500684804,-0.31802143095578705,0.01325447579262766,-0.004438187470534358,-0.01616977334047548,0,70,255.0,255.0,255.0
329,16.45,12.659933727621036,-8.380657809062647,-2.7889391511332975,0.24699650682722935,-0.10072659567176724,-0.31882255392755027,0.013181841509225656,-0.004626239126234097,-0.015875145530054185,0,70,255.0,255.0,255.0
330,16.5,12.6723,-8.3857,-2.8049,0.2476537830456056,-0.10096260891947144,-0.31960894550879243,0.013109207225824537,-0.004814290781934072,-0.015580517719633757,0,70,255.0,255.0,255.0
331,16.55,12.684698890793415,-8.390754219518916,-2.8209000099021417,0.248298151333037,-0.10120759602650228,-0.32039319016792456,0.012665524271431921,-0.004985193499299647,-0.015789268645650358,0,70,255.0,255.0,255.0
332,16.6,12.69712944539751,-8.395820902021581,-2.836939492975898,0.24892033547274878,-0.10146112826940142,-0.3211878723733575,0.012221841317039305,-0.005156096216665223,-0.015998019571666963,0,70,255.0,255.0,255.0
333,16.650000000000002,12.709590554604896,-8.40090047476479,-2.853018971098583,0.24952033546474095,-0.10172320564816881,-0.32199299212509125,0.011778158362646687,-0.005326998934030798,-0.016206770497683563,0,70,255.0,255.0,255.0
334,16.7,12.722081109208187,-8.40599336500533,-2.8691389661475113,0.25009815130901347,-0.10199382816280449,-0.3228085494231258,0.011334475408254103,-0.005497901651396362,-0.01641552142370015,0,70,255.0,255.0,255.0
335,16.75,12.7346,-8.4111,-2.8853,0.25065378300556634,-0.10227299581330844,-0.32363454426746124,0.010890792453861042,-0.005668804368762159,-0.016624272349714975,0,70,255.0,255.0,255.0
336,16.8,12.747146272376721,-8.416220372603407,-2.901502282397188,0.251196506780783,-0.10253464446861835,-0.3244522484876059,0.010818158554803592,-0.0047971418436339435,-0.016083896456070414,0,70,255.0,255.0,255.0
337,16.85,12.75971959014983,-8.421352738061424,-2.9177447745355165,0.2517355988610467,-0.10275270999767185,-0.3252429339130683,0.010745524655746139,-0.003925479318505729,-0.015543520562425858,0,70,255.0,255.0,255.0
338,16.900000000000002,12.772319771734576,-8.426494917217736,-2.9340261254752504,0.25227105924635757,-0.10292719240046892,-0.3260066005438485,0.010672890756688688,-0.0030538167933775134,-0.015003144668781297,0,70,255.0,255.0,255.0
339,16.95,12.784946635546216,-8.431644730916032,-2.9503449842766556,0.25280288793671557,-0.10305809167700959,-0.3267432483799464,0.010600256857631241,-0.00218215426824936,-0.014462768775136777,0,70,255.0,255.0,255.0
340,17.0,12.7976,-8.4368,-2.9667,0.25333108493212064,-0.10314540782729385,-0.3274528774213621,0.010527622958573346,-0.001310491743121589,-0.013922392881489998,0,70,255.0,255.0,255.0
341,17.05,12.8102800196997,-8.441959490067452,-2.9830900605091073,0.2538758215438166,-0.10324582609902787,-0.3281498158816508,0.01126184150926478,-0.0027062391262388163,-0.013955145530058744,0,70,255.0,255.0,255.0
342,17.1,12.822988194003173,-8.447125745732723,-2.9995150088820393,0.2544572690830471,-0.10341603173991773,-0.328848391974368,0.011996060059956213,-0.004101986509356044,-0.01398789817862749,0,70,255.0,255.0,255.0
343,17.150000000000002,12.835726358456796,-8.452302256364266,-3.015974927000418,0.2550754275498122,-0.10365602474996348,-0.3295486056995136,0.012730278610647648,-0.005497733892473271,-0.014020650827196236,0,70,255.0,255.0,255.0
344,17.2,12.848496348606945,-8.457492511330537,-3.032469896745864,0.25573029694411187,-0.10396580512916505,-0.33025045705708755,0.01346449716133903,-0.0068934812755903985,-0.01405340347576498,0,70,255.0,255.0,255.0
345,17.25,12.8613,-8.4627,-3.049,0.2564218772659462,-0.10434537287752252,-0.33095394604709005,0.014198715712031795,-0.008289228658707959,-0.01408615612433195,0,70,255.0,255.0,255.0
346,17.3,12.874138448824478,-8.46792726712678,-3.0655654755663844,0.25710820704395404,-0.10473805113527501,-0.33166848798579096,0.013254475408283893,-0.007417901651391943,-0.014495521423703656,0,70,255.0,255.0,255.0
347,17.35,12.887010033837477,-8.473173079007688,-3.0821671899363294,0.2577473248067746,-0.10508716304266172,-0.33240349818946047,0.012310235104535988,-0.006546574644075928,-0.014904886723075363,0,70,255.0,255.0,255.0
348,17.400000000000002,12.899912394438235,-8.478435257325206,-3.0988061665230813,0.25833923055440766,-0.10539270859968262,-0.3331589766580985,0.011365994800788086,-0.0056752476367599135,-0.015314252022447067,0,70,255.0,255.0,255.0
349,17.45,12.912843170025997,-8.483711623761815,-3.1154834287398874,0.2588839242868534,-0.10565468780633772,-0.3339349233917051,0.01042175449704025,-0.00480392062944396,-0.015723617321818744,0,70,255.0,255.0,255.0
350,17.5,12.9258,-8.489,-3.1322,0.2593814060041117,-0.105873100662627,-0.33473133839028035,0.009477514193293235,-0.003932593622128389,-0.016132982621188674,0,70,255.0,255.0,255.0
351,17.55,12.938781385002391,-8.49429864142543,-3.1489568372253554,0.2598833502803831,-0.1060739693598855,-0.33554423217518836,0.01060025685756269,-0.004102154268211058,-0.01638276877513079,0,70,255.0,255.0,255.0
352,17.6,12.951789270646925,-8.499607538236528,-3.1657546313726477,0.260441431689868,-0.10628331608944812,-0.3363696152677934,0.011722999521832143,-0.004271714914293728,-0.016632554929072903,0,70,255.0,255.0,255.0
353,17.650000000000002,12.964826463790267,-8.504927114334912,-3.1825940069072636,0.2610556502325663,-0.10650114085131487,-0.33720748766809566,0.012845742186101598,-0.004441275560376397,-0.016882341083015017,0,70,255.0,255.0,255.0
354,17.7,12.977895771289068,-8.510257793622197,-3.199475588294585,0.2617260059084781,-0.10672744364548574,-0.33805784937609495,0.013968484850370971,-0.004610836206459055,-0.017132127236957114,0,70,255.0,255.0,255.0
355,17.75,12.991,-8.5156,-3.2164,0.26245249871760334,-0.10696222447196077,-0.3389207003917913,0.015091227514639094,-0.004780396852541502,-0.017381913390898784,0,70,255.0,255.0,255.0
356,17.8,13.004140811165959,-8.520954167171507,-3.233367175532197,0.2631663918345037,-0.10720607142516503,-0.33975458331345776,0.013464497161373478,-0.004973481275629024,-0.01597340347576022,0,70,255.0,255.0,255.0
357,17.85,13.017315283574822,-8.526320768046201,-3.250374284573084,0.2637989484337407,-0.10745957259952368,-0.34051804073936737,0.011837766808107861,-0.005166565698716546,-0.014564893560621654,0,70,255.0,255.0,255.0
358,17.900000000000002,13.030519350400706,-8.531700285335146,-3.267417805847872,0.2643501685153145,-0.1077227279950367,-0.34121107266951994,0.010211036454842245,-0.005359650121804069,-0.01315638364548309,0,70,255.0,255.0,255.0
359,17.95,13.043748944817725,-8.537093201749391,-3.284494218081772,0.2648200520792249,-0.10799553761170408,-0.3418336791039156,0.008584306101576745,-0.005552734544891577,-0.011747873730344624,0,70,255.0,255.0,255.0
360,18.0,13.057,-8.5425,-3.3016,0.2652085991254721,-0.10827800144952583,-0.3423858600425544,0.006957575748312017,-0.005745818967978988,-0.01033936381520606,0,70,255.0,255.0,255.0
361,18.05,13.070269770333772,-8.547920689888544,-3.3187328606458584,0.26559508238160606,-0.10854174493946141,-0.34294143457098003,0.00850175449704571,-0.004803920629444178,-0.011883617321818574,0,70,255.0,255.0,255.0
362,18.1,13.083560795053785,-8.553353389578664,-3.3358954303350212,0.2660587745751767,-0.10875839351247026,-0.34357422177473623,0.010045933245779404,-0.0038620222909093683,-0.013427870828431087,0,70,255.0,255.0,255.0
363,18.150000000000002,13.096876934606914,-8.558795744324511,-3.3530915697012547,0.26659967570618404,-0.10892794716855235,-0.3442842216538231,0.011590111994513097,-0.002920123952374558,-0.0149721243350436,0,70,255.0,255.0,255.0
364,18.2,13.110222049440027,-8.564245399380239,-3.3703251393783247,0.267217785774628,-0.10905040590770772,-0.3450714342082406,0.01313429074324668,-0.0019782256138398146,-0.016516377841656004,0,70,255.0,255.0,255.0
365,18.25,13.1236,-8.5697,-3.3876,0.26791310478050867,-0.10912576972993633,-0.34593585943798877,0.01467846949198126,-0.0010363272753045605,-0.018060631348268963,0,70,255.0,255.0,255.0
366,18.3,13.137013707498955,-8.575158273274312,-3.404918981884372,0.26862927863906744,-0.10921894881697967,-0.3468156784026196,0.013968484850370355,-0.0026908362064292047,-0.017132127236965097,0,70,255.0,255.0,255.0
367,18.35,13.150462336210039,-8.580623273639139,-3.422280794086836,0.26930995326554574,-0.10939485335057926,-0.3476490721616853,0.013258500208759452,-0.004345345137553849,-0.016203623125661232,0,70,255.0,255.0,255.0
368,18.400000000000002,13.163944111171643,-8.586099137366812,-3.439683115347115,0.2699551286599434,-0.10965348333073506,-0.3484360407151858,0.012548515567148547,-0.005999854068678493,-0.015275119014357368,0,70,255.0,255.0,255.0
369,18.45,13.177457257422164,-8.591590000729655,-3.457123624404928,0.2705648048222606,-0.10999483875744709,-0.349176584063121,0.011838530925537692,-0.00765436299980302,-0.01434661490305357,0,70,255.0,255.0,255.0
370,18.5,13.191,-8.5971,-3.4746,0.2711389817524972,-0.11041891963071536,-0.3498707022054911,0.011128546283926788,-0.009308871930928109,-0.013418110791749704,0,70,255.0,255.0,255.0
371,18.55,13.204570599670404,-8.602631817014204,-3.4921104118166557,0.2716798030621347,-0.11083845979261245,-0.35054785181854337,0.010504306101572415,-0.007472734544955447,-0.013667873730340044,0,70,255.0,255.0,255.0
372,18.6,13.218167460106063,-8.608182315864772,-3.509654993317637,0.2721894123626544,-0.11116619308521092,-0.35123748957852513,0.009880065919218044,-0.0056365971589827845,-0.013917636668930384,0,70,255.0,255.0,255.0
373,18.650000000000002,13.231789020706518,-8.613746906208238,-3.5272343689102907,0.27266780965405646,-0.11140211950851074,-0.35193961548543645,0.009255825736863673,-0.003800459773010123,-0.014167399607520725,0,70,255.0,255.0,255.0
374,18.7,13.245433720871317,-8.619320997701134,-3.5448491630019623,0.2731149949363408,-0.11154623906251193,-0.35265422953927716,0.008631585554509345,-0.0019643223870375905,-0.014417162546111048,0,70,255.0,255.0,255.0
375,18.75,13.2591,-8.6249,-3.5625,0.2735309682095074,-0.11159855174721449,-0.35338133174004754,0.008007345372154973,-0.00012818500106559494,-0.01466692548470272,0,70,255.0,255.0,255.0
376,18.8,13.27278709381943,-8.630480858668866,-3.580187370849007,0.2739635091123918,-0.11165121201258628,-0.35411291432320646,0.009294290743221918,-0.0019782256138057216,-0.014596377841652684,0,70,255.0,255.0,255.0
377,18.85,13.286497423365715,-8.63606666290177,-3.597911232642619,0.2744603972838296,-0.11179637430859507,-0.35484096952421285,0.010581236114288864,-0.0038282662265458484,-0.01452583019860265,0,70,255.0,255.0,255.0
378,18.900000000000002,13.300234206002289,-8.641662037800238,-3.615671409011726,0.27502163272382074,-0.11203403863524086,-0.3555654973430667,0.01186818148535581,-0.005678306839285975,-0.014455282555552614,0,70,255.0,255.0,255.0
379,18.95,13.314000659092574,-8.647271608465806,-3.633467723587222,0.27564721543236514,-0.11236420499252364,-0.35628649777976806,0.013155126856422665,-0.00752834745202597,-0.014384734912502585,0,70,255.0,255.0,255.0
380,19.0,13.3278,-8.6529,-3.6513,0.27633714540946297,-0.11278687338044345,-0.357003970834317,0.014442072227490499,-0.009378388064765208,-0.014314187269453882,0,70,255.0,255.0,255.0
381,19.05,13.341634625051883,-8.658550348310326,-3.669168104787317,0.27704216048828945,-0.1132126921570568,-0.3577204908886299,0.013758530925567659,-0.007654362999768603,-0.014346614903062082,0,70,255.0,255.0,255.0
382,19.1,13.355503646431078,-8.664219832528152,-3.6870720761118916,0.27771299850201975,-0.11355230968042032,-0.35843863232462325,0.01307498962364482,-0.005930337934771997,-0.014379042536670284,0,70,255.0,255.0,255.0
383,19.150000000000002,13.369405355284332,-8.669904142590816,-3.7050119950428075,0.27834965945065393,-0.11380572595053401,-0.35915839514229697,0.01239144832172198,-0.00420631286977539,-0.014411470170278485,0,70,255.0,255.0,255.0
384,19.200000000000003,13.383338042758393,-8.675598968435652,-3.7229879426491497,0.278952143334192,-0.11397294096739786,-0.3598797793416511,0.011707907019799142,-0.002482287804778784,-0.014443897803886687,0,70,255.0,255.0,255.0
385,19.25,13.3973,-8.6813,-3.741,0.27952045015263377,-0.11405395473101189,-0.3606027849226856,0.01102436571787413,-0.0007582627397820785,-0.014476325437493998,0,70,255.0,255.0,255.0
386,19.3,13.411289605973044,-8.68700414808983,-3.759048210001727,0.28005984893444325,-0.11412201935918238,-0.3613251221222756,0.010551585554504054,-0.0019643223870379374,-0.014417162546102702,0,70,255.0,255.0,255.0
387,19.35,13.425305590909975,-8.692713206985625,-3.777132462909819,0.2805756087080842,-0.11425038696971568,-0.36204450117729586,0.01007880539113398,-0.003170382034293796,-0.014357999654711405,0,70,255.0,255.0,255.0
388,19.400000000000002,13.439346772860384,-8.698430191836506,-3.7952526108170472,0.2810677294735567,-0.11443905756261177,-0.3627609220877467,0.009606025227763906,-0.004376441681549655,-0.014298836763320109,0,70,255.0,255.0,255.0
389,19.450000000000003,13.453411969873862,-8.704158117791593,-3.8134085058161844,0.2815362112308606,-0.11468803113787066,-0.36347438485362793,0.00913324506439383,-0.005582501328805513,-0.014239673871928812,0,70,255.0,255.0,255.0
390,19.5,13.4675,-8.7099,-3.8316,0.281981053979996,-0.1149973076954923,-0.3641848894749396,0.008660464901022014,-0.006788560976060953,-0.014180510980537964,0,70,255.0,255.0,255.0
391,19.55,13.481610151055941,-8.71565785933036,-3.8498270552057776,0.2824304437739324,-0.11530723040619542,-0.36489902062226565,0.009315126856431731,-0.005608347452064183,-0.014384734912503475,0,70,255.0,255.0,255.0
392,19.6,13.495743589929022,-8.721429739529347,-3.868090072248837,0.2829125666656392,-0.11555814244069873,-0.36562336296618997,0.009969788811841448,-0.004428133928067412,-0.014588958844468985,0,70,255.0,255.0,255.0
393,19.650000000000002,13.509901953274134,-8.727212690063158,-3.8863895616890067,0.2834274226551165,-0.11575004379900218,-0.36635791650671257,0.010624450767251164,-0.003247920404070642,-0.014793182776434497,0,70,255.0,255.0,255.0
394,19.700000000000003,13.524086877746164,-8.73300376039798,-3.904726034086119,0.28397501174236434,-0.11588293448110579,-0.36710268124383344,0.011279112722660882,-0.0020677068800738713,-0.014997406708400008,0,70,255.0,255.0,255.0
395,19.75,13.5383,-8.7388,-3.9231,0.2845553339273825,-0.11595681448700956,-0.36785765717755253,0.01193377467806922,-0.0008874933560771847,-0.01520163064036284,0,70,255.0,255.0,255.0
396,19.8,13.552542589803192,-8.744599614588731,-3.941511569175163,0.2851463759698292,-0.11604105901603096,-0.3685987953886592,0.011707907019798111,-0.0024822878047788825,-0.014443897803902218,0,70,255.0,255.0,255.0
397,19.85,13.566814449373934,-8.750405434896976,-3.959959248094836,0.28572612462936237,-0.11620504326748746,-0.3693020469579428,0.011482039361527002,-0.00407708225348058,-0.013686164967441595,0,70,255.0,255.0,255.0
398,19.900000000000002,13.58111501404308,-8.756221447910855,-3.978441142426927,0.28629457990598195,-0.11644876724137902,-0.3699674118854034,0.011256171703255892,-0.005671876702182279,-0.012928432130980973,0,70,255.0,255.0,255.0
399,19.950000000000003,13.595443719141485,-8.762051640616487,-3.9969553578393464,0.2868517417996879,-0.1167722309377057,-0.37059489017104086,0.011030304044984783,-0.007266671150883976,-0.01217069929452035,0,70,255.0,255.0,255.0
400,20.0,13.6098,-8.7679,-4.0155,0.2873976103104804,-0.1171754343564674,-0.37118448181485536,0.010804436386712801,-0.008861465599585339,-0.011412966458058005,0,70,255.0,255.0,255.0
401,20.05,13.62418348973129,-8.77376928231471,-4.0340738680935715,0.28794405234675796,-0.11758453352967707,-0.37177779782310455,0.011053245064388588,-0.007502501328800662,-0.01231967387190799,0,70,255.0,255.0,255.0
402,20.1,13.63859461257524,-8.779657320882743,-4.0526785353718235,0.28850293481691924,-0.11792568448934748,-0.3724164492020462,0.011302053742064373,-0.006143537058015985,-0.013226381285757975,0,70,255.0,255.0,255.0
403,20.150000000000002,13.653033990553547,-8.785560718293416,-4.071316268603288,0.2890742577209644,-0.11819888723547867,-0.37310043595168035,0.01155086241974016,-0.004784572787231309,-0.01413308869960796,0,70,255.0,255.0,255.0
404,20.200000000000003,13.667502245687903,-8.791476077136064,-4.0899893345565035,0.2896580210588933,-0.11840414176807063,-0.37382975807200697,0.011799671097415945,-0.003425608516446633,-0.015039796113457944,0,70,255.0,255.0,255.0
405,20.25,13.682,-8.7974,-4.1087,0.2902542248307059,-0.11854144808712332,-0.37460441556302615,0.012048479775090382,-0.0020666442456621636,-0.015946503527306533,0,70,255.0,255.0,255.0
406,20.3,13.696527451271649,-8.803329656152426,-4.127449758450553,0.29083741464314883,-0.11864480686526672,-0.3753780133189188,0.011279112722625838,-0.0020677068800740938,-0.014997406708398473,0,70,255.0,255.0,255.0
407,20.35,13.711083100325107,-8.809264481572054,-4.146237010417876,0.29138213610296854,-0.11874821877513074,-0.376104156233866,0.010509745670161297,-0.002068769514486024,-0.014048309889490414,0,70,255.0,255.0,255.0
408,20.400000000000002,13.725665023742737,-8.815204478915469,-4.165059383159924,0.29188838921016497,-0.11885168381671533,-0.37678284430786785,0.009740378617696756,-0.0020698321488979545,-0.013099213070582354,0,70,255.0,255.0,255.0
409,20.450000000000003,13.740271298106912,-8.821149650839255,-4.183914503934648,0.2923561739647382,-0.11895520199002052,-0.37741407754092426,0.008971011565232213,-0.0020708947833098846,-0.012150116251674293,0,70,255.0,255.0,255.0
410,20.5,13.7549,-8.8271,-4.2028,0.2927854903666881,-0.1190587732950463,-0.3779978559330352,0.008201644512766393,-0.0020719574177212596,-0.01120101943276497,0,70,255.0,255.0,255.0
411,20.55,13.769549905182114,-8.83305609307558,-4.221714298104219,0.29321828908063285,-0.1191962390092608,-0.3785821489012177,0.009110304045023034,-0.0034266711508584816,-0.01217069929453675,0,70,255.0,255.0,255.0
412,20.6,13.78422258612434,-8.839020752829038,-4.240659022956673,0.2936965207711904,-0.11940144041013215,-0.3792149258624889,0.010018963577279674,-0.0047813848839957035,-0.01314037915630853,0,70,255.0,255.0,255.0
413,20.650000000000002,13.79892031447551,-8.844997366044705,-4.2596365987570195,0.2942201854383608,-0.11967437749766037,-0.3798961868168486,0.010927623109536317,-0.006136098617132926,-0.01411005901808031,0,70,255.0,255.0,255.0
414,20.700000000000003,13.813645361884454,-8.850989319506914,-4.27864944970491,0.294789283082144,-0.12001505027184546,-0.380625931764297,0.011836282641792957,-0.007490812350270147,-0.01507973887985209,0,70,255.0,255.0,255.0
415,20.75,13.8284,-8.857,-4.2977,0.2954038137025401,-0.12042345873268735,-0.38140416070483385,0.012744942174047758,-0.008845526083406496,-0.016049418741622468,0,70,255.0,255.0,255.0
416,20.8,13.843185727999895,-8.863031571545251,-4.316789849132574,0.29601742903432665,-0.12082623709768431,-0.38218139107621085,0.011799671097414675,-0.007265608516471688,-0.015039796113457078,0,70,255.0,255.0,255.0
417,20.85,13.858000955177536,-8.869081307111795,-4.335917297755431,0.29658378081228154,-0.12115001958433454,-0.3829081403161796,0.010854400020781592,-0.005685690949536881,-0.01403017348529169,0,70,255.0,255.0,255.0
418,20.900000000000002,13.872843318355228,-8.875145256905713,-4.3550798218120015,0.2971028690364048,-0.12139480619263801,-0.38358440842474006,0.009909128944148509,-0.004105773382602073,-0.013020550857126303,0,70,255.0,255.0,255.0
419,20.950000000000003,13.88771045435528,-8.881219471133088,-4.374274897245716,0.2975746937066965,-0.12156059692259474,-0.3842101954018922,0.008963857867515426,-0.002525855815667265,-0.012010928228960913,0,70,255.0,255.0,255.0
420,21.0,13.9026,-8.8873,-4.3935,0.29799925482315637,-0.12164739177420472,-0.3847855012476361,0.008018586790881521,-0.0009459382487320145,-0.011001305600794709,0,70,255.0,255.0,255.0
421,21.05,13.917510382818303,-8.89338402074341,-4.4127535053654885,0.2984239947820584,-0.12172281260000577,-0.3853642867939474,0.008971011565197364,-0.002070894783309612,-0.012150116251656422,0,70,255.0,255.0,255.0
422,21.1,13.932443193165517,-8.899473218723777,-4.432037386021604,0.2988963559796761,-0.12185448125253569,-0.38600051287280174,0.009923436339513208,-0.003195851317887209,-0.013298926902518137,0,70,255.0,255.0,255.0
423,21.150000000000002,13.947400812103583,-8.905570406332442,-4.451354513994978,0.29941633841600973,-0.12204239773179448,-0.3866941794841992,0.010875861113829051,-0.0043208078524648065,-0.014447737553379851,0,70,255.0,255.0,255.0
424,21.200000000000003,13.962385620694432,-8.911678395960738,-4.470707761312235,0.29998394209105905,-0.12228656203778217,-0.38744528662813976,0.011828285888144895,-0.005445764387042404,-0.015596548204241566,0,70,255.0,255.0,255.0
425,21.25,13.9774,-8.9178,-4.4901,0.30059916700482414,-0.12258697417049871,-0.38825383430462335,0.012780710662459782,-0.006570720921619477,-0.016745358855104087,0,70,255.0,255.0,255.0
426,21.3,13.992445540726894,-8.923937145481105,-4.509532929405478,0.3012145918374313,-0.12289051250229606,-0.38904946174799726,0.01183628264182611,-0.005570812350274087,-0.015079738879852277,0,70,255.0,255.0,255.0
427,21.35,14.007520672160393,-8.930088217993086,-4.529003558158154,0.30178279526900675,-0.12314405540552613,-0.3897618081926086,0.010891854621192437,-0.004570903778928697,-0.013414118904600467,0,70,255.0,255.0,255.0
428,21.400000000000002,14.022623033230444,-8.936250717764516,-4.548507722208093,0.30230377729955055,-0.12334760288018892,-0.3903908736384573,0.009947426600558766,-0.003570995207583307,-0.011748498929348657,0,70,255.0,255.0,255.0
429,21.450000000000003,14.037750262866997,-8.942422145023963,-4.568041257505355,0.30277753792906265,-0.12350115492628447,-0.39093665808554345,0.009002998579925094,-0.0025710866362379167,-0.010082878954096847,0,70,255.0,255.0,255.0
430,21.5,14.0529,-8.9486,-4.5876,0.30320407715754305,-0.12360471154381272,-0.391399161533867,0.008058570559290601,-0.0015711780648925977,-0.008417258978845155,0,70,255.0,255.0,255.0
431,21.55,14.068070654274122,-8.954782597332168,-4.607181177012604,0.3036296378682132,-0.12370713739082585,-0.3918618662140627,0.00896385786751496,-0.0025258558156330624,-0.010090928228981989,0,70,255.0,255.0,255.0
432,21.6,14.08326371819291,-8.960971509303876,-4.626787581345782,0.30410046294429455,-0.12385729712537603,-0.3924082543567652,0.009869145175739317,-0.0034805335663735276,-0.011764597479118824,0,70,255.0,255.0,255.0
433,21.650000000000002,14.09848145497464,-8.9671691226095,-4.646423397172657,0.3046165523857871,-0.12405519074746321,-0.3930383259619746,0.010774432483963675,-0.004435211317113993,-0.01343826672925566,0,70,255.0,255.0,255.0
434,21.700000000000003,14.113726127837582,-8.973377823943414,-4.666092808666355,0.3051779061926909,-0.12430081825708744,-0.39375208102969084,0.011679719792188032,-0.0053898890678544574,-0.015111935979392494,0,70,255.0,255.0,255.0
435,21.75,14.129,-8.9796,-4.6858,0.30578452436500597,-0.12459417965424867,-0.39454951955991385,0.012585007100413659,-0.006344566818595632,-0.016785605229530542,0,70,255.0,255.0,255.0
436,21.8,14.14430464217662,-8.985837265190222,-4.705547962544106,0.30639485668971994,-0.12488893793438963,-0.39535907339575777,0.011828285888144918,-0.0054457643870423934,-0.015596548204225052,0,70,255.0,255.0,255.0
437,21.85,14.159638855067962,-8.992088144791413,-4.725334916458722,0.3069673529538205,-0.1251387560929529,-0.3961091743803364,0.011071564675876179,-0.004546961955489156,-0.014407491178919561,0,70,255.0,255.0,255.0
438,21.900000000000002,14.175000746870992,-8.99835039179749,-4.745157889101286,0.3075020131573076,-0.12534363412993854,-0.39679982251364976,0.010314843463607438,-0.0036481595239359183,-0.013218434153614072,0,70,255.0,255.0,255.0
439,21.950000000000003,14.190388425782682,-9.00462175920238,-4.765013907829234,0.30799883730018124,-0.1255035720453465,-0.3974310177956978,0.009558122251338699,-0.0027493570923826805,-0.012029377128308582,0,70,255.0,255.0,255.0
440,22.0,14.2058,-9.0109,-4.7849,0.30845782538244143,-0.12561856983917682,-0.39800276022648057,0.008801401039069123,-0.0018505546608296175,-0.010840320103002288,0,70,255.0,255.0,255.0
441,22.05,14.221233977019395,-9.017183541906942,-4.804814172810975,0.30890293537291624,-0.1257291108716052,-0.3985738402029079,0.009002998579924173,-0.0025710866363060185,-0.012002878954091861,0,70,255.0,255.0,255.0
442,22.1,14.236690461535243,-9.023473511530474,-4.824758352819335,0.3093581252404338,-0.12587567850280743,-0.3992030481218897,0.009204596120779224,-0.003291618611782419,-0.013165437805181434,0,70,255.0,255.0,255.0
443,22.150000000000002,14.25216995754139,-9.029771710200535,-4.844735446422207,0.30982339498499417,-0.12605827273278344,-0.3998903839834261,0.009406193661634274,-0.0040121505872588205,-0.014327996656271007,0,70,255.0,255.0,255.0
444,22.200000000000003,14.267672969031693,-9.036079939247063,-4.86474836001672,0.3102987446065973,-0.12627689356153332,-0.4006358477875169,0.009607791202489325,-0.004732682562735221,-0.01549055550736058,0,70,255.0,255.0,255.0
445,22.25,14.2832,-9.0424,-4.8848,0.31078417410524317,-0.126531540989057,-0.4014394395341621,0.009809388743345693,-0.0054532145382122366,-0.01665311435845096,0,70,255.0,255.0,255.0
446,22.3,14.298751449745797,-9.048733367182015,-4.904892146211999,0.31127340181863083,-0.126802618579207,-0.40223356579260827,0.009759719792159593,-0.005389889067786678,-0.01511193597939371,0,70,255.0,255.0,255.0
447,22.35,14.314327298791072,-9.055080209086697,-4.925022072263945,0.3117601460844592,-0.12707052989583567,-0.4029506331321015,0.009710050840973494,-0.005326563597361121,-0.013570757600336459,0,70,255.0,255.0,255.0
448,22.400000000000002,14.32992742296345,-9.061440367400373,-4.945185925209893,0.3122444069027282,-0.1273352749389431,-0.4035906415526419,0.009660381889787392,-0.005263238126935563,-0.012029579221279209,0,70,255.0,255.0,255.0
449,22.450000000000003,14.345551698090551,-9.067813683809366,-4.9653798521038945,0.3127261842734379,-0.12759685370852925,-0.40415359105422943,0.009610712938601293,-0.0051999126565100045,-0.010488400842221957,0,70,255.0,255.0,255.0
450,22.5,14.3612,-9.0742,-4.9856,0.3132054781965883,-0.1278552662045941,-0.4046394816368641,0.009561043987414308,-0.0051365871860848955,-0.008947222463163929,0,70,255.0,255.0,255.0
451,22.55,14.376872223997424,-9.080598989365004,-5.005843642341032,0.3136834573525571,-0.12810041481155565,-0.40511589662665143,0.009558122251337764,-0.004669357092378406,-0.010109377128329305,0,70,255.0,255.0,255.0
452,22.6,14.392568343300477,-9.087009652122745,-5.026112558124886,0.3141612904217221,-0.12832220191383195,-0.40565041934969703,0.009555200515261219,-0.004202126998671916,-0.011271531793494683,0,70,255.0,255.0,255.0
453,22.650000000000002,14.408288350604817,-9.093430820197979,-5.046409652738224,0.31463897740408325,-0.12852062751142287,-0.4062430498060009,0.009552278779184676,-0.003734896904965426,-0.012433686458660059,0,70,255.0,255.0,255.0
454,22.700000000000003,14.424032238606104,-9.099861325515475,-5.066737831567709,0.31511651829964055,-0.12869569160432848,-0.406893787995563,0.009549357043108131,-0.0032676668112589357,-0.013595841123825437,0,70,255.0,255.0,255.0
455,22.75,14.4398,-9.1063,-5.0871,0.315593913108394,-0.12884739419254873,-0.4076026339183834,0.009546435307031587,-0.002800436717551813,-0.014757995788991618,0,70,255.0,255.0,255.0
456,22.8,14.45559165426451,-9.11274587535796,-5.107498084423872,0.31607276877113294,-0.12898772217455773,-0.40831084770079196,0.009607791202524398,-0.0028126825628080445,-0.013570555507348809,0,70,255.0,255.0,255.0
457,22.85,14.471407328007025,-9.119198782422327,-5.127930095236512,0.31655469222864646,-0.12912866244882953,-0.4089596894691183,0.009669147098017207,-0.002824928408064276,-0.012383115225705997,0,70,255.0,255.0,255.0
458,22.900000000000002,14.487247174617288,-9.125658751807714,-5.148393063837216,0.3170396834809347,-0.12927021501536415,-0.40954915922336255,0.009730502993510018,-0.0028371742533205074,-0.011195674944063188,0,70,255.0,255.0,255.0
459,22.950000000000003,14.503111347485035,-9.132125814128734,-5.168884021625281,0.3175277425279975,-0.1294123798741616,-0.41007925696352465,0.009791858889002828,-0.002849420098576739,-0.010008234662420377,0,70,255.0,255.0,255.0
460,23.0,14.519,-9.1386,-5.1894,0.31801886936983487,-0.1295551570252218,-0.41054998268960463,0.009853214784494302,-0.0028616659438318592,-0.008820794380778096,0,70,255.0,255.0,255.0
461,23.05,14.534913158944535,-9.145081509203154,-5.2099392199634815,0.31850546756291226,-0.12970869649022876,-0.4110327125701792,0.00961071293860067,-0.003279912656446277,-0.010488400842204395,0,70,255.0,255.0,255.0
462,23.1,14.55085034467142,-9.15157121818795,-5.2305046609290695,0.31897994066369495,-0.12988314829086642,-0.4115988227738251,0.00936821109270704,-0.0036981593690606947,-0.012156007303630692,0,70,255.0,255.0,255.0
463,23.150000000000002,14.566810950926035,-9.158070172571168,-5.251100491912916,0.31944228867218294,-0.13007851242713483,-0.4122483133005423,0.009125709246813407,-0.004116406081675112,-0.01382361376505699,0,70,255.0,255.0,255.0
464,23.200000000000003,14.582794371453769,-9.164579417969591,-5.271730881931176,0.31989251158837634,-0.13029478889903395,-0.4129811841503308,0.008883207400919777,-0.00453465279428953,-0.015491220226483287,0,70,255.0,255.0,255.0
465,23.25,14.5988,-9.1711,-5.2924,0.32033060941227487,-0.13053197770656375,-0.41379743532319063,0.008640705555025718,-0.004952899506903252,-0.0171588266879108,0,70,255.0,255.0,255.0
466,23.3,14.614827709957344,-9.17763288782942,-5.313110635722201,0.32078536097722743,-0.13078549186451852,-0.4146143020184848,0.009549357043074393,-0.005187666811288286,-0.01551584112385551,0,70,255.0,255.0,255.0
467,23.35,14.630879293307297,-9.184178744825871,-5.333860061047211,0.3212855451165823,-0.1310507443876926,-0.41534901943557617,0.010458008531123067,-0.00542243411567332,-0.013872855559800222,0,70,255.0,255.0,255.0
468,23.400000000000002,14.646957021678576,-9.190738157907612,-5.354644168511123,0.3218311618303397,-0.13132773527608588,-0.41600158757446487,0.011366660019171743,-0.005657201420058354,-0.012229869995744932,0,70,255.0,255.0,255.0
469,23.450000000000003,14.663063166699907,-9.197311713992901,-5.3754588506500225,0.3224222111184995,-0.1316164645296984,-0.41657200643515074,0.012275311507220417,-0.005891968724443388,-0.010586884431689644,0,70,255.0,255.0,255.0
470,23.5,14.6792,-9.2039,-5.3963,0.32305869298106177,-0.13191693214853017,-0.4170602760176338,0.01318396299527036,-0.0061267360288277395,-0.008943898867633582,0,70,255.0,255.0,255.0
471,23.55,14.695368801226087,-9.21050293947916,-5.417164637147714,0.3236810885281693,-0.13218933605171518,-0.4175340793558847,0.01171185888903199,-0.004769420098571666,-0.01000823466240323,0,70,255.0,255.0,255.0
472,23.6,14.711566882099394,-9.217117802508564,-5.438054294882084,0.324229878869965,-0.13239387415838735,-0.41806109948387415,0.010239754782793622,-0.003412104168315594,-0.011072570457172878,0,70,255.0,255.0,255.0
473,23.650000000000002,14.727790562359662,-9.22374119579839,-5.458971634042598,0.3247050640064487,-0.13253054646854673,-0.41864133640160206,0.008767650676555255,-0.002054788238059522,-0.012136906251942525,0,70,255.0,255.0,255.0
474,23.700000000000003,14.74403616174662,-9.230369726058811,-5.479919315468742,0.3251066439376205,-0.1325993529821933,-0.41927479010906843,0.007295546570316885,-0.0006974723078034487,-0.013201242046712174,0,70,255.0,255.0,255.0
475,23.75,14.7603,-9.237,-5.5009,0.32543461866348034,-0.13260029369932708,-0.41996146060627315,0.0058234424640764,0.0006598436224525273,-0.014265577841480415,0,70,255.0,255.0,255.0
476,23.8,14.776579485138313,-9.243629754253943,-5.521915615686942,0.32575428491010533,-0.13260116392862237,-0.42065738055797236,0.006963207400922949,-0.0006946527942641027,-0.013571220226488368,0,70,255.0,255.0,255.0
477,23.85,14.792876378295126,-9.250261245139876,-5.542965159424452,0.32613093940357263,-0.1326697589787535,-0.421318582628922,0.008102972337769498,-0.0020491492109807326,-0.012876862611496323,0,70,255.0,255.0,255.0
478,23.900000000000002,14.809193528882785,-9.256897858898833,-5.564046895318489,0.3265645821438823,-0.13280607884972045,-0.421945066819122,0.009242737274616046,-0.0034036456276973623,-0.012182504996504277,0,70,255.0,255.0,255.0
479,23.950000000000003,14.825533786313628,-9.263542981771861,-5.585159087475018,0.32705521313103425,-0.13301012354152322,-0.4225368331285725,0.010382502211462596,-0.004758142044413992,-0.01148814738151223,0,70,255.0,255.0,255.0
480,24.0,14.8419,-9.2702,-5.6063,0.32760283236502846,-0.13328189305416183,-0.42309388155727323,0.01152226714830773,-0.006112638461130526,-0.010793789766519346,0,70,255.0,255.0,255.0
481,24.05,14.85829405822067,-9.27687164350506,-5.627468100104516,0.32814977183141514,-0.13358200823380115,-0.4236283984122285,0.01035531150715759,-0.005891968724442972,-0.01058688443168929,0,70,255.0,255.0,255.0
482,24.1,14.87471400472011,-9.283558016931934,-5.648662667420111,0.3286383635157442,-0.13387108992660615,-0.42415257000044215,0.009188355866007447,-0.005671298987755418,-0.010379979096859232,0,70,255.0,255.0,255.0
483,24.150000000000002,14.891156922109213,-9.290258568606276,-5.6698831846834485,0.32906860741801586,-0.13414913813257673,-0.42466639632191444,0.008021400224857306,-0.005450629251067864,-0.010173073762029174,0,70,255.0,255.0,255.0
484,24.200000000000003,14.907619892998877,-9.296972746853744,-5.691129134631191,0.32944050353822996,-0.1344161528517129,-0.4251698773766451,0.0068544445837071645,-0.00522995951438031,-0.009966168427199117,0,70,255.0,255.0,255.0
485,24.25,14.9241,-9.3037,-5.7124,0.3297540518763865,-0.13467213408401474,-0.42566301316463423,0.005687488942554886,-0.0050092897776932155,-0.009759263092369519,0,70,255.0,255.0,255.0
486,24.3,14.940595481979008,-9.31043967172581,-5.733695983894995,0.33007862776421,-0.13491080313615278,-0.42618902579311135,0.007295546570383693,-0.004537472307828853,-0.011281242046716433,0,70,255.0,255.0,255.0
487,24.35,14.957109202824443,-9.31719068713239,-5.755020170895107,0.3304836065334249,-0.13512588131479764,-0.4267911373693059,0.008903604198212501,-0.004065654837964491,-0.012803221001063346,0,70,255.0,255.0,255.0
488,24.400000000000002,14.973645182680375,-9.323951866676065,-5.776376365947722,0.33096898818403125,-0.13531736861994922,-0.4274693478932177,0.01051166182604131,-0.00359383736810013,-0.01432519995541026,0,70,255.0,255.0,255.0
489,24.450000000000003,14.990207441690872,-9.33072203081316,-5.797768374000224,0.331534772716029,-0.13548526505160766,-0.4282236573648469,0.012119719453870116,-0.003122019898235768,-0.015847178909757172,0,70,255.0,255.0,255.0
490,24.5,15.0068,-9.3375,-5.8192,0.33218096012941817,-0.13562957060977285,-0.4290540657841934,0.013727777081697479,-0.002650202428371662,-0.01736915786410309,0,70,255.0,255.0,255.0
491,24.55,15.023425613863294,-9.344284869591698,-5.840673564315506,0.3328317171117471,-0.13576677922159258,-0.42987149841533356,0.012302502211457414,-0.0028381420444182595,-0.015328147381502493,0,70,255.0,255.0,255.0
492,24.6,15.040081983982118,-9.351076834538507,-5.862185448999466,0.3334112103505639,-0.13591338481421467,-0.4305868805223437,0.010877227341217348,-0.0030260816604648576,-0.013287136898901895,0,70,255.0,255.0,255.0
493,24.650000000000002,15.056765547169293,-9.357876364689467,-5.883730551525672,0.3339194398458688,-0.13606938738763907,-0.43120021210522375,0.009451952470977281,-0.0032140212765114553,-0.011246126416301296,0,70,255.0,255.0,255.0
494,24.700000000000003,15.073472740237644,-9.364683929893618,-5.9053037693679205,0.33435640559766167,-0.13623478694186583,-0.43171149316397384,0.008026677600737216,-0.0034019608925580534,-0.009205115933700698,0,70,255.0,255.0,255.0
495,24.75,15.0902,-9.3715,-5.9269,0.3347221076059425,-0.13640958347689489,-0.4321207236985938,0.00660140273049814,-0.0035899005086046376,-0.007164105451098024,0,70,255.0,255.0,255.0
496,24.8,15.106944462567817,-9.378324849907399,-5.948515358842983,0.3350585037887968,-0.1365820799774688,-0.4325009805455509,0.006854444583672596,-0.00330995951435082,-0.00804616842718603,0,70,255.0,255.0,255.0
497,24.85,15.12370606124709,-9.385157974713586,-5.970150833107035,0.3354075520643098,-0.13674057942832996,-0.4329253405413124,0.007107486436847051,-0.003030018520097003,-0.008928231403274037,0,70,255.0,255.0,255.0
498,24.900000000000002,15.140485428642458,-9.39199867456607,-5.991808627949595,0.3357692524324815,-0.13688508182947848,-0.4333938036858783,0.007360528290021506,-0.0027500775258431855,-0.009810294379362042,0,70,255.0,255.0,255.0
499,24.950000000000003,15.15728319735855,-9.39884624961237,-6.013490948528104,0.33614360489331196,-0.1370155871809143,-0.43390636997924864,0.007613570143195961,-0.0024701365315893684,-0.01069235735545005,0,70,255.0,255.0,255.0
500,25.0,15.1741,-9.4057,-6.0352,0.33653060944680113,-0.1371320954826374,-0.4344630394214232,0.00786661199637173,-0.002190195537336015,-0.011574420331535773,0,70,255.0,255.0,255.0
501,25.05,15.190936535865442,-9.412559730778705,-6.05693780031256,0.33693426773305823,-0.13726490086852758,-0.4350525794024562,0.008279719453912376,-0.003122019898270314,-0.012007178909782562,0,70,255.0,255.0,255.0
502,25.1,15.207793771029522,-9.419427266607155,-6.078705618572394,0.3373585813921924,-0.13744429747246445,-0.4356637573124015,0.008692826911453023,-0.004053844259204613,-0.012439937488029353,0,70,255.0,255.0,255.0
503,25.150000000000002,15.224672738260878,-9.426304937046252,-6.10050453667595,0.33780355042420357,-0.13767028529444802,-0.43629657315125914,0.009105934368993669,-0.004985668620138912,-0.012872696066276142,0,70,255.0,255.0,255.0
504,25.200000000000003,15.241574470328155,-9.4331950716569,-6.1223356365196695,0.33826917482909175,-0.13794286433447833,-0.43695102691902915,0.009519041826534316,-0.00591749298107321,-0.013305454644522931,0,70,255.0,255.0,255.0
505,25.25,15.2585,-9.4401,-6.1442,0.33875545460685696,-0.13826203459255537,-0.4376271186157114,0.00993214928407582,-0.00684931734200811,-0.013738213222767914,0,70,255.0,255.0,255.0
506,25.3,15.275450193970412,-9.447021026977783,-6.166098239906777,0.3392524252789772,-0.13856631654841942,-0.4382967018446229,0.009946677600733268,-0.005321960892553591,-0.013045115933690433,0,70,255.0,255.0,255.0
507,25.35,15.292425254634828,-9.453955358857801,-6.188029092603387,0.3397501223669303,-0.13879423068181074,-0.4389316302090805,0.009961205917390714,-0.003794604443099071,-0.012352018644612953,0,70,255.0,255.0,255.0
508,25.400000000000002,15.309425218314036,-9.460899177248924,-6.209990825346611,0.3402485458707163,-0.13894577699272934,-0.4395319037090842,0.009975734234048163,-0.002267247993644551,-0.011658921355535472,0,70,255.0,255.0,255.0
509,25.450000000000003,15.326450121328833,-9.467848663760032,-6.231981705393223,0.34074769579033515,-0.1390209554811752,-0.44009752234463406,0.00999026255070561,-0.0007398915441900319,-0.010965824066457991,0,70,255.0,255.0,255.0
510,25.5,15.3435,-9.4748,-6.254,0.3412475721257869,-0.13901976614714834,-0.44062848611572997,0.010004790867362612,0.000787464905264379,-0.01027272677737967,0,70,255.0,255.0,255.0
511,25.55,15.360574688252907,-9.481750561310157,-6.276044440060333,0.3417360311510499,-0.1390138329378066,-0.4411526132190507,0.009533570143157538,-0.0005501365315939222,-0.01069235735544885,0,70,255.0,255.0,255.0
512,25.6,15.377673210431169,-9.488702497961645,-6.298115611014053,0.34220092914010264,-0.13907477980030772,-0.44169772185127487,0.009062349418952462,-0.0018877379684522234,-0.01111198793351803,0,70,255.0,255.0,255.0
513,25.650000000000002,15.394794388482982,-9.495659153958053,-6.320214561937609,0.3426422660929452,-0.13920260673465182,-0.4422638120124025,0.008591128694747388,-0.0032253394053105245,-0.011531618511587212,0,70,255.0,255.0,255.0
514,25.700000000000003,15.411937044356527,-9.502623873302975,-6.342342341907443,0.3430600420095774,-0.13939731374083877,-0.4428508837024336,0.008119907970542312,-0.004562940842168826,-0.011951249089656392,0,70,255.0,255.0,255.0
515,25.75,15.4291,-9.5096,-6.3645,0.3434542568899993,-0.13965890081886867,-0.4434589369213681,0.007648687246335051,-0.005900542279026588,-0.012370879667726431,0,70,255.0,255.0,255.0
516,25.8,15.446282253017966,-9.516590327781586,-6.386687999851893,0.34383545011682115,-0.13995435170037032,-0.4440528452791745,0.0075990418265385875,-0.005917492981039274,-0.01138545464452719,0,70,255.0,255.0,255.0
517,25.85,15.463483503640498,-9.523595449295623,-6.408904463340398,0.3442141610726532,-0.1402506501169726,-0.44459748238582086,0.007549396406742124,-0.005934443683051961,-0.010400029621327949,0,70,255.0,255.0,255.0
518,25.900000000000002,15.48070362775405,-9.530615406918868,-6.431146926902957,0.3445903897574954,-0.1405477960686755,-0.44509284824130724,0.007499750986945662,-0.0059513943850646464,-0.00941460459812871,0,70,255.0,255.0,255.0
519,25.950000000000003,15.497942501245067,-9.537650243028077,-6.45341292697701,0.34496413617134775,-0.14084578955547908,-0.4455389428456337,0.0074501055671491985,-0.005968345087077332,-0.008429179574929467,0,70,255.0,255.0,255.0
520,26.0,15.5152,-9.5447,-6.4757,0.34533540031421023,-0.14114463057738322,-0.44593576619880027,0.00740046014734963,-0.005985295789089351,-0.007443754551730741,0,70,255.0,255.0,255.0
521,26.05,15.53247629967523,-9.551764127563503,-6.498006760532094,0.3457221683816626,-0.14140876026071497,-0.4463480056642551,0.008070262550743754,-0.004579891544181105,-0.009045824066461906,0,70,255.0,255.0,255.0
522,26.1,15.549772775006836,-9.558839704855869,-6.520336135624355,0.3461424265692846,-0.14160261973180133,-0.44684034860544647,0.00874006495413788,-0.003174487299272859,-0.01064789358119307,0,70,255.0,255.0,255.0
523,26.150000000000002,15.56709110050083,-9.56592321836648,-6.542692130450569,0.3465961748770764,-0.14172620899064226,-0.4474127950223744,0.009409867357532005,-0.001769083054364613,-0.012249963095924233,0,70,255.0,255.0,255.0
524,26.200000000000003,15.584432950663215,-9.573011154584728,-6.565078750184521,0.34708341330503784,-0.1417795280372378,-0.4480653449150389,0.010079669760926129,-0.0003636788094563666,-0.013852032610655398,0,70,255.0,255.0,255.0
525,26.25,15.6018,-9.5801,-6.5875,0.3476041418531689,-0.1417625768715879,-0.4487979982834399,0.010749472164318874,0.0010417254354528893,-0.015454102125386449,0,70,255.0,255.0,255.0
526,26.3,15.619193348281119,-9.5871875619644,-6.609958558019731,0.34812387635653946,-0.14175460725675687,-0.44953113206381545,0.01003990797050295,-0.0007229408422114753,-0.013871249089635085,0,70,255.0,255.0,255.0
527,26.35,15.63661179633216,-9.594276931280907,-6.632451794162186,0.3486081326502192,-0.14183487095580904,-0.45018512319240345,0.009330343776687025,-0.00248760711987584,-0.01228839605388372,0,70,255.0,255.0,255.0
528,26.400000000000002,15.654053570242645,-9.601372519615214,-6.654975751294775,0.3490569107342082,-0.14200336796874444,-0.45075997166920384,0.008620779582871099,-0.004252273397540205,-0.010705543018132356,0,70,255.0,255.0,255.0
529,26.450000000000003,15.671516896102087,-9.608478738633012,-6.677526472284911,0.3494702106085063,-0.14226009829556305,-0.4512556774942167,0.007911215389055174,-0.006016939675204569,-0.009122689982380992,0,70,255.0,255.0,255.0
530,26.5,15.689,-9.6156,-6.7001,0.3498480322731137,-0.14260506193626488,-0.45167224066744194,0.0072016511952401885,-0.007781605952868809,-0.007539836946628853,0,70,255.0,255.0,255.0
531,26.55,15.706501507200304,-9.622739224578893,-6.722693407388984,0.35021432619217335,-0.14294881071226354,-0.4520714660804809,0.007450105567148316,-0.005968345087077128,-0.008429179574929625,0,70,255.0,255.0,255.0
532,26.6,15.724021639664528,-9.629893370020506,-6.745307887726906,0.35059304282982856,-0.1432018964449726,-0.4525151586249349,0.007698559939056444,-0.004155084221285447,-0.009318522203230399,0,70,255.0,255.0,255.0
533,26.650000000000002,15.741561018528596,-9.637057903172671,-6.767945664370335,0.3509841821860791,-0.14336431913439207,-0.4530033183008039,0.007947014310964572,-0.002341823355493766,-0.01020786483153117,0,70,255.0,255.0,255.0
534,26.700000000000003,15.759120264928445,-9.644228290883223,-6.7906089606758435,0.35138774426092495,-0.14343607878052198,-0.45353594510808803,0.0081954686828727,-0.000528562489702086,-0.011097207459831943,0,70,255.0,255.0,255.0
535,26.75,15.7767,-9.6514,-6.8133,0.3518037290543663,-0.1434171753833623,-0.4541130390467871,0.00844392305478081,0.001284698376089466,-0.01198655008813354,0,70,255.0,255.0,255.0
536,26.8,15.794300622917664,-9.658569939720026,-6.836020612424334,0.3522188188747599,-0.1433941498941956,-0.45471100361425737,0.008159669760963691,-0.00036367880942178707,-0.011932032610677367,0,70,255.0,255.0,255.0
537,26.85,15.81192164500973,-9.665740788637075,-6.8587710549301955,0.3526196960304627,-0.14345354326430448,-0.4553062423078549,0.007875416467146571,-0.00201205599493304,-0.011877515133221193,0,70,255.0,255.0,255.0
538,26.900000000000002,15.829562355642967,-9.67291666769411,-6.881551191223889,0.3530063605214746,-0.1435953554936889,-0.45589875512757955,0.00759116317332945,-0.0036604331804442926,-0.011822997655765019,0,70,255.0,255.0,255.0
539,26.950000000000003,15.847222044184134,-9.680101697834097,-6.904360885011722,0.3533788123477956,-0.14381958658234892,-0.45648854207343137,0.0073069098795123305,-0.005308810365955546,-0.011768480178308846,0,70,255.0,255.0,255.0
540,27.0,15.8649,-9.6873,-6.9272,0.35373705150942575,-0.14412623653028445,-0.45707560314541046,0.007022656585693898,-0.0069571875514666814,-0.011713962700854008,0,70,255.0,255.0,255.0
541,27.05,15.882596001129038,-9.694514616541007,-6.950068142913681,0.3541103983087936,-0.14445058971095123,-0.45764451946249124,0.00791121538902121,-0.0060169396752044555,-0.011042689982376331,0,70,255.0,255.0,255.0
542,27.1,15.90031178029655,-9.701744275431198,-6.972963892552317,0.3545281730483279,-0.1447279304978049,-0.4581798721436481,0.008799774192348522,-0.00507669179894223,-0.010371417263898655,0,70,255.0,255.0,255.0
543,27.150000000000002,15.918049558899542,-9.708986626050889,-6.9958855707341145,0.3549903757280285,-0.14495825889084546,-0.4586816611888811,0.009688332995675834,-0.004136443922680004,-0.00970014454542098,0,70,255.0,255.0,255.0
544,27.200000000000003,15.935811558335022,-9.716239317780387,-7.018831499277274,0.3554970063478955,-0.1451415748900729,-0.4591498865981902,0.010576891799003146,-0.0031961960464177786,-0.009028871826943303,0,70,255.0,255.0,255.0
545,27.25,15.9536,-9.7235,-7.0418,0.35604806490792873,-0.14527787849548726,-0.45958454837157536,0.01146545060233084,-0.0022559481701562856,-0.008357599108463454,0,70,255.0,255.0,255.0
546,27.3,15.971416172566181,-9.730766794115954,-7.064790015920945,0.35658758789005873,-0.14539549126198445,-0.4600229185357824,0.010115468682868903,-0.0024485624897319564,-0.009177207459818794,0,70,255.0,255.0,255.0
547,27.35,15.989257633804074,-9.738039709638132,-7.087802974860538,0.35705961177621565,-0.14552273474446048,-0.4605022691175572,0.008765486763406966,-0.002641176809307627,-0.009996815811174132,0,70,255.0,255.0,255.0
548,27.400000000000002,16.007121008758872,-9.745319228102332,-7.1108409258396605,0.35746413656639947,-0.14565960894291524,-0.46102260011689983,0.007415504843945029,-0.0028337911288832977,-0.01081642416252947,0,70,255.0,255.0,255.0
549,27.450000000000003,16.025002922475778,-9.752605831044356,-7.133905917879189,0.35780116226061015,-0.1458061138573488,-0.46158391153381023,0.006065522924483092,-0.0030264054484589686,-0.01163603251388481,0,70,255.0,255.0,255.0
550,27.5,16.0429,-9.7599,-7.157,0.35807068885884774,-0.14596224948776113,-0.46218620336828825,0.004715541005020363,-0.0032190197680341814,-0.01245564086523876,0,70,255.0,255.0,255.0
551,27.55,16.06080970860623,-9.767202206995181,-7.180124593402542,0.358323250130962,-0.146127445241111,-0.46279180639437695,0.005386909879549693,-0.0033888103659596184,-0.011768480178309816,0,70,255.0,255.0,255.0
552,27.6,16.078732884487156,-9.774512886016277,-7.203278608005532,0.3586093798468027,-0.1463011305243571,-0.4633630513861192,0.006058278754079024,-0.003558600963885055,-0.011081319491380873,0,70,255.0,255.0,255.0
553,27.650000000000002,16.096671206064972,-9.78183246153978,-7.22646032590725,0.3589290780063699,-0.14648330533749948,-0.46389993834351506,0.006729647628608355,-0.003728391561810492,-0.01039415880445193,0,70,255.0,255.0,255.0
554,27.700000000000003,16.114626351761856,-9.789161358042191,-7.24966802920598,0.3592823446096636,-0.14667396968053817,-0.4644024672665645,0.007401016503137686,-0.0038981821597359285,-0.009706998117522986,0,70,255.0,255.0,255.0
555,27.75,16.1326,-9.7965,-7.2729,0.3596691796566836,-0.14687312355347307,-0.4648706381552674,0.00807238537766386,-0.0040679727576617974,-0.009019837430594535,0,70,255.0,255.0,255.0
556,27.8,16.1505937930089,-9.803848377903325,-7.2961548104688845,0.3600874115860995,-0.14705472777357423,-0.46532185588670627,0.008656891798972586,-0.0031961960463843795,-0.009028871826959417,0,70,255.0,255.0,255.0
557,27.85,16.168609228247295,-9.811204746296765,-7.3194321931173345,0.36053486883658087,-0.1471927431581115,-0.46577352533796335,0.00924139822028131,-0.0023244193351069616,-0.0090379062233243,0,70,255.0,255.0,255.0
558,27.900000000000002,16.18664776698124,-9.818566925738544,-7.342732170531344,0.3610115514081277,-0.14728716970708491,-0.4662256465090387,0.009825904641590036,-0.0014526426238295437,-0.009046940619689182,0,70,255.0,255.0,255.0
559,27.950000000000003,16.20471087047679,-9.82593273678688,-7.366054765296903,0.3615174593007399,-0.14733800742049447,-0.4666782193999323,0.01041041106289876,-0.0005808659125521257,-0.009055975016054063,0,70,255.0,255.0,255.0
560,28.0,16.2228,-9.8333,-7.3894,0.36205259251441746,-0.14734525629834014,-0.46713124401064415,0.010994917484207,0.00029091079872567427,-0.009065009412420277,0,70,255.0,255.0,255.0
