idx,t,px,py,pz,vx,vy,vz,ax,ay,az,yaw,mode,ledr,ledg,ledb
0,0.0,-7.5,-7.5,0.0,0.00043205488810245905,-8.71875974238598e-05,0.0011650996807613112,-0.024384658657241605,-0.0013537488309009835,-0.037181196169135726,0,70,255.0,255.0,255.0
1,0.05,-7.500009246024028,-7.500006338753507,1.1543588507407206e-05,-0.0008092547514733619,-0.0001721062948144192,-0.0007080541468497967,-0.02526772692579123,-0.0020429990647213916,-0.037744956935308584,0,70,255.0,255.0,255.0
2,0.1,-7.500081661365371,-7.500017785004676,-7.127521532345707e-05,-0.002094717804476664,-0.000291487503895999,-0.0026093960127695475,-0.026150795194340853,-0.0027322492985417998,-0.03830871770148144,0,70,255.0,255.0,255.0
3,0.15000000000000002,-7.5002194536947,-7.500036061879092,-0.00024986581340802496,-0.0034243342709074477,-0.00044533122466859924,-0.004538925916997941,-0.027033863462890474,-0.0034214995323622083,-0.0388724784676543,0,70,255.0,255.0,255.0
4,0.2,-7.500424830682686,-7.500062892502338,-0.0005256376076617287,-0.004798104150765712,-0.0006336374571322198,-0.006496643859534978,-0.0279169317314401,-0.004110749766182616,-0.03943623923382716,0,70,255.0,255.0,255.0
5,0.25,-7.5007,-7.5001,-0.0009,-0.006216027444051457,-0.0008564062012868608,-0.008482549840380656,-0.02879999999998973,-0.004800000000003026,-0.040000000000000036,0,70,255.0,255.0,255.0
6,0.30000000000000004,-7.501047169317314,-7.500149107497661,-0.001374362392338272,-0.007678104150764685,-0.0011136374571325226,-0.010496643859534981,-0.02968306826853935,-0.005489250233823434,-0.040563760766172866,0,70,255.0,255.0,255.0
7,0.35000000000000003,-7.501468546305301,-7.500211938120907,-0.0019501341865919754,-0.009184334270905394,-0.0014053312246692041,-0.012538925916997946,-0.030566136537088968,-0.00617850046764384,-0.0411275215323457,0,70,255.0,255.0,255.0
8,0.4,-7.501966338634629,-7.5002902149953234,-0.002628724784676544,-0.010734717804473583,-0.0017314875038969063,-0.01460939601276955,-0.031449204805638585,-0.0068677507014642475,-0.04169128229851853,0,70,255.0,255.0,255.0
9,0.45,-7.5025427539759715,-7.500385661246493,-0.0034115435885074077,-0.012329254751469251,-0.0020921062948156288,-0.016708054146849796,-0.032332273074188206,-0.007557000935284655,-0.04225504306469137,0,70,255.0,255.0,255.0
10,0.5,-7.5032,-7.5005,-0.0043,-0.013967945111892402,-0.002487187597425372,-0.018834900319238686,-0.03321534134273778,-0.008246251169105056,-0.042818803830864116,0,70,255.0,255.0,255.0
11,0.55,-7.503939676706713,-7.500634031255846,-0.005294894019154322,-0.015614328645461221,-0.002861343876652962,-0.02095337041501029,-0.03264000000001485,-0.006719999999998545,-0.04191999999999996,0,70,255.0,255.0,255.0
12,0.6000000000000001,-7.5047609534134265,-7.50078486251169,-0.006394588038308644,-0.01723194511189389,-0.003159187597425227,-0.023026900319238684,-0.03206465865729193,-0.005193748830892034,-0.0410211961691358,0,70,255.0,255.0,255.0
13,0.65,-7.5056623917667835,-7.500948678139613,-0.0075968350478858035,-0.01882079451119041,-0.0033807187597421655,-0.025055490031923866,-0.031489317314569006,-0.0036674976617855253,-0.04012239233827164,0,70,255.0,255.0,255.0
14,0.7000000000000001,-7.506642553413427,-7.50112166251169,-0.008899388038308642,-0.02038087684335079,-0.0035259373636037797,-0.02703913955306585,-0.030913975971846083,-0.0021412464926790133,-0.03922358850740748,0,70,255.0,255.0,255.0
15,0.75,-7.5077,-7.5013,-0.0103,-0.021912192108375018,-0.0035948434090100666,-0.028977848882664616,-0.03033863462912309,-0.0006149953235725023,-0.03832478467654349,0,70,255.0,255.0,255.0
16,0.8,-7.508833323855831,-7.501481167478956,-0.011797261531044448,-0.02341658126738941,-0.0036649870362540564,-0.030921874480423887,-0.02983693173145267,-0.0021907497661870943,-0.039436239233827254,0,70,255.0,255.0,255.0
17,0.8500000000000001,-7.510041240040991,-7.501667811832328,-0.013393113660173461,-0.024895885281520286,-0.003813918385628776,-0.03292147280604735,-0.02933522883378225,-0.003766504208801687,-0.04054769379111102,0,70,255.0,255.0,255.0
18,0.9,-7.511322494298235,-7.501863872446221,-0.01509033502378025,-0.02635010415076764,-0.004041637457134225,-0.03497664385953499,-0.028833525936111833,-0.005342258651416276,-0.04165914834839478,0,70,255.0,255.0,255.0
19,0.9500000000000001,-7.512675832370319,-7.502073288706743,-0.01689170425825803,-0.02777923787513147,-0.004348144250770404,-0.03708738764088682,-0.028331823038441412,-0.006918013094030868,-0.042770602905678544,0,70,255.0,255.0,255.0
20,1.0,-7.5141,-7.5023,-0.0188,-0.02918328645461178,-0.004733438766537312,-0.03925370415010285,-0.027830120140771242,-0.008493767536645463,-0.043882057462962365,0,70,255.0,255.0,255.0
21,1.05,-7.515594227869961,-7.50254689882833,-0.020816859856667903,-0.03059134628498557,-0.005134707978335565,-0.04140713166329419,-0.028492273074180185,-0.007557000935284651,-0.04225504306469125,0,70,255.0,255.0,255.0
22,1.1,-7.51715968642261,-7.502812690158999,-0.022939357320997528,-0.032032513762029806,-0.005489138860065778,-0.04347920845657197,-0.02915442600758913,-0.006620234333923839,-0.040628028666420145,0,70,255.0,255.0,255.0
23,1.1500000000000001,-7.518798031040276,-7.503095032075501,-0.02516342485699321,-0.03350678888574448,-0.00579673141172795,-0.0454699345299362,-0.029816578940998074,-0.005683467732563027,-0.03900101426814903,0,70,255.0,255.0,255.0
24,1.2000000000000002,-7.5205109171052955,-7.5033915826613375,-0.027484994928659266,-0.03501417165612961,-0.006057485633322082,-0.04737930988338688,-0.03047873187440702,-0.004746701131202216,-0.037373999869877925,0,70,255.0,255.0,255.0
25,1.25,-7.5223,-7.5037,-0.0299,-0.03655466207318519,-0.006271401524848172,-0.049207334516923995,-0.031140884807815905,-0.0038099345298414147,-0.03574698547160671,0,70,255.0,255.0,255.0
26,1.3,-7.524166564664321,-7.504018437207723,-0.032405699042283964,-0.03810603359267631,-0.006468181050410644,-0.051033598866399354,-0.030913975971828888,-0.004061246492657482,-0.03730358850740754,0,70,255.0,255.0,255.0
27,1.35,-7.5261104142685715,-7.504347027531677,-0.03500465705583644,-0.039646059670368085,-0.006677526174113921,-0.052937693367664754,-0.03068706713584187,-0.004312558455473549,-0.03886019154320837,0,70,255.0,255.0,255.0
28,1.4000000000000001,-7.52813098154066,-7.504686399251771,-0.037700765548246945,-0.0411747403062605,-0.006899436895958,-0.05491961802072019,-0.030460158299854854,-0.004563870418289617,-0.0404167945790092,0,70,255.0,255.0,255.0
29,1.4500000000000002,-7.530227699208501,-7.505037180647908,-0.040497916027104966,-0.04269207550035357,-0.007133913215942883,-0.05697937282556567,-0.03023324946386784,-0.004815182381105684,-0.04197339761481003,0,70,255.0,255.0,255.0
30,1.5,-7.5324,-7.5054,-0.0434,-0.04419806525264727,-0.007380955134068568,-0.059116957782201184,-0.03000634062788088,-0.005066494343921722,-0.0435300006506108,0,70,255.0,255.0,255.0
31,1.55,-7.534647513472755,-7.505775352340779,-0.04640994397419627,-0.04570451934430565,-0.007632567820017495,-0.06127447287110842,-0.030251823038454174,-0.004998013094035335,-0.042770602905678565,0,70,255.0,255.0,255.0
32,1.6,-7.536970656503106,-7.506163199714293,-0.04952681445565674,-0.04722324755649269,-0.0078807564434721,-0.06339401807276905,-0.030497305449027467,-0.004929531844148947,-0.042011205160746336,0,70,255.0,255.0,255.0
33,1.6500000000000001,-7.53937004279708,-7.506563370917418,-0.052748712950019074,-0.0487542498892084,-0.008125521004432389,-0.06547559338718306,-0.030742787859600763,-0.00486105059426256,-0.0412518074158141,0,70,255.0,255.0,255.0
34,1.7000000000000002,-7.541846286060702,-7.5069756947470285,-0.05607374096292094,-0.05029752634245277,-0.008366861502898358,-0.06751919881435045,-0.03098827027017406,-0.0047925693443761725,-0.040492409670881864,0,70,255.0,255.0,255.0
35,1.75,-7.5444,-7.5074,-0.0595,-0.0518530769162258,-0.008604777938870005,-0.06952483435427123,-0.03123375268074713,-0.004724088094489751,-0.039733011925950246,0,70,255.0,255.0,255.0
36,1.8,-7.54703138144466,-7.50783615342916,-0.06302572506093096,-0.05339588903010465,-0.008841547669512732,-0.07150050964916695,-0.030478731874406927,-0.004746701131219275,-0.03929399986987829,0,70,255.0,255.0,255.0
37,1.85,-7.549738959719005,-7.508284173611149,-0.06664968512153664,-0.054900950103666496,-0.009079448051991934,-0.07345423434125906,-0.029723711068066726,-0.004769314167948799,-0.03885498781380634,0,70,255.0,255.0,255.0
38,1.9000000000000001,-7.552520847271021,-7.508744117078556,-0.07037078265167682,-0.05636826013691133,-0.009318479086307611,-0.07538600843054759,-0.028968690261726524,-0.0047919272046783225,-0.03841597575773439,0,70,255.0,255.0,255.0
39,1.9500000000000002,-7.555375156548691,-7.5092160403639765,-0.07418792012121135,-0.057797819129839154,-0.009558640772459766,-0.0772958319170325,-0.028213669455386323,-0.004814540241407847,-0.03797696370166243,0,70,255.0,255.0,255.0
40,2.0,-7.5583,-7.5097,-0.0781,-0.05918962708244996,-0.009799933110448395,-0.07918370480071382,-0.027458648649046236,-0.004837153278137343,-0.037537951645590706,0,70,255.0,255.0,255.0
41,2.0500000000000003,-7.561294160748607,-7.51019603394258,-0.08210635578207989,-0.060583924535272504,-0.010041241501929471,-0.08107548853222385,-0.02831324946385534,-0.004815182381105667,-0.038133397614809765,0,70,255.0,255.0,255.0
42,2.1,-7.564359104620873,-7.5107041058411115,-0.08620804505819675,-0.062020952028835494,-0.010281451348558963,-0.08299704456219481,-0.029167850278664444,-0.004793211484073992,-0.03872884358402882,0,70,255.0,255.0,255.0
43,2.15,-7.567496968118836,-7.5112241607683545,-0.09040655644327368,-0.06350070956313894,-0.010520562650336868,-0.0849483728906267,-0.030022451093473543,-0.004771240587042316,-0.03932428955324787,0,70,255.0,255.0,255.0
44,2.2,-7.570709887744533,-7.511756143797065,-0.09470337855223378,-0.06502319713818286,-0.010758575407263195,-0.08692947351751959,-0.030877051908282653,-0.004749269690010641,-0.03991973552246693,0,70,255.0,255.0,255.0
45,2.25,-7.574,-7.5123,-0.0991,-0.06658841475396722,-0.010995489619337934,-0.08894034644287341,-0.03173165272309164,-0.004727298792978937,-0.04051518149168576,0,70,255.0,255.0,255.0
46,2.3000000000000003,-7.577368775560914,-7.512855710800521,-0.10359765181074963,-0.06815641282879929,-0.011233486322771812,-0.09096553622193762,-0.030988270270190882,-0.004792569344376149,-0.04049240967088208,0,70,255.0,255.0,255.0
47,2.35,-7.580815021797502,-7.513423403024403,-0.10819653464567643,-0.06968724178098631,-0.01147474655377555,-0.09298958740996162,-0.030244887817290133,-0.004857839895773361,-0.0404696378500784,0,70,255.0,255.0,255.0
48,2.4000000000000004,-7.584336880253634,-7.514003239848025,-0.11289659157522847,-0.07118090161052831,-0.01171927031234915,-0.09501250000694546,-0.029501505364389374,-0.004923110447170574,-0.04044686602927472,0,70,255.0,255.0,255.0
49,2.45,-7.587932492473178,-7.514595384447764,-0.11769776566985364,-0.07263739231742525,-0.011967057598492606,-0.0970342740128891,-0.028758122911488625,-0.004988380998567785,-0.04042409420847104,0,70,255.0,255.0,255.0
50,2.5,-7.5916,-7.5152,-0.1226,-0.07405671390167717,-0.012218108412205927,-0.09905490942779255,-0.028014740458587983,-0.00505365154996501,-0.04040132238766736,0,70,255.0,255.0,255.0
51,2.5500000000000003,-7.595337937007739,-7.515817122855337,-0.12760303697492173,-0.07546242414952654,-0.012464813206989823,-0.10106236658002582,-0.02821366945538637,-0.004814540241390784,-0.03989696370166289,0,70,255.0,255.0,255.0
52,2.6,-7.5991464081891165,-7.516446282061276,-0.1327058163590976,-0.07687808084721581,-0.012699562436345006,-0.10304460579795885,-0.028412598452184756,-0.00457542893281656,-0.03939260501565842,0,70,255.0,255.0,255.0
53,2.6500000000000004,-7.603025910866624,-7.517086879839546,-0.1379070772558126,-0.07830368399474502,-0.01292235610027148,-0.10500162708159166,-0.028611527448983144,-0.004336317624242334,-0.03888824632965395,0,70,255.0,255.0,255.0
54,2.7,-7.606976942362755,-7.517738318411878,-0.14320555876835175,-0.07973923359211413,-0.01313319419876924,-0.10693343043092424,-0.02881045644578153,-0.0040972063156681105,-0.03838388764364948,0,70,255.0,255.0,255.0
55,2.75,-7.611,-7.5184,-0.1486,-0.08118472963932316,-0.013332076731838288,-0.10884001584595658,-0.029009385442579916,-0.0038580950070938452,-0.037879528957645126,0,70,255.0,255.0,255.0
56,2.8000000000000003,-7.61509547640813,-7.519071797778135,-0.1540894002895636,-0.08263389057309485,-0.0135472608492659,-0.11073699745795937,-0.028957051908287124,-0.004749269690010624,-0.03799973552246609,0,70,255.0,255.0,255.0
57,2.85,-7.619263345446031,-7.519755468730495,-0.15967379991793332,-0.08408043483015187,-0.01380700370083935,-0.11263998939820319,-0.02890471837399433,-0.0056404443729273935,-0.03811994208728706,0,70,255.0,255.0,255.0
58,2.9000000000000004,-7.623503476279867,-7.520453240793787,-0.16535349940152128,-0.08552436241049428,-0.01411130528655864,-0.11454899166668808,-0.02885238483970154,-0.006531619055844172,-0.03824014865210803,0,70,255.0,255.0,255.0
59,2.95,-7.627815738075801,-7.521167341904721,-0.17112879925673946,-0.08696567331412203,-0.014460165606423768,-0.116464004263414,-0.028800051305408747,-0.007422793738760942,-0.038360355216929,0,70,255.0,255.0,255.0
60,3.0,-7.6322,-7.5219,-0.177,-0.08840436754103514,-0.01485358466043473,-0.11838502718838098,-0.028747717771115955,-0.008313968421677781,-0.03848056178175052,0,70,255.0,255.0,255.0
61,3.0500000000000003,-7.636656157359742,-7.522652486032122,-0.18296736186682408,-0.08984201355809986,-0.015234143395941613,-0.12030964358813655,-0.028758122911471683,-0.006908380998597466,-0.038504094208471916,0,70,255.0,255.0,255.0
62,3.1,-7.64118421002676,-7.523422243016741,-0.18903098396916926,-0.09128017983218231,-0.015544422760294477,-0.12223543660922818,-0.028768528051827412,-0.005502793575517165,-0.03852762663519331,0,70,255.0,255.0,255.0
63,3.1500000000000004,-7.64578418401391,-7.524205756985299,-0.1951909251381025,-0.0927188663632826,-0.01578442275349333,-0.1241624062516559,-0.028778933192183144,-0.00409720615243685,-0.03855115906191471,0,70,255.0,255.0,255.0
64,3.2,-7.650456105334039,-7.524999513969238,-0.20144724420469046,-0.09415807315140062,-0.015954143375538164,-0.12609055251541967,-0.028789338332538873,-0.002691618729356549,-0.038574691488636105,0,70,255.0,255.0,255.0
65,3.25,-7.6552,-7.5258,-0.2078,-0.09559780019653648,-0.016053584626428984,-0.12801987540051948,-0.028799743472894934,-0.0012860313062762752,-0.038598223915357055,0,70,255.0,255.0,255.0
66,3.3000000000000003,-7.660015894152907,-7.526604658093375,-0.21424915224314034,-0.0970380551945034,-0.016140165566976856,-0.12994442818949464,-0.028810456445781597,-0.0021772063156384573,-0.038383887643648903,0,70,255.0,255.0,255.0
67,3.35,-7.6649038144469275,-7.527414759202539,-0.22079426420538975,-0.09847884584111465,-0.016271305257992832,-0.1318582641648844,-0.028821169418668257,-0.0030683813250006317,-0.03816955137194076,0,70,255.0,255.0,255.0
68,3.4000000000000004,-7.669863787664496,-7.528232531265015,-0.22743480004606903,-0.09992017213637022,-0.016447003699476916,-0.13376138332668874,-0.02883188239155492,-0.003959556334362813,-0.03795521510023261,0,70,255.0,255.0,255.0
69,3.45,-7.674895840588041,-7.529060202218328,-0.23417022392449885,-0.10136203408027014,-0.01666726089142911,-0.13565378567490763,-0.02884259536444158,-0.004850731343724988,-0.037740878828524456,0,70,255.0,255.0,255.0
70,3.5,-7.68,-7.5299,-0.241,-0.10280443167281439,-0.016932076833849414,-0.13753547120954115,-0.028853308337328354,-0.005741906353087162,-0.03752654255681631,0,70,255.0,255.0,255.0
71,3.5500000000000003,-7.685176266028632,-7.530753681594377,-0.24792402916061482,-0.10424576566388324,-0.01721319433614573,-0.1394326436538848,-0.028800051305425713,-0.005502793738765425,-0.03836035521692938,0,70,255.0,255.0,255.0
72,3.6,-7.690424532185528,-7.531621120173102,-0.25494395920927193,-0.10568443680335696,-0.01748235620772596,-0.1413715067312341,-0.028746794273523068,-0.0052636811244436916,-0.03919416787704244,0,70,255.0,255.0,255.0
73,3.6500000000000004,-7.695744665328108,-7.532501717954637,-0.26206187467762165,-0.10712044509123556,-0.0177395624485901,-0.14335206044158907,-0.028693537241620427,-0.005024568510121955,-0.04002798053715551,0,70,255.0,255.0,255.0
74,3.7,-7.701136532313791,-7.53339487715745,-0.2692798600973143,-0.10855379052751901,-0.017984813058738152,-0.14537430478494964,-0.028640280209717782,-0.004785455895800221,-0.04086179319726857,0,70,255.0,255.0,255.0
75,3.75,-7.7066,-7.5343,-0.2766,-0.10998447311220731,-0.01821810803817012,-0.1474382397613159,-0.028587023177814586,-0.004546343281478488,-0.041695605857381635,0,70,255.0,255.0,255.0
76,3.8000000000000003,-7.712135041732563,-7.535216615529113,-0.2840235311144006,-0.11141888214996616,-0.018447057088441313,-0.14949299719496634,-0.028789338332538897,-0.004611618729369144,-0.04049469148863571,0,70,255.0,255.0,255.0
77,3.85,-7.717742056810959,-7.53614476010505,-0.2915482989575227,-0.1128634069454612,-0.018679269911107035,-0.15148770891017949,-0.0289916534872632,-0.0046768941772598,-0.039293777119889794,0,70,255.0,255.0,255.0
78,3.9000000000000004,-7.723421551023072,-7.537084596916431,-0.2991713012434446,-0.11431804749869248,-0.018914746506167292,-0.15342237490695534,-0.029193968641987512,-0.004742169625150456,-0.03809286275114387,0,70,255.0,255.0,255.0
79,3.95,-7.72917403015679,-7.538036289151874,-0.3068895356862443,-0.11578280380965995,-0.019153486873622082,-0.15529699518529386,-0.02939628379671182,-0.004807445073041111,-0.03689194838239795,0,70,255.0,255.0,255.0
80,4.0,-7.735,-7.539,-0.3147,-0.11725767587836365,-0.019395491013471402,-0.1571115697451951,-0.02959859895143635,-0.0048727205209317115,-0.03569103401365248,0,70,255.0,255.0,255.0
81,4.05,-7.740899567041114,-7.539975856289168,-0.322600246381783,-0.11871870573626019,-0.01963857731008739,-0.15889936756624956,-0.028842595364424843,-0.004850731343707909,-0.03582087882852538,0,70,255.0,255.0,255.0
82,4.1000000000000005,-7.746871240570637,-7.540963839406694,-0.3305900449606374,-0.12014193541480615,-0.019880564147842197,-0.16069365762804766,-0.02808659177741332,-0.0048287421664841065,-0.03595072364339829,0,70,255.0,255.0,255.0
83,4.15,-7.752913130579605,-7.541963894379637,-0.3386697203486002,-0.12152736491400153,-0.020121451526735803,-0.1624944399305894,-0.027330588190401812,-0.004806752989260304,-0.03608056845827119,0,70,255.0,255.0,255.0
84,4.2,-7.759023347059048,-7.542975966235054,-0.3468395971577087,-0.12287499423384632,-0.020361239446768226,-0.16430171447387476,-0.0265745846033903,-0.004784763812036502,-0.036210413273144094,0,70,255.0,255.0,255.0
85,4.25,-7.7652,-7.544,-0.3551,-0.12418482337434054,-0.020599927907939453,-0.16611548125790382,-0.02581858101637835,-0.0047627746348127,-0.03634025808801722,0,70,255.0,255.0,255.0
86,4.3,-7.7714418901029845,-7.545035959314216,-0.36345148335846744,-0.12549829490499304,-0.020838633671205205,-0.16794953254003595,-0.026720280209721742,-0.004785455895817287,-0.03702179319726779,0,70,255.0,255.0,255.0
87,4.3500000000000005,-7.777750580906495,-7.546083882268171,-0.3718955211999281,-0.12685685139531272,-0.021078473497521184,-0.16981766057763062,-0.027621979403065156,-0.004808137156821874,-0.037703328306518374,0,70,255.0,255.0,255.0
88,4.4,-7.784128326658511,-7.547143825565019,-0.3804338173621549,-0.12826049284529958,-0.021319447386887392,-0.17171986537068779,-0.028523678596408548,-0.004830818417826461,-0.03838486341576895,0,70,255.0,255.0,255.0
89,4.45,-7.790577381607019,-7.548215845907911,-0.3890680756829211,-0.12970921925495357,-0.021561555339303828,-0.1736561469192075,-0.02942537778975194,-0.004853499678831047,-0.03906639852501952,0,70,255.0,255.0,255.0
90,4.5,-7.7971,-7.5493,-0.3978,-0.13120303062427477,-0.021804797354770495,-0.17562650522318973,-0.030327076983095447,-0.004876180939835578,-0.039747933634270094,0,70,255.0,255.0,255.0
91,4.55,-7.803697672546949,-7.550396306453968,-0.4066306201843473,-0.13269611464376996,-0.022046888005092413,-0.17759050227360643,-0.02939628379671198,-0.004807445073041067,-0.038811948382397876,0,70,255.0,255.0,255.0
92,4.6000000000000005,-7.810368835803389,-7.55150463152062,-0.41555827023965086,-0.13414265900394598,-0.0222855418620746,-0.17950770006142955,-0.028465490610328492,-0.004738709206246554,-0.03787596313052565,0,70,255.0,255.0,255.0
93,4.65,-7.817111162786354,-7.5526248033602865,-0.4245806102027805,-0.1355426637048028,-0.022520758925717067,-0.18137809858665901,-0.027534697423945025,-0.004669973339452043,-0.036939977878653434,0,70,255.0,255.0,255.0
94,4.7,-7.82392232651288,-7.553756650133303,-0.43369530011060675,-0.13689612874634047,-0.022752539196019807,-0.18320169784929488,-0.02660390423756156,-0.004601237472657532,-0.03600399262678122,0,70,255.0,255.0,255.0
95,4.75,-7.8308,-7.5549,-0.4429,-0.13820305412855896,-0.02298088267298282,-0.18497849784933715,-0.025673111051178088,-0.004532501605863021,-0.03506800737490878,0,70,255.0,255.0,255.0
96,4.800000000000001,-7.837742619709222,-7.55605481486991,-0.45219323590414323,-0.13950924651992316,-0.023213814308430312,-0.18676045836553853,-0.026574584603390117,-0.004784763812036517,-0.03621041327314518,0,70,255.0,255.0,255.0
97,4.8500000000000005,-7.8447516758799525,-7.5572215916493475,-0.4615769978414691,-0.14086051258889798,-0.023459359054186474,-0.1885995391766517,-0.027476058155602133,-0.005037026018210008,-0.03735281917138155,0,70,255.0,255.0,255.0
98,4.9,-7.851829422196072,-7.558400960993833,-0.47105414182672356,-0.1422568523354834,-0.023717516910251313,-0.19049574028267666,-0.02837753170781415,-0.0052892882243835,-0.03849522506961792,0,70,255.0,255.0,255.0
99,4.95,-7.858978112341461,-7.559593553558878,-0.48062752387465196,-0.1436982657596794,-0.023988287876624822,-0.19244906168361345,-0.02927900526002616,-0.005541550430556992,-0.03963763096785429,0,70,255.0,255.0,255.0
100,5.0,-7.8662,-7.5608,-0.4903,-0.14518475286148597,-0.02427167195330701,-0.19445950337946205,-0.030180478812237954,-0.005793812636730511,-0.04078003686608955,0,70,255.0,255.0,255.0
101,5.050000000000001,-7.873496648616164,-7.562020434066396,-0.5000732361990804,-0.14667489927653615,-0.024537854761195625,-0.19645566426423977,-0.029425377789769135,-0.004853499678813953,-0.03906639852501816,0,70,255.0,255.0,255.0
102,5.1000000000000005,-7.880866860676802,-7.563253001881988,-0.5099441383944733,-0.1481272906404629,-0.024757021921188407,-0.1983661432319639,-0.028670276767300332,-0.003913186720897411,-0.0373527601839468,0,70,255.0,255.0,255.0
103,5.15,-7.888308748429359,-7.564495352664383,-0.5199084224903258,-0.14954192695326618,-0.024929173433285365,-0.20019094028263446,-0.027915175744831527,-0.00297287376298087,-0.035639121842875446,0,70,255.0,255.0,255.0
104,5.2,-7.8958204241212755,-7.565745135631185,-0.5299618043907858,-0.15091880821494605,-0.025054309297486498,-0.20193005541625142,-0.027160074722362725,-0.0020325608050643282,-0.033925483501804084,0,70,255.0,255.0,255.0
105,5.25,-7.9034,-7.567,-0.5401,-0.15225793442550248,-0.0251324295137918,-0.2035834886328148,-0.02640497369989414,-0.001092247847147787,-0.03221184516073117,0,70,255.0,255.0,255.0
106,5.300000000000001,-7.911045985826124,-7.568258648864509,-0.550320219299536,-0.15358315637393846,-0.025226766646787045,-0.2052408845775026,-0.02660390423754451,-0.002681237472662024,-0.03408399262678017,0,70,255.0,255.0,255.0
107,5.3500000000000005,-7.9187584814128416,-7.5695240008227005,-0.5606256485806388,-0.15491832484925694,-0.025400553261058,-0.20699188789549286,-0.026802834775194875,-0.0042702270981762325,-0.035956140092829145,0,70,255.0,255.0,255.0
108,5.4,-7.926537984086498,-7.5708000283486365,-0.5710209682119737,-0.15626343985145796,-0.02565378935660467,-0.20883649858678552,-0.02700176531284524,-0.005859216723690441,-0.03782828755887812,0,70,255.0,255.0,255.0
109,5.45,-7.934384991173436,-7.572090703916381,-0.5815108585622055,-0.15761850138054145,-0.025986474933427043,-0.21077471665138064,-0.027200695850495605,-0.00744820634920465,-0.03970043502492709,0,70,255.0,255.0,255.0
110,5.5,-7.9423,-7.5734,-0.5921,-0.1589835094365075,-0.026398609991525126,-0.21280654208927824,-0.027399626388146414,-0.009037195974718831,-0.041572582490976284,0,70,255.0,255.0,255.0
111,5.550000000000001,-7.950283408079341,-7.574730570475569,-0.6027914866027765,-0.16035247522771148,-0.026811078651656915,-0.21483679742574904,-0.027359005260013492,-0.007461550430552527,-0.03963763096785501,0,70,255.0,255.0,255.0
112,5.6000000000000005,-7.958335213671832,-7.576079794827212,-0.6135820672829724,-0.16171940996250886,-0.027144765034580385,-0.21677030518606377,-0.027318384131880567,-0.00588590488638625,-0.03770267944473378,0,70,255.0,255.0,255.0
113,5.65,-7.9664553152246524,-7.577443733941073,-0.6244669046617802,-0.16308431364089956,-0.02739966914029554,-0.21860706537022243,-0.027277763003747645,-0.004310259342219974,-0.03576772792161254,0,70,255.0,255.0,255.0
114,5.7,-7.974643611184981,-7.578818448703289,-0.635441161360392,-0.1644471862628836,-0.027575790968802378,-0.220347077978225,-0.027237141875614723,-0.002734613798053698,-0.03383277639849131,0,70,255.0,255.0,255.0
115,5.75,-7.9829,-7.5802,-0.6465,-0.16580802782846102,-0.027673130520100907,-0.22199034301007156,-0.027196520747480912,-0.0011589682538873103,-0.031897824875371183,0,70,255.0,255.0,255.0
116,5.800000000000001,-7.991224381856513,-7.581585469233218,-0.6576402342893589,-0.16716694271520754,-0.027752918746575126,-0.22363592571950097,-0.027160074722379555,-0.0020325608050813584,-0.033925483501804694,0,70,255.0,255.0,255.0
117,5.8500000000000005,-7.9996166638998325,-7.5829760198684495,-0.6688652822874722,-0.168524035300699,-0.02787638660060904,-0.22538289136025202,-0.0271236286972782,-0.002906153356275391,-0.03595314212823817,0,70,255.0,255.0,255.0
118,5.9,-8.008076755014896,-7.584373835887072,-0.6801802131409062,-0.16987930558493536,-0.028043534082202663,-0.2272312399323248,-0.027087182672176847,-0.0037797459074694235,-0.03798080075467164,0,70,255.0,255.0,255.0
119,5.95,-8.016604564086638,-7.585781101270463,-0.6915900959962266,-0.17123275356791667,-0.028254361191355982,-0.2291809714357192,-0.02705073664707549,-0.004653338458663456,-0.040008459381105116,0,70,255.0,255.0,255.0
120,6.0,-8.0252,-7.5872,-0.7031,-0.1725843792496429,-0.02850886792806901,-0.23123208587043528,-0.02701429062197458,-0.005526931009857516,-0.042036118007539036,0,70,255.0,255.0,255.0
121,6.050000000000001,-8.033863064494605,-7.588632352591557,-0.7147131762397886,-0.1739397539114551,-0.028785246362045682,-0.23327549969624697,-0.02720069585051319,-0.005528206349209109,-0.039700435024927226,0,70,255.0,255.0,255.0
122,6.1000000000000005,-8.042594130728835,-7.5900785256989876,-0.7264256035671393,-0.17530444883469423,-0.029061688562989924,-0.23520212937292803,-0.027387101079051804,-0.0055294816885607,-0.03736475204231546,0,70,255.0,255.0,255.0
123,6.15,-8.051393664715766,-7.591538522510639,-0.7382314427745957,-0.1766784640193603,-0.029338194530901748,-0.2370119749004785,-0.027573506307590413,-0.005530757027912292,-0.035029069059703696,0,70,255.0,255.0,255.0
124,6.2,-8.060262132468463,-7.59301234621486,-0.7501248546547015,-0.17806179946545325,-0.029614764265781152,-0.23870503627889839,-0.027759911536129025,-0.0055320323672638835,-0.03269338607709193,0,70,255.0,255.0,255.0
125,6.25,-8.0692,-7.5945,-0.7621,-0.1794544551729732,-0.029891397767628138,-0.24028131350818768,-0.027946316764667856,-0.005533307706615392,-0.03035770309447927,0,70,255.0,255.0,255.0
126,6.300000000000001,-8.078207360165068,-7.596001120400552,-0.7741526607514876,-0.18083404163897984,-0.030146095805244327,-0.24183807549551198,-0.02723714187559717,-0.004654613798032063,-0.03191277639849168,0,70,255.0,255.0,255.0
127,6.3500000000000005,-8.087282813184824,-7.597513877335601,-0.7862851034439714,-0.18217816936053294,-0.03035685914743135,-0.24347259114803685,-0.0265279669865265,-0.0037759198894487494,-0.03346784970250406,0,70,255.0,255.0,255.0
128,6.4,-8.096424586122048,-7.599036074070372,-0.7985012157607113,-0.1834868383376325,-0.030523687794189205,-0.24518486046576238,-0.025818792097455828,-0.002897225980865436,-0.03502292300651645,0,70,255.0,255.0,255.0
129,6.45,-8.105630906039512,-7.600565513870096,-0.8108048853849674,-0.18476004857027853,-0.03064658174551789,-0.2469748834486885,-0.025109617208385157,-0.002018532072282122,-0.03657799631052883,0,70,255.0,255.0,255.0
130,6.5,-8.1149,-7.6021,-0.8232,-0.18599780005847097,-0.030725541001417413,-0.24884266009681527,-0.02440044231931382,-0.0011398381636988086,-0.03813306961454144,0,70,255.0,255.0,255.0
131,6.550000000000001,-8.124230694845126,-7.603638365806232,-0.8356897807542619,-0.18723607953263038,-0.030822370416976583,-0.2507481983217064,-0.02513073664706292,-0.0027333384586679947,-0.0380884593811035,0,70,255.0,255.0,255.0
132,6.6000000000000005,-8.13362421653187,-7.605183564958611,-0.8482747826569762,-0.18851087372317726,-0.030998874847284214,-0.25265150603492564,-0.025861030974812012,-0.004326838753637152,-0.038043849147665565,0,70,255.0,255.0,255.0
133,6.65,-8.14308239079605,-7.606739581207873,-0.8609548941825599,-0.1898221826301116,-0.0312550542923403,-0.25455258323647295,-0.026591325302561104,-0.00592033904860631,-0.03799923891422763,0,70,255.0,255.0,255.0
134,6.7,-8.152607043373488,-7.608310398304757,-0.8737300038054291,-0.19117000625343336,-0.03159090875214484,-0.2564514299263484,-0.02732161963031019,-0.007513839343575468,-0.03795462868078969,0,70,255.0,255.0,255.0
135,6.75,-8.1622,-7.6099,-0.8866,-0.19255434459314263,-0.03200643822669784,-0.25834804610455187,-0.02805191395805995,-0.009107339638544265,-0.03791001844735131,0,70,255.0,255.0,255.0
136,6.800000000000001,-8.17186266045443,-7.61151101637452,-0.8995642162314661,-0.1939496402304974,-0.03242042252684336,-0.2602091312176629,-0.027759911536129507,-0.007452032367276294,-0.03653338607709118,0,70,255.0,255.0,255.0
137,6.8500000000000005,-8.181594720687698,-7.613140662829958,-0.9126197659281245,-0.1953303357467556,-0.03275164146342548,-0.262001384712261,-0.027467909114199072,-0.005796725096008353,-0.03515675370683108,0,70,255.0,255.0,255.0
138,6.9,-8.191395450693753,-7.6147848010981365,-0.9257632075090503,-0.1966964311419173,-0.033000095036444195,-0.263724806588346,-0.027175906692268634,-0.004141417824740411,-0.03378012133657097,0,70,255.0,255.0,255.0
139,6.95,-8.201264120466538,-7.616439292910877,-0.9389910993933173,-0.19804792641598246,-0.03316578324589951,-0.2653793968459181,-0.026883904270338196,-0.00248611055347247,-0.03240348896631086,0,70,255.0,255.0,255.0
140,7.0,-8.2112,-7.6181,-0.9523,-0.1993848215689511,-0.03324870609179143,-0.2669651554849772,-0.026591901848408206,-0.000830803282204251,-0.0310268565960512,0,70,255.0,255.0,255.0
141,7.050000000000001,-8.22120266333716,-7.619763968695689,-0.9656877543198752,-0.20072535954537168,-0.03331993947565359,-0.2685592768076417,-0.02702961720841444,-0.002018532072282137,-0.032737996310529496,0,70,255.0,255.0,255.0
142,7.1000000000000005,-8.231272900717338,-7.621432983721557,-0.9791573536305265,-0.20208778328979257,-0.03345055929901964,-0.27023895511603013,-0.027467332568420672,-0.0032062608623600014,-0.03444913602500776,0,70,255.0,255.0,255.0
143,7.15,-8.241411806428937,-7.6231100143995825,-0.9927130757812401,-0.20347209280221373,-0.033640565561889595,-0.2720041904101425,-0.0279050479284269,-0.004393989652437866,-0.03616027573948603,0,70,255.0,255.0,255.0
144,7.2,-8.25162047476036,-7.624798030051738,-1.0063591986213027,-0.20487828808263525,-0.03388995826426343,-0.2738549826899787,-0.028342763288433128,-0.00558171844251573,-0.03787141545396429,0,70,255.0,255.0,255.0
145,7.25,-8.2619,-7.6265,-1.0201,-0.20630636913105702,-0.03419873740614116,-0.2757913319555389,-0.02878047864843869,-0.006769447232593595,-0.03958255516844078,0,70,255.0,255.0,255.0
146,7.300000000000001,-8.27225068619694,-7.628217908842728,-1.0339383664890347,-0.2077089215880249,-0.03450781957054507,-0.2777297615517697,-0.02732161963027624,-0.005593839343562762,-0.03795462868079056,0,70,255.0,255.0,255.0
147,7.3500000000000005,-8.282669676442955,-7.629949802283814,-1.0478716195497706,-0.20903853109408466,-0.03475812134049744,-0.279586794823618,-0.025862760612113816,-0.00441823145453195,-0.03632670219314037,0,70,255.0,255.0,255.0
148,7.4,-8.293153323590499,-7.631692741303536,-1.0618956893659897,-0.2102951976492363,-0.03494964271599827,-0.2813624317710837,-0.024403901593951394,-0.0032426235655011377,-0.03469877570549017,0,70,255.0,255.0,255.0
149,7.45,-8.30369798049203,-7.6334437868821725,-1.0760065061214727,-0.21147892125347978,-0.03508238369704755,-0.283056672394167,-0.02294504257578897,-0.0020670156764703252,-0.033070849217839975,0,70,255.0,255.0,255.0
150,7.5,-8.3143,-7.6352,-1.0902,-0.21258970190681514,-0.03515634428364531,-0.2846695166928677,-0.021486183557624994,-0.0008914077874395687,-0.031442922730188005,0,70,255.0,255.0,255.0
151,7.550000000000001,-8.324956991875084,-7.636959595933402,-1.1044731797239882,-0.21370295410251444,-0.03524078224216811,-0.2862656769852802,-0.023043904270346992,-0.002486110553472343,-0.03240348896631097,0,70,255.0,255.0,255.0
152,7.6000000000000005,-8.335671593510845,-7.6387254071431885,-1.118827368170392,-0.21489409233384987,-0.035404955338992544,-0.2879098655894988,-0.024601624983068966,-0.004080813319505089,-0.033364055202433913,0,70,255.0,255.0,255.0
153,7.65,-8.346447699209063,-7.640501420386274,-1.1332649667548014,-0.21616311660082135,-0.03564886357411861,-0.2896020825055236,-0.026159345695790936,-0.005675516085537835,-0.034324621438556864,0,70,255.0,255.0,255.0
154,7.7,-8.35728920327152,-7.642291622419573,-1.1477883768928072,-0.21751002690342894,-0.03597250694754632,-0.2913423277333545,-0.02771706640851291,-0.007270218851570582,-0.03528518767467981,0,70,255.0,255.0,255.0
155,7.75,-8.3682,-7.6441,-1.1624,-0.21893482324167263,-0.03637588545927566,-0.29313060127299156,-0.029274787121235324,-0.008864921617603272,-0.036245753910799205,0,70,255.0,255.0,255.0
156,7.800000000000001,-8.379182946302722,-7.645929307423662,-1.1771017146150147,-0.2203752620019152,-0.03678505146077896,-0.29493553050711047,-0.02834276328846731,-0.007501718442528285,-0.035951415453956324,0,70,255.0,255.0,255.0
157,7.8500000000000005,-8.390236749513665,-7.647777369143432,-1.1918933077686638,-0.22176909957051935,-0.0371260573035285,-0.29672574281838726,-0.027410739455699308,-0.006138515267453322,-0.03565707699711344,0,70,255.0,255.0,255.0
158,7.9,-8.401359079573245,-7.64964077715137,-1.206774043614806,-0.22311633594748514,-0.03739890298752429,-0.2985012382068218,-0.026478715622931307,-0.0047753120923783605,-0.03536273854027056,0,70,255.0,255.0,255.0
159,7.95,-8.412547606421885,-7.651516123439539,-1.2217431863072987,-0.2244169711328125,-0.03760358851276633,-0.3002620166724143,-0.02554669179016331,-0.003412108917303398,-0.03506840008342769,0,70,255.0,255.0,255.0
160,8.0,-8.4238,-7.6534,-1.2368,-0.22567100512650143,-0.037740113879254626,-0.3020080782151645,-0.02461466795739553,-0.002048905742228657,-0.03477406162658436,0,70,255.0,255.0,255.0
161,8.05,-8.43511442291403,-7.655289574371946,-1.2519439618159547,-0.2269079978898301,-0.037843011914721676,-0.30375220098627526,-0.024865042575749778,-0.002067015676453432,-0.03499084921784412,0,70,255.0,255.0,255.0
162,8.1,-8.446491008434496,-7.657184316283085,-1.2671754007549534,-0.22815750938407642,-0.03794681544689996,-0.30550716313694887,-0.025115417194104015,-0.0020851256106782065,-0.03520763680910388,0,70,255.0,255.0,255.0
163,8.15,-8.457930382497953,-7.659084271008248,-1.2824948587859755,-0.22941953960924047,-0.0380515244757895,-0.3072729646671856,-0.025365791812458263,-0.002103235544902982,-0.03542442440036364,0,70,255.0,255.0,255.0
164,8.200000000000001,-8.469433171040938,-7.660989483822275,-1.2979028778779984,-0.23069408856532225,-0.03815713900139027,-0.30904960557698535,-0.02561616643081251,-0.0021213454791277567,-0.03564121199162341,0,70,255.0,255.0,255.0
165,8.25,-8.481,-7.6629,-1.3134,-0.2319811562523217,-0.03826365902370228,-0.31083708586634795,-0.025866541049166303,-0.0021394554133528088,-0.035857999582881384,0,70,255.0,255.0,255.0
166,8.3,-8.492631362041159,-7.66481639508855,-1.3289864381211678,-0.2332727464387638,-0.038402900880325594,-0.3126156655477872,-0.02579706640851733,-0.003430218851579521,-0.03528518767468628,0,70,255.0,255.0,255.0
167,8.35,-8.504327216748344,-7.6667413657242305,-1.3446610892115218,-0.23456086289317343,-0.038606680908860234,-0.3143656046338166,-0.025727591767868364,-0.004720982289806188,-0.0347123757664912,0,70,255.0,255.0,255.0
168,8.4,-8.516087390434944,-7.668678138815635,-1.3604225212412926,-0.23584550561555065,-0.03887499910930621,-0.31608690312443627,-0.025658117127219392,-0.0060117457280329,-0.034139563858296106,0,70,255.0,255.0,255.0
169,8.450000000000001,-8.527911709414363,-7.67062994127136,-1.3762693021807089,-0.2371266746058954,-0.03920785548166353,-0.3177795610196462,-0.02558864248657042,-0.007302509166259613,-0.033566751950101004,0,70,255.0,255.0,255.0
170,8.5,-8.5398,-7.6726,-1.3922,-0.23840436986420765,-0.039605250025932175,-0.31944357831944636,-0.02551916784592123,-0.008593272604486446,-0.03299394004190592,0,70,255.0,255.0,255.0
171,8.55,-8.55175212892133,-7.674590445273849,-1.4082134856993758,-0.2396810163551098,-0.04000138456397713,-0.3210971368225795,-0.0255466917901634,-0.007252108917311553,-0.03314840008341929,0,70,255.0,255.0,255.0
172,8.6,-8.56376812457213,-7.6765990208199915,-1.424309842398959,-0.24095903904322397,-0.04033046091766333,-0.3227584183277883,-0.02557421573440557,-0.005910945230136709,-0.033302860124932644,0,70,255.0,255.0,255.0
173,8.65,-8.57584805576227,-7.678622373729209,-1.4404894562488557,-0.24223843792855035,-0.0405924790869908,-0.32442742283507275,-0.02560173967864774,-0.004569781542961816,-0.033457320166446,0,70,255.0,255.0,255.0
174,8.700000000000001,-8.587991991301607,-7.6806571510922845,-1.4567527133991682,-0.2435192130110888,-0.040787439071959516,-0.3261041503444329,-0.02562926362288991,-0.0032286178557869244,-0.033611780207959366,0,70,255.0,255.0,255.0
175,8.75,-8.6002,-7.6827,-1.4731,-0.24480136429083932,-0.04091534087256948,-0.3277886008558687,-0.025656787567130745,-0.0018874541686121349,-0.033766240249471835,0,70,255.0,255.0,255.0
176,8.8,-8.612472122273527,-7.684748223816052,-1.4895316190813315,-0.24608318814078875,-0.04101556086376256,-0.32947578716189596,-0.02561616643084594,-0.002121345479110873,-0.03372121199161828,0,70,255.0,255.0,255.0
177,8.85,-8.62480828496313,-7.6868017509958015,-1.5060475411926413,-0.24736298093392392,-0.04112747542048057,-0.3311607220550305,-0.02557554529456114,-0.002355236789609603,-0.03367618373376473,0,70,255.0,255.0,255.0
178,8.9,-8.637208386515972,-7.688861166267525,-1.522647653763286,-0.24864074267024486,-0.04125108454272352,-0.3328434055352725,-0.02553492415827634,-0.0025891281001083418,-0.03363115547591118,0,70,255.0,255.0,255.0
179,8.950000000000001,-8.649672325379209,-7.6909270543594985,-1.539331844222621,-0.24991647334975156,-0.04138638823049141,-0.33452383760262167,-0.025494303021991536,-0.00282301941060708,-0.03358612721805763,0,70,255.0,255.0,255.0
180,9.0,-8.6622,-7.693,-1.5561,-0.251190172972444,-0.041533386483784226,-0.3362020182570782,-0.02545368188570718,-0.003056910721105699,-0.033541098960203186,0,70,255.0,255.0,255.0
181,9.05,-8.674791381984564,-7.695080659461943,-1.5729520379753001,-0.2524662310817501,-0.04169637198096902,-0.3378797145298359,-0.025588642486536542,-0.003462509166285638,-0.0335667519501051,0,70,255.0,255.0,255.0
182,9.1,-8.687446735575344,-7.697169975196801,-1.5898879928304752,-0.25374903722109765,-0.04187963740041279,-0.33955869345208867,-0.025723603087365897,-0.0038681076114655626,-0.033592404940007016,0,70,255.0,255.0,255.0
183,9.15,-8.70016639817384,-7.699268961200688,-1.6069079286980004,-0.2550385913904867,-0.04208318274211557,-0.3412389550238366,-0.02585856368819526,-0.004273706056645501,-0.03361805792990893,0,70,255.0,255.0,255.0
184,9.200000000000001,-8.712950707181559,-7.701378631469716,-1.6240119097103507,-0.25633489358991723,-0.04230700800607735,-0.3429204992450796,-0.02599352428902462,-0.004679304501825441,-0.033643710919810846,0,70,255.0,255.0,255.0
185,9.25,-8.7258,-7.7035,-1.6412,-0.25763794381938915,-0.0425511131922981,-0.34460332611581773,-0.026128484889853087,-0.005084902947005199,-0.03366936390971409,0,70,255.0,255.0,255.0
186,9.3,-8.73871434978822,-7.705633938336177,-1.6584722290174694,-0.2589318875322077,-0.04280695121236737,-0.3462853547187596,-0.025629263622888924,-0.005148617855765403,-0.03361178020795945,0,70,255.0,255.0,255.0
187,9.35,-8.751692772735499,-7.707780748216995,-1.6758284874854577,-0.26020087018167803,-0.04306597497787464,-0.3479645041366137,-0.025130042355924778,-0.005212332764525606,-0.033554196506204816,0,70,255.0,255.0,255.0
188,9.4,-8.764734020788666,-7.709940588929722,-1.6932686314447123,-0.26144489176780017,-0.04332818448881993,-0.34964077436938007,-0.024630821088960617,-0.0052760476732858115,-0.033496612804450175,0,70,255.0,255.0,255.0
189,9.450000000000001,-8.777836845894555,-7.712113619761634,-1.7107925169359781,-0.26266395229057415,-0.043593579745203226,-0.35131416541705873,-0.024131599821996454,-0.005339762582046016,-0.033439029102695535,0,70,255.0,255.0,255.0
190,9.5,-8.791,-7.7143,-1.7284,-0.26385805174999977,-0.04386216074702453,-0.3529846772796496,-0.023632378555030087,-0.005403477490806108,-0.03338144540094001,0,70,255.0,255.0,255.0
191,9.55,-8.804222418862555,-7.716499587193348,-1.7460910459548242,-0.26503821878942546,-0.04411582316955975,-0.3546588665951247,-0.023574303021995747,-0.004743019410602536,-0.03358612721806092,0,70,255.0,255.0,255.0
192,9.600000000000001,-8.817503773482665,-7.718711031935222,-1.7638660572276939,-0.26621548205219936,-0.04433646268808479,-0.35634329000145576,-0.023516227488961403,-0.004082561330398963,-0.03379080903518182,0,70,255.0,255.0,255.0
193,9.65,-8.830843918671498,-7.720932683080424,-1.7817255455231507,-0.2673898415383215,-0.04452407930259965,-0.3580379474986428,-0.023458151955927063,-0.003422103250195414,-0.03399549085230271,0,70,255.0,255.0,255.0
194,9.700000000000001,-8.84424270924022,-7.723162889483748,-1.799670022545739,-0.2685612972477921,-0.04467867301310433,-0.359742839086686,-0.023400076422892723,-0.0027616451699918414,-0.034200172669423615,0,70,255.0,255.0,255.0
195,9.75,-8.8577,-7.7254,-1.8177,-0.2697298491806109,-0.04480024381959882,-0.36145796476558517,-0.023342000889856163,-0.0021011870897880147,-0.034404854486542735,0,70,255.0,255.0,255.0
196,9.8,-8.871215974761558,-7.72764291289043,-1.8358155871632351,-0.270915237310083,-0.04492175610938969,-0.3631591789007439,-0.024073524289028037,-0.002759304501846814,-0.033643710919806835,0,70,255.0,255.0,255.0
197,9.850000000000001,-8.88479213333384,-7.729892724042115,-1.8540152836037695,-0.2721372016095137,-0.045076174269783505,-0.3648223358575659,-0.02480504768819991,-0.0034174219139056126,-0.032882567353070935,0,70,255.0,255.0,255.0
198,9.9,-8.898430304525341,-7.7321510787485845,-1.8722971864626858,-0.273395742078903,-0.045263498300780254,-0.36644743563605103,-0.025536571087371757,-0.004075539325964389,-0.03212142378633506,0,70,255.0,255.0,255.0
199,9.950000000000001,-8.912132317144565,-7.7344196223033705,-1.8906593928810689,-0.2746908587182509,-0.04548372820237995,-0.3680344782361994,-0.02626809448654363,-0.004733656738023187,-0.03136028021959916,0,70,255.0,255.0,255.0
200,10.0,-8.9259,-7.7367,-1.9091,-0.2760225515275573,-0.04573686397458257,-0.3695834636580109,-0.026999617885713256,-0.00539177415008163,-0.030599136652862402,0,70,255.0,255.0,255.0
201,10.05,-8.93973448209121,-7.73899356124493,-1.9276178053922377,-0.2773488319702499,-0.04600515239288576,-0.37113641780189977,-0.026051599821990644,-0.005339762582045892,-0.031519029102691144,0,70,255.0,255.0,255.0
202,10.100000000000001,-8.953634093181973,-7.741300471896315,-1.946214408357232,-0.27862771150975635,-0.046270840232787165,-0.3727353665682801,-0.025103581758268028,-0.005287751014010154,-0.032438921552519887,0,70,255.0,255.0,255.0
203,10.15,-8.967596463227133,-7.743620601925235,-1.9648921086261073,-0.27985919014607674,-0.046533927494286774,-0.37438030995715177,-0.02415556369454545,-0.0052357394459744185,-0.0333588140023486,0,70,255.0,255.0,255.0
204,10.200000000000001,-8.981619222181527,-7.745953821302771,-1.9836532059299887,-0.2810432678792109,-0.046794414177384606,-0.37607124796851493,-0.023207545630822838,-0.005183727877938681,-0.03427870645217734,0,70,255.0,255.0,255.0
205,10.25,-8.9957,-7.7483,-2.0025,-0.28217994470915897,-0.04705230028208064,-0.3778081806023695,-0.022259527567100257,-0.005131716309903056,-0.03519859890200605,0,70,255.0,255.0,255.0
206,10.3,-9.009837296873608,-7.75065884212985,-2.0214339912678163,-0.28332143480890876,-0.04729763431907748,-0.37954314989165533,-0.023400076422892564,-0.004681645169970288,-0.03420017266942733,0,70,255.0,255.0,255.0
207,10.350000000000001,-9.02403309393827,-7.753029388372625,-2.0404534829673056,-0.2845199523514483,-0.04752046479907768,-0.3812281978693123,-0.024540625278684867,-0.0042315740300375194,-0.0332017464368486,0,70,255.0,255.0,255.0
208,10.4,-9.03829024256613,-7.755410513550475,-2.0595559790328863,-0.2857754973367773,-0.047720791722081234,-0.38286332453534017,-0.025681174134477132,-0.0037815028901047676,-0.03220332020426992,0,70,255.0,255.0,255.0
209,10.450000000000001,-9.052611594129328,-7.75780109248555,-2.078738983398979,-0.2870880697648959,-0.04789861508808815,-0.3844485298897392,-0.02682172299026944,-0.0033314317501719993,-0.031204893971691197,0,70,255.0,255.0,255.0
210,10.5,-9.067,-7.7602,-2.098,-0.28845766963580427,-0.04805393489709844,-0.3859838139325093,-0.02796227184606126,-0.002881360610239192,-0.03020646773911162,0,70,255.0,255.0,255.0
211,10.55,-9.081457130414366,-7.762606270235671,-2.1173374295364997,-0.2898134287941202,-0.0481963103308051,-0.3875229826314772,-0.026268094486576098,-0.002813656738027436,-0.03136028021960275,0,70,255.0,255.0,255.0
212,10.600000000000001,-9.095979931064946,-7.765019574613188,-2.1367532597735486,-0.2910844790844619,-0.048335300570901185,-0.38911984195446964,-0.024573917127090936,-0.00274595286581568,-0.03251409270009388,0,70,255.0,255.0,255.0
213,10.65,-9.110564166508345,-7.767439743872869,-2.156250375242347,-0.29227082050682934,-0.04847090561738667,-0.39077439190148655,-0.022879739767605833,-0.002678248993603926,-0.03366790518058496,0,70,255.0,255.0,255.0
214,10.700000000000001,-9.125205601301163,-7.7698666087550325,-2.1758316604740973,-0.2933724530612225,-0.04860312547026158,-0.3924866324725281,-0.02118556240812067,-0.0026105451213921703,-0.03482171766107609,0,70,255.0,255.0,255.0
215,10.75,-9.1399,-7.7723,-2.1955,-0.2943893767476413,-0.04873196012952589,-0.3942565636675941,-0.019491385048635124,-0.0025428412491804164,-0.03597553014156585,0,70,255.0,255.0,255.0
216,10.8,-9.154644581468938,-7.7747400769274675,-2.2152570905861864,-0.2954088500146262,-0.04887712435770398,-0.39601291958243773,-0.02128754563075932,-0.0032637278779432226,-0.03427870645217721,0,70,255.0,255.0,255.0
217,10.850000000000001,-9.169442381801948,-7.777188313174628,-2.235099877938503,-0.2965181313107173,-0.049058332917320216,-0.39768443431281186,-0.023083706212883522,-0.003984614506706029,-0.03258188276278857,0,70,255.0,255.0,255.0
218,10.9,-9.184297891400492,-7.779646510958057,-2.255024119997726,-0.29771722063591455,-0.04927558580837458,-0.3992711078587165,-0.024879866795007657,-0.004705501135468809,-0.030885059073399987,0,70,255.0,255.0,255.0
219,10.950000000000001,-9.199215600666026,-7.782116472494322,-2.2750255747046335,-0.29900611799021803,-0.04952888303086709,-0.4007729402201518,-0.026676027377131855,-0.005426387764231615,-0.02918823538401135,0,70,255.0,255.0,255.0
220,11.0,-9.2142,-7.7846,-2.2951,-0.30038482337362765,-0.04981822458479774,-0.4021899313971177,-0.02847218795925288,-0.006147274392994395,-0.027491411694620993,0,70,255.0,255.0,255.0
221,11.05,-9.229254143709895,-7.787098222054463,-2.3152446081187565,-0.30176717114736656,-0.050103192238376795,-0.40360933903877516,-0.026821722990302697,-0.005251431750167533,-0.029284893971677866,0,70,255.0,255.0,255.0
222,11.100000000000001,-9.244375341727263,-7.789609572688303,-2.3354624284724426,-0.30306699567265794,-0.050343367759814496,-0.4051184207942855,-0.025171258021352512,-0.004355589107340671,-0.031078376248734736,0,70,255.0,255.0,255.0
223,11.15,-9.259559467889684,-7.792131812294909,-2.3557579447667494,-0.3042842969495018,-0.050538751149110855,-0.40671717666364865,-0.023520793052402386,-0.0034597464645138402,-0.032871858525791546,0,70,255.0,255.0,255.0
224,11.200000000000001,-9.274802396034739,-7.7946627012676775,-2.3761356407073713,-0.3054190749778982,-0.05068934240626588,-0.40840560664686465,-0.021870328083452205,-0.0025639038216869778,-0.034665340802848416,0,70,255.0,255.0,255.0
225,11.25,-9.2901,-7.7972,-2.3966,-0.30647132975784697,-0.050795141531279564,-0.41018371074393345,-0.02021986311449986,-0.0016680611788599808,-0.036458823079903446,0,70,255.0,255.0,255.0
226,11.3,-9.305449243691491,-7.79974223485468,-2.4171540769387887,-0.3075064653959125,-0.050902106688785864,-0.41196572426245814,-0.021185562408120275,-0.002610545121392085,-0.03482171766108342,0,70,255.0,255.0,255.0
227,11.350000000000001,-9.320851451289004,-7.8022909960721645,-2.437795208171731,-0.308589885998659,-0.051056196043418774,-0.4136658825100418,-0.022151261701740692,-0.003553029063924189,-0.033184612242263385,0,70,255.0,255.0,255.0
228,11.4,-9.336309037040769,-7.804848639862308,-2.458519300935277,-0.3097215915660866,-0.051257409595178285,-0.41528418548668444,-0.023116960995361077,-0.0044955130064562605,-0.031547506823443414,0,70,255.0,255.0,255.0
229,11.450000000000001,-9.351824415195024,-7.807417522434967,-2.479322262465883,-0.31090158209819513,-0.0515057473440644,-0.41682063319238616,-0.024082660288981494,-0.005437996948988364,-0.029910401404623387,0,70,255.0,255.0,255.0
230,11.5,-9.3674,-7.81,-2.5002,-0.3121298575949846,-0.05180120929007712,-0.4182752256271468,-0.025048359582600543,-0.006380480891520157,-0.02827329598580075,0,70,255.0,255.0,255.0
231,11.55,-9.383037681524142,-7.812597638526816,-2.521149484126089,-0.3133749672689772,-0.05209638100647134,-0.4197117639113923,-0.02475602737710085,-0.005426387764248528,-0.029188235384018504,0,70,255.0,255.0,255.0
232,11.600000000000001,-9.398737253116728,-7.815208843023041,-2.5421719388406383,-0.3146054603326947,-0.05234384806650199,-0.4211940491655487,-0.024463695171601154,-0.004472294636976898,-0.03010317478223626,0,70,255.0,255.0,255.0
233,11.65,-9.41449798394724,-7.817831228255859,-2.563269651492142,-0.3158213367861373,-0.05254361047016903,-0.4227220813896159,-0.02417136296610147,-0.003518201509705303,-0.031018114180453978,0,70,255.0,255.0,255.0
234,11.700000000000001,-9.43031914318517,-7.8204624089924515,-2.584444909429098,-0.3170225966293049,-0.052695668217472506,-0.4242958605835941,-0.023879030760601775,-0.002564108382433674,-0.03193305357867173,0,70,255.0,255.0,255.0
235,11.75,-9.4462,-7.8231,-2.6057,-0.31820923986219746,-0.052800021308412395,-0.425915386747483,-0.02358669855510298,-0.0016100152551620228,-0.03284799297688901,0,70,255.0,255.0,255.0
236,11.8,-9.46214003021194,-7.82574241103806,-2.627036786556857,-0.31939366552816295,-0.052904369285333624,-0.42755522009197616,-0.023790328083515448,-0.0025639038216870437,-0.032745340802835705,0,70,255.0,255.0,255.0
237,11.850000000000001,-9.47813953624409,-7.828391231835672,-2.64845543646572,-0.320588272670549,-0.053056411690581104,-0.42918992082776664,-0.023993957611927914,-0.0035177923882120645,-0.03264268862878241,0,70,255.0,255.0,255.0
238,11.9,-9.494199027170268,-7.831048847114256,-2.669955693096155,-0.3217930612893557,-0.05325614852415483,-0.4308194889548544,-0.02419758714034037,-0.004471680954737052,-0.03254003645472912,0,70,255.0,255.0,255.0
239,11.950000000000001,-9.510319012064299,-7.833717641595227,-2.691537299817727,-0.32300803138458306,-0.053503579786054814,-0.43244392447323954,-0.024401216668752838,-0.005425569521262073,-0.032437384280675816,0,70,255.0,255.0,255.0
240,12.0,-9.5265,-7.8364,-2.7132,-0.324233182956231,-0.053798705476281024,-0.43406322738292197,-0.024604846197166186,-0.006379458087787004,-0.03233473210662252,0,70,255.0,255.0,255.0
241,12.05,-9.542742197628098,-7.839097517320949,-2.7349433696464875,-0.32545037061838383,-0.05409414185219956,-0.4356673557207032,-0.024082660288946737,-0.005437996948954169,-0.031830401404626486,0,70,255.0,255.0,255.0
242,12.100000000000001,-9.559044601906916,-7.841808629634271,-2.7567663152964856,-0.3266414489851257,-0.05434250517117645,-0.4372462675233847,-0.023560474380727288,-0.004496535810121334,-0.03132607070263046,0,70,255.0,255.0,255.0
243,12.15,-9.575405907371685,-7.844530983287118,-2.7786675761232407,-0.32780641805645655,-0.05454379543321169,-0.4387999627909662,-0.023038288472507856,-0.003555074671288532,-0.03082174000063444,0,70,255.0,255.0,255.0
244,12.200000000000001,-9.591824808557638,-7.847262224626643,-2.800645891299997,-0.3289452778323765,-0.0546980126383053,-0.44032844152344813,-0.02251610256428841,-0.002613613532455696,-0.03031740929863841,0,70,255.0,255.0,255.0
245,12.25,-9.6083,-7.85,-2.8227,-0.33005802831288544,-0.05480515678645726,-0.4418317037208301,-0.021993916656068535,-0.0016721523936231164,-0.029813078596641507,0,70,255.0,255.0,255.0
246,12.3,-9.624830379275675,-7.852742719678143,-2.844828934857197,-0.33115685199830147,-0.05491106330585954,-0.4433273570252128,-0.021959030760571884,-0.002564108382467857,-0.030013053578666862,0,70,255.0,255.0,255.0
247,12.350000000000001,-9.64141565612825,-7.855491849627243,-2.867032902348341,-0.33225393138894266,-0.05506156762470405,-0.44483300907869683,-0.021924144865075233,-0.003456064371312598,-0.030213028560692218,0,70,255.0,255.0,255.0
248,12.4,-9.658055743342988,-7.85824961973727,-2.889312402410885,-0.333349266484809,-0.055256669742990795,-0.44634865988128203,-0.021889258969578586,-0.004348020360157308,-0.030413003542717566,0,70,255.0,255.0,255.0
249,12.450000000000001,-9.674750553705152,-7.8610182598981995,-2.9116679349822867,-0.3344428572859005,-0.05549636966071978,-0.4478743094329685,-0.021854373074081935,-0.005239976349002048,-0.030612978524742922,0,70,255.0,255.0,255.0
250,12.5,-9.6915,-7.8638,-2.9341,-0.33553470379221717,-0.05578066737789099,-0.44940995773375625,-0.021819487178585284,-0.00613193233784648,-0.030812953506767826,0,70,255.0,255.0,255.0
251,12.55,-9.708304285269206,-7.866596403966477,-2.9566088909247275,-0.3366422213884016,-0.0560696049243687,-0.45094321617844246,-0.022481216668791867,-0.005425569521261865,-0.030517384280680557,0,70,255.0,255.0,255.0
252,12.600000000000001,-9.725164773580083,-7.8694063718567575,-2.9791940753101565,-0.3377828254590964,-0.056323224330017185,-0.4524616961618243,-0.023142946158998454,-0.00471920670467725,-0.030221815054593284,0,70,255.0,255.0,255.0
253,12.65,-9.742083119256355,-7.8722281377637975,-3.001854814233221,-0.33895651600430143,-0.05654152559483643,-0.4539653976839018,-0.023804675649205013,-0.0040128438880926605,-0.029926245828506025,0,70,255.0,255.0,255.0
254,12.700000000000001,-9.759060976621754,-7.87505993578056,-3.024590368770858,-0.3401632930240169,-0.05672450871882645,-0.45545432074467496,-0.024466405139411597,-0.0033064810715080456,-0.029630676602418752,0,70,255.0,255.0,255.0
255,12.75,-9.7761,-7.8779,-3.0474,-0.3414031565182426,-0.05687217370198723,-0.45692846534414366,-0.02512813462961727,-0.002600118254923234,-0.029335107376331493,0,70,255.0,255.0,255.0
256,12.8,-9.793201279647505,-7.880746864455951,-3.0702835014438956,-0.34264226244809015,-0.05700251699667086,-0.45841977826101793,-0.02443610256428367,-0.002613613532421666,-0.030317409298638166,0,70,255.0,255.0,255.0
257,12.850000000000001,-9.810363649551423,-7.883600262945732,-3.0932427964110376,-0.343846766774671,-0.0571335350552294,-0.4599602062740075,-0.023744070498950068,-0.0026271088099200984,-0.03129971122094484,0,70,255.0,255.0,255.0
258,12.9,-9.827585379631584,-7.886460229207538,-3.1162803406562314,-0.34501666949798515,-0.05726522787766286,-0.4615497493831124,-0.02305203843361649,-0.00264060408741853,-0.032282013143251485,0,70,255.0,255.0,255.0
259,12.950000000000001,-9.844864739807832,-7.889326796979563,-3.139398589934284,-0.3461519706180326,-0.05739759546397125,-0.4631884075883327,-0.02236000636828289,-0.002654099364916962,-0.03326431506555816,0,70,255.0,255.0,255.0
260,13.0,-9.8622,-7.8922,-3.1626,-0.34725267013481337,-0.05753063781415456,-0.46487618088966826,-0.021667974302949755,-0.002667594642415172,-0.03424661698786435,0,70,255.0,255.0,255.0
261,13.05,-9.879589796140774,-7.895080138209722,-3.1858859032996922,-0.3483407288192392,-0.057680327088940525,-0.4665456707774833,-0.02185437307408256,-0.0033199763490233776,-0.03253297852473753,0,70,255.0,255.0,255.0
262,13.100000000000001,-9.897034228214233,-7.897968576360316,-3.209253139045696,-0.34943810744222165,-0.0578626354490569,-0.46812947874214206,-0.022040771845215364,-0.003972358055631583,-0.030819340061610707,0,70,255.0,255.0,255.0
263,13.15,-9.914533762217307,-7.900866945406049,-3.2326974231418535,-0.3505448060037607,-0.05807756289450368,-0.4696276047836444,-0.022227170616348157,-0.004624739762239765,-0.029105701598483944,0,70,255.0,255.0,255.0
264,13.200000000000001,-9.93208886414692,-7.9037768763011895,-3.2562144714920076,-0.3516608245038565,-0.05832510942528088,-0.4710400489019904,-0.022413569387480962,-0.00527712146884797,-0.027392063135357123,0,70,255.0,255.0,255.0
265,13.25,-9.9497,-7.9067,-3.2798,-0.35278616294250886,-0.058605275041388474,-0.4723668110971801,-0.022599968158613315,-0.005929503175455708,-0.025678424672231248,0,70,255.0,255.0,255.0
266,13.3,-9.9673675357894,-7.909637382705162,-3.3034512853573372,-0.3539148222749596,-0.05888417464756288,-0.47370153862904674,-0.02254640513941517,-0.005226481071520407,-0.027710676602432233,0,70,255.0,255.0,255.0
267,13.350000000000001,-9.985091437591647,-7.912587831613003,-3.32717184740618,-0.3550408034564504,-0.059127923148540526,-0.47513787875742336,-0.022492842120217026,-0.004523458967585105,-0.02974292853263322,0,70,255.0,255.0,255.0
268,13.4,-10.002871571499194,-7.915549589168263,-3.350966766776354,-0.3561641064869813,-0.05933652054432139,-0.47667583148230996,-0.022439279101018884,-0.003820436863649829,-0.03177518046283413,0,70,255.0,255.0,255.0
269,13.450000000000001,-10.020707803604495,-7.918520897815681,-3.3748411240976863,-0.35728473136655226,-0.0595099668349055,-0.47831539680370677,-0.022385716081820738,-0.003117414759714528,-0.03380743239303512,0,70,255.0,255.0,255.0
270,13.5,-10.0386,-7.9215,-3.3988,-0.35840267809516335,-0.059648262020292844,-0.48005657472161356,-0.02233215306261993,-0.0024143926557790296,-0.03583968432323559,0,70,255.0,255.0,255.0
271,13.55,-10.05654806070163,-7.924485530969631,-3.422846555270961,-0.35951998208093505,-0.05977497432080982,-0.48178417470633317,-0.022360006368247733,-0.0026540993648998235,-0.03326431506554904,0,70,255.0,255.0,255.0
272,13.600000000000001,-10.074552021419183,-7.927477697187672,-3.4469762713295857,-0.3606386787319882,-0.05991367195678283,-0.48338300622816854,-0.02238785967387553,-0.0028938060740206174,-0.030688945807862494,0,70,255.0,255.0,255.0
273,13.65,-10.092611951785917,-7.9304770979209,-3.4711827097527297,-0.36175876804832263,-0.060064354928211876,-0.4848530692871194,-0.022415712979503333,-0.003133512783141403,-0.028113576550176038,0,70,255.0,255.0,255.0
274,13.700000000000001,-10.110727921435101,-7.933484332436083,-3.49545943211725,-0.36288025002993846,-0.06022702323509697,-0.4861943638831861,-0.022443566285131136,-0.0033732194922621965,-0.02553820729248949,0,70,255.0,255.0,255.0
275,13.75,-10.1289,-7.9365,-3.5198,-0.3640031246768357,-0.06040167687743809,-0.4874068900163684,-0.022471419590758934,-0.0036129262013830377,-0.02296283803480037,0,70,255.0,255.0,255.0
276,13.8,-10.14712822140408,-7.939524493416318,-3.544200093558821,-0.36512524940129176,-0.06057592806919398,-0.4886177625456222,-0.02241356938748158,-0.0033571214688523495,-0.02547206313535252,0,70,255.0,255.0,255.0
277,13.850000000000001,-10.165412476731628,-7.942557379636309,-3.56866386727548,-0.36624448161558393,-0.06073738902432333,-0.48995409632990367,-0.022355719184204224,-0.0031013167363216614,-0.02798128823590467,0,70,255.0,255.0,255.0
278,13.9,-10.183752621357135,-7.94559801914814,-3.5931975942127283,-0.36736082131971215,-0.06088605974282614,-0.4914158913692127,-0.02229786898092687,-0.0028455120037909824,-0.030490513336456734,0,70,255.0,255.0,255.0
279,13.950000000000001,-10.202148510655096,-7.94864577243998,-3.6178075474333182,-0.3684742685136766,-0.06102194022470242,-0.49300314766354936,-0.022240018777649515,-0.0025897072712602943,-0.03299973843700888,0,70,255.0,255.0,255.0
280,14.0,-10.2206,-7.9517,-3.6425,-0.3695848231974771,-0.061145030469952164,-0.4947158652129136,-0.022182168574370387,-0.0023339025387292267,-0.03550896353756228,0,70,255.0,255.0,255.0
281,14.05,-10.239107053682051,-7.954760495365096,-3.6672794704937584,-0.3706990203138835,-0.061281313402413676,-0.4964487751111786,-0.022385716081887178,-0.003117414759731385,-0.033807432393035936,0,70,255.0,255.0,255.0
282,14.100000000000001,-10.257670071654312,-7.957828784267092,-3.692143459568498,-0.37182339480566584,-0.061456771945925304,-0.49809660845221726,-0.02258926358940397,-0.0039009269807335437,-0.0321059012485096,0,70,255.0,255.0,255.0
283,14.15,-10.276289562785543,-7.960906825486539,-3.717087713396359,-0.37295794667282395,-0.06167140610048703,-0.49965936523602955,-0.022792811096920752,-0.004684439201735674,-0.030404370103983322,0,70,255.0,255.0,255.0
284,14.200000000000001,-10.294966035944517,-7.963996577803992,-3.7421079781494804,-0.37410267591535795,-0.06192521586609887,-0.5011370454626156,-0.022996358604437543,-0.005467951422737833,-0.028702838959456987,0,70,255.0,255.0,255.0
285,14.25,-10.3137,-7.9671,-3.7672,-0.3752575825332677,-0.06221820124276081,-0.5025296491319753,-0.023199906111950774,-0.006251463643739852,-0.027001307814931153,0,70,255.0,255.0,255.0
286,14.3,-10.332491563867709,-7.970218325123297,-3.79236042446615,-0.3763986693431939,-0.06250681832116033,-0.5038911370096608,-0.022443566285095952,-0.005293219492240673,-0.02745820729249218,0,70,255.0,255.0,255.0
287,14.350000000000001,-10.351339236651132,-7.973349883295324,-3.8175894944505315,-0.37750193916177727,-0.06274752319198489,-0.5052754698612245,-0.021687226458241126,-0.004334975340741494,-0.027915106770053214,0,70,255.0,255.0,255.0
288,14.4,-10.370241127500698,-7.9764922789057024,-3.8428883522018373,-0.37856739198901795,-0.06294031585523448,-0.5066826476866662,-0.02093088663138633,-0.003376731189242348,-0.028372006247614226,0,70,255.0,255.0,255.0
289,14.450000000000001,-10.389195345566845,-7.979643116344054,-3.8682581399687623,-0.37959502782491594,-0.06308519631090911,-0.508112670485986,-0.020174546804531505,-0.0024184870377431684,-0.028828905725175255,0,70,255.0,255.0,255.0
290,14.5,-10.4082,-7.9828,-3.8937,-0.38058484666947107,-0.0631821645590088,-0.5095655382591836,-0.01941820697767449,-0.001460242886243801,-0.029285805202733606,0,70,255.0,255.0,255.0
291,14.55,-10.427253890847114,-7.985961404141719,-3.9192148316416437,-0.3815783023133526,-0.06328341331294639,-0.5110266768501774,-0.020320018777585172,-0.0025897072712600605,-0.029159738437017954,0,70,255.0,255.0,255.0
292,14.600000000000001,-10.44635858174117,-7.989129282551615,-3.9448025626293806,-0.3826168485472296,-0.0634411352861348,-0.5124815121028855,-0.02122183057749585,-0.00371917165627632,-0.029033671671302306,0,70,255.0,255.0,255.0
293,14.65,-10.465516327211668,-7.992306458890654,-3.970462877796294,-0.38370048537110213,-0.06365533047857402,-0.5139300440173077,-0.0221236423774065,-0.004848636041292539,-0.028907604905586658,0,70,255.0,255.0,255.0
294,14.700000000000001,-10.484729381788112,-7.995495756819794,-3.996195461975473,-0.3848292127849703,-0.06392599889026407,-0.5153722725934441,-0.023025454177317183,-0.005978100426308798,-0.028781538139871006,0,70,255.0,255.0,255.0
295,14.75,-10.504,-7.9987,-4.022,-0.38600303078883386,-0.0642531405212049,-0.5168081978312946,-0.023927265977226053,-0.00710756481132524,-0.028655471374154473,0,70,255.0,255.0,255.0
296,14.8,-10.52332967274384,-8.001920858309829,-4.047876248967277,-0.3871761214033771,-0.0645675284270569,-0.5182421555896345,-0.02299635860450405,-0.005467951422754934,-0.028702838959441125,0,70,255.0,255.0,255.0
297,14.850000000000001,-10.542716836384194,-8.005155386498215,-4.073824255031952,-0.3883026666492843,-0.0647999356634804,-0.5196784817272387,-0.022065451231782048,-0.0038283380341846284,-0.028750206544727777,0,70,255.0,255.0,255.0
298,14.9,-10.562159163652625,-8.008399485531687,-4.099844136612988,-0.38938266652655534,-0.06495036223047537,-0.5211171762441072,-0.02113454385906008,-0.002188724645614381,-0.028797574130014426,0,70,255.0,255.0,255.0
299,14.950000000000001,-10.581654327280706,-8.011649056376772,-4.12593601212935,-0.39041612103519024,-0.06501880812804184,-0.5225582391402401,-0.020203636486338074,-0.0005491112570440758,-0.028844941715301078,0,70,255.0,255.0,255.0
300,15.0,-10.6012,-8.0149,-4.1521,-0.3914030301751892,-0.06500527335617977,-0.5240016704156375,-0.019272729113614773,0.001090502131526505,-0.028892309300586838,0,70,255.0,255.0,255.0
301,15.05,-10.620794618177523,-8.018149562618966,-4.178336172489251,-0.3923892120731428,-0.06499047297883444,-0.5254447007912816,-0.020174546804529937,-0.0004984870377133803,-0.028828905725172937,0,70,255.0,255.0,255.0
302,15.100000000000001,-10.640439672722058,-8.021400371455524,-4.2046444172428155,-0.39342048485564224,-0.0650551220599511,-0.5268845609881548,-0.021076364495445102,-0.0020874762069532657,-0.028765502149759033,0,70,255.0,255.0,255.0
303,15.15,-10.66013741817783,-8.024656398982602,-4.2310245757517535,-0.3944968485226873,-0.06519922059952976,-0.5283212510062574,-0.021978182186360235,-0.0036764653761930943,-0.028702098574345136,0,70,255.0,255.0,255.0
304,15.200000000000001,-10.679890109089069,-8.027921617673119,-4.257476489507129,-0.39561830307427825,-0.06542276859757043,-0.5297547708455894,-0.0228799998772754,-0.00526545454543298,-0.028638694998931236,0,70,255.0,255.0,255.0
305,15.25,-10.6997,-8.0312,-4.284,-0.3967848485104148,-0.06572576605407304,-0.5311851205061505,-0.0237818175681892,-0.006854443714672254,-0.02857529142351556,0,70,255.0,255.0,255.0
306,15.3,-10.719568654546068,-8.034494491214309,-4.31059506107572,-0.3979550303040516,-0.066046579657598,-0.5326190412452356,-0.023025454177282335,-0.005978100426325815,-0.028781538139886646,0,70,255.0,255.0,255.0
307,15.350000000000001,-10.739494872727578,-8.037803927679686,-4.3372620759967875,-0.3990873939281431,-0.06632357609670564,-0.5340632743201392,-0.022269090786375467,-0.005101757137979376,-0.02898778485625773,0,70,255.0,255.0,255.0
308,15.4,-10.759476763636057,-8.041126118537907,-4.364001560379997,-0.40018193938268914,-0.06655675537139594,-0.5355178197308613,-0.02151272739546863,-0.004225413849632969,-0.02919403157262881,0,70,255.0,255.0,255.0
309,15.450000000000001,-10.779512436363023,-8.044458872930752,-4.390814029842137,-0.40123866666768987,-0.06674611748166893,-0.536982677477402,-0.02075636400456176,-0.0033490705612865303,-0.029400278288999895,0,70,255.0,255.0,255.0
310,15.5,-10.7996,-8.0478,-4.4177,-0.40225757578314536,-0.06689166242752459,-0.5384578475597612,-0.020000000613655367,-0.002472727272939901,-0.029606525005371864,0,70,255.0,255.0,255.0
311,15.55,-10.819737963638204,-8.051147672523793,-4.444659583207875,-0.4032626667106461,-0.0670152083907745,-0.5399191342277782,-0.020203636486372113,-0.002469111257056511,-0.028844941715302486,0,70,255.0,255.0,255.0
312,15.600000000000001,-10.839926436367625,-8.054501517825733,-4.471691278770036,-0.40427793943178264,-0.06713857355323025,-0.5413423417312915,-0.020407272359088863,-0.0024654952411731212,-0.02808335842523311,0,70,255.0,255.0,255.0
313,15.65,-10.860165927277944,-8.05786152686577,-4.498793182728261,-0.40530339394655496,-0.0672617579148918,-0.5427274700703013,-0.020610908231805603,-0.0024618792252897315,-0.027321775135163755,0,70,255.0,255.0,255.0
314,15.700000000000001,-10.880456945458842,-8.061227690603875,-4.525963391124326,-0.40633903025496315,-0.06738476147575921,-0.5440745192448079,-0.020814544104522353,-0.0024582632094063417,-0.026560191845094377,0,70,255.0,255.0,255.0
315,15.75,-10.9008,-8.0646,-4.5532,-0.4073848483570072,-0.06750758423583245,-0.5453834892548108,-0.021018179977240425,-0.002454647193523174,-0.02579860855502325,0,70,255.0,255.0,255.0
316,15.8,-10.921195490901113,-8.067978818690513,-4.580501806092786,-0.40843430285336935,-0.0676525867793056,-0.5466964218436593,-0.020959999877245127,-0.0033454545454031717,-0.026718694998917072,0,70,255.0,255.0,255.0
317,15.850000000000001,-10.94164338180192,-8.07136600101739,-4.607870408923071,-0.40948084834473175,-0.06784212969037276,-0.5480553587547026,-0.02090181977724983,-0.0042362618972831695,-0.027638781442810893,0,70,255.0,255.0,255.0
318,15.9,-10.96214352725217,-8.074763773999011,-4.635308108706961,-0.4105244848310944,-0.06807621296903392,-0.5494602999879404,-0.02084363967725453,-0.005127069249163136,-0.028558867886704684,0,70,255.0,255.0,255.0
319,15.950000000000001,-10.982695781801613,-8.078174364653753,-4.662817205660567,-0.4115652123124572,-0.06835483661528909,-0.550911245543373,-0.020785459577259233,-0.006017876601043134,-0.0294789543305985,0,70,255.0,255.0,255.0
320,16.0,-11.0033,-8.0816,-4.6904,-0.4126030307888203,-0.06867800062913823,-0.5524081954210002,-0.02072727947726616,-0.0069086839529231,-0.030399040774489627,0,70,255.0,255.0,255.0
321,16.05,-11.02395607275734,-8.085041852714152,-4.718057992420984,-0.4136401218758669,-0.06898244449199421,-0.553903178397587,-0.020756364004596684,-0.005269070561316024,-0.029400278288982472,0,70,255.0,255.0,255.0
322,16.1,-11.044664036424692,-8.088496878104706,-4.745789485537689,-0.41467866718928004,-0.06920490768526985,-0.5553482232498985,-0.02078544853192721,-0.0036294571697089474,-0.028401515803475313,0,70,255.0,255.0,255.0
323,16.150000000000002,-11.065423963713375,-8.091960977138186,-4.773591982443902,-0.41571866672905966,-0.06934539020896512,-0.5567433299779345,-0.020814533059257734,-0.001989843778101871,-0.027402753317968154,0,70,255.0,255.0,255.0
324,16.2,-11.086235927334705,-8.09543005078111,-4.8014629862334095,-0.4167601204952058,-0.06940389206308004,-0.5580884985816953,-0.02084361758658826,-0.0003502303864949107,-0.026403990832461068,0,70,255.0,255.0,255.0
325,16.25,-11.1071,-8.0989,-4.8294,-0.41780302848771844,-0.06938041324761458,-0.5593837290611806,-0.020872702113918784,0.0012893830051120547,-0.025405228346952136,0,70,255.0,255.0,255.0
326,16.3,-11.128016218069526,-8.102368170452882,-4.8574014242232835,-0.4188452096431786,-0.06936163525272207,-0.5606828645659826,-0.020814544104488596,-0.0005382632094110423,-0.026560191845127628,0,70,255.0,255.0,255.0
327,16.35,-11.148984472499311,-8.105837686563786,-4.885469248926181,-0.4198844828981674,-0.06943423956855568,-0.5620397482456935,-0.020756386095058407,-0.0023659094239341393,-0.02771515534330312,0,70,255.0,255.0,255.0
328,16.400000000000002,-11.170004617894335,-8.109313117448249,-4.913606361517436,-0.4209208482526845,-0.06959822619511548,-0.5634543801003129,-0.02069822808562822,-0.004193555638457236,-0.028870118841478613,0,70,255.0,255.0,255.0
329,16.45,-11.191076508859572,-8.112799032221808,-4.941815649405792,-0.42195430570673015,-0.06985359513240139,-0.5649267601298412,-0.020640070076198037,-0.006021201852980203,-0.030025082339654025,0,70,255.0,255.0,255.0
330,16.5,-11.2122,-8.1163,-4.9701,-0.4229848552603043,-0.0702003463804135,-0.5664568883342783,-0.020581912066767405,-0.007848848067503411,-0.03118004583782419,0,70,255.0,255.0,255.0
331,16.55,-11.233375054964561,-8.11981906547433,-4.998461110685884,-0.424019039551405,-0.07054701449712632,-0.5679733633384884,-0.020785459577259947,-0.006017876601008939,-0.029478954330578032,0,70,255.0,255.0,255.0
332,16.6,-11.254602073578067,-8.123353175640156,-5.026895918757595,-0.4250634012180304,-0.0708021340405144,-0.5694047837673362,-0.020989007087752493,-0.004186905134514466,-0.027777862823331875,0,70,255.0,255.0,255.0
333,16.650000000000002,-11.27588156470929,-8.126897753068825,-5.055400171486363,-0.4261179402601803,-0.07096570501057778,-0.5707511496208216,-0.021192554598245036,-0.0023559336680199936,-0.02607677131608572,0,70,255.0,255.0,255.0
334,16.7,-11.29721403722701,-8.13044822033166,-5.083969616143419,-0.4271826566778548,-0.07103772740731641,-0.5720124608989448,-0.021396102108737568,-0.0005249622015256507,-0.02437567980883968,0,70,255.0,255.0,255.0
335,16.75,-11.3186,-8.134,-5.1126,-0.42825755047105396,-0.07101820123073033,-0.5731887176017054,-0.021599649619231442,0.0013060092649688215,-0.022674588301587306,0,70,255.0,255.0,255.0
336,16.8,-11.34003956207223,-8.137549967649809,-5.141288533033184,-0.42931863215120036,-0.07099430675876847,-0.5743676820800567,-0.02084361758662324,-0.0003502303864948667,-0.024483990832463956,0,70,255.0,255.0,255.0
337,16.85,-11.361531233188426,-8.141100810875589,-5.1700382760434485,-0.4303419122297163,-0.07105322426937981,-0.5756371166849519,-0.020087585554015044,-0.002006470037958555,-0.026293393363340606,0,70,255.0,255.0,255.0
338,16.900000000000002,-11.383073123268508,-8.14465667027646,-5.198853752537122,-0.43132739070660187,-0.07119495376256434,-0.5769970214163909,-0.019331553521406843,-0.0036627096894222425,-0.02810279589421726,0,70,255.0,255.0,255.0
339,16.95,-11.404663342232393,-8.148221686451553,-5.227739486020528,-0.43227506758185696,-0.07141949523832203,-0.5784473962743735,-0.018575521488798697,-0.005318949340885813,-0.02991219842509378,0,70,255.0,255.0,255.0
340,17.0,-11.4263,-8.1518,-5.2567,-0.4331849428554817,-0.07172684869665291,-0.5799882412589001,-0.01781948945618872,-0.006975188992349279,-0.03172160095597043,0,70,255.0,255.0,255.0
341,17.05,-11.44798189674652,-8.155394663926431,-5.285738357181384,-0.4340984318437906,-0.07205175846778701,-0.5815319083412908,-0.01872007007616753,-0.0060212018530143435,-0.03002508233965313,0,70,255.0,255.0,255.0
342,17.1,-11.46971059366823,-8.159004380857496,-5.314851777068617,-0.43505694986309845,-0.07232896888195436,-0.5829907494928654,-0.01962065069614634,-0.0050672147136794085,-0.028328563723335826,0,70,255.0,255.0,255.0
343,17.150000000000002,-11.49148834221668,-8.162626765825344,-5.344036018365157,-0.43606049691340526,-0.07255847993915496,-0.5843647647136244,-0.020521231316125148,-0.004113227574344473,-0.026632045107018526,0,70,255.0,255.0,255.0
344,17.2,-11.513317393843419,-8.166259433862129,-5.373286839774464,-0.43710907299471097,-0.07274029163938879,-0.5856539540035672,-0.021421811936103895,-0.003159240435009605,-0.024935526490701344,0,70,255.0,255.0,255.0
345,17.25,-11.5352,-8.1699,-5.4026,-0.4382026781070156,-0.0728744039826559,-0.5868583173626944,-0.022322392556081372,-0.0022052532956742255,-0.02323900787438049,0,70,255.0,255.0,255.0
346,17.3,-11.557137650941693,-8.173546576644464,-5.431972438241283,-0.4392956404736369,-0.0729906593700858,-0.5880486845547744,-0.021396102108772016,-0.0024449622015210205,-0.02437567980881818,0,70,255.0,255.0,255.0
347,17.35,-11.579128792138656,-8.17719926569443,-5.46140581568209,-0.4403422883178928,-0.07311890020280801,-0.5892958853435762,-0.020469811661462663,-0.0026846711073678156,-0.025512351743255866,0,70,255.0,255.0,255.0
348,17.400000000000002,-11.601171107864776,-8.180858666422166,-5.490902974002254,-0.4413426216397832,-0.07325912648082258,-0.5905999197291,-0.019543521214153307,-0.0029243800132146107,-0.026649023677693555,0,70,255.0,255.0,255.0
349,17.45,-11.623262282393931,-8.184525378099934,-5.520466754881611,-0.4422966404393081,-0.07341133820412947,-0.5919607877113456,-0.01861723076684402,-0.0031640889190613884,-0.02778569561213116,0,70,255.0,255.0,255.0
350,17.5,-11.6454,-8.1882,-5.5501,-0.44320434471646764,-0.0735755353727287,-0.5933784892903131,-0.017690940319535997,-0.0034037978249084055,-0.028922367546567074,0,70,255.0,255.0,255.0
351,17.55,-11.66758269948671,-8.191883029495717,-5.579804689853481,-0.44411100626167516,-0.07374560405187283,-0.5948013534396056,-0.018575521488764415,-0.003398949340856294,-0.027992198425132373,0,70,255.0,255.0,255.0
352,17.6,-11.689811837777143,-8.195574556364784,-5.609579360203027,-0.4450618968653441,-0.07391543030681434,-0.5961777091328264,-0.01946010265799283,-0.003394100856804183,-0.027062029303697673,0,70,255.0,255.0,255.0
353,17.650000000000002,-11.71208962632422,-8.199274568485995,-5.63942168562583,-0.4460570165274745,-0.07408501413755325,-0.5975075563699754,-0.02034468382722125,-0.0033892523727520715,-0.026131860182262972,0,70,255.0,255.0,255.0
354,17.7,-11.734418276580865,-8.202983053738135,-5.669329340699089,-0.44709636524806623,-0.07425435554408953,-0.5987908951510527,-0.0212292649964496,-0.0033844038886999606,-0.025201691060828337,0,70,255.0,255.0,255.0
355,17.75,-11.7568,-8.2067,-5.6993,-0.4481799430271194,-0.07442345452642324,-0.6000277254760583,-0.02211384616567802,-0.0033795554046480714,-0.0242715219393963,0,70,255.0,255.0,255.0
356,17.8,-11.779236351111466,-8.210425305372672,-5.7293320023447905,-0.4492683344796639,-0.07458692442241553,-0.6012579016868104,-0.021421811936102833,-0.0031592404350435613,-0.024935526490683743,0,70,255.0,255.0,255.0
357,17.85,-11.801726256752778,-8.214158508846433,-5.759426343505808,-0.4503221242207297,-0.0747393785699276,-0.6025212781251267,-0.020729777706527643,-0.0029389254654390512,-0.02559953104197119,0,70,255.0,255.0,255.0
358,17.900000000000002,-11.82426798683835,-8.217899059633858,-5.78958468349443,-0.4513413122503167,-0.07488081696895944,-0.6038178547910075,-0.020037743476952457,-0.0027186104958345407,-0.02626353559325863,0,70,255.0,255.0,255.0
359,17.95,-11.846859811282615,-8.221646406947523,-5.819808682322034,-0.4523258985684249,-0.07501123961951105,-0.6051476316844525,-0.019345709247377316,-0.0024982955262300463,-0.026927540144546028,0,70,255.0,255.0,255.0
360,18.0,-11.8695,-8.2254,-5.8501,-0.4532758831750544,-0.07513064652158244,-0.606510608805462,-0.018653675017804794,-0.002277980556625314,-0.027591544695831693,0,70,255.0,255.0,255.0
361,18.05,-11.89218709606742,-8.229159749013593,-5.880460100767358,-0.45420765581967065,-0.07526669825847461,-0.6078950398131607,-0.01861723076684587,-0.0031640889190613602,-0.027785695612112173,0,70,255.0,255.0,255.0
362,18.1,-11.914920735211759,-8.232927408249484,-5.910889665773747,-0.45513760625173905,-0.07544705541348858,-0.6092891783666733,-0.018580786515886946,-0.004050197281497406,-0.027979846528392655,0,70,255.0,255.0,255.0
363,18.150000000000002,-11.937700826322386,-8.236705192978578,-5.941389180396457,-0.45606573447125937,-0.07567171798662435,-0.6106930244659999,-0.018544342264928026,-0.004936305643933452,-0.028173997444673134,0,70,255.0,255.0,255.0
364,18.2,-11.960527278288675,-8.240495318471782,-5.971959130012777,-0.45699204047823183,-0.07594068597788191,-0.6121065781111406,-0.018507898013969105,-0.005822414006369434,-0.028368148360953603,0,70,255.0,255.0,255.0
365,18.25,-11.9834,-8.2443,-6.0026,-0.45791652427265633,-0.07625395938726127,-0.6135298393020953,-0.018471453763010626,-0.0067085223688047035,-0.02856229927723586,0,70,255.0,255.0,255.0
366,18.3,-12.006319264618849,-8.248120498572957,-6.033311594585777,-0.4588610422416429,-0.07655428254369794,-0.6149219390605469,-0.01930926499645348,-0.005304403888661249,-0.027121691060826493,0,70,255.0,255.0,255.0
367,18.35,-12.029286802400192,-8.251954258155637,-6.064090993399208,-0.4598474507723017,-0.0767843997761274,-0.6162420084081779,-0.020147076229896334,-0.003900285408517794,-0.025681082844417127,0,70,255.0,255.0,255.0
368,18.400000000000002,-12.052304707872109,-8.255797768451837,-6.09493459491975,-0.4608757498646326,-0.07694431108454972,-0.6174900473449886,-0.020984887463339187,-0.0024961669283743394,-0.024240474628007762,0,70,255.0,255.0,255.0
369,18.45,-12.075375075562683,-8.259647519165359,-6.125838797626859,-0.4619459395186356,-0.07703401646896484,-0.6186660558709787,-0.021822698696781984,-0.0010920484482309844,-0.0227998664115985,0,70,255.0,255.0,255.0
370,18.5,-12.0985,-8.2635,-6.1568,-0.46305801973431077,-0.07705351592937279,-0.6197700339861484,-0.02266050993022306,0.0003120700319130254,-0.021359258195189135,0,70,255.0,255.0,255.0
371,18.55,-12.121680645457177,-8.267352656694579,-6.18781592088953,-0.4641561752137515,-0.07706017156673083,-0.6208812039446424,-0.021265709247407186,-0.0005782955262344418,-0.023087540144570998,0,70,255.0,255.0,255.0
372,18.6,-12.144914455187473,-8.271206759127972,-6.218889560629422,-0.46518459065905154,-0.07711134548199623,-0.6220787880006055,-0.01987090856459131,-0.001468661084381909,-0.02481582209395286,0,70,255.0,255.0,255.0
373,18.650000000000002,-12.16819794218918,-8.275064533214076,-6.2500252399245495,-0.4661432660702107,-0.07720703767516901,-0.6233627861540377,-0.018476107881775436,-0.0023590266425293762,-0.026544104043334724,0,70,255.0,255.0,255.0
374,18.7,-12.19152761946059,-8.278928204866787,-6.281227279479783,-0.467032201447229,-0.07734724814624917,-0.6247331984049389,-0.017081307198959658,-0.00324939220067678,-0.02827238599271646,0,70,255.0,255.0,255.0
375,18.75,-12.2149,-8.2828,-6.3125,-0.4678513967901067,-0.07753197689523668,-0.6261900247533093,-0.01568650651614245,-0.004139757758823914,-0.030000667942098325,0,70,255.0,255.0,255.0
376,18.8,-12.238312553552444,-8.286681674648731,-6.343846321856102,-0.4686582569033587,-0.07773303118936747,-0.6276492451608856,-0.016587898013939485,-0.0039024140064076915,-0.02836814836095429,0,70,255.0,255.0,255.0
377,18.85,-12.261766576849919,-8.290573105332477,-6.375263564083105,-0.4695101865915006,-0.07792221829587745,-0.6290268395894048,-0.01748928951173652,-0.0036650702539914692,-0.02673562877981026,0,70,255.0,255.0,255.0
378,18.900000000000002,-12.285264323371175,-8.294473698691856,-6.406747645382058,-0.4704071858545324,-0.07809953821476662,-0.6303228080388668,-0.018390681009533554,-0.0034277265015752465,-0.025103109198666228,0,70,255.0,255.0,255.0
379,18.95,-12.308808046594951,-8.298382861367493,-6.438294484454006,-0.471349254692454,-0.07826499094603497,-0.6315371505092714,-0.019292072507330525,-0.0031903827491590406,-0.02347058961752231,0,70,255.0,255.0,255.0
380,19.0,-12.3324,-8.3023,-6.4699,-0.4723363931052654,-0.07841857648968252,-0.6326698670006188,-0.02019346400512445,-0.0029530389967430404,-0.02183807003637739,0,70,255.0,255.0,255.0
381,19.05,-12.356041940333057,-8.306224644710502,-6.501561191686066,-0.47333879717281313,-0.0785677036758059,-0.6337858154118178,-0.019902698696785043,-0.0030120484481922514,-0.022799866411581618,0,70,255.0,255.0,255.0
382,19.1,-12.379733637412858,-8.310156819542122,-6.5332793830381615,-0.4743266629749439,-0.07871978133450175,-0.6349498536417769,-0.01961193338844564,-0.0030710578996414623,-0.023761662786785848,0,70,255.0,255.0,255.0
383,19.150000000000002,-12.40347436432613,-8.314096672018495,-6.565056978547224,-0.4752999905116577,-0.07887480946577005,-0.6361619816904963,-0.01932116808010623,-0.0031300673510906733,-0.024723459161990077,0,70,255.0,255.0,255.0
384,19.200000000000003,-12.427263394159601,-8.318044349663245,-6.596896382704192,-0.47625877978295456,-0.07903278806961082,-0.6374221995579761,-0.019030402771766826,-0.0031890768025398843,-0.025685255537194307,0,70,255.0,255.0,255.0
385,19.25,-12.4511,-8.322,-6.6288,-0.4772030307888344,-0.07919371714602405,-0.6387305072442158,-0.01873963746342522,-0.003248086253988758,-0.026647051912398467,0,70,255.0,255.0,255.0
386,19.3,-12.474983685115326,-8.325963746509263,-6.660769711399635,-0.4781465544053939,-0.07935615410739154,-0.6400554931918437,-0.01900130719895437,-0.0032493922007104546,-0.026352385992721133,0,70,255.0,255.0,255.0
387,19.35,-12.498914873498654,-8.329935616499029,-6.692805303764252,-0.47910316150872984,-0.0795186563660951,-0.6413657458434878,-0.01926297693448352,-0.0032506981474321518,-0.026057720073043803,0,70,255.0,255.0,255.0
388,19.400000000000002,-12.522894219324314,-8.333915613234161,-6.724906040429051,-0.4800728520988423,-0.07968122392213475,-0.6426612651991482,-0.01952464667001267,-0.0032520040941538485,-0.02576305415336647,0,70,255.0,255.0,255.0
389,19.450000000000003,-12.54692237676665,-8.33790373997953,-6.757071184729235,-0.48105562617573117,-0.0798438567755105,-0.6439420512588246,-0.01978631640554182,-0.0032533100408755457,-0.02546838823368914,0,70,255.0,255.0,255.0
390,19.5,-12.571,-8.3419,-6.7893,-0.48205148373939644,-0.08000655492622229,-0.645208104022517,-0.020047986141068286,-0.0032546159875966874,-0.025173722314011826,0,70,255.0,255.0,255.0
391,19.55,-12.595127319205632,-8.345904369252446,-6.821591962715394,-0.48303498520560634,-0.08016767989464119,-0.6464722118208053,-0.019292072507328395,-0.0031903827491590367,-0.025390589617516925,0,70,255.0,255.0,255.0
392,19.6,-12.619302868592534,-8.349916714461767,-6.8539474019048345,-0.4839806909901293,-0.0803255932011382,-0.6477471629842688,-0.018536158873588504,-0.0031261495107213857,-0.025607456921022027,0,70,255.0,255.0,255.0
393,19.650000000000002,-12.643524758376618,-8.353936875044862,-6.886366859736576,-0.4848886010929652,-0.08048029484571333,-0.6490329575129075,-0.017780245239848613,-0.003061916272283735,-0.025824324224527125,0,70,255.0,255.0,255.0
394,19.700000000000003,-12.667791098773801,-8.357964690418637,-6.91885087837888,-0.4857587155141142,-0.08063178482836657,-0.6503295954067215,-0.017024331606108722,-0.0029976830338460845,-0.026041191528032227,0,70,255.0,255.0,255.0
395,19.75,-12.6921,-8.362,-6.9514,-0.486591034253576,-0.08078006314909793,-0.6516370766657106,-0.01626841797236933,-0.002933449795408438,-0.026258058831534647,0,70,255.0,255.0,255.0
396,19.8,-12.716450238062144,-8.366042776480953,-6.984014437738786,-0.48742550477217955,-0.08093312631404578,-0.6529356595249292,-0.01711040277177168,-0.003189076802505823,-0.025685255537210763,0,70,255.0,255.0,255.0
397,19.85,-12.740843252131217,-8.37009352565391,-7.016693088616414,-0.4883020745307532,-0.08109897082934851,-0.6542056022194317,-0.017952387571174035,-0.0034447038096032073,-0.025112452242886878,0,70,255.0,255.0,255.0
398,19.900000000000002,-12.76528114716922,-8.374152886586392,-7.049434520624651,-0.489220743529297,-0.08127759669500612,-0.655446904749218,-0.018794372370576386,-0.003700330816700592,-0.024539648948562996,0,70,255.0,255.0,255.0
399,19.950000000000003,-12.78976602813815,-8.378221498345917,-7.082237301755259,-0.4901815117678109,-0.08146900391101858,-0.656659567114288,-0.01963635716997874,-0.003955957823797976,-0.02396684565423911,0,70,255.0,255.0,255.0
400,20.0,-12.8143,-8.3823,-7.1151,-0.4911843792462948,-0.08167319247738591,-0.6578435893146419,-0.020478341969380143,-0.004211584830895454,-0.023394042359916156,0,70,255.0,255.0,255.0
401,20.05,-12.83888452854579,-8.386388524823746,-7.148021486329463,-0.4921909957056678,-0.08185981484918019,-0.6590171500794823,-0.019786316405540284,-0.0032533100408752213,-0.023548388233693988,0,70,255.0,255.0,255.0
402,20.1,-12.863518522882597,-8.390485182922593,-7.18100184362951,-0.4931630108868489,-0.08199852348147343,-0.6601984281380113,-0.019094290841700425,-0.002295035250854988,-0.023702734107471816,0,70,255.0,255.0,255.0
403,20.150000000000002,-12.888200252946506,-8.394587578609567,-7.214041457764826,-0.4941004247898379,-0.0820893183742657,-0.6613874234902294,-0.01840226527786057,-0.0013367604608347551,-0.023857079981249647,0,70,255.0,255.0,255.0
404,20.200000000000003,-12.91292798867361,-8.398693316197695,-7.247140714600096,-0.495003237414635,-0.08213219952755692,-0.6625841361361364,-0.01771023971402071,-0.00037848567081452244,-0.02401142585502748,0,70,255.0,255.0,255.0
405,20.25,-12.9377,-8.4028,-7.2803,-0.49587144876123995,-0.08212716694134715,-0.663788566075732,-0.01701821415018001,0.0005797891192057536,-0.024165771728800856,0,70,255.0,255.0,255.0
406,20.3,-12.96251484775469,-8.406906324224066,-7.313519616943365,-0.49672251240514803,-0.08213961428921412,-0.664995740157152,-0.017024331606142605,-0.001077683033884559,-0.024121191527999564,0,70,255.0,255.0,255.0
407,20.35,-12.987372256338395,-8.411015342655716,-7.346799536865549,-0.4975738819218542,-0.0822349352447356,-0.666200685228532,-0.017030449062105203,-0.0027351551869748717,-0.02407661132719827,0,70,255.0,255.0,255.0
408,20.400000000000002,-13.012272241044755,-8.415131198975331,-7.380139648316051,-0.49842555731135857,-0.08241312980791163,-0.6674034012898719,-0.017036566518067797,-0.004392627340065185,-0.02403203112639698,0,70,255.0,255.0,255.0
409,20.450000000000003,-13.03721481716741,-8.4192580368633,-7.41353983984437,-0.49927753857366103,-0.08267419797874215,-0.6686038883411718,-0.017042683974030394,-0.006050099493155497,-0.023987450925595684,0,70,255.0,255.0,255.0
410,20.5,-13.0622,-8.4234,-7.447,-0.5001298257087615,-0.08301813975722716,-0.6698021463824314,-0.017048801429990768,-0.007707571646245803,-0.023942870724794396,0,70,255.0,255.0,255.0
411,20.55,-13.087228080435452,-8.427559778279994,-7.480520045897082,-0.5009989546737591,-0.08335772799397816,-0.6709998892919073,-0.017716357169914165,-0.005875957823793573,-0.02396684565424092,0,70,255.0,255.0,255.0
412,20.6,-13.112300451763828,-8.431734246454548,-7.5141000089083,-0.501901461425753,-0.08360573553960653,-0.6721988309478555,-0.018383912909837558,-0.004044344001341341,-0.023990820583687445,0,70,255.0,255.0,255.0
413,20.650000000000002,-13.137418782874478,-8.435918825489104,-7.547739948970976,-0.5028373459647429,-0.0837621623941123,-0.6733989713502762,-0.019051468649760955,-0.0022127301788891105,-0.024014795513133968,0,70,255.0,255.0,255.0
414,20.700000000000003,-13.162584742656753,-8.440108936349105,-7.581439926022436,-0.503806608290729,-0.08382700855749543,-0.6746003104991689,-0.019719024389684352,-0.00038111635643687906,-0.024038770442580494,0,70,255.0,255.0,255.0
415,20.75,-13.1878,-8.4443,-7.6152,-0.5048092484037112,-0.08380027402975598,-0.6758028483945341,-0.02038658012960326,0.0014504974660152214,-0.02406274537202524,0,70,255.0,255.0,255.0
416,20.8,-13.213065630503507,-8.448488962655963,-7.6490201994683105,-0.5058096688998025,-0.08377347373487427,-0.6770047026752113,-0.019630239714049213,-0.0003784856707463905,-0.024011425855058555,0,70,255.0,255.0,255.0
417,20.85,-13.238380336606301,-8.4526788715261,-7.6829004275012585,-0.5067722723751161,-0.08383812259683063,-0.6782039909800399,-0.01887389929849517,-0.0022074688075080025,-0.02396010633809187,0,70,255.0,255.0,255.0
418,20.900000000000002,-13.26374222745734,-8.45687429906826,-7.716840555800051,-0.507697058829652,-0.08399422061562507,-0.6794007133090204,-0.018117558882941122,-0.004036451944269615,-0.02390878682112518,0,70,255.0,255.0,255.0
419,20.950000000000003,-13.289149412205587,-8.461079817740277,-7.750840456065896,-0.5085840282634103,-0.08424176779125758,-0.6805948696621525,-0.017361218467387075,-0.0058654350810312264,-0.023857467304158494,0,70,255.0,255.0,255.0
420,21.0,-13.3146,-8.4653,-7.7849,-0.5094331806763909,-0.08458076412372816,-0.6817864600394361,-0.016604878051835747,-0.007694418217792376,-0.023806147787190923,0,70,255.0,255.0,255.0
421,21.05,-13.340092597550518,-8.469537971096157,-7.819019156229682,-0.5102743697270384,-0.08492437706650356,-0.6829813000072553,-0.017042683974064773,-0.006050099493223636,-0.02398745092557917,0,70,255.0,255.0,255.0
422,21.1,-13.365627801810973,-8.473791067441047,-7.853198281086675,-0.5111374490737973,-0.08518577407305053,-0.684185205131994,-0.017480489896293794,-0.0044057807686548964,-0.02416875406396742,0,70,255.0,255.0,255.0
423,21.150000000000002,-13.391206707296169,-8.478055178237858,-7.88743782782883,-0.5120224187166678,-0.08536495514336906,-0.6853981754136521,-0.01791829581852282,-0.0027614620440861567,-0.024350057202355665,0,70,255.0,255.0,255.0
424,21.200000000000003,-13.41683040852091,-8.482326192689777,-7.921738249713991,-0.5129292786556496,-0.08546192027745915,-0.6866202108522297,-0.01835610174075184,-0.001117143319517417,-0.02453136034074391,0,70,255.0,255.0,255.0
425,21.25,-13.4425,-8.4866,-7.9561,-0.5138580288907431,-0.08547666947532079,-0.6878513114477266,-0.0187939076629835,0.0005271754050513167,-0.024712663479129482,0,70,255.0,255.0,255.0
426,21.3,-13.468215979294419,-8.49087355295941,-7.99052317561297,-0.5147728521920582,-0.08547301799910544,-0.6890700972957688,-0.017799024389618254,-0.00038111635643708517,-0.024038770442561298,0,70,255.0,255.0,255.0
427,21.35,-13.493976456149813,-8.49514805870971,-8.025006448152048,-0.5156379313297049,-0.0855147811109645,-0.6902551884919828,-0.01680414111625301,-0.001289408117925487,-0.023364877405993113,0,70,255.0,255.0,255.0
428,21.400000000000002,-13.519778943357995,-8.499425787980307,-8.05954813288464,-0.5164532663036835,-0.085601958810898,-0.6914065850363682,-0.01580925784288776,-0.002197699879413889,-0.022690984369424932,0,70,255.0,255.0,255.0
429,21.450000000000003,-13.545620953710788,-8.503709011500602,-8.094146545078155,-0.5172188571139937,-0.08573455109890589,-0.6925242869289253,-0.014814374569522514,-0.0031059916409022907,-0.022017091332856748,0,70,255.0,255.0,255.0
430,21.5,-13.5715,-8.508,-8.1288,-0.5179347037606357,-0.08591255797498822,-0.6936082941696539,-0.013819491296155562,-0.004014283402390961,-0.021343198296288612,0,70,255.0,255.0,255.0
431,21.55,-13.597414685271808,-8.5123006170662,-8.16350734131844,-0.5186662215047244,-0.08611155093707387,-0.6946903108096651,-0.015441218467391972,-0.003945435081035485,-0.021937467304162624,0,70,255.0,255.0,255.0
432,21.6,-13.623367973589783,-8.516611097720107,-8.198269526305141,-0.5194788256073748,-0.08630710148309176,-0.6958020409000701,-0.017062945638628382,-0.00387658675968001,-0.022531736312036636,0,70,255.0,255.0,255.0
433,21.650000000000002,-13.649363919271854,-8.52093126984091,-8.233088040632621,-0.5203725160685873,-0.08649920961304189,-0.6969434844408688,-0.018684672809864793,-0.0038077384383245344,-0.02312600531991065,0,70,255.0,255.0,255.0
434,21.700000000000003,-13.675406576635952,-8.525260961307808,-8.267964369973402,-0.5213472928883615,-0.08668787532692424,-0.6981146414320613,-0.0203063999811012,-0.0037388901169690585,-0.023720274327784664,0,70,255.0,255.0,255.0
435,21.75,-13.7015,-8.5296,-8.3029,-0.5224031560666972,-0.08687309862473877,-0.6993155118736474,-0.02192812715233483,-0.0036700417956130327,-0.024314543335659522,0,70,255.0,255.0,255.0
436,21.8,-13.727646879618353,-8.533947978775782,-8.337896259113272,-0.523458261789026,-0.08704077825261607,-0.7005366594655583,-0.020276101740816954,-0.0030371433194785876,-0.0245313603407773,0,70,255.0,255.0,255.0
437,21.85,-13.75384444949106,-8.538303550409864,-8.372953846627393,-0.5244307662407789,-0.08717681295668664,-0.7017686479077251,-0.018624076329299074,-0.002404244843344143,-0.02474817734589508,0,70,255.0,255.0,255.0
438,21.900000000000002,-13.78008857955459,-8.542665132656055,-8.408073304584882,-0.525320669421956,-0.08728120273695048,-0.7030114772001478,-0.016972050917781197,-0.0017713463672096982,-0.02496499435101286,0,70,255.0,255.0,255.0
439,21.950000000000003,-13.806375139745413,-8.547031143268162,-8.443255175028247,-0.5261279713325571,-0.0873539475934076,-0.7042651473428265,-0.015320025506263319,-0.0011384478910752534,-0.025181811356130637,0,70,255.0,255.0,255.0
440,22.0,-13.8327,-8.5514,-8.4785,-0.5268526719725822,-0.087395047526058,-0.705529658335761,-0.013668000094743782,-0.0005055494149410755,-0.025398628361251063,0,70,255.0,255.0,255.0
441,22.05,-13.859060196254779,-8.555770667830663,-8.513807622228478,-0.527564731339188,-0.08743733605245421,-0.7067630513281131,-0.014814374569487592,-0.0011859916409071233,-0.023937091332835593,0,70,255.0,255.0,255.0
442,22.1,-13.885457428445982,-8.560144300640433,-8.54917508718529,-0.5283341094295311,-0.08751364669014873,-0.7079233674690446,-0.015960749044231403,-0.0018664338668731711,-0.022475554304420123,0,70,255.0,255.0,255.0
443,22.150000000000002,-13.911894562509795,-8.564522599534866,-8.58459874102786,-0.5291608062436113,-0.08762397943914152,-0.7090106067585552,-0.017107123518975212,-0.002546876092839219,-0.021014017276004653,0,70,255.0,255.0,255.0
444,22.200000000000003,-13.938374464382408,-8.568907265619536,-8.620074929913622,-0.5300448217814286,-0.08776833429943263,-0.710024769196645,-0.018253497993719024,-0.0032273183188052668,-0.019552480247589182,0,70,255.0,255.0,255.0
445,22.25,-13.9649,-8.5733,-8.6556,-0.530986156042983,-0.08794671127102205,-0.7109658547833142,-0.019399872468460977,-0.003907760544771044,-0.018090943219174704,0,70,255.0,255.0,255.0
446,22.3,-13.991473135362531,-8.577702149901555,-8.691171651972818,-0.5319308128542214,-0.0881378775375664,-0.7119151352219876,-0.018386399981069508,-0.0037388901170027442,-0.019880274327759677,0,70,255.0,255.0,255.0
447,22.35,-14.018092236725016,-8.5821136470284,-8.726793004631457,-0.53282479604109,-0.08832060028272233,-0.7129538822160901,-0.01737292749367804,-0.0035700196892344445,-0.02166960543634465,0,70,255.0,255.0,255.0
448,22.400000000000002,-14.044754770406234,-8.586534069204468,-8.762468531303686,-0.5336681056035891,-0.08849487950648985,-0.7140820957656221,-0.016359455006286574,-0.0034011492614661448,-0.02345893654492962,0,70,255.0,255.0,255.0
449,22.450000000000003,-14.07145820272497,-8.590962994253692,-8.798202705317278,-0.5344607415417187,-0.08866071520886895,-0.7152997758705832,-0.015345982518895105,-0.003232278833697845,-0.02524826765351459,0,70,255.0,255.0,255.0
450,22.5,-14.0982,-8.5954,-8.834,-0.5352027038554787,-0.08881810738985961,-0.7166069225309736,-0.014332510031504597,-0.0030634084059296685,-0.0270375987621021,0,70,255.0,255.0,255.0
451,22.55,-14.124978462295093,-8.599844732563119,-8.86986336988025,-0.5359440172439238,-0.08897115379728378,-0.7179124077839304,-0.015320025506297,-0.0030584478910369527,-0.025181811356166657,0,70,255.0,255.0,255.0
452,22.6,-14.151795224653956,-8.604297111245966,-8.90578969428889,-0.5367347064061085,-0.08912395217896331,-0.7191251036665903,-0.016307540981089403,-0.003053487376144237,-0.023326023950231214,0,70,255.0,255.0,255.0
453,22.650000000000002,-14.17865275586527,-8.608757123647255,-8.941774333757404,-0.5375747713420328,-0.0892765025348982,-0.7202450101789535,-0.017295056455881804,-0.0030485268612515212,-0.021470236544295772,0,70,255.0,255.0,255.0
454,22.700000000000003,-14.205553524717722,-8.613224757365694,-8.97781264881728,-0.5384642120516967,-0.08942880486508847,-0.7212721273210199,-0.01828257193067421,-0.0030435663463588055,-0.01961444913836033,0,70,255.0,255.0,255.0
455,22.75,-14.2325,-8.6177,-9.0139,-0.5394030285351,-0.0895808591695341,-0.7222064550927894,-0.019270087405463876,-0.003038605831465979,-0.017758661732420578,0,70,255.0,255.0,255.0
456,22.8,-14.259493815457091,-8.622182919845969,-9.050033268506187,-0.5403411181700797,-0.08973750727329173,-0.7231392336422896,-0.018253497993717522,-0.0032273183188391147,-0.0195524802475884,0,70,255.0,255.0,255.0
457,22.85,-14.286533264659166,-8.626673907987733,-9.08621541821299,-0.5412283783344718,-0.08990359100141801,-0.7241617031175482,-0.01723690858197117,-0.00341603080621225,-0.02134629876275623,0,70,255.0,255.0,255.0
458,22.900000000000002,-14.313615806132695,-8.631173436206517,-9.122450933666705,-0.5420648090282768,-0.09007911035391296,-0.7252738635185653,-0.016220319170224817,-0.0036047432935853853,-0.023140117277924054,0,70,255.0,255.0,255.0
459,22.950000000000003,-14.340738898404153,-8.635681976283532,-9.158744299413613,-0.5428504102514943,-0.09026406533077655,-0.7264757148453407,-0.015203729758478467,-0.0037934557809585208,-0.02493393579309188,0,70,255.0,255.0,255.0
460,23.0,-14.3679,-8.6402,-9.1951,-0.5435851820041246,-0.0904584559320088,-0.7277672570978743,-0.014187140346733074,-0.003982168268331421,-0.026727754308255136,0,70,255.0,255.0,255.0
461,23.05,-14.395097475876547,-8.644727588053003,-9.231521156095008,-0.5443235100757654,-0.09063881710955952,-0.7290666576469186,-0.015345982518896423,-0.0032322788336977552,-0.02524826765351571,0,70,255.0,255.0,255.0
462,23.1,-14.422333316709388,-8.649263256803094,-9.268005432859146,-0.5451197802560143,-0.09078168381537859,-0.7302920838632259,-0.016504824691059773,-0.0024823893990640897,-0.023768780998776287,0,70,255.0,255.0,255.0
463,23.150000000000002,-14.449610419603957,-8.65380513152668,-9.304549131575786,-0.5459739925448713,-0.09088705604946594,-0.7314435357467962,-0.01766366686322312,-0.0017324999644304242,-0.022289294344036863,0,70,255.0,255.0,255.0
464,23.200000000000003,-14.476931681665686,-8.658351337500179,-9.341148553528283,-0.5468861469423366,-0.09095493381182163,-0.7325210132976296,-0.01882250903538647,-0.0009826105297967586,-0.020809807689297438,0,70,255.0,255.0,255.0
465,23.25,-14.5043,-8.6629,-9.3778,-0.5478562434484099,-0.09098531710244563,-0.7335245165157259,-0.01998135120754352,-0.0002327210951630354,-0.019330321034558118,0,70,255.0,255.0,255.0
466,23.3,-14.531717081036732,-8.667449927942013,-9.414500507113791,-0.5488128415268644,-0.09101922428848294,-0.734498135770048,-0.01828257193063629,-0.0011235663463291428,-0.019614449138324913,0,70,255.0,255.0,255.0
467,23.35,-14.559179868503291,-8.67200266479989,-9.451250050350426,-0.5496845006414736,-0.09109767373707854,-0.7354859614295585,-0.016583792653729064,-0.00201441159749525,-0.019898577242091705,0,70,255.0,255.0,255.0
468,23.400000000000002,-14.586684115451481,-8.676560437686764,-9.488049340030168,-0.5504712207922373,-0.09122066544823246,-0.7364879934942572,-0.014885013376821837,-0.0029052568486613575,-0.0201827053458585,0,70,255.0,255.0,255.0
469,23.450000000000003,-14.614225574933117,-8.681125473715758,-9.524899086473273,-0.5511730019791558,-0.09138819942194469,-0.7375042319641444,-0.01318623409991461,-0.003796102099827465,-0.020466833449625292,0,70,255.0,255.0,255.0
470,23.5,-14.6418,-8.6857,-9.5618,-0.5517898442022287,-0.09160027565821519,-0.7385346768392198,-0.011487454823004839,-0.00468694735099251,-0.020750961553392955,0,70,255.0,255.0,255.0
471,23.55,-14.66940459997653,-8.690285500178947,-9.598752815449835,-0.5524091238167668,-0.09181228573651395,-0.7395807992728821,-0.013283729758518728,-0.003793455780958098,-0.021093935793098244,0,70,255.0,255.0,255.0
472,23.6,-14.697042409277458,-8.694880483997345,-9.635758365739157,-0.5531182171780805,-0.091979621236311,-0.7406440704185296,-0.015080004694032619,-0.0028999642109236857,-0.021436910032803534,0,70,255.0,255.0,255.0
473,23.650000000000002,-14.724717918590118,-8.69948271772627,-9.672817508303556,-0.55391712428617,-0.09210228215760632,-0.7417244902761624,-0.016876279629546506,-0.002006472640889274,-0.021779884272508824,0,70,255.0,255.0,255.0
474,23.700000000000003,-14.752435618601854,-8.704089967636795,-9.70993110057864,-0.5548058451410351,-0.09218026850039993,-0.7428220588457807,-0.0186725545650604,-0.0011129810708548618,-0.022122858512214114,0,70,255.0,255.0,255.0
475,23.75,-14.7802,-8.7087,-9.7471,-0.555784379742676,-0.0922135802646918,-0.743936776127384,-0.020468829500572383,-0.00021948950082018026,-0.022465832751922044,0,70,255.0,255.0,255.0
476,23.8,-14.80801411905715,-8.713311271342207,-9.784325031086867,-0.5567666632060749,-0.09224363276545722,-0.7450666671384153,-0.018822509035383184,-0.0009826105297969677,-0.022729807689327513,0,70,255.0,255.0,255.0
477,23.85,-14.83587529438689,-8.717924999210735,-9.821606886692956,-0.5576666306462144,-0.0923118413176715,-0.7462097568963167,-0.01717618857019398,-0.0017457315587737548,-0.02299378262673298,0,70,255.0,255.0,255.0
478,23.900000000000002,-14.863779410188053,-8.722543091408165,-9.858946226755615,-0.5584842820630944,-0.09241820592133461,-0.7473660454010885,-0.015529868105004781,-0.002508852587750542,-0.023257757564138448,0,70,255.0,255.0,255.0
479,23.950000000000003,-14.891722350659476,-8.72716745573706,-9.89634371121218,-0.5592196174567149,-0.09256272657644656,-0.7485355326527307,-0.013883547639815582,-0.0032719736167273294,-0.023521732501543918,0,70,255.0,255.0,255.0
480,24.0,-14.9197,-8.7318,-9.9338,-0.559872636827076,-0.09274540328300734,-0.7497182186512428,-0.012237227174629162,-0.004035094645704174,-0.023785707438944925,0,70,255.0,255.0,255.0
481,24.05,-14.947709323794875,-8.736442214452232,-9.9713150602027,-0.5605082233589388,-0.09294118320164649,-0.750872532173457,-0.013186234099879903,-0.003796102099861095,-0.022386833449619895,0,70,255.0,255.0,255.0
482,24.1,-14.975751613175,-8.74109391915971,-10.00888608748902,-0.561191260237064,-0.09312501349299346,-0.7519569019962048,-0.014135241025130646,-0.0035571095540180165,-0.02098795946029486,0,70,255.0,255.0,255.0
483,24.150000000000002,-15.003829240657687,-8.745754516641075,-10.046509584673997,-0.5619217474614518,-0.09329689415704828,-0.7529713281194864,-0.015084247950381387,-0.0033181170081749375,-0.01958908547096983,0,70,255.0,255.0,255.0
484,24.200000000000003,-15.03194457876025,-8.75042340941496,-10.084182054572647,-0.5626996850321022,-0.09345682519381095,-0.7539158105433018,-0.01603325487563213,-0.003079124462331859,-0.0181902114816448,0,70,255.0,255.0,255.0
485,24.25,-15.0601,-8.7551,-10.1219,-0.5635250729490151,-0.09360480660328145,-0.7547903492676508,-0.01698226180088369,-0.00284013191648802,-0.016791337492317204,0,70,255.0,255.0,255.0
486,24.3,-15.088297385763354,-8.759783870848874,-10.15966112810234,-0.5643684433581638,-0.0937516344279649,-0.7556672041677635,-0.016752554565063346,-0.0030329810708499745,-0.018282858512190914,0,70,255.0,255.0,255.0
487,24.35,-15.11653665291312,-8.764475324150425,-10.197467963350961,-0.5652003284055215,-0.09390810471036645,-0.75661863511887,-0.016522847329243,-0.003225830225211929,-0.01977437953206462,0,70,255.0,255.0,255.0
488,24.400000000000002,-15.14481722718121,-8.76917484202754,-10.235324234548411,-0.5660207280910882,-0.09407421745048611,-0.7576446421209699,-0.016293140093422656,-0.0034186793795738827,-0.02126590055193833,0,70,255.0,255.0,255.0
489,24.450000000000003,-15.173138534299534,-8.773882906603104,-10.273233670497243,-0.5668296424148638,-0.09424997264832385,-0.7587452251740637,-0.016063432857602308,-0.003611528533935837,-0.02275742157181204,0,70,255.0,255.0,255.0
490,24.5,-15.2015,-8.7786,-10.3112,-0.5676270713768483,-0.09443537030387966,-0.759920384278151,-0.01583372562178198,-0.0038043776882974445,-0.0242489425916812,0,70,255.0,255.0,255.0
491,24.55,-15.229901133151712,-8.783326302152275,-10.349226027387942,-0.5684180032083891,-0.09461227908650444,-0.7611146511554816,-0.015803547639846725,-0.0032719736166933722,-0.02352173250154087,0,70,255.0,255.0,255.0
492,24.6,-15.258341775172521,-8.78806078423859,-10.387310859107142,-0.569207426140833,-0.094762567665549,-0.7622725575283051,-0.015773369657911474,-0.0027395695450893,-0.022794522411400543,0,70,255.0,255.0,255.0
493,24.650000000000002,-15.286821850617477,-8.79280211524877,-10.425452677132366,-0.5699953401741803,-0.09488623604101337,-0.7633941033966217,-0.01574319167597622,-0.002207165473485228,-0.022067312321260215,0,70,255.0,255.0,255.0
494,24.700000000000003,-15.31534128404162,-8.797548964172632,-10.463649663438394,-0.5707817453084306,-0.09498328421289752,-0.7644792887604311,-0.015713013694040965,-0.0016747614018811558,-0.021340102231119887,0,70,255.0,255.0,255.0
495,24.75,-15.3439,-8.8023,-10.5019,-0.5715666415435842,-0.09505371218120148,-0.7655281136197335,-0.015682835712106602,-0.0011423573302764556,-0.020612892140976946,0,70,255.0,255.0,255.0
496,24.8,-15.372498081629804,-8.807054120542029,-10.540201962345888,-0.5723595438082777,-0.0951112492260168,-0.7665461912102998,-0.016033254875633857,-0.0011591244623357702,-0.02011021148167326,0,70,255.0,255.0,255.0
497,24.85,-15.401136246396797,-8.811811138895212,-10.57855420022048,-0.5731699670311475,-0.09516962462743506,-0.7675391347679009,-0.01638367403916111,-0.0011758915943950847,-0.019607530822369577,0,70,255.0,255.0,255.0
498,24.900000000000002,-15.42981537034889,-8.816571096977382,-10.61695545692213,-0.5739979112121938,-0.0952288383854563,-0.7685069442925367,-0.016734093202688365,-0.0011926587264543993,-0.01910485016306589,0,70,255.0,255.0,255.0
499,24.950000000000003,-15.458536329533988,-8.821334036706368,-10.655404475749187,-0.5748433763514165,-0.0952888905000805,-0.7694496197842075,-0.01708451236621562,-0.001209425858513714,-0.018602169503762204,0,70,255.0,255.0,255.0
500,25.0,-15.4873,-8.8261,-10.6939,-0.5757063624488155,-0.09534978097130765,-0.7703671612429129,-0.01743493152974729,-0.0012261929905726943,-0.01809948884445678,0,70,255.0,255.0,255.0
501,25.05,-15.516106540329073,-8.830869215679614,-10.732441323228503,-0.5765438215584993,-0.09542272400942048,-0.7712925840033198,-0.01606343285760337,-0.001691528533940174,-0.018917421571818426,0,70,255.0,255.0,255.0
502,25.1,-15.544953239240291,-8.835642660180563,-10.771029940010939,-0.5773127057345758,-0.09551893382470167,-0.7722589034000948,-0.014691934185459448,-0.002156864077307654,-0.019735354299180077,0,70,255.0,255.0,255.0
503,25.150000000000002,-15.57383666798697,-8.840421496841705,-10.809667895179121,-0.5780130149770452,-0.09563841041715124,-0.7732661194332379,-0.013320435513315527,-0.002622199620675134,-0.020553287026541724,0,70,255.0,255.0,255.0
504,25.200000000000003,-15.602753397822436,-8.845206889001897,-10.848357233564869,-0.5786447492859074,-0.09578115378676919,-0.774314232102749,-0.011948936841171608,-0.003087535164042614,-0.02137121975390337,0,70,255.0,255.0,255.0
505,25.25,-15.6317,-8.85,-10.8871,-0.5792079086611623,-0.0959471639335555,-0.7754032414086282,-0.010577438169024234,-0.003552870707410505,-0.02218915248126674,0,70,255.0,255.0,255.0
506,25.3,-15.660674157053906,-8.854801816739517,-10.925897544740096,-0.5797691699577383,-0.09612585473628854,-0.7764914727764369,-0.011873013694013342,-0.003594761401910796,-0.02134010223108528,0,70,255.0,255.0,255.0
507,25.35,-15.689677996642045,-8.85961262038254,-10.96474843973577,-0.5803952100305637,-0.09630664007374659,-0.7775372516317367,-0.01316858921900245,-0.003636652096411087,-0.020491051980903816,0,70,255.0,255.0,255.0
508,25.400000000000002,-15.718714757703232,-8.864432515655805,-11.003650562361397,-0.5810860288796386,-0.09648951994592964,-0.7785405779745274,-0.01446416474399156,-0.0036785427909113784,-0.019642001730722357,0,70,255.0,255.0,255.0
509,25.450000000000003,-15.74778767917628,-8.869261607286047,-11.04260178999135,-0.5818416265049628,-0.09667449435283773,-0.779501451804809,-0.015759740268980665,-0.0037204334854116696,-0.018792951480540894,0,70,255.0,255.0,255.0
510,25.5,-15.7769,-8.8741,-11.0816,-0.5826620029065366,-0.0968615632944708,-0.7804198731225813,-0.01705531579396613,-0.0037623241799115137,-0.017943901230355053,0,70,255.0,255.0,255.0
511,25.55,-15.806054431455307,-8.878947517362315,-11.120643697811113,-0.5835154986105412,-0.09703385704543131,-0.7813335248909342,-0.0170845123662172,-0.003129425858508763,-0.018602169503759935,0,70,255.0,255.0,255.0
512,25.6,-15.835251574191531,-8.883802858289275,-11.159733901045989,-0.5843704541431584,-0.09717450588032168,-0.7822800900729573,-0.017113708938468263,-0.0024965275371060126,-0.019260437777164813,0,70,255.0,255.0,255.0
513,25.650000000000002,-15.864491501200101,-8.88866444053508,-11.198872255375306,-0.5852268695043881,-0.09728350979914192,-0.7832595686686507,-0.01714290551071933,-0.0018636292157032616,-0.019918706050569696,0,70,255.0,255.0,255.0
514,25.700000000000003,-15.893774285472448,-8.893530681853923,-11.238060406469751,-0.5860847446942302,-0.09736086880189203,-0.7842719606780143,-0.0171721020829704,-0.001230730894300511,-0.020576974323974578,0,70,255.0,255.0,255.0
515,25.75,-15.9231,-8.8984,-11.2773,-0.5869440797126849,-0.09740658288857196,-0.785317266101048,-0.0172012986552188,-0.0005978325728976941,-0.021235242597376747,0,70,255.0,255.0,255.0
516,25.8,-15.952468117124864,-8.903271313811226,-11.316592464015448,-0.5877688356000953,-0.09745071708199474,-0.78638242765983,-0.01578893684119558,-0.001167535164013253,-0.021371219753904394,0,70,255.0,255.0,255.0
517,25.85,-15.981875706591833,-8.908145546460359,-11.35593835608028,-0.5885229733968046,-0.09752333640497328,-0.7874543880764385,-0.01437657502717236,-0.0017372377551288117,-0.02150719691043204,0,70,255.0,255.0,255.0
518,25.900000000000002,-16.01131923749637,-8.91302412220388,-11.395338016137393,-0.5892064931028126,-0.09762444085750761,-0.7885331473508733,-0.01296421321314914,-0.0023069403462443704,-0.021643174066959685,0,70,255.0,255.0,255.0
519,25.950000000000003,-16.040795178933934,-8.917908465298268,-11.434791784129668,-0.5898193947181194,-0.09775403043959772,-0.7896187054831345,-0.011551851399125922,-0.0028766429373599293,-0.021779151223487333,0,70,255.0,255.0,255.0
520,26.0,-16.0703,-8.9228,-11.4743,-0.5903616782427251,-0.09791210515124361,-0.790711062473222,-0.010139489585102801,-0.0034463455284757805,-0.021915128380013194,0,70,255.0,255.0,255.0
521,26.05,-16.099831500045237,-8.927700027392788,-11.513862446127094,-0.5909131589890766,-0.0980912746265908,-0.7917767644697358,-0.011919740268954574,-0.0037204334854115824,-0.020712951480533964,0,70,255.0,255.0,255.0
522,26.1,-16.129392799441145,-8.932609355869293,-11.553476674632892,-0.5915536522696205,-0.09828414849978478,-0.7927823576212754,-0.013699990952806346,-0.003994521442347384,-0.019510774581054734,0,70,255.0,255.0,255.0
523,26.150000000000002,-16.158988348814436,-8.937528670649398,-11.593139680075138,-0.5922831580843572,-0.09849072677082554,-0.7937278419278412,-0.015480241636658119,-0.004268609399283186,-0.018308597681575504,0,70,255.0,255.0,255.0
524,26.200000000000003,-16.188622598791813,-8.942458656953004,-11.632848457011594,-0.5931016764332865,-0.0987110094397131,-0.7946132173894329,-0.017260492320509892,-0.0045426973562189875,-0.017106420782096274,0,70,255.0,255.0,255.0
525,26.25,-16.2183,-8.9474,-11.6726,-0.5940092073164082,-0.09894499650644742,-0.7954384840060509,-0.019040743004357985,-0.004816785313154215,-0.01590424388261802,0,70,255.0,255.0,255.0
526,26.3,-16.24802348269419,-8.952352576617624,-11.712392151476173,-0.5949145284435922,-0.09914418441163451,-0.7962545144612168,-0.017172102083001458,-0.003150730894329821,-0.016736974324016187,0,70,255.0,255.0,255.0
527,26.35,-16.277789895643593,-8.957313030062481,-11.752226145388157,-0.5957264175247083,-0.09926006959588039,-0.7971121814384525,-0.01530346116164493,-0.0014846764755054279,-0.017569704765414352,0,70,255.0,255.0,255.0
528,26.400000000000002,-16.307594567245896,-8.962277195198528,-11.792104063562054,-0.5964448745597567,-0.09929265205918507,-0.7980114849377582,-0.0134348202402884,0.0001813779433189654,-0.01840243520681252,0,70,255.0,255.0,255.0
529,26.450000000000003,-16.3374328258988,-8.967240906889717,-11.832027987823967,-0.5970698995487371,-0.09924193180154851,-0.7989524249591339,-0.011566179318931873,0.0018474323621433591,-0.019235165648210685,0,70,255.0,255.0,255.0
530,26.5,-16.3673,-8.9722,-11.872,-0.59760149249165,-0.09910790882297073,-0.7999350015025793,-0.009697538397572814,0.003513486780967967,-0.020067896089607906,0,70,255.0,255.0,255.0
531,26.55,-16.397192969177997,-8.977152066136723,-11.912021747968213,-0.5981327272365665,-0.0989959877268799,-0.800933177685406,-0.011551851399091033,0.0009633570626649793,-0.019859151223455915,0,70,255.0,255.0,255.0
532,26.6,-16.427114817984492,-8.982101723880788,-11.952093143814487,-0.598756677631559,-0.09901157311670422,-0.8019209166249249,-0.013406164400609252,-0.0015867726556380085,-0.01965040635730392,0,70,255.0,255.0,255.0
533,26.650000000000002,-16.457070182201985,-8.98705534855649,-11.992213665676651,-0.5994733436766275,-0.0991546649924437,-0.8028982183211364,-0.015260477402127472,-0.004136902373940996,-0.01944166149115193,0,70,255.0,255.0,255.0
534,26.700000000000003,-16.487063697612992,-8.99201931548813,-12.032382791692546,-0.6002827253717719,-0.09942526335409833,-0.8038650827740402,-0.01711479040364569,-0.006687032092243984,-0.01923291662499994,0,70,255.0,255.0,255.0
535,26.75,-16.5171,-8.997,-12.0726,-0.6011848227169919,-0.09982336820166807,-0.8048215099836363,-0.018969103405161114,-0.009237161810546679,-0.01902417175884974,0,70,255.0,255.0,255.0
536,26.8,-16.54718224059382,-9.00200155883549,-12.112864856650972,-0.6020905626101337,-0.1002158646808371,-0.8057727747971599,-0.017260492320508344,-0.006462697356214258,-0.019026420782093646,0,70,255.0,255.0,255.0
537,26.85,-16.577307632418442,-9.007019274414372,-12.153177279353903,-0.6029108719490427,-0.1004696379372895,-0.8067241520618458,-0.015551881235855576,-0.003688232901881837,-0.01902866980533755,0,70,255.0,255.0,255.0
538,26.900000000000002,-16.607471903946156,-9.012046210575507,-12.193537273731346,-0.6036457507337192,-0.10058468797102528,-0.8076756417776937,-0.013843270151202807,-0.0009137684475494165,-0.019030918828581454,0,70,255.0,255.0,255.0
539,26.950000000000003,-16.63767078364925,-9.017075431157764,-12.233944845405858,-0.6042951989641631,-0.10056101478204445,-0.808627243944704,-0.012134659066550039,0.001860696006783005,-0.01903316785182536,0,70,255.0,255.0,255.0
540,27.0,-16.6679,-9.0221,-12.2744,-0.6048592166403743,-0.100398618370347,-0.8095789585628762,-0.010426047981898279,0.0046351604611147845,-0.01903541687506749,0,70,255.0,255.0,255.0
541,27.05,-16.69815646844672,-9.027115298521316,-12.314902825427895,-0.6054090223228967,-0.1002365535497664,-0.8105357231259582,-0.01156617931900003,0.0018474323621091187,-0.019235165648209755,0,70,255.0,255.0,255.0
542,27.1,-16.72844185234174,-9.032125978461726,-12.355453738769908,-0.6060158345722744,-0.10021387513413609,-0.8115024751276971,-0.012706310656101782,-0.0009402957368965471,-0.019434914421352017,0,70,255.0,255.0,255.0
543,27.150000000000002,-16.7587590020134,-9.037139009141478,-12.396053239397977,-0.6066796533885069,-0.10033058312345605,-0.8124792145680934,-0.013846441993203533,-0.003728023835902214,-0.019634663194494282,0,70,255.0,255.0,255.0
544,27.200000000000003,-16.789110767790035,-9.04216135988082,-12.436701826684027,-0.6074004787715948,-0.1005866775177263,-0.8134659414471467,-0.014986573330305284,-0.006515751934907879,-0.019834411967636544,0,70,255.0,255.0,255.0
545,27.25,-16.8195,-9.0472,-12.4774,-0.6081783107215376,-0.10098215831694683,-0.814462655764857,-0.01612670466740962,-0.009303480033913458,-0.020034160740778795,0,70,255.0,255.0,255.0
546,27.3,-16.849928685619304,-9.052259647079246,-12.518147841637456,-0.6089613480983124,-0.10138192112009992,-0.8154443326990015,-0.015194790403580592,-0.0066870320922094734,-0.019232916625001005,0,70,255.0,255.0,255.0
547,27.35,-16.88039535821461,-9.057336011738727,-12.55894376556647,-0.6096977897618957,-0.10165086152616779,-0.8163859474273572,-0.014262876139751563,-0.004070584150505489,-0.01843167250922322,0,70,255.0,255.0,255.0
548,27.400000000000002,-16.910897688000276,-9.062422552858578,-12.59978576867676,-0.6103876357122875,-0.10178897953515047,-0.8172874999499239,-0.013330961875922536,-0.0014541362088015038,-0.01763042839344543,0,70,255.0,255.0,255.0
549,27.450000000000003,-16.941433345190624,-9.067512729318956,-12.640671847858034,-0.611030885949488,-0.10179627514704795,-0.8181489902667016,-0.012399047612093508,0.001162311732902481,-0.01682918427766764,0,70,255.0,255.0,255.0
550,27.5,-16.972,-9.0726,-12.6816,-0.6116275404734969,-0.10167274836186023,-0.8189704183776906,-0.011467133348264547,0.00377875967460628,-0.016027940161886356,0,70,255.0,255.0,255.0
551,27.55,-17.002595989076077,-9.077679713161693,-12.72256900802229,-0.6122175852838655,-0.10153176196982636,-0.8197989460780343,-0.012134659066482287,0.0018606960067485583,-0.017113167851861826,0,70,255.0,255.0,255.0
552,27.6,-17.033222314799822,-9.082754774583373,-12.763580798964213,-0.6128410063801452,-0.10148667876118536,-0.8206817351628768,-0.012802184784700028,-5.7367661109163515e-05,-0.018198395541837296,0,70,255.0,255.0,255.0
553,27.650000000000002,-17.063880645985524,-9.087829979424201,-12.804638085894988,-0.6134978037623356,-0.10153749873593727,-0.8216187856322181,-0.013469710502917771,-0.0019754313289668856,-0.019283623231812763,0,70,255.0,255.0,255.0
554,27.700000000000003,-17.094572651447486,-9.092910122843355,-12.845743581883843,-0.614187977430437,-0.10168422189408206,-0.8226100974860582,-0.014137236221135512,-0.003893494996824607,-0.020368850921788237,0,70,255.0,255.0,255.0
555,27.75,-17.1253,-9.098,-12.8869,-0.6149115273844491,-0.10192684823561972,-0.8236556707243967,-0.014804761939353206,-0.005811558664681971,-0.02145407861176274,0,70,255.0,255.0,255.0
556,27.8,-17.156064158076394,-9.103103100273975,-12.928108926273383,-0.6156563107661923,-0.10218703100060872,-0.8246878829888808,-0.014986573330375032,-0.0045957519348780946,-0.019834411967603292,0,70,255.0,255.0,255.0
