idx,t,px,py,pz,vx,vy,vz,ax,ay,az,yaw,mode,ledr,ledg,ledb
0,0.0,7.5,-1.5,0.0,0.0003628016729967992,0.0003212511715778377,0.0006106367445135805,0.0020463799240661266,-0.008655014058933524,-0.02892764093416297,0,70,255.0,255.0,255.0
1,0.05,7.500021060860227,-1.499994834957823,-6.017077197511112e-06,0.0004868887695797003,-0.0001162244610741656,-0.0008591070975237533,0.002917103939249918,-0.008844011247146608,-0.029862112747330374,0,70,255.0,255.0,255.0
2,0.1,7.500049414480304,-1.5000117799437642,-8.668943626334817e-05,0.000654512066921791,-0.0005631499531368231,-0.0023755745302194574,0.0037878279544337097,-0.009033008435359691,-0.03079658456049778,0,70,255.0,255.0,255.0
3,0.15000000000000002,7.500087237670265,-1.5000513074507935,-0.0002443532567304297,0.0008656715650230713,-0.001019525304610135,-0.003938765553573532,0.004658551969617501,-0.009222005623572775,-0.03173105637366518,0,70,255.0,255.0,255.0
4,0.2,7.500136707240152,-1.5001138899718822,-0.0004813447181316742,0.001120367263883541,-0.0014853505154941006,-0.005548680167585976,0.005529275984801293,-0.009411002811785859,-0.03266552818683259,0,70,255.0,255.0,255.0
5,0.25,7.5002,-1.5002,-0.0008,0.0014185991635032006,-0.0019606255857887206,-0.00720531837225679,0.006399999999985081,-0.00959999999999894,-0.033600000000000005,0,70,255.0,255.0,255.0
6,0.30000000000000004,7.500279292759849,-1.5003101100281178,-0.0012026552818683264,0.0017603672638820498,-0.0024453505154939954,-0.008908680167585977,0.007270724015168875,-0.009788997188212025,-0.03453447181316741,0,70,255.0,255.0,255.0
7,0.35000000000000003,7.5003767623297355,-1.5004446925492063,-0.0016916467432695709,0.0021456715650200885,-0.0029395253046099233,-0.010658765553573533,0.008141448030352669,-0.00997799437642511,-0.03546894362633482,0,70,255.0,255.0,255.0
8,0.4,7.500494585519696,-1.5006042200562357,-0.002269310563736652,0.0025745120669173165,-0.003443149953136506,-0.012455574530219459,0.009012172045536462,-0.010166991564638198,-0.036403415439502235,0,70,255.0,255.0,255.0
9,0.45,7.500634939139773,-1.5007891650421767,-0.0029379829228024894,0.0030468887695737344,-0.003956224461073743,-0.014299107097523755,0.009882896060720256,-0.010355988752851283,-0.03733788725266964,0,70,255.0,255.0,255.0
10,0.5,7.5008,-1.501,-0.0037,0.0035628016729893413,-0.004478748828421634,-0.016189363255486422,0.010753620075904045,-0.010544985941064351,-0.038272359065837036,0,70,255.0,255.0,255.0
11,0.55,7.5009913681003795,-1.5012367249297052,-0.004556961795329186,0.004087642174887199,-0.004982373476948324,-0.01808217223213235,0.010240000000010243,-0.009600000000003201,-0.03743999999999999,0,70,255.0,255.0,255.0
12,0.6000000000000001,7.501208336200759,-1.5014974498594107,-0.005507523590658372,0.004586801672990366,-0.0054387488284219545,-0.019933363255486423,0.009726379924116438,-0.00865501405894205,-0.03660764093416293,0,70,255.0,255.0,255.0
13,0.65,7.501449620250948,-1.5017798123242634,-0.006549604488322963,0.005060280167298843,-0.005847874882842528,-0.02174293632554864,0.009212759848222635,-0.007710028117880902,-0.03577528186832588,0,70,255.0,255.0,255.0
14,0.7000000000000001,7.501713936200758,-1.5020814498594104,-0.007681123590658372,0.00550807765781263,-0.006209751640210045,-0.023510891442319014,0.008699139772328833,-0.006765042176819752,-0.03494292280248883,0,70,255.0,255.0,255.0
15,0.75,7.502,-1.5024,-0.0089,0.005930194144531726,-0.006524379100524504,-0.025237228605797527,0.008185519696435044,-0.005820056235758639,-0.03411056373665192,0,70,255.0,255.0,255.0
16,0.8,7.5023064348386335,-1.5027341902530607,-0.010204697536814935,0.006321064036563375,-0.006857155576713123,-0.02695463090388464,0.007449275984830929,-0.007491002811786084,-0.03458552818683261,0,70,255.0,255.0,255.0
17,0.8500000000000001,7.50263149286723,-1.5030871080131514,-0.011595858894096948,0.006675121743014819,-0.007273479381703113,-0.02869578142448079,0.0067130322732268126,-0.009161949387813529,-0.0350604926370133,0,70,255.0,255.0,255.0
18,0.9,7.5029733334765085,-1.5034629306467113,-0.013074671482971497,0.0069923672638860564,-0.007773350515494474,-0.03046068016758597,0.005976788561622699,-0.01083289596384097,-0.035535457087193995,0,70,255.0,255.0,255.0
19,0.9500000000000001,7.5033301160571915,-1.5038658355201808,-0.01464232271456403,0.007272800599177089,-0.00835676897808721,-0.03224932713320019,0.005240544850018583,-0.012503842539868415,-0.03601042153737469,0,70,255.0,255.0,255.0
20,1.0,7.5037,-1.5043,-0.0163,0.007516421748887915,-0.009023734769481316,-0.03406172232132344,0.00450430113841447,-0.014174789115895828,-0.03648538598755513,0,70,255.0,255.0,255.0
21,1.05,7.504082092545085,-1.504768114058051,-0.018048248057411082,0.007780101678865654,-0.009685004216199881,-0.03585930415232906,0.006042896060695094,-0.01227598875284678,-0.03541788725266954,0,70,255.0,255.0,255.0
22,1.1,7.5044792923303225,-1.505266918087984,-0.019885040832953838,0.008120711354957426,-0.010251333644765994,-0.037603511046590404,0.007581490982975718,-0.010377188389797731,-0.03435038851778396,0,70,255.0,255.0,255.0
23,1.1500000000000001,7.504895445843015,-1.5057916650888918,-0.021807709579791053,0.008538250777163227,-0.010722723055179654,-0.03929434300410746,0.009120085905256342,-0.008478388026748683,-0.03328288978289837,0,70,255.0,255.0,255.0
24,1.2000000000000002,7.505334399570474,-1.506337608059866,-0.023813585551085516,0.00903271994548306,-0.011099172447440863,-0.04093180002488024,0.010658680827536966,-0.006579587663699634,-0.032215391048012784,0,70,255.0,255.0,255.0
25,1.25,7.5058,-1.5069,-0.0259,0.009604118859916922,-0.011380681821549617,-0.04251588210890873,0.012197275749817618,-0.00468078730065058,-0.031147892313127035,0,70,255.0,255.0,255.0
26,1.3,7.5062947949810255,-1.5074757535147352,-0.028065510233540748,0.010174529247970474,-0.011666827558486482,-0.04412015248679913,0.010619139772324373,-0.006765042176824046,-0.03302292280248897,0,70,255.0,255.0,255.0
27,1.35,7.506816137811483,-1.508068419634912,-0.030313577774087715,0.01066603283714936,-0.012057186039232023,-0.045818174389157626,0.009041003794831127,-0.008849297052997512,-0.03489795329185089,0,70,255.0,255.0,255.0
28,1.4000000000000001,7.5073600831514264,-1.5086832089977216,-0.032648890197864315,0.011078629627453585,-0.012551757263786234,-0.047609947815984224,0.00746286781733788,-0.010933551929170976,-0.036772983781212826,0,70,255.0,255.0,255.0
29,1.4500000000000002,7.507922685660913,-1.5093253322403541,-0.035076135081093945,0.01141231961888315,-0.01315054123214912,-0.04949547276727891,0.005884731839844634,-0.013017806805344442,-0.03864801427057475,0,70,255.0,255.0,255.0
30,1.5,7.5085,-1.51,-0.0376,0.011667102811438049,-0.013853537944320675,-0.05147474924304169,0.004306595862351312,-0.015102061681517912,-0.04052304475993668,0,70,255.0,255.0,255.0
31,1.55,7.509089127530811,-1.5107104718830089,-0.040223311008425945,0.011905781329247724,-0.014543685549855332,-0.053436085900474474,0.005240544850035598,-0.012503842539868415,-0.037930421537374526,0,70,255.0,255.0,255.0
32,1.6,7.5096913564237475,-1.5114522033723676,-0.04294144807069532,0.012191157296441608,-0.015103922198307519,-0.05526779139677915,0.006174493837719884,-0.009905623398218918,-0.03533779831481237,0,70,255.0,255.0,255.0
33,1.6500000000000001,7.510309021551278,-1.5122186989202218,-0.04574792962875173,0.01252323071301971,-0.015534247889677225,-0.05696986573195571,0.007108442825404171,-0.007307404256569424,-0.032745175092250216,0,70,255.0,255.0,255.0
34,1.7000000000000002,7.510944457785873,-1.513003462978717,-0.04863627412453876,0.012902001578982027,-0.01583466262396446,-0.05854230890600417,0.008042391813088457,-0.004709185114919927,-0.030152551869688064,0,70,255.0,255.0,255.0
35,1.75,7.5116,-1.5138,-0.0516,0.013327469894328554,-0.01600516640116922,-0.059985120918924516,0.008976340800772753,-0.0021109659732704567,-0.027559928647126253,0,70,255.0,255.0,255.0
36,1.8,7.512277494895728,-1.5146039589532292,-0.05463484573275551,0.01377034543503641,-0.01617443024209337,-0.061431503911303,0.008738680827541484,-0.004659587663695571,-0.030295391048012703,0,70,255.0,255.0,255.0
37,1.85,7.512976836493525,-1.515419566875618,-0.057745429943131046,0.014201337977082703,-0.016471125167538778,-0.06301466002372579,0.008501020854310214,-0.007208209354120686,-0.03303085344889915,0,70,255.0,255.0,255.0
38,1.9000000000000001,7.513697430643459,-1.5162531953213918,-0.06093859128712883,0.014620447520467431,-0.01689525117750544,-0.06473458925619291,0.008263360881078945,-0.009756831044545802,-0.035766315849785596,0,70,255.0,255.0,255.0
39,1.9500000000000002,7.5144386831955945,-1.5171112158447773,-0.06422116842075108,0.015027674065190597,-0.01744680827199336,-0.06659129160870436,0.008025700907847676,-0.012305452734970915,-0.038501778250672046,0,70,255.0,255.0,255.0
40,2.0,7.5152,-1.518,-0.0676,0.015423017611252199,-0.018125796451002527,-0.06858476708126011,0.00778804093461638,-0.014854074425395991,-0.041237240651558316,0,70,255.0,255.0,255.0
41,2.0500000000000003,7.515980892886274,-1.5189240923040734,-0.07107970606055207,0.015812836930613614,-0.018822593481771042,-0.07058189845431345,0.007804731839840118,-0.013017806805344425,-0.03864801427057497,0,70,255.0,255.0,255.0
42,2.1,7.516781297602149,-1.5198807291251606,-0.07465603215678053,0.01620349079523621,-0.01942757713153697,-0.07244956850831762,0.007821422745063856,-0.011181539185292874,-0.036058787889591645,0,70,255.0,255.0,255.0
43,2.15,7.517601255874886,-1.5208653197942104,-0.07832250522273297,0.016594979205119997,-0.019940747400300326,-0.0741877772432726,0.007838113650287592,-0.009345271565241323,-0.03346956150860832,0,70,255.0,255.0,255.0
44,2.2,7.518440809431748,-1.5218732736421738,-0.08207265219245698,0.01698730216026497,-0.0203621042880611,-0.07579652465917845,0.00785480455551133,-0.0075090039451897565,-0.03088033512762497,0,70,255.0,255.0,255.0
45,2.25,7.5193,-1.5229,-0.0859,0.017380459660671126,-0.0206916477948193,-0.07727581075603512,0.007871495460734984,-0.005672736325138206,-0.028291108746641758,0,70,255.0,255.0,255.0
46,2.3000000000000003,7.5201789335591736,-1.5239420718304766,-0.08979993002503636,0.017778306842516287,-0.02099919583082086,-0.07873690227144338,0.008042391813071387,-0.006629185114924013,-0.030152551869688092,0,70,255.0,255.0,255.0
47,2.35,7.521077973097879,-1.52500071662374,-0.09377524142974689,0.018184698841978267,-0.021354566306311704,-0.08029106594300395,0.008213288165407789,-0.007585633904709812,-0.03201399499273441,0,70,255.0,255.0,255.0
48,2.4000000000000004,7.5219975458569985,-1.5260783255017656,-0.09783058782193929,0.018599635659057066,-0.02175775922129184,-0.08193830177071681,0.008384184517744194,-0.008542082694495618,-0.03387543811578075,0,70,255.0,255.0,255.0
49,2.45,7.522938079077411,-1.5271772895865274,-0.10197062280942112,0.019023117293752688,-0.022208774575761266,-0.08367860975458201,0.008555080870080596,-0.009498531484281418,-0.03573688123882706,0,70,255.0,255.0,255.0
50,2.5,7.5239,-1.5283,-0.1062,0.01945514374606512,-0.022707612369719982,-0.0855119898945995,0.008725977222416859,-0.0104549802740673,-0.03759832436187305,0,70,255.0,255.0,255.0
51,2.5500000000000003,7.524883372877033,-1.5294484203740206,-0.11052217383930268,0.019873935699321735,-0.023228623194945945,-0.08736649245991314,0.00802570090784764,-0.010385452734971106,-0.03658177825067172,0,70,255.0,255.0,255.0
52,2.6,7.5258868100063365,-1.5306228043798784,-0.11493580212423199,0.020257713836849885,-0.023746157643217095,-0.08917016771966668,0.007325424593278428,-0.010315925195874914,-0.0355652321394704,0,70,255.0,255.0,255.0
53,2.6500000000000004,7.526908560697124,-1.5318229781987265,-0.11943834348951002,0.020606478158649577,-0.024260215714533438,-0.09092301567386019,0.006625148278709209,-0.01024639765677872,-0.03454868602826908,0,70,255.0,255.0,255.0
54,2.7,7.527946874258607,-1.5330487680117162,-0.12402725656985869,0.020920228664720805,-0.024770797408894967,-0.09262503632249358,0.005924871964139997,-0.01017687011768253,-0.03353213991706776,0,70,255.0,255.0,255.0
55,2.75,7.529,-1.5343,-0.1287,0.02119896535506358,-0.025277902726301683,-0.09427622966556694,0.005224595649570757,-0.010107342578586365,-0.03251559380586577,0,70,255.0,255.0,255.0
56,2.8000000000000003,7.530066774932692,-1.535576246673441,-0.13345457461775312,0.021477950360191168,-0.025766311389395977,-0.09590912788890421,0.005934804555532812,-0.009429003945185296,-0.03280033512762468,0,70,255.0,255.0,255.0
57,2.85,7.531148386876775,-1.536876065856745,-0.13829115007332524,0.021792445810616862,-0.026220803120820212,-0.09755626317832941,0.00664501346149486,-0.008750665311784232,-0.03308507644938359,0,70,255.0,255.0,255.0
58,2.9000000000000004,7.532246611354509,-1.5381977617033287,-0.14321043822002086,0.022142451706340657,-0.026641377920574402,-0.09921763553384257,0.0073552223674569145,-0.008072326678383163,-0.0333698177711425,0,70,255.0,255.0,255.0
59,2.95,7.533363223888163,-1.5395396383666082,-0.1482131509111443,0.02252796804736255,-0.02702803578865853,-0.10089324495544366,0.008065431273418962,-0.0073939880449821,-0.0336545590929014,0,70,255.0,255.0,255.0
60,3.0,7.5345,-1.5409,-0.1533,0.022948994833682547,-0.02738077672507261,-0.1025830914431327,0.008775640179380872,-0.006715649411580982,-0.03393930041466031,0,70,255.0,255.0,255.0
61,3.0500000000000003,7.5356583273921975,-1.542277792932215,-0.15847152768968503,0.023382262859918658,-0.027738131247469284,-0.10427699598446989,0.008555080870063436,-0.0075785314842859155,-0.0338168812388272,0,70,255.0,255.0,255.0
62,3.1,7.536838042486568,-1.5436745321931409,-0.16372759758246713,0.02380450292068889,-0.0281386298735012,-0.10596477956701542,0.008334521560746,-0.00844141355699084,-0.03369446206299409,0,70,255.0,255.0,255.0
63,3.1500000000000004,7.538038593884841,-1.545092374987959,-0.16906790363040672,0.024215715015993254,-0.028582272603168368,-0.10764644219076931,0.008113962251428563,-0.009304295629695775,-0.03357204288716098,0,70,255.0,255.0,255.0
64,3.2,7.539259430188743,-1.5465334785218514,-0.17449213978556422,0.024615899145831746,-0.029069059436470777,-0.10932198385573152,0.007893402942111126,-0.010167177702400701,-0.03344962371132787,0,70,255.0,255.0,255.0
65,3.25,7.5405,-1.548,-0.18,0.025005055310204364,-0.02959899037340843,-0.11099140456190208,0.007672843632793608,-0.011030059775105544,-0.03332720453549565,0,70,255.0,255.0,255.0
66,3.3000000000000003,7.541759915498522,-1.5494933815976986,-0.18559131462350684,0.025392998200127595,-0.030129163620728136,-0.1126628881732162,0.007844871964135542,-0.010176870117682514,-0.03353213991706865,0,70,255.0,255.0,255.0
67,3.35,7.543039443176955,-1.5510122053706918,-0.19126645959680624,0.02578954250661792,-0.030616677385176684,-0.11434461855360896,0.008016900295477475,-0.009323680460259491,-0.03373707529864165,0,70,255.0,255.0,255.0
68,3.4000000000000004,7.544339013106127,-1.5525543383448352,-0.19702594725835237,0.026194688229675342,-0.031061531666754082,-0.11603659570308036,0.00818892862681941,-0.008470490802836461,-0.03394201068021465,0,70,255.0,255.0,255.0
69,3.45,7.545659055356866,-1.554117647545986,-0.20287028994659895,0.02660843536929986,-0.03146372646546033,-0.11773881962163042,0.008360956958161343,-0.007617301145413438,-0.034146946061787656,0,70,255.0,255.0,255.0
70,3.5,7.547,-1.5557,-0.2088,0.02703078392549147,-0.03182326178129543,-0.11945129030925913,0.008532985289503192,-0.006764111487990554,-0.034351881443360543,0,70,255.0,255.0,255.0
71,3.5500000000000003,7.548362010613713,-1.5572998806769902,-0.21481521381628785,0.027445744339565377,-0.03217721426961964,-0.12115145132266567,0.008065431273452993,-0.007393988044977876,-0.03365455909290004,0,70,255.0,255.0,255.0
72,3.6,7.5497441848056095,-1.558918246324093,-0.22091456403030788,0.02783732705283677,-0.03256266058579322,-0.12281674621854914,0.0075978772574027955,-0.008023864601965193,-0.032957236742439555,0,70,255.0,255.0,255.0
73,3.6500000000000004,7.55114535369065,-1.5605566716327004,-0.22709630733618408,0.02820553206530566,-0.032979600729816164,-0.1244471749969096,0.007130323241352595,-0.008653741158952516,-0.032259914391979054,0,70,255.0,255.0,255.0
74,3.7,7.552564348383794,-1.5622167312942052,-0.23335870042804013,0.02855035937697203,-0.03342803470168847,-0.12604273765774707,0.006662769225302399,-0.009283617715939831,-0.03156259204151857,0,70,255.0,255.0,255.0
75,3.75,7.554,-1.5639,-0.2397,0.028871808987835895,-0.03390796250141014,-0.12760343420106146,0.006195215209252258,-0.009913494272927148,-0.030865269691058295,0,70,255.0,255.0,255.0
76,3.8000000000000003,7.555451242046626,-1.5656078956943407,-0.24611903011134204,0.029176024441619243,-0.034409979300793335,-0.12916330653612113,0.005973402942081484,-0.010167177702400622,-0.03152962371132855,0,70,255.0,255.0,255.0
77,3.85,7.556917417600606,-1.567341209332937,-0.25261688428196233,0.029469149282044044,-0.03492468027165021,-0.13075639657219432,0.0057515906749107115,-0.010420861131874093,-0.0321939777315988,0,70,255.0,255.0,255.0
78,3.9000000000000004,7.5583979721312735,-1.5691005751243638,-0.2591952233969117,0.02975118350911031,-0.03545206541398075,-0.132382704309281,0.005529778407739936,-0.010674544561347567,-0.03285833175186906,0,70,255.0,255.0,255.0
79,3.95,7.55989235110796,-1.5708866272771933,-0.26585570834124067,0.03002212712281804,-0.03599213472778496,-0.13404222974738123,0.005307966140569164,-0.010928227990821038,-0.03352268577213931,0,70,255.0,255.0,255.0
80,4.0,7.5614,-1.5727,-0.2726,0.030281980123167223,-0.03654488821306284,-0.13573497288649491,0.005086153873398308,-0.011181911420294455,-0.03418703979240889,0,70,255.0,255.0,255.0
81,4.05,7.562921021199785,-1.5745405365456473,-0.27942946573834415,0.030570157893956323,-0.037062868527205646,-0.13744332253284983,0.006440956958165734,-0.009537301145417582,-0.034146946061787496,0,70,255.0,255.0,255.0
82,4.1000000000000005,7.564458144791965,-1.5764049163441582,-0.28634429884184287,0.0309260758189838,-0.0374986183276046,-0.13914966749267368,0.007795760042933184,-0.00789269087054068,-0.0341068523311661,0,70,255.0,255.0,255.0
83,4.15,7.566014757784255,-1.5782890278698454,-0.29334439907616944,0.031349733898249646,-0.037852137614259714,-0.14085400776596643,0.009150563127700611,-0.006248080595663807,-0.034066758600544714,0,70,255.0,255.0,255.0
84,4.2,7.567594247184362,-1.5801887595970219,-0.3004296662069973,0.03184113213175386,-0.038123426387170985,-0.14255634335272815,0.010505366212468037,-0.004603470320786934,-0.03402666486992332,0,70,255.0,255.0,255.0
85,4.25,7.5692,-1.5821,-0.3076,0.03240027051949645,-0.03831248464633841,-0.14425667425295874,0.011860169297235601,-0.00295886004590995,-0.033986571139300814,0,70,255.0,255.0,255.0
86,4.3,7.570834273154234,-1.58402035812307,-0.3148551069352813,0.032959343982560105,-0.038522546590384656,-0.1459434033324792,0.010502769225310587,-0.0054436177159402094,-0.0334825920415188,0,70,255.0,255.0,255.0
87,4.3500000000000005,7.57249480323153,-1.5859543252904302,-0.32219392035066646,0.03345054744202751,-0.03885684641793243,-0.14760493345711062,0.009145369153385548,-0.007928375385970514,-0.03297861294373678,0,70,255.0,255.0,255.0
88,4.4,7.574178196731711,-1.5879081133962551,-0.3296151802984109,0.03387388089789867,-0.03931538412898171,-0.14924126462685294,0.007787969081460534,-0.010413133056000775,-0.03247463384595477,0,70,255.0,255.0,255.0
89,4.45,7.575881060154593,-1.58988793433472,-0.3371176268307703,0.03422934435017356,-0.03989815972353251,-0.1508523968417061,0.0064305690095355205,-0.012897890726031034,-0.031970654748172754,0,70,255.0,255.0,255.0
90,4.5,7.5776,-1.5919,-0.3447,0.03451693779885222,-0.04060517320158481,-0.15243833010167016,0.0050731689376105615,-0.015382648396061183,-0.031466675650390075,0,70,255.0,255.0,255.0
91,4.55,7.579332286183283,-1.5939484309620724,-0.3523613065205305,0.034776466175806285,-0.041310945111256756,-0.15401506413723337,0.005307966140552022,-0.012848227990816495,-0.03160268577213867,0,70,255.0,255.0,255.0
92,4.6000000000000005,7.581077842281917,-1.5960289824941212,-0.36010161975549154,0.03504773441290742,-0.041889996000666466,-0.15559859867888404,0.005542763343493486,-0.01031380758557176,-0.031738695893887274,0,70,255.0,255.0,255.0
93,4.65,7.582837255288909,-1.5981353185451346,-0.3679212797301871,0.03533074251015564,-0.042342325869813936,-0.1571889337266221,0.005777560546434947,-0.007779387180327073,-0.03187470601563587,0,70,255.0,255.0,255.0
94,4.7,7.584611112197268,-1.6002611030640983,-0.3758206264699218,0.03562549046755091,-0.04266793471869917,-0.1587860692804476,0.006012357749376408,-0.005244966775082384,-0.032010716137384466,0,70,255.0,255.0,255.0
95,4.75,7.5864,-1.6024,-0.3838,0.03593197828509328,-0.04286682254732217,-0.16039000534036055,0.006247154952317924,-0.0027105463698374743,-0.032146726259132175,0,70,255.0,255.0,255.0
96,4.800000000000001,7.588204582112637,-1.6045475180286413,-0.3918596669825965,0.03625479131421316,-0.04304967296458778,-0.16199634011858693,0.006665366212477037,-0.0046034703207868555,-0.03210666486992273,0,70,255.0,255.0,255.0
97,4.8500000000000005,7.5900258276408055,-1.6067065447330846,-0.3999996006273677,0.03659851490634099,-0.04332716957940086,-0.16360067182735286,0.007083577472636143,-0.006496394271736204,-0.03206660348071329,0,70,255.0,255.0,255.0
98,4.9,7.591864782112655,-1.6088818124232074,-0.40821970078084074,0.03696314906147677,-0.043699312391761405,-0.16520300046665826,0.007501788732795248,-0.00838931822268555,-0.03202654209150384,0,70,255.0,255.0,255.0
99,4.95,7.593722491056337,-1.6110780534088864,-0.4165198672895425,0.03734869377962051,-0.04416610140166941,-0.16680332603650322,0.007919999992954353,-0.010282242173634899,-0.031986480702294394,0,70,255.0,255.0,255.0
100,5.0,7.5956,-1.6133,-0.4249,0.0377551490607722,-0.04472753660912489,-0.1684016485368877,0.008338211253113459,-0.012175166124584025,-0.03194641931308495,0,70,255.0,255.0,255.0
101,5.050000000000001,7.59749818536617,-1.6155510969233626,-0.4333600255490838,0.03817236856733832,-0.04530636303039038,-0.16999957538841917,0.008350569009531095,-0.010977890726035394,-0.0319706547481736,0,70,255.0,255.0,255.0
102,5.1000000000000005,7.599417247154864,-1.6178296385735402,-0.4418999777350379,0.03859020596172531,-0.04582532568172844,-0.17159871401170507,0.008362926765948731,-0.009780615327486784,-0.03199489018326225,0,70,255.0,255.0,255.0
103,5.15,7.601357216260474,-1.6201326317620366,-0.4505199171464502,0.03900866124393319,-0.046284424563139054,-0.1731990644067454,0.008375284522366366,-0.008583339928938175,-0.032019125618350894,0,70,255.0,255.0,255.0
104,5.2,7.603318123577388,-1.6224570833003553,-0.4592199043719083,0.03942773441396195,-0.04668365967462225,-0.17480062657354015,0.008387642278784002,-0.007386064530389564,-0.032043361053439544,0,70,255.0,255.0,255.0
105,5.25,7.6053,-1.6248,-0.468,0.039847425471811596,-0.047023031016178,-0.17640340051208936,0.008400000035201693,-0.00618878913184101,-0.032067596488528416,0,70,255.0,255.0,255.0
106,5.300000000000001,7.607302676422682,-1.6271592942779085,-0.476860230821069,0.04025573441642637,-0.04735687491385109,-0.17800535832773712,0.007932357749389022,-0.007164966775082207,-0.032010716137381934,0,70,255.0,255.0,255.0
107,5.3500000000000005,7.609325183739738,-1.6295365009727545,-0.4858004884324812,0.0406406612467505,-0.04773952769368622,-0.17960447212582759,0.007464715463576361,-0.008141144418323386,-0.03195383578623545,0,70,255.0,255.0,255.0
108,5.4,7.611366352845453,-1.6319340605286463,-0.494820630633359,0.041002205962784005,-0.048170989355683425,-0.18120074190636068,0.006997073177763698,-0.009117322061564567,-0.03189695543508897,0,70,255.0,255.0,255.0
109,5.45,7.61342501463411,-1.6343544133896923,-0.5039205152228245,0.04134036856452687,-0.04865125989984268,-0.18279416766933645,0.006529430891951037,-0.010093499704805746,-0.03184007508394249,0,70,255.0,255.0,255.0
110,5.5,7.6155,-1.6368,-0.5131,0.0416551490519791,-0.049180339326163995,-0.1843847494147549,0.006061788606138208,-0.011069677348046814,-0.031783194732796005,0,70,255.0,255.0,255.0
111,5.550000000000001,7.617590308943101,-1.6392725259650038,-0.522359051166641,0.04195669376695653,-0.04971413731420594,-0.1859789913006322,0.005999999992958781,-0.010282242173630473,-0.03198648070229542,0,70,255.0,255.0,255.0
112,5.6000000000000005,7.619695617886185,-1.641770757535442,-0.5316980685350379,0.042255149051274976,-0.050208563543527054,-0.18758339748498448,0.005938211379779356,-0.009494806999214147,-0.03218976667179483,0,70,255.0,255.0,255.0
113,5.65,7.621815772357717,-1.644292726123378,-0.541117560320114,0.042550514904934465,-0.050663618014127346,-0.1891979679678117,0.005876422766599931,-0.008707371824797822,-0.03239305264129424,0,70,255.0,255.0,255.0
114,5.7,7.623950617886167,-1.646836463140876,-0.5506180347367936,0.04284279132793497,-0.051079300726006825,-0.1908227027491139,0.005814634153420505,-0.007919936650381496,-0.032596338610793654,0,70,255.0,255.0,255.0
115,5.75,7.6261,-1.6494,-0.5602,0.043131978320276515,-0.051455611679165486,-0.19245760182889102,0.005752845540241025,-0.007132501475964892,-0.0327996245802924,0,70,255.0,255.0,255.0
116,5.800000000000001,7.628264087804913,-1.651981801862076,-0.5698635645123673,0.04343749051575183,-0.05181857582932446,-0.1940786764697343,0.006467642278771467,-0.007386064530393769,-0.03204336105343856,0,70,255.0,255.0,255.0
117,5.8500000000000005,7.630444344715524,-1.6545820688854778,-0.5796072374273679,0.043778742548153664,-0.05219421813220487,-0.1956619379342349,0.0071824390173018966,-0.007639627584822642,-0.031287097526584734,0,70,255.0,255.0,255.0
118,5.9,7.6326425577236785,-1.6572014349778417,-0.5894291280861849,0.044155734417482016,-0.05258253858780672,-0.19720738622239278,0.007897235755832326,-0.007893190639251514,-0.030530833999730906,0,70,255.0,255.0,255.0
119,5.95,7.634860513821221,-1.6598405340468039,-0.5993273458300014,0.0445684661237369,-0.05298353719613001,-0.19871502133420796,0.008612032494362756,-0.008146753693680387,-0.029774570472877078,0,70,255.0,255.0,255.0
120,6.0,7.6371,-1.6625,-0.6093,0.04501693766691829,-0.053397213957174755,-0.20018484326968047,0.009326829232893075,-0.00840031674810926,-0.029018306946023698,0,70,255.0,255.0,255.0
121,6.050000000000001,7.639362139837245,-1.6651802665866926,-0.6193458907838909,0.04546134417003929,-0.05381155936849753,-0.2016583028204297,0.008449430891946417,-0.008173499704801699,-0.02992007508394409,0,70,255.0,255.0,255.0
122,6.1000000000000005,7.64164540325172,-1.6678809669226473,-0.6294665817554913,0.04586188075611294,-0.054214563927654925,-0.2031768507780749,0.007572032550999776,-0.007946682661494139,-0.030821843221864462,0,70,255.0,255.0,255.0
123,6.15,7.643947596747573,-1.6706015339652553,-0.6396643273351464,0.04621854742513926,-0.054606227634646946,-0.2047404871426161,0.006694634210053134,-0.007719865618186581,-0.03172361135978484,0,70,255.0,255.0,255.0
124,6.2,7.64626652682895,-1.6733414006719092,-0.6499413819432011,0.046531344177118246,-0.05498655048947359,-0.20634921191405337,0.005817235869106493,-0.007493048574879023,-0.03262537949770521,0,70,255.0,255.0,255.0
125,6.25,7.6486,-1.6761,-0.6603,0.0468002710120499,-0.05535553249213484,-0.20800302509238666,0.004939837528159574,-0.007266231531571299,-0.03352714763562581,0,70,255.0,255.0,255.0
126,6.300000000000001,7.650946552846107,-1.678877131791154,-0.6707416723520704,0.047069132804089406,-0.055735186696683654,-0.20965611224854722,0.005814634153420474,-0.00791993665038133,-0.032596338610795236,0,70,255.0,255.0,255.0
127,6.3500000000000005,7.653307642277597,-1.6816740634239342,-0.6812648355506675,0.04738173442739195,-0.05614752615717298,-0.21126265895346621,0.006689430778681359,-0.00857364176919135,-0.031665529585964684,0,70,255.0,255.0,255.0
128,6.4,7.655685455286034,-1.684492429161137,-0.6918671625732296,0.04773807588195753,-0.05659255087360279,-0.21282266520714366,0.007564227403942242,-0.00922734688800137,-0.030734720561134125,0,70,255.0,255.0,255.0
129,6.45,7.65808217886298,-1.68733386326556,-0.7025463263971944,0.048138157167786175,-0.05707026084597311,-0.2143361310095796,0.008439024029203126,-0.009881052006811388,-0.02980391153630357,0,70,255.0,255.0,255.0
130,6.5,7.6605,-1.6902,-0.7133,0.04858197828487785,-0.05758065607428393,-0.21580305636077404,0.00931382065446379,-0.010534757125621519,-0.028873102511474125,0,70,255.0,255.0,255.0
131,6.550000000000001,7.662940448778329,-1.6930920062486914,-0.7241266198078288,0.049030124613598944,-0.05809569384476669,-0.21726924818538276,0.008612032494379718,-0.010066753693688773,-0.029774570472873275,0,70,255.0,255.0,255.0
132,6.6000000000000005,7.6654024276378925,-1.6960091793816168,-0.7350276760418396,0.04944318153431583,-0.058587331443652815,-0.2187805134080614,0.007910244334295661,-0.009598750261756035,-0.030676038434272412,0,70,255.0,255.0,255.0
133,6.65,7.667884182108293,-1.6989503493901965,-0.746005422371936,0.0498211490470285,-0.05905556887094229,-0.22033685202880998,0.007208456174211604,-0.009130746829823295,-0.03157750639567154,0,70,255.0,255.0,255.0
134,6.7,7.670383957719129,-1.701914346265851,-0.7570621124680217,0.050164027151736984,-0.05950040612663514,-0.22193826404762854,0.006506668014127545,-0.008662743397890558,-0.03247897435707068,0,70,255.0,255.0,255.0
135,6.75,7.6729,-1.7049,-0.7682,0.05047181584844125,-0.05992184321073134,-0.22358474946451704,0.00580487985404321,-0.008194739965957876,-0.03338044231846937,0,70,255.0,255.0,255.0
136,6.800000000000001,7.67543085204058,-1.7079060432140811,-0.7794206484166154,0.05076236874151957,-0.06031403792425205,-0.22523489500992142,0.005817235869089265,-0.007493048574870421,-0.03262537949770502,0,70,255.0,255.0,255.0
137,6.8500000000000005,7.6779762471708315,-1.7109308190495993,-0.7907228602819749,0.05105353943535018,-0.06067114806821838,-0.22684728741428753,0.005829591884135322,-0.00679135718378298,-0.03187031667694068,0,70,255.0,255.0,255.0
138,6.9,7.680536216280794,-1.713972573278077,-0.8021047479390269,0.0513453279299331,-0.06099317364263034,-0.2284219266776155,0.005841947899181377,-0.006089665792695537,-0.031115253856176344,0,70,255.0,255.0,255.0
139,6.95,7.683110790260504,-1.7170295516710368,-0.8135644237307191,0.051637734225268316,-0.06128011464748794,-0.22995881279990518,0.005854303914227432,-0.005387974401608095,-0.03036019103541201,0,70,255.0,255.0,255.0
140,7.0,7.6857,-1.7201,-0.8251,0.05193075832135583,-0.061531971082791154,-0.23145794578115667,0.00586665992927321,-0.004686283010520764,-0.02960512821464678,0,70,255.0,255.0,255.0
141,7.050000000000001,7.688304143059354,-1.7231830208949845,-0.8367099865257102,0.05224040042031785,-0.061800154458224475,-0.23294317177493054,0.006519024029207497,-0.006041052006811906,-0.02980391153630815,0,70,255.0,255.0,255.0
142,7.1000000000000005,7.690924583678781,-1.7262811444199861,-0.8483944828302612,0.052582660724276586,-0.06213607628347235,-0.2344383369347875,0.007171388129141772,-0.007395821003103023,-0.030002694857969515,0,70,255.0,255.0,255.0
143,7.15,7.693562952768532,-1.7293977574974952,-0.860153985871957,0.05295753923323203,-0.06253973655853477,-0.2359434412607275,0.007823752229076046,-0.00875058999939414,-0.030201478179630883,0,70,255.0,255.0,255.0
144,7.2,7.696220881238855,-1.7325362470500032,-0.8719889926091019,0.05336503594718418,-0.06301113528341176,-0.23745848475275058,0.008476116329010321,-0.010105358995685258,-0.03040026150129225,0,70,255.0,255.0,255.0
145,7.25,7.6989,-1.7357,-0.8839,0.05380515086613306,-0.0635502724581033,-0.23898346741085671,0.009128480428944263,-0.011460127991976155,-0.03059904482295228,0,70,255.0,255.0,255.0
146,7.300000000000001,7.701601375722004,-1.738891473205981,-0.8958874054805442,0.05424402957721017,-0.06410134424285006,-0.24051241789035724,0.008426668014139894,-0.010582743397894476,-0.030558974357068225,0,70,255.0,255.0,255.0
147,7.3500000000000005,7.704323818114042,-1.7421094032704565,-0.907951208396981,0.054647817667547054,-0.06460854679789275,-0.24203936484656355,0.007724855599335537,-0.009705358803812816,-0.030518903891184168,0,70,255.0,255.0,255.0
148,7.4,7.707065572645079,-1.745351596731942,-0.9200913085731456,0.055016515137143715,-0.06507188012323134,-0.24356430827947567,0.007023043184531181,-0.008827974209731153,-0.03047883342530011,0,70,255.0,255.0,255.0
149,7.45,7.709824884784077,-1.7486158601289516,-0.9323076058328736,0.05535012198600017,-0.06549134421886586,-0.24508724818909355,0.0063212307697268245,-0.00795058961564949,-0.030438762959416055,0,70,255.0,255.0,255.0
150,7.5,7.7126,-1.7519,-0.9446,0.0556486382141164,-0.06586693908479628,-0.24660818457541722,0.0056194183549225785,-0.007073205021567719,-0.030398692493533552,0,70,255.0,255.0,255.0
151,7.550000000000001,7.715389554052633,-1.7552022862810917,-0.9569683915521138,0.05593548127084473,-0.06622646857037556,-0.2481271566636409,0.005854303914210349,-0.007307974401603737,-0.030360191035412674,0,70,255.0,255.0,255.0
152,7.6000000000000005,7.718193743865051,-1.7585228424981876,-0.9694126835818158,0.05623406860553744,-0.06659773652495665,-0.2496442036789585,0.006089189473498116,-0.007542743781639751,-0.0303216895772918,0,70,255.0,255.0,255.0
153,7.65,7.721013156651153,-1.7618622555747376,-0.9819327798354611,0.056544400218194533,-0.06698074294853955,-0.25115932562137006,0.006324075032785883,-0.007777513161675766,-0.030283188119170922,0,70,255.0,255.0,255.0
154,7.7,7.723848379624837,-1.7652211124341917,-0.9945285840594043,0.056866476108816025,-0.06737548784112422,-0.2526725224908756,0.006558960592073649,-0.00801228254171178,-0.030244686661050048,0,70,255.0,255.0,255.0
155,7.75,7.7267,-1.7686,-1.0072,0.0572002962774019,-0.06778197120271072,-0.2541837942874751,0.006793846151361416,-0.00824705192174735,-0.030206185202928726,0,70,255.0,255.0,255.0
156,7.800000000000001,7.7295684080674665,-1.771999381669652,-1.019947028311002,0.057534045339411304,-0.06819278147564665,-0.25569895545508065,0.006556116329014635,-0.008185358995689484,-0.03040026150129096,0,70,255.0,255.0,255.0
157,7.8500000000000005,7.732453206425757,-1.775419226736793,-1.032770057275757,0.057855907910303365,-0.06860050710227968,-0.2572238204376042,0.006318386506667859,-0.008123666069631618,-0.030594337799653194,0,70,255.0,255.0,255.0
158,7.9,7.735353800750312,-1.778859380969108,-1.0456695720850109,0.058165883990078084,-0.06900514808260981,-0.25875838923504596,0.006080656684321083,-0.008061973143573752,-0.03078841409801543,0,70,255.0,255.0,255.0
159,7.95,7.738269596716577,-1.7823196901342822,-1.0586460579295103,0.05846397357873547,-0.06940670441663704,-0.26030266184740575,0.005842926861974306,-0.008000280217515887,-0.03098249039637766,0,70,255.0,255.0,255.0
160,8.0,7.7412,-1.7858,-1.0717,0.058750176676275516,-0.06980517610436138,-0.26185663827468364,0.00560519703962753,-0.007938587291457466,-0.031176566694737673,0,70,255.0,255.0,255.0
161,8.05,7.744144813677501,-1.789300187040301,-1.0848314952038798,0.05904833737150938,-0.07020240552703905,-0.26339702151603733,0.006321230769726881,-0.007950589615649317,-0.030438762959409605,0,70,255.0,255.0,255.0
162,8.1,7.747105430431927,-1.7928202505546407,-1.0980390873151578,0.0593822997532482,-0.0706002350659263,-0.26490051457062463,0.007037264499826207,-0.007962591939841168,-0.029700959224081565,0,70,255.0,255.0,255.0
163,8.15,7.750083640347601,-1.7963602205488303,-1.1113209318244963,0.059752063821492,-0.07099866472102317,-0.2663671174384455,0.007753298229925558,-0.00797459426403302,-0.028963155488753493,0,70,255.0,255.0,255.0
164,8.200000000000001,7.75308123350885,-1.79992012702868,-1.1246751842225562,0.06015762957624077,-0.07139769449232962,-0.26779683011949995,0.00846933196002491,-0.00798659658822487,-0.02822535175342543,0,70,255.0,255.0,255.0
165,8.25,7.7561,-1.8035,-1.1381,0.06059899701749449,-0.07179732437984566,-0.26918965261378797,0.009185365690124014,-0.007998598912417054,-0.027487548018096053,0,70,255.0,255.0,255.0
166,8.3,7.759141137222531,-1.8070998701691452,-1.1515941908734801,0.061040605174549324,-0.07219759641619877,-0.27058495848076686,0.008478960592069075,-0.008012282541707516,-0.02832468666105693,0,70,255.0,255.0,255.0
167,8.35,7.762203471846539,-1.8107197710446443,-1.165159193463612,0.06144689307670139,-0.07259855263401642,-0.2720221212798936,0.00777255549401416,-0.008025966170997979,-0.02916182530401778,0,70,255.0,255.0,255.0
168,8.4,7.765285237859285,-1.814359736835571,-1.1787971006170053,0.061817860723950735,-0.07300019303329858,-0.27350114101116857,0.0070661503959592205,-0.008039649800288439,-0.02999896394697866,0,70,255.0,255.0,255.0
169,8.450000000000001,7.768384669248021,-1.8180198017509988,-1.1925100051802655,0.06215350811629733,-0.07340251761404527,-0.27502201767459156,0.006359745297904281,-0.008053333429578901,-0.030836102589939535,0,70,255.0,255.0,255.0
170,8.5,7.7715,-1.8217,-1.2063,0.06245383525374115,-0.07380552637625648,-0.2765847512701626,0.005653340199849088,-0.008067017058869475,-0.03167324123290083,0,70,255.0,255.0,255.0
171,8.55,7.7746298374323795,-1.8254003322831194,-1.220168541302201,0.06274124193028716,-0.07420720880816611,-0.2781511445608946,0.005842926861991329,-0.00800028021751551,-0.030982490396380936,0,70,255.0,255.0,255.0
172,8.6,7.777774282181913,-1.8291206652667822,-1.2341145388303922,0.06303812793994028,-0.07460555439800802,-0.27968300030980064,0.006032513524133564,-0.007933543376161546,-0.03029173955986107,0,70,255.0,255.0,255.0
173,8.65,7.780933808215258,-1.8328608321088857,-1.2481362657074837,0.06334449328270053,-0.07500056314578227,-0.28118031851688075,0.006222100186275804,-0.007866806534807579,-0.029600988723341177,0,70,255.0,255.0,255.0
174,8.700000000000001,7.784108889499068,-1.836620665967326,-1.2622319950563834,0.06366033795856788,-0.0753922350514888,-0.2826430991821348,0.006411686848418046,-0.007800069693453614,-0.028910237886821285,0,70,255.0,255.0,255.0
175,8.75,7.7873,-1.8404,-1.2764,0.06398566196754232,-0.07578057011512761,-0.2840713423055629,0.006601273510560279,-0.007733332852098873,-0.02821948705030186,0,70,255.0,255.0,255.0
176,8.8,7.790507513047952,-1.8441988006983785,-1.2906388439177172,0.06431442710430664,-0.0761735683511357,-0.285482463275656,0.006549331960012283,-0.007986596588224808,-0.028225351753420204,0,70,255.0,255.0,255.0
177,8.85,7.7937313994258055,-1.848017567888227,-1.3049482512148183,0.06464059516354355,-0.07657922977395008,-0.2868938774809049,0.006497390409464288,-0.008239860324350732,-0.028231216456538543,0,70,255.0,255.0,255.0
178,8.9,7.7969715292796815,-1.8518569347288867,-1.3193282365530605,0.06496416614525306,-0.07699755438357078,-0.28830558492130987,0.006445448858916292,-0.008493124060476667,-0.028237081159656886,0,70,255.0,255.0,255.0
179,8.950000000000001,7.800227772755705,-1.8557175343796977,-1.333778814594202,0.06528514004943518,-0.07742854217999777,-0.2897175855968706,0.006393507308368295,-0.008746387796602601,-0.028242945862775225,0,70,255.0,255.0,255.0
180,9.0,7.8035,-1.8596,-1.3483,0.0656035168760899,-0.07787219316323102,-0.29112987950758734,0.006341565757820078,-0.008999651532728414,-0.028248810565893567,0,70,255.0,255.0,255.0
181,9.05,7.80678811037581,-1.8635044649233679,-1.3628920830269304,0.06592104965248301,-0.07829851778728882,-0.2925590023364831,0.0063597452979040625,-0.00805333342958344,-0.028916102589935832,0,70,255.0,255.0,255.0
182,9.1,7.810092120114865,-1.8674290631803094,-1.3775564563103349,0.0662394914058803,-0.07867752650618937,-0.29402148976658093,0.006377924837988047,-0.007107015326438499,-0.029583394613978072,0,70,255.0,255.0,255.0
183,9.15,7.813412074666015,-1.8713714289755674,-1.3922947880802752,0.06655884213628181,-0.07900921931993267,-0.2955173417978809,0.006396104378072032,-0.006160697223293526,-0.030250686638020333,0,70,255.0,255.0,255.0
184,9.200000000000001,7.816748019478109,-1.8753291965138834,-1.4071087465668102,0.0668791018436875,-0.07929359622851873,-0.29704655843038297,0.006414283918156016,-0.005214379120148551,-0.030917978662062598,0,70,255.0,255.0,255.0
185,9.25,7.8201,-1.8793,-1.422,0.0672002705280974,-0.07953065723194752,-0.29860913966408714,0.006432463458240223,-0.004268061017003166,-0.031585270686105726,0,70,255.0,255.0,255.0
186,9.3,7.8234680454488075,-1.8832825396081505,-1.4369696239745622,0.0675213742857643,-0.07978436049970894,-0.30016952737841046,0.006411686848435227,-0.005880069693453316,-0.03083023788682614,0,70,255.0,255.0,255.0
187,9.35,7.826852120114735,-1.8872797793905347,-1.4520163235438415,0.06784143921294093,-0.08011866420129285,-0.3016921634527698,0.006390910238630232,-0.007492078369903409,-0.030075205087546582,0,70,255.0,255.0,255.0
188,9.4,7.830252172056261,-1.8912957493688436,-1.46713821112584,0.06816046530962731,-0.08053356833669928,-0.3031770478871651,0.006370133628825236,-0.00910408704635356,-0.029320172288266992,0,70,255.0,255.0,255.0
189,9.450000000000001,7.8336681493318565,-1.8953344795647682,-1.482333399138559,0.06847845257582345,-0.08102907290592821,-0.30462418068159647,0.00634935701902024,-0.010716095722803711,-0.028565139488987406,0,70,255.0,255.0,255.0
190,9.5,7.8371,-1.8994,-1.4976,0.06879540101152934,-0.08160517790897964,-0.30603356183606384,0.006328580409215467,-0.012328104399253803,-0.02781010668970696,0,70,255.0,255.0,255.0
191,9.55,7.8405477078289625,-1.9034949766440301,-1.512936621074821,0.06911345320446809,-0.08218004021387595,-0.3074348881498759,0.006393507308334146,-0.010666387796598075,-0.0282429458627747,0,70,255.0,255.0,255.0
192,9.600000000000001,7.844011399426196,-1.907616619257552,-1.528343849514299,0.06943475174236277,-0.08267181668863947,-0.30885785642234137,0.006458434207452826,-0.009004671193942345,-0.02867578503584244,0,70,255.0,255.0,255.0
193,9.65,7.847491237108948,-1.9117607735490587,-1.543822767416366,0.06975929662521337,-0.08308050733327019,-0.3103024666534601,0.006523361106571502,-0.007342954591286676,-0.029108624208910163,0,70,255.0,255.0,255.0
194,9.700000000000001,7.850987383194467,-1.9159232852270436,-1.5593744568789558,0.07008708785301991,-0.08340611214776814,-0.3117687188432324,0.00658828800569018,-0.0056812379886309475,-0.029541463381977905,0,70,255.0,255.0,255.0
195,9.75,7.8545,-1.9201,-1.575,0.0704181254257824,-0.08364863113213326,-0.3132566129916579,0.00665321490480919,-0.0040195213859747225,-0.029974302555043852,0,70,255.0,255.0,255.0
196,9.8,7.858029123235342,-1.9242879538157285,-1.5906998917261548,0.07074481289635697,-0.08387947864478645,-0.3147309200220855,0.006414283918173177,-0.005214379120152518,-0.02899797866205834,0,70,255.0,255.0,255.0
197,9.850000000000001,7.86157428218048,-1.928488943579257,-1.6064722783989647,0.07105955381759972,-0.08417006904414852,-0.3161564108578638,0.006175352931537164,-0.006409236854330314,-0.02802165476907283,0,70,255.0,255.0,255.0
198,9.9,7.865134879507947,-1.9327059564349216,-1.622314719208697,0.07136234818951068,-0.08452040233021949,-0.3175330854989928,0.005936421944901158,-0.007604094588508067,-0.02704533087608735,0,70,255.0,255.0,255.0
199,9.950000000000001,7.868710317890276,-1.9369419795270577,-1.63822477334562,0.07165319601208983,-0.08493047850299934,-0.3188609439454725,0.005697490958265145,-0.008798952322685863,-0.02606900698310184,0,70,255.0,255.0,255.0
200,10.0,7.8723,-1.9412,-1.6542,0.07193209728533717,-0.08540029756248806,-0.32013998619730294,0.005458559971628585,-0.009993810056863395,-0.025092683090116363,0,70,255.0,255.0,255.0
201,10.05,7.875903799229667,-1.9454820080930564,-1.6702390120205606,0.07222729521010382,-0.08587004520697974,-0.32143343176178074,0.006349357019037174,-0.008796095722803892,-0.026645139488996182,0,70,255.0,255.0,255.0
202,10.100000000000001,7.879523471851884,-1.94978600642542,-1.6863446368898443,0.07256703298724089,-0.08627990713476845,-0.3228045001462026,0.007240154066445762,-0.00759838138874439,-0.028197595887876004,0,70,255.0,255.0,255.0
203,10.15,7.883161244859265,-1.954109000711255,-1.7025207557488466,0.0729513106167484,-0.08662988334585418,-0.3242531913505684,0.00813095111385432,-0.006400667054684931,-0.029750052286755767,0,70,255.0,255.0,255.0
204,10.200000000000001,7.88681934524443,-1.9584479966647268,-1.7187712497385665,0.07338012809862633,-0.08691997384023695,-0.3257795053748782,0.009021748161262907,-0.005202952720625428,-0.03130250868563559,0,70,255.0,255.0,255.0
205,10.25,7.8905,-1.9628,-1.7351,0.07385348543287468,-0.08715017861791673,-0.32738344221913196,0.009912545208671464,-0.004005238386565524,-0.03285496508451491,0,70,255.0,255.0,255.0
206,10.3,7.894204479845987,-1.9671632138120467,-1.7515096601916034,0.07431400626323319,-0.08739234052729641,-0.3289913529307942,0.008508288005668942,-0.005681237988622058,-0.03146146338197225,0,70,255.0,255.0,255.0
207,10.350000000000001,7.897930230411988,-1.9715406307190648,-1.767997974041661,0.0747043142334416,-0.08771830241677894,-0.3305295885573292,0.007104030802666421,-0.007357237590678592,-0.030067961679429583,0,70,255.0,255.0,255.0
208,10.4,7.901673741054996,-1.9759364407200595,-1.784561457795917,0.07502440934349984,-0.08812806428636427,-0.3319981490987371,0.0056997735996639496,-0.009033237192735067,-0.02867445997688697,0,70,255.0,255.0,255.0
209,10.450000000000001,7.905431501132002,-1.9803548338140364,-1.801196627700116,0.07527429159340797,-0.08862162613605244,-0.3333970345550179,0.004295516396661429,-0.010709236794791601,-0.027280958274344305,0,70,255.0,255.0,255.0
210,10.5,7.9092,-1.9848,-1.8179,0.075453960983166,-0.08919898796584341,-0.33472624492617153,0.00289125919365929,-0.012385236396847521,-0.025887456571800804,0,70,255.0,255.0,255.0
211,10.55,7.912976681386386,-1.9892747366587573,-1.8346687472130285,0.07562067973696422,-0.08977659268383195,-0.336025156515044,0.0037774909582694153,-0.010718952322693974,-0.026069006983097335,0,70,255.0,255.0,255.0
212,10.600000000000001,7.9167628065001665,-1.9937762706983213,-1.8515026669435144,0.07583171007899293,-0.09027088319811283,-0.3373331456244813,0.0046637227228795404,-0.009052668248540428,-0.026250557394393862,0,70,255.0,255.0,255.0
213,10.65,7.920560590920756,-1.9983004364085069,-1.8684022130674856,0.07608705200925216,-0.09068185950868601,-0.3386502122544834,0.005549954487489635,-0.007386384174386939,-0.026432107805690386,0,70,255.0,255.0,255.0
214,10.700000000000001,7.924372250227563,-2.002843068079128,-1.885367839460972,0.0763867055277419,-0.09100952161555152,-0.3399763564050503,0.0064361862520997595,-0.0057201001002333916,-0.026613658216986916,0,70,255.0,255.0,255.0
215,10.75,7.9282,-2.0074,-1.9024,0.07673067063446214,-0.09125386951870935,-0.3413115780761821,0.007322418016709631,-0.004053816026080237,-0.026795208628282996,0,70,255.0,255.0,255.0
216,10.8,7.932045594608472,-2.011968239552924,-1.9194993509562854,0.07709127478891156,-0.0914852887373771,-0.3426680210090301,0.007101748161267204,-0.005202952720629733,-0.02746250868563581,0,70,255.0,255.0,255.0
217,10.850000000000001,7.935908943587345,-2.01654948648765,-1.9366673581842846,0.07744084545058887,-0.09177416479077234,-0.34405782894474574,0.0068810783058247775,-0.0063520894151792295,-0.028129808742988625,0,70,255.0,255.0,255.0
218,10.9,7.939789495261984,-2.0211466136459135,-1.953905689934141,0.07777938261949403,-0.09212049767889503,-0.345481001883329,0.006660408450382359,-0.007501226109728684,-0.028797108800341413,0,70,255.0,255.0,255.0
219,10.950000000000001,7.943686697957749,-2.025762493869452,-1.9712160144559987,0.0781068862956271,-0.0925242874017452,-0.3469375398247799,0.006439738594939932,-0.00865036280427818,-0.029464408857694226,0,70,255.0,255.0,255.0
220,11.0,7.9476,-2.0304,-1.9886,0.07842335647898803,-0.09298553395932284,-0.3484274427690984,0.006219068739497291,-0.009799499498827413,-0.03013170891504746,0,70,255.0,255.0,255.0
221,11.05,7.951528940179731,-2.035061105129546,-2.006058648961832,0.07873422110739148,-0.093450252366663,-0.3499107594488333,0.006215516396640086,-0.008789236794778528,-0.02920095827434802,0,70,255.0,255.0,255.0
222,11.100000000000001,7.9554734191504535,-2.03974418335108,-2.02359030031935,0.07904490811865204,-0.0938644576388007,-0.3513475385965332,0.006211964053782881,-0.007778974090729645,-0.028270207633648577,0,70,255.0,255.0,255.0
223,11.15,7.9594334280313115,-2.04444670900784,-2.0411926271959513,0.07935541751276975,-0.09422814977573596,-0.3527377802121982,0.0062084117109256765,-0.006768711386680797,-0.027339456992949165,0,70,255.0,255.0,255.0
224,11.200000000000001,7.9634089579414455,-2.049166156443067,-2.058863302715036,0.07966574928974461,-0.09454132877746879,-0.3540814842958282,0.006204859368068472,-0.005758448682631912,-0.026408706352249726,0,70,255.0,255.0,255.0
225,11.25,7.9674,-2.0539,-2.0766,0.07997590344957661,-0.09480399464399915,-0.35537865084742315,0.006201307025211378,-0.00474818597858262,-0.02547795571154854,0,70,255.0,255.0,255.0
226,11.3,7.971406644672604,-2.0586465399288905,-2.0944012531963883,0.08029184078150982,-0.09506570179596956,-0.35668094119563665,0.00643618625211673,-0.005720100100233508,-0.026613658216990483,0,70,255.0,255.0,255.0
227,11.350000000000001,7.97542937981084,-2.0634073801080324,-2.112269040538319,0.0806195220747883,-0.0953760046540225,-0.3580400166691222,0.006671065479022083,-0.006692014221884396,-0.027749360722432424,0,70,255.0,255.0,255.0
228,11.4,7.9794687926127725,-2.0681849503227276,-2.130206201282055,0.08095894732941203,-0.09573490321815799,-0.35945587726787986,0.0069059447059274266,-0.007663928343535249,-0.028885063227874326,0,70,255.0,255.0,255.0
229,11.450000000000001,7.98352547027647,-2.072981680358282,-2.148215574683861,0.08131011654538103,-0.09614239748837602,-0.36092852299190964,0.007140823932832779,-0.008635842465186137,-0.03002076573331627,0,70,255.0,255.0,255.0
230,11.5,7.9876,-2.0778,-2.1663,0.08167302972269529,-0.0965984874646766,-0.3624579538412115,0.00737570315973779,-0.00960775658683699,-0.031156468238756396,0,70,255.0,255.0,255.0
231,11.55,7.991692481129849,-2.0826415351548913,-2.184461138252617,0.08201841576656309,-0.0970549404494547,-0.36397347576862255,0.006439738594973852,-0.008650362804286668,-0.029464408857685753,0,70,255.0,255.0,255.0
232,11.600000000000001,7.995801061606185,-2.0875046962167936,-2.202695937527379,0.08231700358219268,-0.09746352374510528,-0.3654043947269801,0.005503774030209914,-0.007692969021736346,-0.027772349476615107,0,70,255.0,255.0,255.0
233,11.65,7.999923401517598,-2.0923870897012495,-2.221000167675831,0.08256879316958407,-0.09782423735162832,-0.36675071071628407,0.004567809465446009,-0.006735575239186058,-0.026080290095544523,0,70,255.0,255.0,255.0
234,11.700000000000001,8.004057160952671,-2.0972863221238036,-2.2393695985495223,0.08277378452873728,-0.09813708126902387,-0.36801242373653453,0.003631844900682071,-0.005778181456635736,-0.024388230714473876,0,70,255.0,255.0,255.0
235,11.75,8.0082,-2.1022,-2.2578,0.08293197765965227,-0.09840205549729189,-0.36918953378773145,0.002695880335918055,-0.004820787674084892,-0.022696171333402404,0,70,255.0,255.0,255.0
236,11.8,8.012350630808,-2.107126519451544,-2.2762885937931445,0.08310649615225077,-0.0986665364062098,-0.3703691557298729,0.00428485936802201,-0.005758448682631614,-0.024488706352253534,0,70,255.0,255.0,255.0
237,11.850000000000001,8.01651197376442,-2.112067435024795,-2.2948384093521703,0.08336046359645448,-0.09897790036555505,-0.37163840442295687,0.005873838400125965,-0.0066961096911783355,-0.026281241371104665,0,70,255.0,255.0,255.0
238,11.9,8.020688001316838,-2.117025090872273,-2.313453928014623,0.08369387999226335,-0.09933614737532764,-0.37299727986698333,0.007462817432229862,-0.007633770699725024,-0.02807377638995573,0,70,255.0,255.0,255.0
239,11.950000000000001,8.02488268591284,-2.1220018311465014,-2.3321396311180504,0.08410674533967745,-0.09974127743552756,-0.3744457820619524,0.009051796464333817,-0.008571431708271746,-0.029866311408806863,0,70,255.0,255.0,255.0
240,12.0,8.0291,-2.127,-2.3509,0.08459905963869672,-0.10019329054615479,-0.375983911007864,0.01064077549643716,-0.009509092716818546,-0.03165884642765793,0,70,255.0,255.0,255.0
241,12.05,8.033342595638155,-2.132021187038932,-2.369738086574806,0.08509159962442836,-0.10064691392570492,-0.37752590131188835,0.009060823932827944,-0.008635842465186326,-0.03002076573331569,0,70,255.0,255.0,255.0
242,12.100000000000001,8.037607843336138,-2.1370639636840276,-2.3886512250639442,0.08550514203197954,-0.10105687479267345,-0.3789859875811956,0.007480872369218726,-0.007762592213554107,-0.02838268503897345,0,70,255.0,255.0,255.0
243,12.15,8.041891793215049,-2.1421261468096566,-2.4076353202656797,0.08583968686135023,-0.10142317314706033,-0.3803641698157857,0.0059009208056095665,-0.006889341961921918,-0.026744604344631273,0,70,255.0,255.0,255.0
244,12.200000000000001,8.046190495395972,-2.1472055532901906,-2.4266862769782778,0.08609523411254048,-0.10174580898886562,-0.38166044801565874,0.0043209692420003495,-0.006016091710289698,-0.025106523650289037,0,70,255.0,255.0,255.0
245,12.25,8.0505,-2.1523,-2.4458,0.08627178378555027,-0.1020247823180893,-0.3828748221808146,0.002741017678391189,-0.00514284145865751,-0.023468442955947744,0,70,255.0,255.0,255.0
246,12.3,8.054817386639384,-2.157407932392727,-2.4649734599076356,0.08643110535002839,-0.10229780789097163,-0.38407123902257495,0.0036318449007332627,-0.005778181456635454,-0.0243882307144654,0,70,255.0,255.0,255.0
247,12.350000000000001,8.05914385289102,-2.162530310239095,-2.4842078903920566,0.0866349682756236,-0.10260260046375284,-0.38531364525226114,0.0045226721230753365,-0.006413521454613398,-0.025308018472983057,0,70,255.0,255.0,255.0
248,12.4,8.063481625822964,-2.1676687218891004,-2.5035055909226602,0.0868833725623359,-0.10293916003643296,-0.3866020408698732,0.005413499345417378,-0.0070488614525913195,-0.02622780623150068,0,70,255.0,255.0,255.0
249,12.450000000000001,8.067832932503274,-2.172824755692737,-2.522868860968843,0.08717631821016533,-0.10330748660901198,-0.3879364258754112,0.006304326567759451,-0.007684201450569264,-0.027147593990018336,0,70,255.0,255.0,255.0
250,12.5,8.0722,-2.178,-2.5423,0.08751380521911185,-0.10370758018148989,-0.3893168002688751,0.007195153790100828,-0.008319541448546963,-0.028067381748536402,0,70,255.0,255.0,255.0
251,12.55,8.076584657804307,-2.1831958833901606,-2.5618008737946547,0.08787197897547197,-0.10412985451041036,-0.3907171425978088,0.007131796464303596,-0.00857143170827162,-0.027946311408811028,0,70,255.0,255.0,255.0
252,12.600000000000001,8.080987145099776,-2.188413195359591,-2.5813716133678315,0.08822698486554222,-0.10456472335231706,-0.39211143140975624,0.0070684391385063645,-0.008823321967996274,-0.027825241069085658,0,70,255.0,255.0,255.0
253,12.65,8.08540730349309,-2.1936525656339416,-2.6010119160436806,0.0885788228893226,-0.10501218670720998,-0.39349966670471737,0.007005081812709135,-0.009075212227720921,-0.027704170729360288,0,70,255.0,255.0,255.0
254,12.700000000000001,8.089844974590937,-2.1989146239388617,-2.620721479146354,0.08892749304681313,-0.10547224457508915,-0.3948818484826923,0.006941724486911903,-0.009327102487445577,-0.027583100389634914,0,70,255.0,255.0,255.0
255,12.75,8.0943,-2.2042,-2.6405,0.08927299533801378,-0.10594489695595453,-0.39625797674368085,0.00687836716111434,-0.009578992747169335,-0.027462030049909547,0,70,255.0,255.0,255.0
256,12.8,8.098771982143386,-2.209508534046633,-2.6603470449137463,0.08960097874809068,-0.1063827740673909,-0.39762019058618614,0.00624096924196186,-0.007936091710284908,-0.02702652365030191,0,70,255.0,255.0,255.0
257,12.850000000000001,8.103259566709879,-2.2148369083225417,-2.6802616561366195,0.08989709226220997,-0.10673850612698303,-0.3989606291087111,0.00560357132280938,-0.006293190673400482,-0.02659101725069427,0,70,255.0,255.0,255.0
258,12.9,8.107761160204674,-2.220181015575134,-2.7002427449026176,0.09016133588037162,-0.10701209313473095,-0.4002792923112556,0.004966173403656921,-0.004650289636516113,-0.026155510851086645,0,70,255.0,255.0,255.0
259,12.950000000000001,8.11227516913298,-2.2255367485518174,-2.720289222445745,0.09039370960257566,-0.10720353509063466,-0.40157618019381974,0.004328775484504441,-0.003007388599631687,-0.025720004451479008,0,70,255.0,255.0,255.0
260,13.0,8.1168,-2.2309,-2.7404,0.09059421342882207,-0.10731283199469413,-0.4028512927564035,0.003691377565351761,-0.0013644875627476516,-0.02528449805187183,0,70,255.0,255.0,255.0
261,13.05,8.12133461362215,-2.2362683804233083,-2.7605741465503595,0.09079610603215081,-0.10744304922002686,-0.4041140950574505,0.004384326567797735,-0.003844201450561337,-0.02522759399000609,0,70,255.0,255.0,255.0
262,13.100000000000001,8.125880188060718,-2.241646371350243,-2.7808113620856942,0.09103264608560185,-0.10769725213975026,-0.4053740521554042,0.005077275570243709,-0.006323915338375023,-0.025170689928140352,0,70,255.0,255.0,255.0
263,13.15,8.130438455688209,-2.247040172065523,-2.8011115043458483,0.09130383358917518,-0.10807544075386435,-0.4066311640502645,0.005770224572689658,-0.00880362922618862,-0.025113785866274618,0,70,255.0,255.0,255.0
264,13.200000000000001,8.135011148877137,-2.2524559818538687,-2.821474431070669,0.09160966854287082,-0.10857761506236914,-0.4078854307420316,0.006463173575135631,-0.011283343114002305,-0.02505688180440888,0,70,255.0,255.0,255.0
265,13.25,8.1396,-2.2579,-2.8419,0.09195015094668872,-0.10920377506526457,-0.40913685223070534,0.007156122577581248,-0.013763057001816126,-0.024999977742541812,0,70,255.0,255.0,255.0
266,13.3,8.144206363368019,-2.2633763442601347,-2.862388368884816,0.0923025971233019,-0.10982902905249643,-0.4104034291840097,0.006941724486945786,-0.011247102487457781,-0.02566310038963052,0,70,255.0,255.0,255.0
267,13.350000000000001,8.148830081047254,-2.2688808062764876,-2.882940895520607,0.09264432339538331,-0.11032848531401036,-0.4117031622696684,0.006727326396310323,-0.008731147973099436,-0.026326223036719228,0,70,255.0,255.0,255.0
268,13.4,8.153470617042482,-2.2744070961627734,-2.903559237713989,0.09297532976293293,-0.11070214384980638,-0.4130360514876816,0.0065129283056748685,-0.0062151934587411795,-0.02698934568380791,0,70,255.0,255.0,255.0
269,13.450000000000001,8.158127435358473,-2.2799489240327064,-2.9242450532715814,0.0932956162259508,-0.11095000465988449,-0.4144020968380492,0.0062985302150394065,-0.0036992389443828346,-0.027652468330896622,0,70,255.0,255.0,255.0
270,13.5,8.1628,-2.2855,-2.945,0.09360518278443689,-0.11107206774424468,-0.4158012983207713,0.006084132124404507,-0.0011832844300244671,-0.02831559097798486,0,70,255.0,255.0,255.0
271,13.55,8.167487932905779,-2.291055842536154,-2.9658251779103755,0.09391350547465865,-0.1111768345699863,-0.4172001882065082,0.00624877548446601,-0.003007388599640319,-0.027640004451491854,0,70,255.0,255.0,255.0
272,13.600000000000001,8.172191487750267,-2.2966192035438064,-2.9867194558318793,0.09423006033288349,-0.11137280660420872,-0.4185652987659205,0.006413418844527512,-0.004831492769256171,-0.026964417924998842,0,70,255.0,255.0,255.0
273,13.65,8.176911076141867,-2.302194643283382,-3.007681144798195,0.0945548473591114,-0.11165998384691192,-0.4198966299990081,0.006578062204589009,-0.0066555969388719565,-0.02628883139850586,0,70,255.0,255.0,255.0
274,13.700000000000001,8.181647109688978,-2.3077867220153054,-3.0287085558430076,0.0948878665533424,-0.11203836629809591,-0.42119418190577107,0.006742705564650512,-0.008479701108487808,-0.02561324487201285,0,70,255.0,255.0,255.0
275,13.75,8.1864,-2.3134,-3.0498,0.09522911791557646,-0.11250795395776067,-0.4224579544862094,0.00690734892471212,-0.010303805278103928,-0.024937658345520752,0,70,255.0,255.0,255.0
276,13.8,8.191169905008872,-2.319037885595251,-3.070954119473684,0.09556338097807181,-0.11299963266756302,-0.4237078179899576,0.0064631735751011716,-0.009363343113989973,-0.02505688180440853,0,70,255.0,255.0,255.0
277,13.850000000000001,8.195955967951683,-2.3246991795482863,-3.0921708811518784,0.09587543527308659,-0.11344428826915967,-0.42496364266665027,0.006018998225490223,-0.008422880949876017,-0.025176105263296302,0,70,255.0,255.0,255.0
278,13.9,8.200757078390058,-2.3303815307036966,-3.113450583093231,0.09616528080062083,-0.11384192076255062,-0.42622542851628725,0.005574822875879289,-0.007482418785762095,-0.025295328722184075,0,70,255.0,255.0,255.0
279,13.950000000000001,8.20557212588562,-2.3360825879060716,-3.1347935233563895,0.09643291756067451,-0.11419253014773588,-0.4274931755388686,0.005130647526268341,-0.006541956621648139,-0.025414552181071852,0,70,255.0,255.0,255.0
280,14.0,8.2104,-2.3418,-3.1562,0.09667834555324765,-0.11449611642471544,-0.4287668837343944,0.004686472176657186,-0.005601494457534439,-0.02553377563995962,0,70,255.0,255.0,255.0
281,14.05,8.215239647058734,-2.347531815082844,-3.1776703441948912,0.09690497061304104,-0.11477663475976325,-0.43004853983366575,0.004378530215078165,-0.005619238944378458,-0.025732468330892468,0,70,255.0,255.0,255.0
282,14.100000000000001,8.220090240443003,-2.3532776782630487,-3.19920501956061,0.09711619857475548,-0.1150580403191533,-0.4313401305674837,0.0040705882534991435,-0.005636983431222476,-0.025931161021825317,0,70,255.0,255.0,255.0
283,14.15,8.224951010297909,-2.3590376339018317,-3.2208045228288817,0.09731202943839096,-0.11534033310288551,-0.4326416559358483,0.003762646291920133,-0.0056547279180664935,-0.026129853712758156,0,70,255.0,255.0,255.0
284,14.200000000000001,8.22982118676854,-2.36481172636041,-3.242469350731437,0.09749246320394749,-0.11562351311095993,-0.4339531159387595,0.003454704330341112,-0.005672472404910512,-0.026328546403691006,0,70,255.0,255.0,255.0
285,14.25,8.2347,-2.3706,-3.2642,0.09765749987142507,-0.11590758034337656,-0.4352745105762173,0.0031467623687618795,-0.005690216891754307,-0.026527239094620736,0,70,255.0,255.0,255.0
286,14.3,8.239587506756196,-2.376402854073374,-3.285996503746754,0.0978567365697605,-0.11621382829338273,-0.4365780226753829,0.004822705564655074,-0.00655970110849219,-0.025613244872003702,0,70,255.0,255.0,255.0
287,14.350000000000001,8.244487070276307,-2.382222107399519,-3.307857040605687,0.09813977042789059,-0.11656355045422578,-0.43783583506341767,0.006498648760548268,-0.0074291853252300725,-0.02469925064938667,0,70,255.0,255.0,255.0
288,14.4,8.249402880418316,-2.3880599336889774,-3.329779325591243,0.09850660144581531,-0.11695674682590573,-0.4390479477403216,0.008174591956441404,-0.008298669541967924,-0.023785256426769666,0,70,255.0,255.0,255.0
289,14.450000000000001,8.254339127040216,-2.3939185066522906,-3.3517610737178667,0.09895722962353473,-0.11739341740842259,-0.44021436070609465,0.009850535152334597,-0.009168153758705807,-0.022871262204152636,0,70,255.0,255.0,255.0
290,14.5,8.2593,-2.3998,-3.3738,0.09949165496104877,-0.11787356220177629,-0.44133507396073685,0.011526478348227287,-0.010037637975443103,-0.021957267981534745,0,70,255.0,255.0,255.0
291,14.55,8.264287925916479,-2.405705568623661,-3.395894840818097,0.10000408310791094,-0.11833605206670368,-0.44247136946480214,0.008970647526259142,-0.008461956621652167,-0.02349455218107661,0,70,255.0,255.0,255.0
292,14.600000000000001,8.269298278451771,-2.4116322921388758,-3.4180484180166473,0.10038871971367469,-0.11871975786394152,-0.44368452917884454,0.006414816704290998,-0.0068862752678612305,-0.025031836380618476,0,70,255.0,255.0,255.0
293,14.65,8.274324668028827,-2.41757623134226,-3.440264574806148,0.10064556477834002,-0.1190246795934898,-0.444974553102864,0.0038589858823229444,-0.0053105939140703495,-0.02656912058016029,0,70,255.0,255.0,255.0
294,14.700000000000001,8.279360705070587,-2.42353344703043,-3.4625471543971,0.100774618301907,-0.11925081725534854,-0.4463414412368606,0.0013031550603547996,-0.003734912560279413,-0.028106404779702155,0,70,255.0,255.0,255.0
295,14.75,8.2844,-2.4295,-3.4849,0.10077588028437551,-0.11939817084951775,-0.4477851935808342,-0.0012526757616133644,-0.0021592312064889763,-0.029643688979244853,0,70,255.0,255.0,255.0
296,14.8,8.289438389577889,-2.4354732714319836,-3.50732573298086,0.10078293099859383,-0.11954596343980264,-0.44923249946540766,0.001534704330345655,-0.0037524724049066817,-0.028248546403694057,0,70,255.0,255.0,255.0
297,14.850000000000001,8.294480615916603,-2.441455924044979,-3.5298220873277284,0.10092935071741008,-0.11977341809000842,-0.4506100482212036,0.004322084422304674,-0.005345713603324387,-0.026853403828143257,0,70,255.0,255.0,255.0
298,14.9,8.299533647466372,-2.447451940941983,-3.552385575184167,0.10121513944082428,-0.12008053480013507,-0.45191783984822204,0.007109464514263595,-0.006938954801742037,-0.02545826125259251,0,70,255.0,255.0,255.0
299,14.950000000000001,8.304604452677427,-2.4534653052259916,-3.5750127086937376,0.10164029716883644,-0.12046731357018263,-0.4531558743464629,0.009896844606222614,-0.008532196000159743,-0.02406311867704171,0,70,255.0,255.0,255.0
300,15.0,8.3097,-2.4595,-3.5977,0.10220482390144651,-0.12093375440015106,-0.4543241517159261,0.012684224698180757,-0.010125437198577059,-0.02266797610148874,0,70,255.0,255.0,255.0
301,15.05,8.314824915771968,-2.465558945648406,-3.620444627258466,0.10276819289770939,-0.12141609417408333,-0.4554626326735671,0.009850535152334122,-0.009168153758713724,-0.0228712622041515,0,70,255.0,255.0,255.0
302,15.100000000000001,8.319974457881814,-2.4716408116812083,-3.643246432672443,0.10318987741667994,-0.12185056977602245,-0.4566112779363413,0.007016845606487484,-0.008210870318850389,-0.023074548306814262,0,70,255.0,255.0,255.0
303,15.15,8.32514154210568,-2.477743204889808,-3.666105924457186,0.10346987745835816,-0.12223718120596837,-0.4577700875042485,0.004183156060640949,-0.007253586878987088,-0.02327783440947702,0,70,255.0,255.0,255.0
304,15.200000000000001,8.330319084219697,-2.4838637320656054,-3.6890236108279533,0.10360819302274403,-0.12257592846392115,-0.458939061377289,0.001349466514794312,-0.0062963034391237535,-0.02348112051213978,0,70,255.0,255.0,255.0
305,15.25,8.3355,-2.49,-3.712,0.10360482410983758,-0.12286681154988073,-0.4601181995554625,-0.001484223031052223,-0.0053390199992601195,-0.023684406614801645,0,70,255.0,255.0,255.0
306,15.3,8.34067954733424,-2.4961501459743936,-3.7350357579852775,0.10360029741057016,-0.12314165986386912,-0.46131696984032494,0.0013031550603549388,-0.005654912560275154,-0.02426640477969447,0,70,255.0,255.0,255.0
307,15.350000000000001,8.345862352556134,-2.5023144292301884,-3.758132181982504,0.10373513961587306,-0.12343230280590825,-0.462544840033432,0.004090533151762101,-0.005970805121290188,-0.024848402944587296,0,70,255.0,255.0,255.0
308,15.4,8.351055384110904,-2.508493639498785,-3.7812907269870917,0.10400935072574635,-0.12373874037599814,-0.4638018101347836,0.006877911243169164,-0.006286697682305211,-0.025430401109480097,0,70,255.0,255.0,255.0
309,15.450000000000001,8.356265610443783,-2.514688566511589,-3.804512847994453,0.10442293074018999,-0.12406097257413877,-0.46508788014438,0.009665289334576325,-0.006602590243320245,-0.026012399274372922,0,70,255.0,255.0,255.0
310,15.5,8.3615,-2.5209,-3.8278,0.10497587965920398,-0.12439899940033015,-0.46640305006222094,0.012452667425982944,-0.006918482804335491,-0.026594397439266615,0,70,255.0,255.0,255.0
311,15.55,8.366763294891067,-2.5271284704540204,-3.8511531408004265,0.10553461746000911,-0.12473726637044223,-0.46771748796512874,0.009896844606221963,-0.006612196000147215,-0.025983118677045162,0,70,255.0,255.0,255.0
312,15.600000000000001,8.372051331893651,-2.533373471398041,-3.874571239397545,0.10596556411982619,-0.12506021900034486,-0.4690013619299255,0.007341021786460982,-0.0063059091959589385,-0.025371839914823707,0,70,255.0,255.0,255.0
313,15.65,8.377357721450702,-2.539634237115051,-3.89805276759445,0.10626871963865521,-0.12536785729003813,-0.47025467195661114,0.004785198966700092,-0.005999622391770674,-0.024760561152602275,0,70,255.0,255.0,255.0
314,15.700000000000001,8.382676074005166,-2.5459100018880414,-3.921596197194237,0.1064440840164962,-0.12566018123952194,-0.4714774180451857,0.002229376146939112,-0.0056933355875823976,-0.02414928239038082,0,70,255.0,255.0,255.0
315,15.75,8.388,-2.5522,-3.9452,0.10649165725334914,-0.12593719084879637,-0.4726696001956492,-0.0003264466728212234,-0.005387048783393356,-0.023538003628159387,0,70,255.0,255.0,255.0
316,15.8,8.39332487310149,-2.5585039722095253,-3.96886287881302,0.10651723274939848,-0.1262292746543595,-0.4738450782991569,0.001349466514794641,-0.006296303439131692,-0.023481120512147766,0,70,255.0,255.0,255.0
317,15.850000000000001,8.398653119869262,-2.5648236851776494,-3.9925844604273197,0.10662660390482862,-0.12656682119270954,-0.475017712246864,0.0030253797024105055,-0.0072055580948700276,-0.02342423739613615,0,70,255.0,255.0,255.0
318,15.9,8.403988930086294,-2.57116141204101,-4.016364602635108,0.10681977071963951,-0.12694983046384647,-0.4761875020387705,0.004701292890026311,-0.008114812750608331,-0.02336735428012453,0,70,255.0,255.0,255.0
319,15.950000000000001,8.40933649353555,-2.577519425936247,-4.0402031632285995,0.10709673319383123,-0.12737830246777038,-0.47735444767487645,0.006377206077642175,-0.009024067406346667,-0.02331047116411291,0,70,255.0,255.0,255.0
320,16.0,8.4147,-2.5839,-4.0641,0.10745749132740372,-0.12785223720448113,-0.4785185491551818,0.008053119265257647,-0.009933322062084748,-0.023253588048098184,0,70,255.0,255.0,255.0
321,16.05,8.420082812702981,-2.5903044407078775,-4.088055343947497,0.10785245154239967,-0.12831363501211637,-0.4797021988382435,0.007745289334580381,-0.008522590243324558,-0.024092399274367716,0,70,255.0,255.0,255.0
322,16.1,8.425484988629297,-2.596730187891363,-4.11207091889318,0.10823202026086176,-0.12870449622881358,-0.48092778908261863,0.007437459403903115,-0.00711185842456437,-0.02493121050063725,0,70,255.0,255.0,255.0
323,16.150000000000002,8.430905758204124,-2.60317371472091,-4.136148821865115,0.10859619748279,-0.1290248208545728,-0.48219531988830727,0.007129629473225849,-0.005701126605804181,-0.025770021726906782,0,70,255.0,255.0,255.0
324,16.2,8.436344351852634,-2.6096314943669707,-4.160291149891365,0.10894498320818434,-0.12927460888939402,-0.48350479125530926,0.006821799542548606,-0.004290394787044092,-0.026608832953176252,0,70,255.0,255.0,255.0
325,16.25,8.4418,-2.6161,-4.1845,0.10927837743704485,-0.12945386033327722,-0.4848562031836248,0.006513969611871229,-0.0028796629682839026,-0.02744764417944312,0,70,255.0,255.0,255.0
326,16.3,8.44727187608659,-2.6225766649589657,-4.208776545396994,0.1095929610810149,-0.12962018529717398,-0.48619412634787035,0.006069376146930454,-0.003773335587586692,-0.026069282390375894,0,70,255.0,255.0,255.0
327,16.35,8.452758925613548,-2.6290627632568997,-4.233118263999963,0.1098853150517379,-0.1298311938920359,-0.48746313142266245,0.00562478268198968,-0.0046670082068894815,-0.024690920601308668,0,70,255.0,255.0,255.0
328,16.400000000000002,8.45826003709721,-2.635560529075352,-4.257521709904437,0.11015543934921387,-0.13008688611786293,-0.48866321840800125,0.005180189217048906,-0.005560680826192271,-0.023312558812241445,0,70,255.0,255.0,255.0
329,16.45,8.463774099053916,-2.642072196595869,-4.281983437205938,0.11040333397344279,-0.1303872619746551,-0.4897943873038865,0.0047355957521081635,-0.006454353445494996,-0.021934197023174316,0,70,255.0,255.0,255.0
330,16.5,8.4693,-2.6486,-4.3065,0.11062899892442468,-0.13073232146241245,-0.4908566381103186,0.004291002287167167,-0.007348026064798008,-0.0205558352341062,0,70,255.0,255.0,255.0
331,16.55,8.47483688295066,-2.655145699456261,-4.331068874464529,0.11084770413354417,-0.13109362379919096,-0.49190529577027414,0.004457206077612244,-0.007104067406342326,-0.0213904711641166,0,70,255.0,255.0,255.0
332,16.6,8.480384908916513,-2.661709159081037,-4.35569122510697,0.11107471953218592,-0.1314427282030467,-0.4929956852267303,0.00462340986805732,-0.006860108747886643,-0.022225107094126995,0,70,255.0,255.0,255.0
333,16.650000000000002,8.485944493407038,-2.6682897689776834,-4.380369138517144,0.11131004512034991,-0.13177963467397963,-0.4941278064796869,0.0047896136585023966,-0.006616150089430962,-0.023059743024137394,0,70,255.0,255.0,255.0
334,16.7,8.491516051931708,-2.674886919249553,-4.405104701284879,0.11155368089803613,-0.1321043432119898,-0.495301659529144,0.004955817448947461,-0.006372191430975297,-0.02389437895414773,0,70,255.0,255.0,255.0
335,16.75,8.4971,-2.6815,-4.4299,0.11180562686524463,-0.13241685381707716,-0.49651724437510164,0.005122021239392427,-0.006128232772519171,-0.02472901488415813,0,70,255.0,255.0,255.0
336,16.8,8.502696592110773,-2.6881285372159924,-4.45475675674489,0.11205622238479412,-0.13272531950606592,-0.4977526905710351,0.004901799542587268,-0.0062103947870308495,-0.024688832953179852,0,70,255.0,255.0,255.0
337,16.85,8.508305438720399,-2.6947726004189527,-4.479675235572162,0.11229580681950337,-0.13303789329578025,-0.49898612767041967,0.0046815778457821085,-0.006292556801542528,-0.02464865102220157,0,70,255.0,255.0,255.0
338,16.900000000000002,8.513925989274641,-2.7014323950139163,-4.50465533602699,0.11252438016937234,-0.13335457518622018,-0.5002175556732553,0.0044613561489769485,-0.0063747188160542066,-0.024608469091223294,0,70,255.0,255.0,255.0
339,16.95,8.519557693219255,-2.7081081264059197,-4.529696957654544,0.11274194243440105,-0.13367536517738565,-0.5014469745795419,0.004241134452171805,-0.00645688083056588,-0.024568287160245016,0,70,255.0,255.0,255.0
340,17.0,8.5252,-2.7148,-4.5548,0.11294849361458952,-0.13400026326927675,-0.5026743843892798,0.004020912755366202,-0.006539042845077558,-0.02452810522926896,0,70,255.0,255.0,255.0
341,17.05,8.530852748606256,-2.72150815167977,-4.579964098555916,0.11316740632727637,-0.1343250981765413,-0.5038839419455904,0.004735595752107923,-0.006454353445503845,-0.023854197023153025,0,70,255.0,255.0,255.0
342,17.1,8.536517336201891,-2.7282324392431545,-4.605187832604388,0.11342205318980032,-0.13464569861382714,-0.5050598040915951,0.005450278748849645,-0.006369664045930132,-0.02318028881703709,0,70,255.0,255.0,255.0
343,17.150000000000002,8.5421955494944,-2.7349726509666534,-4.6304695173749035,0.11371243420216134,-0.13496206458113433,-0.506201970827294,0.006164961745591366,-0.006284974646356419,-0.022506380610921153,0,70,255.0,255.0,255.0
344,17.2,8.547889175191271,-2.741728575126768,-4.655807468096945,0.11403854936435943,-0.13527419607846275,-0.5073104421526873,0.006879644742333036,-0.006200285246782712,-0.021832472404805268,0,70,255.0,255.0,255.0
345,17.25,8.5536,-2.7485,-4.6812,0.11440039867639465,-0.1355820931058126,-0.5083852180677746,0.007594327739074647,-0.006115595847209221,-0.021158564198689334,0,70,255.0,255.0,255.0
346,17.3,8.559329213464206,-2.7552868560649264,-4.706646049031451,0.11476215230609509,-0.1358942877877674,-0.509463541646596,0.006875817448942846,-0.006372191430983601,-0.02197437895416884,0,70,255.0,255.0,255.0
347,17.35,8.565075616472035,-2.76208964260843,-4.732147034010289,0.11508798042128894,-0.13621931224891096,-0.5105826559631915,0.006157307158811045,-0.006628787014757983,-0.022790193709648344,0,70,255.0,255.0,255.0
348,17.400000000000002,8.57083741274776,-2.7689090011194706,-4.757704994473401,0.11537788302197621,-0.1365571664892432,-0.5117425610175609,0.005438796868679244,-0.006885382598532363,-0.02360600846512785,0,70,255.0,255.0,255.0
349,17.45,8.576612806015657,-2.7757455730870073,-4.783321969957675,0.11563186010815686,-0.1369078505087642,-0.5129432568097043,0.0047202865785474935,-0.0071419781823067255,-0.0244218232206073,0,70,255.0,255.0,255.0
350,17.5,8.5824,-2.7826,-4.809,0.11584991167983094,-0.1372713643074739,-0.5141847433396216,0.0040017762884150265,-0.007398573766081551,-0.025237637976086802,0,70,255.0,255.0,255.0
351,17.55,8.58819759753692,-2.789472424060525,-4.834740505318278,0.1160559844483456,-0.13761775067238985,-0.51542989146803,0.004241134452171383,-0.006456880830557474,-0.02456828716024616,0,70,255.0,255.0,255.0
352,17.6,8.59400579790997,-2.796360990323126,-4.860542431354458,0.11627402512504809,-0.13791705239052965,-0.5166415720556463,0.00448049261592774,-0.005515187895033398,-0.02389893634440552,0,70,255.0,255.0,255.0
353,17.650000000000002,8.599825199514562,-2.803263344555465,-4.886404104731497,0.11650403370993838,-0.1381692694618932,-0.5178197851024705,0.004719850779684097,-0.004573494959509321,-0.023229585528564883,0,70,255.0,255.0,255.0
354,17.7,8.605656400746101,-2.8101771325252023,-4.9123238520723564,0.11674601020301649,-0.1383744018864806,-0.5189645306085027,0.004959208943440437,-0.003631802023985311,-0.02256023471272429,0,70,255.0,255.0,255.0
355,17.75,8.6115,-2.8171,-4.9383,0.11699995460428243,-0.13853244966429173,-0.5200758085737428,0.005198567107196683,-0.0026901090884607903,-0.021890883896880986,0,70,255.0,255.0,255.0
356,17.8,8.617356396388113,-2.8240306476929744,-4.964331129695436,0.11725390990052079,-0.13870670952267292,-0.5211688924812846,0.004959644742337562,-0.004280285246787164,-0.02183247240478767,0,70,255.0,255.0,255.0
357,17.85,8.62322519188808,-2.8309719960990662,-4.990416840571886,0.1174959190785162,-0.13896047818897048,-0.5222590558142216,0.004720722377478441,-0.005870461405113537,-0.02177406091269436,0,70,255.0,255.0,255.0
358,17.900000000000002,8.629105789193995,-2.8379280206586706,-5.016556986600616,0.11772598213826864,-0.1392937556631843,-0.523346298572554,0.00448180001261932,-0.00746063756343991,-0.021715649420601044,0,70,255.0,255.0,255.0
359,17.95,8.634997590999937,-2.844902696812183,-5.042751421752896,0.11794409907977813,-0.13970654194531443,-0.5244306207562817,0.004242877647760216,-0.00905081372176617,-0.021657237928507735,0,70,255.0,255.0,255.0
360,18.0,8.6409,-2.8519,-5.069,0.11815026990304464,-0.14019883703536087,-0.5255120223654046,0.004003955282900984,-0.010640989880092766,-0.021598826436411755,0,70,255.0,255.0,255.0
361,18.05,8.64681281691063,-2.8589225851675777,-5.095302975899976,0.11836837594958086,-0.14069141123692078,-0.5266145386068307,0.0047202865785472715,-0.009061978182302722,-0.02250182322062885,0,70,255.0,255.0,255.0
362,18.1,8.652737434537705,-2.865967825280611,-5.121662206358004,0.11862229856089937,-0.14110503485359116,-0.5277622046874675,0.005436617874193559,-0.007482966484512675,-0.023404820004845943,0,70,255.0,255.0,255.0
363,18.150000000000002,8.658675643709465,-2.8730317728098553,-5.148079948866044,0.11891203773700021,-0.14143970788537205,-0.5289550206073154,0.006152949169839847,-0.005903954786722631,-0.024307816789063037,0,70,255.0,255.0,255.0
364,18.2,8.66462923525415,-2.880110480226066,-5.174558460916054,0.11923759347788335,-0.14169543033226342,-0.5301929863663737,0.006869280465486084,-0.004324943088932698,-0.025210813573280064,0,70,255.0,255.0,255.0
365,18.25,8.6706,-2.8872,-5.2011,0.11959896578354881,-0.14187220219426527,-0.5314761019646432,0.007585611761131927,-0.002745931391143319,-0.026113810357498934,0,70,255.0,255.0,255.0
366,18.3,8.676589135969373,-2.8942974116367157,-5.227705766704661,0.11996058630116216,-0.14203164552964348,-0.5327409530913984,0.0068792089434017165,-0.003631802023985488,-0.024480234712702373,0,70,255.0,255.0,255.0
367,18.35,8.682595469961102,-2.901403902778492,-5.254372733996103,0.12028688667788899,-0.14223538239666383,-0.5339241254359136,0.006172806125671506,-0.004517672656827657,-0.022846659067905815,0,70,255.0,255.0,255.0
368,18.400000000000002,8.688617235968147,-2.9085216881019096,-5.281096817935215,0.12057786691372932,-0.14248341279532628,-0.5350256189981889,0.005466403307941296,-0.005403543289669825,-0.021213083423109257,0,70,255.0,255.0,255.0
369,18.45,8.69465266798346,-2.9156529822835515,-5.307873934582884,0.12083352700868312,-0.1427757367256308,-0.5360454337782243,0.004760000490211135,-0.006289413922511931,-0.019579507778312813,0,70,255.0,255.0,255.0
370,18.5,8.7007,-2.9228,-5.3347,0.1210538669627504,-0.14311235418757748,-0.5369835697760202,0.004053597672481035,-0.007175284555353878,-0.017945932133518916,0,70,255.0,255.0,255.0
371,18.55,8.706757839211885,-2.929964568285559,-5.361572357281383,0.1212612788457573,-0.1434700066445056,-0.537925649027571,0.00424287764779441,-0.007130813721770267,-0.01973723792851081,0,70,255.0,255.0,255.0
372,18.6,8.712826285617888,-2.937146963605423,-5.388494057657587,0.12147815472752985,-0.14382543555975452,-0.5389572935688713,0.004432157623107785,-0.007086342888186658,-0.02152854372350271,0,70,255.0,255.0,255.0
373,18.650000000000002,8.71890581241795,-2.944347074782507,-5.4154695793931,0.12170449460806808,-0.14417864093332425,-0.5400785033999214,0.00462143759842116,-0.007041872054603047,-0.023319849518494605,0,70,255.0,255.0,255.0
374,18.7,8.724996892812007,-2.9515647906397273,-5.442503400752408,0.12194029848737195,-0.1445296227652148,-0.5412892785207208,0.004810717573734522,-0.00699740122101944,-0.025111155313486375,0,70,255.0,255.0,255.0
375,18.75,8.7311,-2.9588,-5.4696,0.12218556636544153,-0.14487838105542622,-0.54258961893127,0.00499999754904823,-0.006952930387435163,-0.02690246110847916,0,70,255.0,255.0,255.0
376,18.8,8.73721550718309,-2.9660523152210483,-5.49676240416981,0.122434298315805,-0.14520832789233531,-0.5438924507983145,0.004949280465490435,-0.0062449430889279685,-0.025210813573297106,0,70,255.0,255.0,255.0
377,18.85,8.743343387567345,-2.973320242799818,-5.5239878353735525,0.12268049441199058,-0.14550287536431902,-0.5451107002885998,0.00489856338193264,-0.0055369557904207745,-0.023519166038115054,0,70,255.0,255.0,255.0
378,18.900000000000002,8.749483514360053,-2.980602012768065,-5.551272064492391,0.12292415465399828,-0.1457620234713774,-0.5462443674021259,0.004847846298374845,-0.00482896849191358,-0.021827518502933,0,70,255.0,255.0,255.0
379,18.95,8.755635760768508,-2.9878958551575407,-5.578610862407484,0.12316527904182806,-0.14598577221351036,-0.547293452138893,0.004797129214817054,-0.004120981193406436,-0.02013587096775107,0,70,255.0,255.0,255.0
380,19.0,8.7618,-2.9952,-5.606,0.12340386757547997,-0.146174121590718,-0.5482579544989009,0.004746412131259481,-0.003412993894898575,-0.018444223432566353,0,70,255.0,255.0,255.0
381,19.05,8.767976132055752,-3.0025133708302496,-5.63343642603938,0.12364152789101673,-0.14636868178615314,-0.5492085477791726,0.004760000490211125,-0.00436941392250795,-0.01957950777829664,0,70,255.0,255.0,255.0
382,19.1,8.774164164112733,-3.009837665195305,-5.6609218008482065,0.1238798676245011,-0.1466110629829688,-0.5502159052767306,0.004773588849162769,-0.005325833950117325,-0.020714792124026923,0,70,255.0,255.0,255.0
383,19.150000000000002,8.780364130141836,-3.0171752741452362,-5.688458962637342,0.12411888677593302,-0.1469012651811649,-0.5512800269915753,0.004787177208114413,-0.0062822539777267,-0.021850076469757212,0,70,255.0,255.0,255.0
384,19.200000000000003,8.786576064113959,-3.024528588730112,-5.7160507496176525,0.12435858534531254,-0.14723928838074146,-0.5524009129237063,0.0048007655670660575,-0.007238674005336076,-0.022985360815487497,0,70,255.0,255.0,255.0
385,19.25,8.7928,-3.0319,-5.7437,0.12459896333263963,-0.1476251325816985,-0.5535785630731239,0.0048143539260184776,-0.008195094032944938,-0.024120645161215926,0,70,255.0,255.0,255.0
386,19.3,8.799035964593893,-3.0392910014579546,-5.771408691672671,0.12483959012013346,-0.1480049449630478,-0.5547613580849916,0.004810717573734924,-0.006997401221027771,-0.02319115531349157,0,70,255.0,255.0,255.0
387,19.35,8.80528395598172,-3.0466994964189618,-5.799175361233626,0.12508003509001314,-0.14832487270380126,-0.5558976786044731,0.00480708122145137,-0.005799708409110604,-0.022261665465767216,0,70,255.0,255.0,255.0
388,19.400000000000002,8.8115439650726,-3.0541224906509914,-5.826997684958246,0.1253202982422786,-0.14858491580395888,-0.5569875246315684,0.004803444869167816,-0.004602015597193436,-0.021332175618042865,0,70,255.0,255.0,255.0
389,19.450000000000003,8.817815982775654,-3.0615569899220145,-5.854873339121911,0.12556037957692992,-0.1487850742635206,-0.5580308961662774,0.004799808516884263,-0.003404322785276269,-0.02040268577031851,0,70,255.0,255.0,255.0
390,19.5,8.8241,-3.069,-5.8828,0.12580027909396704,-0.1489253480824865,-0.5590277932086003,0.00479617216460082,-0.0022066299733591865,-0.019473195922596886,0,70,255.0,255.0,255.0
391,19.55,8.830396009568675,-3.076449823337933,-5.910776007269935,0.1260401116284525,-0.14908353836165564,-0.5600180198808594,0.004797129214816964,-0.004120981193406142,-0.020135870967767398,0,70,255.0,255.0,255.0
392,19.6,8.836704011960387,-3.083909949128849,-5.938802354217291,0.12627999201544873,-0.14933744620182712,-0.5610413803053771,0.004798086265033108,-0.006035332413453097,-0.02079854601293791,0,70,255.0,255.0,255.0
393,19.650000000000002,8.843024009567761,-3.091385163250799,-5.966880697529678,0.12651992025495581,-0.14968707160300096,-0.5620978744821532,0.004799043315249251,-0.007949683633500054,-0.02146122105810842,0,70,255.0,255.0,255.0
394,19.700000000000003,8.849356004783425,-3.098880251581833,-5.9950126938947115,0.12675989634697368,-0.15013241456517715,-0.5631875024111879,0.004800000365465395,-0.009864034853547008,-0.02212389610327893,0,70,255.0,255.0,255.0
395,19.75,8.8557,-3.1064,-6.0232,0.12699992029150237,-0.15067347508835563,-0.5643102640924811,0.004800957415681761,-0.011778386073593827,-0.02278657114844762,0,70,255.0,255.0,255.0
396,19.8,8.86205599713141,-3.113947305190315,-6.051444079247588,0.12723996336607107,-0.15119690159032875,-0.565454562391579,0.004800765567066367,-0.009158674005331331,-0.02298536081546843,0,70,255.0,255.0,255.0
397,19.85,8.868423996176734,-3.1215175070656427,-6.0797456218972155,0.12747999684820902,-0.15158934248888878,-0.5666088001740279,0.004800573718450973,-0.006538961937068836,-0.023184150482489237,0,70,255.0,255.0,255.0
398,19.900000000000002,8.874803996656356,-3.1291040563458137,-6.108105124923048,0.1277200207379162,-0.15185079778403568,-0.5677729774398279,0.00480038186983558,-0.003919249868806339,-0.02338294014951004,0,70,255.0,255.0,255.0
399,19.950000000000003,8.881195998090654,-3.1367004037506567,-6.136523085299254,0.12796003503519257,-0.15198126747576943,-0.568947094188979,0.0048001900212201855,-0.0012995378005438447,-0.02358172981653085,0,70,255.0,255.0,255.0
400,20.0,8.8876,-3.1443,-6.165,0.12820003974003819,-0.15198075156409008,-0.5701311504214811,0.004799998172604347,0.0013201742677186878,-0.023780519483554308,0,70,255.0,255.0,255.0
401,20.05,8.894016001905696,-3.151898555900808,-6.1935356757397155,0.12844003490727454,-0.15198485527702912,-0.5712837305528279,0.004799808516850046,-0.0014843227852806293,-0.022322685770316555,0,70,255.0,255.0,255.0
402,20.1,8.900444003332682,-3.159500822608581,-6.222127158193856,0.12868002059172318,-0.15212918384261814,-0.5723634189985128,0.0047996188610957445,-0.0042888198382799465,-0.0208648520570788,0,70,255.0,255.0,255.0
403,20.150000000000002,8.906884003806823,-3.1671138113659483,-6.250770802778139,0.12891999679338412,-0.1524137372608571,-0.5733702157585358,0.0047994292053414435,-0.0070933168912792645,-0.019407018343841047,0,70,255.0,255.0,255.0
404,20.200000000000003,8.913336002853974,-3.1747445334155437,-6.279462964908283,0.12915996351225734,-0.1528385155317461,-0.5743041208328968,0.004799239549587142,-0.00989781394427858,-0.017949184630603292,0,70,255.0,255.0,255.0
405,20.25,8.9198,-3.1824,-6.3082,0.12939992074834283,-0.15340351865528495,-0.5751651342215961,0.004799049893833285,-0.012702310997276367,-0.016491350917365644,0,70,255.0,255.0,255.0
406,20.3,8.926275995245815,-3.1900848712064507,-6.3369796177935545,0.1296398970048253,-0.15396767730155556,-0.5760345153971125,0.004800000365465884,-0.00986403485354637,-0.018283896103286627,0,70,255.0,255.0,255.0
407,20.35,8.932763990492543,-3.197794402500036,-6.365804945327367,0.1298799207848894,-0.1543899221406396,-0.5769935238319248,0.004800950837098483,-0.007025758709816373,-0.02007644128920761,0,70,255.0,255.0,255.0
408,20.400000000000002,8.939263988116364,-3.2055214981903957,-6.394680463964403,0.13011999208853517,-0.1546702531725372,-0.5780421595260332,0.004801901308731082,-0.004187482566086377,-0.021868986475128593,0,70,255.0,255.0,255.0
409,20.450000000000003,8.945775990493456,-3.21325906258717,-6.423610655067626,0.13036011091576252,-0.15480867039724824,-0.5791804224794377,0.004802851780363682,-0.0013492064223563794,-0.023661531661049576,0,70,255.0,255.0,255.0
410,20.5,8.9523,-3.221,-6.4526,0.13060027726657156,-0.1548051738147728,-0.5804083126921381,0.004803802251996503,0.0014890697213749693,-0.02545407684697043,0,70,255.0,255.0,255.0
411,20.55,8.958836017111047,-3.228739559273388,-6.48165145308607,0.13084037707340282,-0.15480043551675182,-0.5816342078587253,0.0048001900212539805,-0.0012995378005353285,-0.023581729816515358,0,70,255.0,255.0,255.0
412,20.6,8.965384034697149,-3.236482367391277,-6.5107618604966815,0.13108029626869697,-0.15493512759482633,-0.5827664856737897,0.004796577790511458,-0.004088145322445626,-0.021709382786060286,0,70,255.0,255.0,255.0
413,20.650000000000002,8.971944043727724,-3.2442353958724723,-6.539926541364258,0.13132003485245397,-0.15520925004899636,-0.5838051461373313,0.004792965559768936,-0.006876752844355924,-0.019837035755605213,0,70,255.0,255.0,255.0
414,20.700000000000003,8.978516035172202,-3.252005616235779,-6.569140814821223,0.13155959282467386,-0.15562280287926192,-0.5847501892493502,0.004789353329026413,-0.009665360366266222,-0.01796468872515014,0,70,255.0,255.0,255.0
415,20.75,8.9851,-3.2598,-6.5984,0.1317989701853566,-0.15617578608562294,-0.5856016150098464,0.004785741098283891,-0.012453967888174322,-0.01609234169469609,0,70,255.0,255.0,255.0
416,20.8,8.991695936309993,-3.2676232916999983,-6.627700969862167,0.13203859470155424,-0.15673458063143447,-0.5864526531679793,0.004799239549621382,-0.009897813944286024,-0.017949184630620278,0,70,255.0,255.0,255.0
417,20.85,8.998303870718864,-3.275471327934857,-6.657046812685913,0.13227889414031876,-0.15716556748005153,-0.5873965334729085,0.004812738000958872,-0.007341660000397726,-0.019806027566544468,0,70,255.0,255.0,255.0
418,20.900000000000002,9.004923836972736,-3.283337718319717,-6.686442170578573,0.13251986850165012,-0.15746874663147423,-0.5884332559246338,0.004826236452296362,-0.0047855060565094275,-0.021662870502468658,0,70,255.0,255.0,255.0
419,20.950000000000003,9.011555868817739,-3.291216072469718,-6.715891685647489,0.1327615177855484,-0.1576441180857025,-0.5895628205231553,0.004839734903633853,-0.00222935211262113,-0.023519713438392847,0,70,255.0,255.0,255.0
420,21.0,9.0182,-3.2991,-6.7454,0.13300384199201354,-0.15769168184273633,-0.5907852272684732,0.0048532333549715645,0.0003268018312676535,-0.025376556374316017,0,70,255.0,255.0,255.0
421,21.05,9.024856237648972,-3.3069848739266208,-6.774970267465261,0.13324524412039607,-0.15771724195751355,-0.5920111794693573,0.0048028517803297525,-0.0013492064223560767,-0.023661531661048382,0,70,255.0,255.0,255.0
422,21.1,9.031524482427395,-3.3148731208692963,-6.804599688759676,0.1334841271700465,-0.15782660248497193,-0.593151380434578,0.004752470205687941,-0.003025214675979807,-0.021946506947780747,0,70,255.0,255.0,255.0
423,21.150000000000002,9.038204608381331,-3.3227689308486625,-6.834283976321459,0.13372049114096488,-0.15801976342511154,-0.5942058301641353,0.004702088631046129,-0.004701222929603537,-0.020231482234513112,0,70,255.0,255.0,255.0
424,21.200000000000003,9.044896489556844,-3.3306764938853526,-6.864018842588829,0.13395433603315116,-0.15829672477793227,-0.5951745286580293,0.004651707056404317,-0.006377231183227267,-0.01851645752124548,0,70,255.0,255.0,255.0
425,21.25,9.0516,-3.3386,-6.8938,0.1341856618466053,-0.15865748654343426,-0.5960574759162599,0.004601325481762508,-0.0080532394368511,-0.01680143280797619,0,70,255.0,255.0,255.0
426,21.3,9.05831511309412,-3.3465428125935217,-6.923624360276789,0.1344204288168742,-0.15905245153851186,-0.596926628954588,0.004789353328992265,-0.0077453603662526365,-0.01796468872515062,0,70,255.0,255.0,255.0
427,21.35,9.065042199571561,-3.354504988587959,-6.953493632275391,0.13466459717950452,-0.15943202258005953,-0.5978539447887751,0.004977381176222023,-0.007437481295654171,-0.019127944642325045,0,70,255.0,255.0,255.0
428,21.400000000000002,9.071781729501941,-3.362485758285636,-6.983410724135598,0.1349181669344964,-0.1597961996680773,-0.5988394234188207,0.005165409023451781,-0.007129602225055707,-0.020291200559499473,0,70,255.0,255.0,255.0
429,21.450000000000003,9.078534172954884,-3.3704843519888747,-7.013378543997203,0.13518113808184973,-0.16014498280256512,-0.599883064844725,0.005353436870681538,-0.006821723154457242,-0.0214544564766739,0,70,255.0,255.0,255.0
430,21.5,9.0853,-3.3785,-7.0434,0.13545351062156455,-0.160478371983523,-0.6009848690664881,0.005541464717910616,-0.0065138440838579115,-0.022617712393849132,0,70,255.0,255.0,255.0
431,21.55,9.092079309974553,-3.3865318756992933,-7.073477091427587,0.135713040612104,-0.16079295188843537,-0.6020903047122942,0.004839734903667771,-0.006069352112637099,-0.021599713438397557,0,70,255.0,255.0,255.0
432,21.6,9.098870719286365,-3.3945789247788674,-7.1036081821387675,0.13593748411193132,-0.16108530719478673,-0.6031448404103279,0.004138005089424926,-0.005624860141416286,-0.020581714482945983,0,70,255.0,255.0,255.0
433,21.650000000000002,9.105672473610902,-3.402640036008796,-7.133790727136157,0.1361268411210465,-0.161355437902577,-0.6041484761605889,0.00343627527518208,-0.0051803681701954735,-0.019563715527494408,0,70,255.0,255.0,255.0
434,21.700000000000003,9.112482818623626,-3.4107140981591497,-7.164022181422364,0.13628111163944956,-0.16160334401180626,-0.6051012119630773,0.0027345454609392352,-0.004735876198974661,-0.018545716572042834,0,70,255.0,255.0,255.0
435,21.75,9.1193,-3.4188,-7.1943,0.13640029566714043,-0.16182902552247444,-0.606003047817793,0.0020328156466955516,-0.0042913842277541026,-0.017527717616590444,0,70,255.0,255.0,255.0
436,21.8,9.126122847007672,-3.426896884609307,-7.224622474012871,0.13651940873471716,-0.1620477409077489,-0.6069041521962385,0.002731707056374476,-0.004457231183223744,-0.01851645752122783,0,70,255.0,255.0,255.0
437,21.85,9.132952523282981,-3.435004912296572,-7.254991239169545,0.13667346637277789,-0.16227474864079683,-0.6078546935699158,0.0034305984660534007,-0.004623078138693387,-0.019505197425865213,0,70,255.0,255.0,255.0
438,21.900000000000002,9.139790776054456,-3.4431244976791833,-7.285408767319783,0.1368624685813225,-0.16251004872161826,-0.608854671938825,0.004129489875732325,-0.004788925094163028,-0.020493937330502594,0,70,255.0,255.0,255.0
439,21.950000000000003,9.14663935255062,-3.4512560553745297,-7.31587753031335,0.13708641536035113,-0.16275364115021315,-0.6099040873029661,0.00482838128541125,-0.00495477204963267,-0.021482677235139983,0,70,255.0,255.0,255.0
440,22.0,9.1535,-3.4594,-7.3464,0.1373453067098636,-0.16300552592658152,-0.611002939662339,0.005527272695089902,-0.005120619005103411,-0.022471417139777294,0,70,255.0,255.0,255.0
441,22.05,9.160374101994769,-3.467556585863481,-7.3769778125209315,0.13761732444900876,-0.16325608448057044,-0.6121010865027503,0.00535343687071572,-0.004901723154453116,-0.021454456476674884,0,70,255.0,255.0,255.0
442,22.1,9.167261587581713,-3.4757254260348485,-7.407609261183056,0.1378806503969352,-0.16349569824202684,-0.6131483853100065,0.005179601046341537,-0.004682827303802822,-0.020437495813572473,0,70,255.0,255.0,255.0
443,22.150000000000002,9.174162022171274,-3.4839059732744753,-7.438291803584715,0.13813528455364293,-0.1637243672109507,-0.6141448360841076,0.005005765221967355,-0.004463931453152527,-0.019420535150470066,0,70,255.0,255.0,255.0
444,22.200000000000003,9.18107497117389,-3.492097680342735,-7.4690228973242485,0.13838122691913193,-0.16394209138734211,-0.6150904388250535,0.004831929397593172,-0.0042450356025022324,-0.018403574487367656,0,70,255.0,255.0,255.0
445,22.25,9.188,-3.5003,-7.4998,0.13861847749340225,-0.16414887077120097,-0.6159851935328442,0.004658093573219668,-0.004026139751851732,-0.01738661382426443,0,70,255.0,255.0,255.0
446,22.3,9.194936745013257,-3.5085127719367697,-7.530621475903401,0.13885129346925612,-0.16436792116997162,-0.6168835017927523,0.0046545454609346225,-0.004735876198974209,-0.01854571657205925,0,70,255.0,255.0,255.0
447,22.35,9.201885126390167,-3.5167373835640365,-7.561489316098232,0.1390839320394957,-0.1646224583910984,-0.6178397651900502,0.004650997348649577,-0.005445612646096685,-0.019704819319854072,0,70,255.0,255.0,255.0
448,22.400000000000002,9.208845135260447,-3.524975609222919,-7.592406418341363,0.13931639320412106,-0.16491248243458131,-0.6188539837247378,0.004647449236364531,-0.006155349093219162,-0.020863922067648893,0,70,255.0,255.0,255.0
449,22.450000000000003,9.21581676275382,-3.533229223254535,-7.623375680389663,0.1395486769631322,-0.16523799330042033,-0.619926157396815,0.004643901124079486,-0.006865085540341638,-0.022023024815443715,0,70,255.0,255.0,255.0
450,22.5,9.2228,-3.5415,-7.6544,0.13978078331652902,-0.1655989909886154,-0.6210562862062822,0.004640353011793552,-0.007574821987462954,-0.023182127563241117,0,70,255.0,255.0,255.0
451,22.55,9.229794917952205,-3.549789126389441,-7.685481083865465,0.1400175016739583,-0.16596023083954273,-0.6221729063262418,0.004828381285376396,-0.0068747720496284866,-0.02148267723514061,0,70,255.0,255.0,255.0
452,22.6,9.236801906857623,-3.558095439709006,-7.716615874424018,0.14026362144506666,-0.16628646819357826,-0.6232045539297962,0.0050164095589592395,-0.00617472211179402,-0.019783226907040104,0,70,255.0,255.0,255.0
453,22.650000000000002,9.243821436786938,-3.5664171898338513,-7.747800123049839,0.1405191426298542,-0.16657770305072211,-0.6241512290169458,0.005204437832542083,-0.005474672173959553,-0.018083776578939597,0,70,255.0,255.0,255.0
454,22.700000000000003,9.250853977810836,-3.5747526266391305,-7.779029581117107,0.14078406522832088,-0.16683393541097422,-0.6250129315876902,0.005392466106124927,-0.004774622236125086,-0.01638432625083909,0,70,255.0,255.0,255.0
455,22.75,9.2579,-3.5831,-7.8103,0.14105838924046668,-0.16705516527433464,-0.6257896616420296,0.005580494379707757,-0.004074572298290446,-0.014684875922736929,0,70,255.0,255.0,255.0
456,22.8,9.264959583177921,-3.591457922505467,-7.84160858863474,0.14131869983490092,-0.16726315547185466,-0.6265688729022819,0.004831929397661961,-0.0042450356025108184,-0.01648357448735303,0,70,255.0,255.0,255.0
457,22.85,9.272031246179338,-3.5998264575999395,-7.872958386205699,0.14154158218023288,-0.16747966883458573,-0.6274380190907649,0.0040833644156161655,-0.0044154989067311905,-0.01828227305196913,0,70,255.0,255.0,255.0
458,22.900000000000002,9.279113117591793,-3.608206031441679,-7.904353889459288,0.14172703627646255,-0.1677047053625278,-0.6283971002074789,0.003334799433570369,-0.0045859622109515625,-0.02008097161658523,0,70,255.0,255.0,255.0
459,22.950000000000003,9.28620332600283,-3.616597070188946,-7.935799595141919,0.14187506212358994,-0.16793826505568088,-0.6294461162524235,0.0025862344515245736,-0.0047564255151719345,-0.02187967018120133,0,70,255.0,255.0,255.0
460,23.0,9.2933,-3.625,-7.9673,0.14198565972161503,-0.16818034791404496,-0.6305850672255988,0.001837669469479053,-0.004926888819392072,-0.02367836874581286,0,70,255.0,255.0,255.0
461,23.05,9.300401949336107,-3.633415183588694,-7.9988581615955745,0.14209969898645322,-0.16842714727303817,-0.6317276020646307,0.0027239011240494677,-0.004945085540337058,-0.022023024815461388,0,70,255.0,255.0,255.0
462,23.1,9.307510708425024,-3.641842729891238,-8.03047138075319,0.14225804983402,-0.16867485646807867,-0.632787369707145,0.003610132778619882,-0.004963282261282043,-0.020367680885109915,0,70,255.0,255.0,255.0
463,23.150000000000002,9.314628492845888,-3.6502826843994356,-8.062135519113017,0.14246071226431523,-0.1689234754991664,-0.6337643701531418,0.004496364433190296,-0.004981478982227028,-0.018712336954758442,0,70,255.0,255.0,255.0
464,23.200000000000003,9.321757518177836,-3.658735092605089,-8.093846438315229,0.142707686277339,-0.1691730043663014,-0.6346586034026208,0.005382596087760711,-0.004999675703172014,-0.01705699302440697,0,70,255.0,255.0,255.0
465,23.25,9.3289,-3.6672,-8.1256,0.14299897187309132,-0.1694234430694836,-0.6354700694555825,0.006268827742331284,-0.005017872424116998,-0.015401649094058278,0,70,255.0,255.0,255.0
466,23.3,9.336057419477653,-3.675677343139759,-8.157393164982963,0.14329050421930187,-0.16966825543598987,-0.6362647188392045,0.0053924661060907085,-0.004774622236133738,-0.01638432625082286,0,70,255.0,255.0,255.0
467,23.35,9.343228320120568,-3.684166622835109,-8.189227290781552,0.1435382184837004,-0.16990090529309698,-0.6371085020806648,0.004516104469850133,-0.004531372048150477,-0.01736700340758744,0,70,255.0,255.0,255.0
468,23.400000000000002,9.350410511024657,-3.692667230960579,-8.22110483408866,0.1437421146662869,-0.17012139264080492,-0.6380014191799633,0.0036397428336095564,-0.004288121860167216,-0.01834968056435202,0,70,255.0,255.0,255.0
469,23.450000000000003,9.357601801285833,-3.7011785593906996,-8.253028251597181,0.14390219276706134,-0.17032971747911368,-0.6389434701371,0.0027633811973689806,-0.004044871672183955,-0.0193323577211166,0,70,255.0,255.0,255.0
470,23.5,9.3648,-3.7097,-8.285,0.1440184527860238,-0.17052587980802333,-0.6399346549520748,0.0018870195611284668,-0.0038016214842009344,-0.020315034877880223,0,70,255.0,255.0,255.0
471,23.55,9.372003572753291,-3.7182314438522694,-8.317021978472578,0.14413028413634013,-0.17073983098300743,-0.6409415225785519,0.0025862344515248034,-0.0047564255151631455,-0.019959670181203034,0,70,255.0,255.0,255.0
472,23.6,9.379213611092709,-3.726774778768327,-8.349093856120609,0.14427707623117628,-0.17100152235953966,-0.6419306219701951,0.0032854493419211405,-0.005711229546125357,-0.019604305484525842,0,70,255.0,255.0,255.0
473,23.650000000000002,9.386431863055483,-3.73533239175825,-8.38121474453235,0.14445882907053226,-0.17131095393761997,-0.6429019531270045,0.0039846642323174775,-0.006666033577087567,-0.019248940787848653,0,70,255.0,255.0,255.0
474,23.700000000000003,9.39366007667884,-3.743906669832115,-8.413383755296064,0.14467554265440805,-0.17166812571724843,-0.6438555160489801,0.004683879122713814,-0.007620837608049779,-0.01889357609117146,0,70,255.0,255.0,255.0
475,23.75,9.4009,-3.7525,-8.4456,0.14492721698280364,-0.17207303769842494,-0.6447913107361217,0.005383094013110323,-0.008575641639011033,-0.018538211394496962,0,70,255.0,255.0,255.0
476,23.8,9.408153089509188,-3.7611136814511634,-8.47786292112673,0.14519635923532628,-0.1724604206319794,-0.6457291908465943,0.005382596087794944,-0.006919675703167115,-0.018976993024404903,0,70,255.0,255.0,255.0
477,23.85,9.415419635508595,-3.769744662091585,-8.510173284736018,0.14546547659158313,-0.17276500526874167,-0.6466890100385623,0.005382098162479565,-0.005263709767323196,-0.019415774654312847,0,70,255.0,255.0,255.0
478,23.900000000000002,9.422699636753409,-3.778388802006425,-8.542532187781946,0.14573456905157423,-0.17298679160871172,-0.6476707683120256,0.005381600237164186,-0.003607743831479278,-0.019854556284220788,0,70,255.0,255.0,255.0
479,23.950000000000003,9.429993091998815,-3.7870419612808432,-8.57494072721858,0.14600363661529958,-0.1731257796518896,-0.6486744656669843,0.005381102311848807,-0.0019517778956353593,-0.020293337914128733,0,70,255.0,255.0,255.0
480,24.0,9.4373,-3.7957,-8.6074,0.14627267928275908,-0.17318196939827527,-0.6497001021034384,0.005380604386532761,-0.00029581195979111463,-0.02073211954403842,0,70,255.0,255.0,255.0
481,24.05,9.44462006920996,-3.804360230343077,-8.639910337020511,0.1465242789223565,-0.17324248648907498,-0.6507017140350673,0.004683381197364368,-0.0021248716721972184,-0.019332357721115814,0,70,255.0,255.0,255.0
482,24.1,9.451951846872912,-3.813025772865335,-8.672469004935323,0.14674101740249554,-0.17339445656549501,-0.6516333378755501,0.003986158008195975,-0.003953931384603322,-0.01793259589819321,0,70,255.0,255.0,255.0
483,24.150000000000002,9.459293589930885,-3.821701200216054,-8.705072504339881,0.14692289472317613,-0.1736378796275353,-0.6524949736248866,0.0032889348190275817,-0.005782991097009427,-0.016532834075270605,0,70,255.0,255.0,255.0
484,24.200000000000003,9.466643555325906,-3.8303910850445155,-8.737717335829625,0.1470699108843983,-0.17397275567519593,-0.6532866212830771,0.0025917116298591883,-0.007612050809415531,-0.015133072252348,0,70,255.0,255.0,255.0
485,24.25,9.474,-3.8391,-8.7704,0.14718206588616203,-0.17439908470847684,-0.6540082808501214,0.0018944884406895124,-0.009441110521821061,-0.013733310429423717,0,70,255.0,255.0,255.0
486,24.3,9.481361833650976,-3.8478309971765294,-8.803118130791237,0.14729852507524638,-0.1748256334117232,-0.6547279530131366,0.002763879122683978,-0.007620837608032201,-0.015053576091180984,0,70,255.0,255.0,255.0
487,24.35,9.48873057699976,-3.856581046447078,-8.835873895522699,0.14745845379843045,-0.17516116846928007,-0.6555136384592395,0.0036332698046784434,-0.005800564694243341,-0.01637384175293825,0,70,255.0,255.0,255.0
488,24.400000000000002,9.496108403523055,-3.865345597129363,-8.868670594858546,0.14766185205571422,-0.17540568988114752,-0.6563653371884304,0.004502660486672909,-0.003980291780454482,-0.017694107414695515,0,70,255.0,255.0,255.0
489,24.450000000000003,9.503497486697567,-3.874120098541098,-8.901511529462928,0.14790871984709772,-0.17555919764732553,-0.6572830492007091,0.005372051168667374,-0.0021600188666656217,-0.019014373076452783,0,70,255.0,255.0,255.0
490,24.5,9.5109,-3.8829,-8.9344,0.14819905717258092,-0.17562169176781411,-0.6582667744960755,0.0062414418506615554,-0.00033974595287666887,-0.02033463873820729,0,70,255.0,255.0,255.0
491,24.55,9.518317396186134,-3.891682180950808,-8.967338739814549,0.14848962077664454,-0.1756789798640271,-0.659282473912384,0.005381102311882812,-0.0019517778956436923,-0.02029333791412924,0,70,255.0,255.0,255.0
492,24.6,9.52574824512805,-3.900469241346355,-9.000328212973887,0.14873716740376922,-0.1758168695573785,-0.6602961082874884,0.004520762773104068,-0.0035638098384107157,-0.02025203709005119,0,70,255.0,255.0,255.0
493,24.650000000000002,9.533190395976895,-3.9092652112664985,-9.033368316225946,0.14894169705395494,-0.1760353608478682,-0.6613076776213891,0.003660423234325324,-0.005175841781177739,-0.020210736265973136,0,70,255.0,255.0,255.0
494,24.700000000000003,9.540641697883828,-3.9180741207910943,-9.066458946318672,0.14910320972720173,-0.17633445373549628,-0.6623171819140858,0.00280008369554658,-0.0067878737239447625,-0.020169435441895086,0,70,255.0,255.0,255.0
495,24.75,9.5481,-3.9269,-9.0996,0.14922170542350963,-0.17671414822026266,-0.6633246211655786,0.0019397441567685636,-0.008399905666711227,-0.020128134617815263,0,70,255.0,255.0,255.0
496,24.8,9.555563781604485,-3.935745879020239,-9.132790909950566,0.1493349918181753,-0.177114447132166,-0.6643021513373324,0.002591711629858882,-0.007612050809423632,-0.018973072252338224,0,70,255.0,255.0,255.0
497,24.85,9.563034042488045,-3.944610788167502,-9.166029252581765,0.14948087658649553,-0.17747535330120504,-0.6652219283908124,0.0032436791029492006,-0.006824195952136037,-0.017818009886861184,0,70,255.0,255.0,255.0
498,24.900000000000002,9.57051241256936,-3.9534927578046455,-9.19931214023768,0.14965935972847025,-0.17779686672737963,-0.6660839523260186,0.0038956465760395186,-0.0060363410948484405,-0.01666294752138415,0,70,255.0,255.0,255.0
499,24.950000000000003,9.57800052176712,-3.962389818294526,-9.232636685262394,0.14987044124409946,-0.1780789874106899,-0.6668882231429508,0.0045476140491298375,-0.005248486237560845,-0.01550788515590711,0,70,255.0,255.0,255.0
500,25.0,9.5855,-3.9713,-9.266,0.1501141211333832,-0.1783217153511357,-0.6676347408416091,0.005199581522220109,-0.004460631380272195,-0.014352822790425712,0,70,255.0,255.0,255.0
501,25.05,9.593012277395925,-3.980221502968235,-9.299400020383189,0.15037841195065538,-0.17853523160730905,-0.6683729207382813,0.005372051168666972,-0.004080018866661067,-0.01517437307645918,0,70,255.0,255.0,255.0
502,25.1,9.600537984919772,-3.9891532059836363,-9.332837976699068,0.15065132625024993,-0.17872971723780182,-0.669152178149255,0.005544520815113834,-0.0036994063530499392,-0.01599592336249265,0,70,255.0,255.0,255.0
503,25.150000000000002,9.608077553745655,-3.9980941575149207,-9.366315922823354,0.15093286403216677,-0.17890517224261404,-0.6699725130745305,0.005716990461560697,-0.003318793839438811,-0.016817473648526118,0,70,255.0,255.0,255.0
504,25.200000000000003,9.615631415047693,-4.007043406030803,-9.39983591263176,0.151223025296406,-0.1790615966217457,-0.6708339255141077,0.005889460108007559,-0.002938181325827683,-0.017639023934559586,0,70,255.0,255.0,255.0
505,25.25,9.6232,-4.016,-9.4334,0.15152181004296753,-0.1791989903751968,-0.6717364154679865,0.006061929754453965,-0.002557568812217026,-0.018460574220592996,0,70,255.0,255.0,255.0
506,25.3,9.630783108811817,-4.0249633091068215,-9.467009808516684,0.1517913603792166,-0.17933662643860085,-0.6726541657095488,0.004720083695508252,-0.0029478737239453214,-0.01824943544189974,0,70,255.0,255.0,255.0
507,25.35,9.638378017832874,-4.033933987897954,-9.500665240621975,0.15199381841251836,-0.17949377774759132,-0.6735613590121765,0.003378237636562537,-0.0033381786356736164,-0.01803829666320648,0,70,255.0,255.0,255.0
508,25.400000000000002,9.64598137244802,-4.042913012135673,-9.534365768468922,0.15212918414287283,-0.17967044430216822,-0.6744579953758695,0.0020363915776168235,-0.003728483547401912,-0.017827157884513226,0,70,255.0,255.0,255.0
509,25.450000000000003,9.653589818042112,-4.051901357582263,-9.56811086421058,0.15219745757028005,-0.1798666261023315,-0.6753440748006279,0.0006945455186711091,-0.004118788459130207,-0.017616019105819967,0,70,255.0,255.0,255.0
510,25.5,9.6612,-4.0609,-9.6019,0.15219863869473996,-0.18008232314808123,-0.6762195972864513,-0.0006473005402749532,-0.0045090933708575864,-0.017404880327125838,0,70,255.0,255.0,255.0
511,25.55,9.668809687356807,-4.06991006060448,-9.63573274555008,0.15220014653246153,-0.18032626263829124,-0.6770904164235261,0.00070761404913868,-0.005248486237542826,-0.017427885155866463,0,70,255.0,255.0,255.0
512,25.6,9.676421143748737,-4.078933242424552,-9.669609060813045,0.15226940009965384,-0.18060717177183552,-0.677962385802038,0.002062528638552313,-0.005987879104228065,-0.017450889984607088,0,70,255.0,255.0,255.0
513,25.650000000000002,9.684037756462264,-4.087971393942386,-9.703529003300973,0.15240639939631678,-0.18092505054871405,-0.6788355054219869,0.0034174432279659465,-0.0067272719709133046,-0.017473894813347712,0,70,255.0,255.0,255.0
514,25.700000000000003,9.691662912783858,-4.097026363640146,-9.737492630525933,0.15261114442245044,-0.18127989896892685,-0.6797097752833727,0.0047723578173795795,-0.007466664837598544,-0.017496899642088337,0,70,255.0,255.0,255.0
515,25.75,9.6993,-4.1061,-9.7715,0.15288363517805473,-0.1816717170324739,-0.6805851953861958,0.006127272406793116,-0.008206057704283287,-0.017519904470831626,0,70,255.0,255.0,255.0
516,25.8,9.706951741760951,-4.115193248475262,-9.805551209283008,0.15318405349092645,-0.1820463230082271,-0.6814641685963315,0.005889460108075669,-0.0067781813258444915,-0.017639023934594357,0,70,255.0,255.0,255.0
517,25.85,9.714618207172176,-4.12430344240384,-9.839646516125853,0.1534725811888623,-0.18234953516505834,-0.6823490977796552,0.005651647809358222,-0.005350304947405697,-0.017758143398357087,0,70,255.0,255.0,255.0
518,25.900000000000002,9.722298801702923,-4.133427012094787,-9.873786218327194,0.1537492182718623,-0.18258135350296767,-0.6832399829361672,0.005413835510640775,-0.003922428568966902,-0.017877262862119818,0,70,255.0,255.0,255.0
519,25.950000000000003,9.729992930822448,-4.142560387857156,-9.907970613685691,0.15401396473992637,-0.18274177802195504,-0.6841368240658673,0.005176023211923328,-0.002494552190528106,-0.01799638232588255,0,70,255.0,255.0,255.0
520,26.0,9.7377,-4.1517,-9.9422,0.15426682059305458,-0.18283080872202048,-0.6850396211687555,0.004938210913205676,-0.0010666758120889686,-0.018115501789649713,0,70,255.0,255.0,255.0
521,26.05,9.74541934559938,-4.160843345494469,-9.97647441731789,0.15450363950385043,-0.18291244532880108,-0.6859329091911431,0.004534545518627991,-0.0021987884591342316,-0.017616019105853902,0,70,255.0,255.0,255.0
522,26.1,9.753150027562558,-4.169992187960086,-10.010792874683544,0.15472027514491737,-0.1830506875679339,-0.6868012230793409,0.0041308801240503065,-0.0033309011061794947,-0.01711653642205809,0,70,255.0,255.0,255.0
523,26.150000000000002,9.760891036726042,-4.179149357678468,-10.045154123390255,0.15491672751625546,-0.18324553543941902,-0.687644562833349,0.0037272147294726216,-0.004463013753224758,-0.016617053738262277,0,70,255.0,255.0,255.0
524,26.200000000000003,9.768641363926353,-4.188317684931233,-10.079556914731311,0.15509299661786466,-0.18349698894325642,-0.6884629284531671,0.0033235493348949367,-0.005595126400270021,-0.016117571054466467,0,70,255.0,255.0,255.0
525,26.25,9.7764,-4.1975,-10.114,0.15524908244974495,-0.18380504807944603,-0.6892563199387957,0.0029198839403172805,-0.006727239047314537,-0.015618088370675132,0,70,255.0,255.0,255.0
526,26.3,9.784166075841528,-4.206698169546861,-10.148482321445435,0.1553933884936866,-0.18411189567656852,-0.6900361946391131,0.0028523578173499146,-0.005546664837585419,-0.015576899642026553,0,70,255.0,255.0,255.0
527,26.35,9.791939282577601,-4.215910205755815,-10.183003585139973,0.15553431823147995,-0.1843597145632046,-0.6908140099029983,0.002784831694382548,-0.0043660906278563,-0.015535710913377975,0,70,255.0,255.0,255.0
528,26.400000000000002,9.799719451392907,-4.22513315719134,-10.217563688111793,0.1556718716631249,-0.18454850473935416,-0.6915897657304511,0.0027173055714151823,-0.003185516418127182,-0.015494522184729397,0,70,255.0,255.0,255.0
529,26.450000000000003,9.807506413472144,-4.23436407241791,-10.252162527389078,0.15580604878862145,-0.1846782662050173,-0.6923634621214713,0.002649779448447816,-0.0020049422083980636,-0.015453333456080817,0,70,255.0,255.0,255.0
530,26.5,9.8153,-4.2436,-10.2868,0.1559368496079697,-0.18474899896019398,-0.6931350990760591,0.0025822533254802327,-0.0008243679986690289,-0.01541214472742869,0,70,255.0,255.0,255.0
531,26.55,9.82310035103451,-4.252839176318088,-10.321476296900379,0.15608280652140488,-0.18483197196492435,-0.693922312252392,0.003256023211927382,-0.00249455219054522,-0.016076382325887026,0,70,255.0,255.0,255.0
532,26.6,9.830908842127046,-4.262084589016652,-10.356192784756571,0.15626245192916244,-0.1849984541792485,-0.6947427373086478,0.003929793098374532,-0.004164736382421411,-0.016740619924345366,0,70,255.0,255.0,255.0
533,26.650000000000002,9.838727157702332,-4.271340413556173,-10.390951124162576,0.15647578583124233,-0.18524844560316647,-0.6955963742448266,0.004603562984821681,-0.005834920574297602,-0.017404857522803702,0,70,255.0,255.0,255.0
534,26.700000000000003,9.846556982185076,-4.28061082539713,-10.425752975712388,0.15672280822764462,-0.18558194623667826,-0.6964832230609282,0.0052773328712688305,-0.007505104766173793,-0.01806909512126204,0,70,255.0,255.0,255.0
535,26.75,9.8544,-4.2899,-10.4606,0.15700351911836918,-0.18599895607978387,-0.6974032837569527,0.005951102757715265,-0.009175288958049643,-0.018733332719718554,0,70,255.0,255.0,255.0
536,26.8,9.862257320020438,-4.299210725180789,-10.495493290953053,0.15728338542068518,-0.18641621646374132,-0.6983225563513089,0.005243549334924492,-0.0075151264002480496,-0.018037571054532534,0,70,255.0,255.0,255.0
537,26.85,9.870127748914216,-4.308540238177577,-10.530431675833743,0.15752787405186164,-0.1867504687198087,-0.699207040862406,0.0045359959121337185,-0.005854963842446456,-0.01734180938934651,0,70,255.0,255.0,255.0
538,26.900000000000002,9.878009517797773,-4.3178843885839715,-10.565413415237908,0.15773698501189853,-0.18700171284798597,-0.7000567372902436,0.0038284424893429455,-0.004194801284644863,-0.01664604772416049,0,70,255.0,255.0,255.0
539,26.950000000000003,9.885900857787554,-4.327239025993577,-10.60043676976138,0.15791071830079595,-0.18716994884827318,-0.7008716456348221,0.0031208890665521726,-0.0025346387268432692,-0.015950286058974465,0,70,255.0,255.0,255.0
540,27.0,9.8938,-4.3366,-10.6355,0.15804907391855377,-0.18725517672067032,-0.7016517658961412,0.0024133356437610054,-0.0008744761690420155,-0.015254524393787605,0,70,255.0,255.0,255.0
541,27.05,9.901705568883735,-4.3459643229587614,-10.67060173928741,0.158175651795859,-0.18732716218010634,-0.7024194623423871,0.0026497794484478233,-0.002004942208398147,-0.015453333456044762,0,70,255.0,255.0,255.0
542,27.1,9.90961776221609,-4.355333658273043,-10.705742111908458,0.15831405186339856,-0.18745567094151014,-0.7031970992417457,0.002886223253134641,-0.0031354082477542777,-0.01565214251830192,0,70,255.0,255.0,255.0
543,27.150000000000002,9.917537171106579,-4.364710832107945,-10.740921614885805,0.15846427412117248,-0.18764070300488175,-0.7039846765942173,0.003122667057821459,-0.004265874287110409,-0.01585095158055908,0,70,255.0,255.0,255.0
544,27.200000000000003,9.925464386664713,-4.374098670628564,-10.7761407452421,0.1586263185691807,-0.18788225837022118,-0.7047821943998016,0.003359110862508277,-0.00539634032646654,-0.016049760642816234,0,70,255.0,255.0,255.0
545,27.25,9.9334,-4.3835,-10.8114,0.15880018520742326,-0.18818033703752843,-0.7055896526584988,0.0035955546671939675,-0.0065268063658223685,-0.016248569705071603,0,70,255.0,255.0,255.0
546,27.3,9.941344404444626,-4.392916782984167,-10.846699751897313,0.15897400739588408,-0.18848313481582887,-0.7063995942791564,0.003357332871238535,-0.005585104766194991,-0.016149095121231125,0,70,255.0,255.0,255.0
547,27.35,9.949297202221427,-4.40234752873025,-10.882039876532431,0.1591359184945471,-0.18873884751414793,-0.707204562170622,0.003119111075283103,-0.004643403166567612,-0.01604962053739065,0,70,255.0,255.0,255.0
548,27.400000000000002,9.957257797775915,-4.411789882984249,-10.917420125218891,0.15928591850341237,-0.18894747513248564,-0.7080045563328955,0.0028808892793276706,-0.003701701566940234,-0.015950145953550172,0,70,255.0,255.0,255.0
549,27.450000000000003,9.965225595553603,-4.421241491492165,-10.952840249270235,0.15942400742247986,-0.18910901767084196,-0.708799576765977,0.0026426674833722385,-0.002759999967312856,-0.015850671369709697,0,70,255.0,255.0,255.0
550,27.5,9.9732,-4.4307,-10.9883,0.1595501852517496,-0.1892234751292169,-0.7095896234698665,0.002404445687415935,-0.0018182983676853226,-0.015751196785868338,0,70,255.0,255.0,255.0
551,27.55,9.981180813337772,-4.440163745104569,-11.023799253123341,0.15968831862059882,-0.1893322985565801,-0.7103821605409877,0.003120889066551912,-0.0025346387268436847,-0.015950286058974153,0,70,255.0,255.0,255.0
552,27.6,9.989169428898212,-4.449633826805957,-11.059338381961828,0.1598622741584048,-0.18947693900190127,-0.711184652075764,0.003837332445687889,-0.0032509790860020464,-0.016149375332079968,0,70,255.0,255.0,255.0
553,27.650000000000002,9.997167637789762,-4.45911203595506,-11.094917884238646,0.1600720518651676,-0.18965739646518032,-0.7119970980741956,0.004553775824823867,-0.003967319445160408,-0.016348464605185783,0,70,255.0,255.0,255.0
554,27.700000000000003,10.005177231120877,-4.468600163402775,-11.130538257676978,0.1603176517408872,-0.1898736709464173,-0.7128194985362826,0.005270219203959843,-0.00468365980431877,-0.0165475538782916,0,70,255.0,255.0,255.0
555,27.75,10.0132,-4.4781,-11.1662,0.1605990737855636,-0.19012576244561222,-0.7136518534620246,0.005986662583096436,-0.005400000163475971,-0.01674664315139296,0,70,255.0,255.0,255.0
556,27.8,10.02123714220429,-4.487613036597553,-11.201903235609329,0.16088071812170446,-0.19039567095786036,-0.7144717635568807,0.005279110862537618,-0.005396340326448934,-0.016049760642848545,0,70,255.0,255.0,255.0
557,27.85,10.029287482185737,-4.497139564045923,-11.237646595620266,0.16112698487181737,-0.19066539647825712,-0.7152568295263095,0.0045715591419788005,-0.005392680489421897,-0.015352878134304129,0,70,255.0,255.0,255.0
558,27.900000000000002,10.03734925106504,-4.506679573195515,-11.273428337826537,0.16133787403590236,-0.19093493900680256,-0.7160070513703111,0.0038640074214199823,-0.00538902065239486,-0.014655995625759713,0,70,255.0,255.0,255.0
559,27.950000000000003,10.045420679962893,-4.516233054896738,-11.309246720021873,0.16151338561395936,-0.1912042985434966,-0.7167224290888855,0.0031564557008611645,-0.005385360815367823,-0.013959113117215299,0,70,255.0,255.0,255.0
560,28.0,10.0535,-4.5258,-11.3451,0.16165351960598845,-0.19147347508833928,-0.7174029626820327,0.002448903980301953,-0.005381700978338788,-0.013262230608673597,0,70,255.0,255.0,255.0
561,28.05,10.061585817845067,-4.535380108505219,-11.380987004439346,0.16178080889258029,-0.19172501761198046,-0.7180827852314924,0.0026426674833715884,-0.004679999967307759,-0.013930671369715784,0,70,255.0,255.0,255.0
562,28.1,10.069678242358842,-4.544971917010356,-11.416908835557118,0.1619177863543256,-0.19194147508507006,-0.7187960298190044,0.002836430986441224,-0.00397829895627673,-0.014599112130757971,0,70,255.0,255.0,255.0
