idx,t,px,py,pz,vx,vy,vz,ax,ay,az,yaw,mode,ledr,ledg,ledb
0,0.0,1.5,-4.5,0.0,-0.00023939724060341016,0.0006963333061943511,0.0005291020915498407,-0.0059272331127563326,-0.009155999674316137,-0.03354922509859809,0,70,255.0,255.0,255.0
1,0.05,1.4999801816993383,-4.499976532000977,-1.6152324704205747e-05,-0.0005621227306774567,0.00024431332085007596,-0.0011886130378870735,-0.00698178649020553,-0.008924799739454866,-0.03515938007887847,0,70,255.0,255.0,255.0
2,0.1,1.499942908932451,-4.499975376001302,-0.00012020309960560768,-0.0009375758896239632,-0.00019614666775113552,-0.0029868359163380065,-0.008036339867654728,-0.008693599804593593,-0.03676953505915885,0,70,255.0,255.0,255.0
3,0.15000000000000002,1.4998855453158948,-4.49999595400114,-0.00031617771215490683,-0.0013657567174429296,-0.0006250466596092835,-0.004865566543802959,-0.009090893245103926,-0.008462399869732322,-0.03837969003943924,0,70,255.0,255.0,255.0
4,0.2,1.4998054544662256,-4.500037688000651,-0.000608101549802804,-0.0018466652141343558,-0.0010423866547243676,-0.00682480492028193,-0.010145446622553123,-0.008231199934871048,-0.03998984501971962,0,70,255.0,255.0,255.0
5,0.25,1.4997,-4.5001,-0.001,-0.0023803013796982416,-0.0014481666530963882,-0.00886455104577492,-0.011200000000002316,-0.008000000000009779,-0.0416,0,70,255.0,255.0,255.0
6,0.30000000000000004,1.4995665455337746,-4.500182311999349,-0.0014958984501971969,-0.002966665214134588,-0.0018423866547253459,-0.010984804920281931,-0.012254553377451516,-0.007768800065148506,-0.04321015498028038,0,70,255.0,255.0,255.0
7,0.35000000000000003,1.4994024546841054,-4.50028404599886,-0.002099822287845094,-0.0036057567174433936,-0.002225046659611239,-0.013185566543802959,-0.013309106754900716,-0.007537600130287233,-0.044820309960560765,0,70,255.0,255.0,255.0
8,0.4,1.499205091067549,-4.500404623998697,-0.0028157969003943925,-0.004297575889624659,-0.0025961466677540688,-0.015466835916338007,-0.014363660132349914,-0.0073064001954259595,-0.046430464940841146,0,70,255.0,255.0,255.0
9,0.45,1.4989718183006617,-4.500543467999023,-0.0036478476752957946,-0.0050421227306783846,-0.002955686679153835,-0.017828613037887072,-0.015418213509799113,-0.007075200260564686,-0.048040619921121526,0,70,255.0,255.0,255.0
10,0.5,1.4987,-4.5007,-0.0046,-0.00583939724060457,-0.0033036666938105375,-0.02027089790845016,-0.01647276688724831,-0.006844000325703408,-0.04965077490140185,0,70,255.0,255.0,255.0
11,0.55,1.4983880361655635,-4.5008734200016285,-0.00567465387450701,-0.006627216412785719,-0.0036267667019526263,-0.022696167280985207,-0.015039999999997633,-0.006079999999980141,-0.047359999999999985,0,70,255.0,255.0,255.0
12,0.6000000000000001,1.4980384723311273,-4.501062040003258,-0.006867707749014021,-0.007343397240604335,-0.0039116666938085526,-0.025006897908450162,-0.013607233112746957,-0.005315999674256875,-0.04506922509859813,0,70,255.0,255.0,255.0
13,0.65,1.4976548904139093,-4.501263950004072,-0.008173434686267524,-0.007987939724060414,-0.004158366669378313,-0.027203089790845018,-0.012174466225496283,-0.00455199934853361,-0.04277845019719627,0,70,255.0,255.0,255.0
14,0.7000000000000001,1.4972408723311275,-4.501477240003257,-0.009586107749014021,-0.008560843863153962,-0.004366866628661913,-0.029284742928169787,-0.010741699338245609,-0.0037879990228103437,-0.04048767529579441,0,70,255.0,255.0,255.0
15,0.75,1.4968,-4.5017,-0.0111,-0.009062109657884976,-0.004537166571659348,-0.03125185732042446,-0.009308932450994886,-0.0030239986970870755,-0.03819690039439266,0,70,255.0,255.0,255.0
16,0.8,1.4963349098039704,-4.5019312079941365,-0.012711086051774768,-0.00954846913472357,-0.004722546537458525,-0.03320652595577727,-0.010145446622548834,-0.004391199934880002,-0.03998984501971964,0,70,255.0,255.0,255.0
17,0.8500000000000001,1.4958444559913846,-4.502173393988111,-0.014422146716098837,-0.01007665432013986,-0.004976286565147349,-0.03525084182239643,-0.010981960794102784,-0.005758401172672929,-0.041782789645046614,0,70,255.0,255.0,255.0
18,0.9,1.4953265472768136,-4.502429975985016,-0.016237664354535514,-0.010646665214133847,-0.005298386654725818,-0.03738480492028193,-0.01181847496565673,-0.007125602410465852,-0.04357573427037359,0,70,255.0,255.0,255.0
19,0.9500000000000001,1.4947790923748283,-4.502704371987948,-0.018162121328648133,-0.011258501816705534,-0.005688846806193934,-0.03960841524943379,-0.01265498913721068,-0.00849280364825878,-0.045368678895700565,0,70,255.0,255.0,255.0
20,1.0,1.4942,-4.503,-0.0202,-0.011912164127854914,-0.006147667019551696,-0.041921672809851984,-0.01349150330876464,-0.009860004886051738,-0.04716162352102726,0,70,255.0,255.0,255.0
21,1.05,1.4935875246185542,-4.503319348021825,-0.022354601918393925,-0.012586907048319121,-0.006619047148217421,-0.0442537288959057,-0.013498213509803608,-0.008995200260577273,-0.04612061992112133,0,70,255.0,255.0,255.0
22,1.1,1.4929413037033339,-4.5036611840443,-0.02462450538659065,-0.013261985478835276,-0.007047187045609424,-0.04653373480196412,-0.013504923710842576,-0.00813039563510281,-0.0450796163212154,0,70,255.0,255.0,255.0
23,1.1500000000000001,1.4922613204788362,-4.504023346055864,-0.027007107895590417,-0.01393739941940338,-0.007432086711727703,-0.04876169052802724,-0.013511633911881543,-0.007265591009628345,-0.04403861272130946,0,70,255.0,255.0,255.0
24,1.2000000000000002,1.4915475581695594,-4.504403672044952,-0.02949980693639346,-0.014613148870023431,-0.007773746146572259,-0.05093759607409507,-0.013518344112920511,-0.006400786384153881,-0.04299760912140353,0,70,255.0,255.0,255.0
25,1.25,1.4908,-4.5048,-0.0321,-0.015289233830695428,-0.00807216535014309,-0.05306145144016759,-0.01352505431395945,-0.005535981758679448,-0.0419566055214976,0,70,255.0,255.0,255.0
26,1.3,1.4900189917218125,-4.505210599918565,-0.034805706274649545,-0.01594390267200055,-0.008353264869679371,-0.0551705584605999,-0.012661699338245368,-0.005707999022771765,-0.04240767529579463,0,70,255.0,255.0,255.0
27,1.35,1.4892063291952795,-4.505635469834688,-0.03761743173753857,-0.016555403764519968,-0.008642965252420268,-0.057302218969747055,-0.011798344362531287,-0.005880016286864082,-0.042858745070091665,0,70,255.0,255.0,255.0
28,1.4000000000000001,1.4883641708078403,-4.506075039791528,-0.04053630406310283,-0.01712373710825368,-0.00894126649836578,-0.05945643296760907,-0.010934989386817204,-0.006052033550956399,-0.04330981484438869,0,70,255.0,255.0,255.0
29,1.4500000000000002,1.487494674946934,-4.506529739832246,-0.04356345092577807,-0.01764890270320169,-0.009248168607515908,-0.06163320045418593,-0.010071634411103123,-0.006224050815048716,-0.04376088461868573,0,70,255.0,255.0,255.0
30,1.5,1.4866,-4.507,-0.0467,-0.018130900549363987,-0.009563671579870653,-0.06383252142947764,-0.00920827943538896,-0.0063960680791410734,-0.0442119543929832,0,70,255.0,255.0,255.0
31,1.55,1.4856813084941953,-4.507486252303912,-0.049946572983007906,-0.018629482263678877,-0.009887893373056188,-0.06602403726169474,-0.010734989137206614,-0.0065728036482803264,-0.04344867889570068,0,70,255.0,255.0,255.0
32,1.6,1.4847357795155471,-4.507988936616946,-0.053301767663255076,-0.019204399463084647,-0.010220951944698686,-0.06817738931904771,-0.012261698839024268,-0.006749539217419579,-0.04268540339841815,0,70,255.0,255.0,255.0
33,1.6500000000000001,1.4837595962898018,-4.508508494778023,-0.05676367585199829,-0.019855652147581303,-0.010562847294798146,-0.07029257760153657,-0.013788408540841922,-0.006926274786558832,-0.04192212790113563,0,70,255.0,255.0,255.0
34,1.7000000000000002,1.4827489420427042,-4.509045368626067,-0.06033038936049434,-0.020583240317168842,-0.01091357942335457,-0.07236960210916127,-0.015315118242659576,-0.007103010355698084,-0.041158852403853106,0,70,255.0,255.0,255.0
35,1.75,1.4817,-4.5096,-0.064,-0.02138716397184726,-0.011273148330367952,-0.07440846284192186,-0.016841827944477167,-0.0072797459248372665,-0.04039557690657081,0,70,255.0,255.0,255.0
36,1.8,1.4806101743014068,-4.510172390865782,-0.06777120179331883,-0.022194168273282303,-0.011615161638093157,-0.07644529249262122,-0.015438344112924544,-0.006400786384170919,-0.041077609121403416,0,70,255.0,255.0,255.0
37,1.85,1.4794817527425315,-4.510760783697525,-0.07164509760944117,-0.022930998383139715,-0.011913226968785046,-0.07851622375406221,-0.014034860281371922,-0.005521826843504572,-0.04175964133623602,0,70,255.0,255.0,255.0
38,1.9000000000000001,1.4783182440329525,-4.511362981096377,-0.07562339252890407,-0.023597654301419496,-0.012167344322443614,-0.08062125662624482,-0.0126313764498193,-0.004642867302838225,-0.04244167355106863,0,70,255.0,255.0,255.0
39,1.9500000000000002,1.477123156882249,-4.511976785663486,-0.07970779163224467,-0.02419413602812165,-0.012377513699068867,-0.08276039110916908,-0.011227892618266677,-0.0037639077621718776,-0.04312370576590124,0,70,255.0,255.0,255.0
40,2.0,1.4759,-4.5126,-0.0839,-0.02472044356324616,-0.0125437350986608,-0.08493362720283494,-0.009824408786713978,-0.002884948221505493,-0.04380573798073317,0,70,255.0,255.0,255.0
41,2.0500000000000003,1.4746515943001774,-4.513231384232957,-0.08820141984371682,-0.025217844643191586,-0.012723460074574342,-0.08712279276782041,-0.010071634411103071,-0.004304050815036175,-0.04376088461868546,0,70,255.0,255.0,255.0
42,2.1,1.4733780095143272,-4.513873528592952,-0.09261224189898035,-0.025727607004356466,-0.012974140180164417,-0.08930971566470348,-0.010318860035492162,-0.005723153408566844,-0.04371603125663774,0,70,255.0,255.0,255.0
43,2.15,1.4720786275783881,-4.5145299808364685,-0.09713235403238543,-0.026249730646740802,-0.013295775415431026,-0.09149439589348418,-0.010566085659881251,-0.007142256002097514,-0.04367117789459003,0,70,255.0,255.0,255.0
44,2.2,1.4707528304282993,-4.51520428871999,-0.10176164411052706,-0.026784215570344595,-0.013688365780374169,-0.0936768334541625,-0.010813311284270344,-0.008561358595628196,-0.04362632453254232,0,70,255.0,255.0,255.0
45,2.25,1.4694,-4.5159,-0.1065,-0.027331061775167836,-0.014151911274993843,-0.09585702834673841,-0.01106053690865938,-0.009980461189158879,-0.04358147117049438,0,70,255.0,255.0,255.0
46,2.3000000000000003,1.4680194484978835,-4.516619672202389,-0.11134711883181396,-0.027894453153950824,-0.014626998063615157,-0.09802353643609713,-0.011475118242659968,-0.009023010355693589,-0.043078852403853424,0,70,255.0,255.0,255.0
47,2.35,1.4666102092001598,-4.517361901930667,-0.11630193479463752,-0.028478573599433836,-0.015054212310563203,-0.10016491358712376,-0.011889699576660551,-0.008065559522228309,-0.042576233637212475,0,70,255.0,255.0,255.0
48,2.4000000000000004,1.4651712456534949,-4.518124295557751,-0.12136319134155416,-0.02908342311161688,-0.01543355401583799,-0.10228115979981837,-0.01230428091066114,-0.007108108688763019,-0.04207361487057153,0,70,255.0,255.0,255.0
49,2.45,1.4637015214045532,-4.518904459456556,-0.12652963192564715,-0.029709001690499948,-0.015765023179439504,-0.10437227507418091,-0.012718862244661722,-0.006150657855297739,-0.04157099610393058,0,70,255.0,255.0,255.0
50,2.5,1.4622,-4.5197,-0.1318,-0.030355309336083044,-0.01604861980136776,-0.1064382594102114,-0.013133443578662113,-0.0051932070218323745,-0.04106837733728996,0,70,255.0,255.0,255.0
51,2.5500000000000003,1.4606658117082891,-4.520509126957489,-0.13717330482902745,-0.031012342741006258,-0.016320547670967755,-0.1084950614877912,-0.013147892618266372,-0.005683907762167348,-0.041203705765901426,0,70,255.0,255.0,255.0
52,2.6,1.4590987536850328,-4.52133246368438,-0.14264961892246963,-0.03167009859790968,-0.016617010577584496,-0.11055862998680155,-0.01316234165787063,-0.0061746085025023165,-0.04133903419451288,0,70,255.0,255.0,255.0
53,2.6500000000000004,1.4574987898076321,-4.522171236932531,-0.14822928060139814,-0.032328576906793326,-0.016938008521217986,-0.11262896490724249,-0.013176790697474888,-0.00666530924283729,-0.04147436262312434,0,70,255.0,255.0,255.0
54,2.7,1.4558658839534873,-4.523026673453787,-0.1539126281868844,-0.03298777766765717,-0.017283541501868224,-0.11470606624911397,-0.013191239737079146,-0.0071560099831722585,-0.0416096910517358,0,70,255.0,255.0,255.0
55,2.75,1.4542,-4.5239,-0.1597,-0.03364770088050123,-0.017653609519535207,-0.11678993401241604,-0.013205688776683377,-0.0076467107235072,-0.04174501948034737,0,70,255.0,255.0,255.0
56,2.8000000000000003,1.4525013046689592,-4.524791819967661,-0.16559166185207638,-0.034296175882024965,-0.018010811252513706,-0.11887621761273828,-0.01273331128426589,-0.0066413585956326794,-0.04170632453254195,0,70,255.0,255.0,255.0
57,2.85,1.4507707760597077,-4.525700243331811,-0.17158758951548403,-0.03492103200892782,-0.018317745379098475,-0.12096056646567024,-0.012260933791848404,-0.005636006467758168,-0.041667629584736535,0,70,255.0,255.0,255.0
58,2.9000000000000004,1.4490095951159767,-4.526622756712132,-0.17768768625285356,-0.035522269261209806,-0.018574411899289524,-0.12304298057121195,-0.011788556299430916,-0.004630654339883649,-0.04162893463693111,0,70,255.0,255.0,255.0
59,2.95,1.447218942781497,-4.5275568467283005,-0.1838918553268154,-0.03609988763887091,-0.018780810813086843,-0.12512345992936336,-0.011316178807013431,-0.003625302212009137,-0.041590239689125695,0,70,255.0,255.0,255.0
60,3.0,1.4454,-4.5285,-0.1902,-0.03665388714191115,-0.018936942120490435,-0.1272020045401245,-0.010843801314596113,-0.0026199500841346257,-0.041551544741320834,0,70,255.0,255.0,255.0
61,3.0500000000000003,1.4435537696158736,-4.529450793171868,-0.19661204776266733,-0.03719495373089271,-0.019108207318976358,-0.1292800680612558,-0.01079886224466614,-0.004230657855302198,-0.041570996103930516,0,70,255.0,255.0,255.0
62,3.1,1.4416805420761358,-4.530412162988373,-0.20312802301559443,-0.03773377336637777,-0.019360007906020653,-0.13135910415051757,-0.010753923174736169,-0.005841365626469756,-0.04159044746654019,0,70,255.0,255.0,255.0
63,3.1500000000000004,1.4397804297284607,-4.531388136218946,-0.20974797438718792,-0.03827034604836633,-0.019692343881623334,-0.13343911280790982,-0.010708984104806196,-0.007452073397637327,-0.04160989882914987,0,70,255.0,255.0,255.0
64,3.2,1.437853544920524,-4.532382739633012,-0.2164719505058543,-0.03880467177685839,-0.02010521524578439,-0.13552009403343257,-0.010664045034876224,-0.009062781168804886,-0.04162935019175955,0,70,255.0,255.0,255.0
65,3.25,1.4359,-4.5334,-0.2233,-0.039336750551853955,-0.020598621998503822,-0.13760204782708577,-0.010619105964946307,-0.010673488939972414,-0.04164880155436923,0,70,255.0,255.0,255.0
66,3.3000000000000003,1.433919616867546,-4.534442607344868,-0.23023214709725454,-0.039884009194404595,-0.021092359471582327,-0.1396835101422384,-0.011271239737079289,-0.009076009983167719,-0.041609691051736196,0,70,255.0,255.0,255.0
67,3.35,1.4319110556357493,-4.535507904714694,-0.2372683184221383,-0.04046387452556188,-0.021506222996820597,-0.14176301693225937,-0.011923373509212267,-0.007478531026363036,-0.04157058054910316,0,70,255.0,255.0,255.0
68,3.4000000000000004,1.4298726859701798,-4.5365918984120865,-0.24440841619839493,-0.041076346545325826,-0.021840212574218632,-0.14384056819714874,-0.012575507281345249,-0.00588105206955834,-0.041531470046470134,0,70,255.0,255.0,255.0
69,3.45,1.4278028775364067,-4.537690594739652,-0.2516523426497677,-0.04172142525369641,-0.02209432820377643,-0.1459161639369064,-0.013227641053478225,-0.004283573112753658,-0.0414923595438371,0,70,255.0,255.0,255.0
70,3.5,1.4257,-4.5388,-0.259,-0.04239911065067365,-0.022268569885493993,-0.14798980415153243,-0.013879774825611368,-0.002686094155948948,-0.041453249041204066,0,70,255.0,255.0,255.0
71,3.5500000000000003,1.423562962913942,-4.53991717744866,-0.2664513638483148,-0.04307700949148916,-0.022426354794692946,-0.1500658913697907,-0.013236178807009077,-0.0036253022120091567,-0.041590239689125987,0,70,255.0,255.0,255.0
72,3.6,1.4213928353808667,-4.54104341815285,-0.27400670329585236,-0.04372272853137456,-0.022631100106694908,-0.15214882812044506,-0.012592582788406791,-0.0045645102680693566,-0.04172723033704791,0,70,255.0,255.0,255.0
73,3.6500000000000004,1.41919122639082,-4.542181070132709,-0.2816663608192326,-0.04433626777032984,-0.02288280582149988,-0.15423861440349548,-0.0119489867698045,-0.005503718324129565,-0.04186422098496983,0,70,255.0,255.0,255.0
74,3.7,1.4169597449338491,-4.543332481408379,-0.2894306788950752,-0.044917627208355015,-0.023181471939107863,-0.156335250218942,-0.011305390751202214,-0.006442926380189765,-0.04200121163289174,0,70,255.0,255.0,255.0
75,3.75,1.4147,-4.5445,-0.2973,-0.045466806845450056,-0.023527098459518857,-0.15843873556678464,-0.01066179473259976,-0.007382134436249965,-0.04213820228081322,0,70,255.0,255.0,255.0
76,3.8000000000000003,1.4124133314766858,-4.545685482860494,-0.3052743975094866,-0.045999952839637065,-0.02389022134964534,-0.16053292437859898,-0.010664045034880476,-0.007142781168809363,-0.04162935019175884,0,70,255.0,255.0,255.0
77,3.85,1.4101000028407844,-4.546888822673909,-0.3133528683944524,-0.046533211348938106,-0.02424137657639979,-0.16260167058596053,-0.01066629533716119,-0.006903427901368764,-0.04112049810270446,0,70,255.0,255.0,255.0
78,3.9000000000000004,1.4077600084665403,-4.5481094210570765,-0.32153414052467505,-0.047066582373353184,-0.02458056413978222,-0.1646449741888694,-0.010668545639441907,-0.0066640746339281616,-0.040611646013650075,0,70,255.0,255.0,255.0
79,3.95,1.4053933427281973,-4.54934667962683,-0.3298169417699318,-0.047600065912882294,-0.024907784039792612,-0.16666283518732555,-0.010670795941722622,-0.006424721366487561,-0.0401027939245957,0,70,255.0,255.0,255.0
80,4.0,1.403,-4.5506,-0.3382,-0.04813366196752544,-0.025223036276430973,-0.16865525358132893,-0.010673046244003448,-0.006185368099046906,-0.0395939418355411,0,70,255.0,255.0,255.0
81,4.05,1.400579711179315,-4.551868891109367,-0.34668224611373927,-0.048683179149962494,-0.025532759806725872,-0.1706344111158134,-0.01130764105347861,-0.006203573112749139,-0.03957235954383744,0,70,255.0,255.0,255.0
82,4.1000000000000005,1.3981311532559957,-4.553153291151518,-0.3552634231263383,-0.04926442607287331,-0.02584339358770589,-0.17261248953571268,-0.011942235862953784,-0.006221778126451372,-0.03955077725213378,0,70,255.0,255.0,255.0
83,4.15,1.3956527397430196,-4.554453245638983,-0.3639434770820676,-0.049877402736257875,-0.026154937619371012,-0.1745894888410268,-0.012576830672428945,-0.006239983140153604,-0.03952919496043013,0,70,255.0,255.0,255.0
84,4.2,1.3931428841533622,-4.555768800084299,-0.3727223540251979,-0.0505221091401162,-0.02646739190172125,-0.1765654090317557,-0.013211425481904106,-0.006258188153855837,-0.03950761266872647,0,70,255.0,255.0,255.0
85,4.25,1.3906,-4.5571,-0.3816,-0.051198545284448276,-0.026780756434756595,-0.1785402501078994,-0.013846020291378991,-0.006276393167558014,-0.03948603037702214,0,70,255.0,255.0,255.0
86,4.3,1.3880230238060551,-4.5584469527020355,-0.39057661803555616,-0.05187533056051279,-0.02709873942345029,-0.18052943115814724,-0.013225390751201806,-0.00644292638018975,-0.04008121163289169,0,70,255.0,255.0,255.0
87,4.3500000000000005,1.3854129841352323,-4.559810012720022,-0.3996534391001947,-0.05252108435956846,-0.027425049072775574,-0.1825483712711886,-0.012604761211024612,-0.006609459592821489,-0.040676392888761244,0,70,255.0,255.0,255.0
88,4.4,1.3827714325613818,-4.561189596386991,-0.408831951147055,-0.053135806681615265,-0.027759685382732442,-0.1845970704470234,-0.011984131670847427,-0.006775992805453225,-0.04127157414463079,0,70,255.0,255.0,255.0
89,4.45,1.3800999206583542,-4.562586120035972,-0.4181136421292769,-0.0537194975266532,-0.02810264835332089,-0.18667552868565163,-0.011363502130670243,-0.006942526018084961,-0.04186675540050033,0,70,255.0,255.0,255.0
90,4.5,1.3774,-4.564,-0.4275,-0.05427215689468228,-0.028453937984540933,-0.18878374598707337,-0.010742872590493169,-0.007109059230716586,-0.04246193665636966,0,70,255.0,255.0,255.0
91,4.55,1.3746729935964648,-4.565431298082489,-0.4369920817440358,-0.05480749860798768,-0.028792282499471036,-0.1908958642515975,-0.010670795941722766,-0.006424721366487509,-0.04202279392459545,0,70,255.0,255.0,255.0
92,4.6000000000000005,1.3719193102030751,-4.5668786579683935,-0.44658922047288335,-0.05533923648885457,-0.029096410121189686,-0.19298602537953294,-0.010598719292952363,-0.0057403835022584206,-0.04158365119282123,0,70,255.0,255.0,255.0
93,4.65,1.369139130011453,-4.568340368813054,-0.4562903183297128,-0.055867370537282926,-0.02936632084969688,-0.19505422937087966,-0.01052664264418196,-0.005056045638029345,-0.04114450846104702,0,70,255.0,255.0,255.0
94,4.7,1.3663326332132208,-4.569814719771809,-0.46609427745769483,-0.05639190075327275,-0.029602014684992618,-0.19710047622563762,-0.010454565995411558,-0.0043717077738002685,-0.04070536572927281,0,70,255.0,255.0,255.0
95,4.75,1.3635,-4.5713,-0.476,-0.05691282713682407,-0.029803491627076906,-0.1991247659438069,-0.010382489346640933,-0.0036873699095711365,-0.040266222997497714,0,70,255.0,255.0,255.0
96,4.800000000000001,1.3606410018080857,-4.57279505496801,-0.48600625498830036,-0.05745467500753759,-0.030004130578662695,-0.20111911183546255,-0.01129142548189981,-0.004338188153860299,-0.03950761266872681,0,70,255.0,255.0,255.0
97,4.8500000000000005,1.3577537750524666,-4.574300955406403,-0.49611127900827234,-0.05804196968501406,-0.030237310442462938,-0.2030755272106796,-0.012200361617158671,-0.00498900639814945,-0.03874900233995592,0,70,255.0,255.0,255.0
98,4.9,1.354836047392805,-4.575819328360793,-0.5063131755340943,-0.05867471116925346,-0.03050303121847764,-0.2049940120694581,-0.013109297752417532,-0.0056398246424386005,-0.03799039201118503,0,70,255.0,255.0,255.0
99,4.95,1.351885546488762,-4.577351800876788,-0.5166100480399441,-0.059352899460255806,-0.030801292906706797,-0.2068745664117981,-0.014018233887676394,-0.006290642886727751,-0.037231781682414145,0,70,255.0,255.0,255.0
100,5.0,1.3489,-4.5789,-0.527,-0.06007653455802109,-0.03113209550715041,-0.20871719023769955,-0.014927170022934866,-0.006941461131016957,-0.03647317135364392,0,70,255.0,255.0,255.0
101,5.050000000000001,1.3458781991711921,-4.580465282045474,-0.5374820983027633,-0.06078180136186132,-0.03147919518587796,-0.21057968840655317,-0.01328350213067424,-0.006942526018084949,-0.0380267554004998,0,70,255.0,255.0,255.0
102,5.1000000000000005,1.3428231895870573,-4.582047920405994,-0.5480592634940278,-0.061404884771088526,-0.03182634810895891,-0.21251986577774953,-0.011639834238413643,-0.006943590905152941,-0.03958033944735566,0,70,255.0,255.0,255.0
103,5.15,1.3397390804173268,-4.583647917743776,-0.5587353795339106,-0.06194578478570269,-0.032173554276393256,-0.21453772235128873,-0.009996166346153045,-0.006944655792220933,-0.04113392349421151,0,70,255.0,255.0,255.0
104,5.2,1.3366299808317306,-4.585265276721039,-0.5695143303825291,-0.062404501405703826,-0.032520813688181,-0.21663325812717069,-0.008352498453892448,-0.0069457206792889244,-0.042687507541067364,0,70,255.0,255.0,255.0
105,5.25,1.3335,-4.5869,-0.5804,-0.06278103463109193,-0.032868126344322145,-0.21880647310539544,-0.006708830561631962,-0.006946785566356917,-0.044241091587922776,0,70,255.0,255.0,255.0
106,5.300000000000001,1.3303518015071458,-4.588551816850094,-0.5913949518006472,-0.06316211954501802,-0.033199088677825964,-0.22097813453832527,-0.008534565995411829,-0.006291707773795754,-0.04262536572926978,0,70,255.0,255.0,255.0
107,5.3500000000000005,1.3271822665993034,-4.590219362969622,-0.6024964670156171,-0.06363449123063311,-0.03349729712170172,-0.22306900967832244,-0.010360301429191662,-0.005636629981234602,-0.041009639870616815,0,70,255.0,255.0,255.0
108,5.4,1.3239868309378877,-4.591901000664104,-0.6137005063302636,-0.06419814968793719,-0.03376275167594943,-0.22507909852538696,-0.012186036862971497,-0.00498155218867345,-0.03939391401196385,0,70,255.0,255.0,255.0
109,5.45,1.3207609301843148,-4.593595092239056,-0.6250030304299402,-0.06485309491693025,-0.03399545234056907,-0.2270084010795188,-0.01401177229675133,-0.004326474396112299,-0.03777818815331088,0,70,255.0,255.0,255.0
110,5.5,1.3175,-4.5953,-0.6364,-0.0655993269176123,-0.03419539911556065,-0.22885691734071803,-0.015837507730531275,-0.003671396603551147,-0.03616246229465836,0,70,255.0,255.0,255.0
111,5.550000000000001,1.314200994800224,-4.59701465055415,-0.6478884944946492,-0.0663457204580674,-0.03439645010281774,-0.23069177344014494,-0.014018233887672002,-0.0043706428867322554,-0.037231781682416955,0,70,255.0,255.0,255.0
112,5.6000000000000005,1.3108669440157288,-4.598740227715519,-0.6594700684435044,-0.06700115030637951,-0.03463246340423388,-0.23258009550895975,-0.01219896004481276,-0.005069889169913352,-0.038301101070175536,0,70,255.0,255.0,255.0
113,5.65,1.3075023958311218,-4.6004784795998095,-0.671147395145035,-0.06756561646254867,-0.03490343901980907,-0.23452188354716247,-0.010379686201953519,-0.005769135453094447,-0.03937042045793412,0,70,255.0,255.0,255.0
114,5.7,1.3041118984310096,-4.602231154322734,-0.6829231478977104,-0.06803911892657487,-0.035209376949543326,-0.23651713755475315,-0.008560412359094275,-0.0064683817362755445,-0.04043973984569269,0,70,255.0,255.0,255.0
115,5.75,1.3007,-4.604,-0.6948,-0.0684216576984581,-0.03555027719343663,-0.23856585753173176,-0.006741138516235035,-0.007167628019456473,-0.04150905923345238,0,70,255.0,255.0,255.0
116,5.800000000000001,1.2972698192919576,-4.605786380933305,-0.7067798702207568,-0.0687989986227113,-0.03590311091090527,-0.24062277170109483,-0.0083524984538925,-0.006945720679288822,-0.04076750754106974,0,70,255.0,255.0,255.0
117,5.8500000000000005,1.2938187573377806,-4.607590126168307,-0.7188616592103659,-0.06925690754384735,-0.03624484926136552,-0.24264260828583878,-0.009963858391549936,-0.006723813339121174,-0.0400259558486871,0,70,255.0,255.0,255.0
118,5.9,1.290342785737625,-4.609410680936658,-0.7310435130895968,-0.06979538446186628,-0.03657549224481738,-0.24462536728596354,-0.011575218329207371,-0.006501905998953526,-0.03928440415630447,0,70,255.0,255.0,255.0
119,5.95,1.2868378760916461,-4.611247490470006,-0.7433235779792186,-0.07041442937676808,-0.03689503986126087,-0.2465710487014692,-0.013186578266864807,-0.0062799986587858785,-0.038542852463921834,0,70,255.0,255.0,255.0
120,6.0,1.2833,-4.6131,-0.7557,-0.07111404228855275,-0.03720349211069597,-0.24847965253235568,-0.014797938204522021,-0.0060580913186181196,-0.03780130077153854,0,70,255.0,255.0,255.0
121,6.050000000000001,1.279726128031945,-4.6149678257126325,-0.7681712246223248,-0.0718342850510848,-0.037511106253564123,-0.2503691397554768,-0.014011772296759728,-0.006246474396107818,-0.03777818815330645,0,70,255.0,255.0,255.0
122,6.1000000000000005,1.276117226633148,-4.616851267611254,-0.7807368947150327,-0.07251521951822874,-0.037828139550306755,-0.25225747134768634,-0.01322560638899745,-0.006434857473597512,-0.03775507553507436,0,70,255.0,255.0,255.0
123,6.15,1.2724752612183787,-4.618750796653561,-0.7933969524965782,-0.07315684568998454,-0.03815459200092387,-0.25414464730898423,-0.01243944048123517,-0.006623240551087208,-0.03773196291684226,0,70,255.0,255.0,255.0
124,6.2,1.2688021972024062,-4.620666883797246,-0.8061513401854158,-0.07375916356635226,-0.03849046360541547,-0.25603066763937055,-0.01165327457347289,-0.0068116236285769025,-0.03770885029861017,0,70,255.0,255.0,255.0
125,6.25,1.2651,-4.6226,-0.819,-0.07432217314733183,-0.03883575436378156,-0.2579155323388453,-0.010867108665710168,-0.007000006706066486,-0.037685737680379194,0,70,255.0,255.0,255.0
126,6.300000000000001,1.261370468580262,-4.624550316216168,-0.831943231289945,-0.07485586117295183,-0.03917246407484012,-0.2598206692769972,-0.01048041235908967,-0.0064683817362754786,-0.038519739845696066,0,70,255.0,255.0,255.0
127,6.3500000000000005,1.257614736129627,-4.626516803386675,-0.8449827619295043,-0.0753702143832408,-0.039482592537409114,-0.26176750632341494,-0.010093716052469177,-0.00593675676648448,-0.039353742011012924,0,70,255.0,255.0,255.0
128,6.4,1.2538337693888604,-4.6284981324491,-0.8581206769240909,-0.07586523277819875,-0.03976613975148856,-0.26375604347809845,-0.009707019745848686,-0.005405131796693482,-0.04018774417632978,0,70,255.0,255.0,255.0
129,6.45,1.250028535098729,-4.630492974341017,-0.8713590612791184,-0.07634091635782568,-0.040023105717078455,-0.26578628074104793,-0.009320323439228194,-0.004873506826902484,-0.04102174634164664,0,70,255.0,255.0,255.0
130,6.5,1.2462,-4.6325,-0.8847,-0.07679726512212155,-0.0402534904341788,-0.26785821811226307,-0.008933627132607813,-0.00434188185711154,-0.04185574850696128,0,70,255.0,255.0,255.0
131,6.550000000000001,1.2423487976470056,-4.634518109422698,-0.8981446502178958,-0.07725427025710828,-0.040471037447075926,-0.26991618313653515,-0.009346578266861078,-0.004359998658773334,-0.04046285246392037,0,70,255.0,255.0,255.0
132,6.6000000000000005,1.2384742288483441,-4.636547118842042,-0.9116904575669512,-0.07773192294880767,-0.040689490300056134,-0.2719045033586551,-0.009759529401114336,-0.0043781154604351285,-0.03906995642087948,0,70,255.0,255.0,255.0
133,6.65,1.2345752612261796,-4.638587073550038,-0.9253339398070587,-0.07823022319721971,-0.04090884899311944,-0.2738231787786231,-0.010172480535367592,-0.004396232262096922,-0.03767706037783859,0,70,255.0,255.0,255.0
134,6.7,1.2306508624026766,-4.640638018838689,-0.939071614698111,-0.07874917100234442,-0.041129113526265824,-0.27567220939643894,-0.01058543166962085,-0.004414349063758716,-0.036284164334797704,0,70,255.0,255.0,255.0
135,6.75,1.2267,-4.6427,-0.9529,-0.07928876636418179,-0.04135028389949531,-0.2774515952121028,-0.010998382803873885,-0.004432465865420565,-0.03489126829175726,0,70,255.0,255.0,255.0
136,6.800000000000001,1.2227215408317151,-4.644773246093041,-0.9668165678384728,-0.07985505779861557,-0.041583386136845785,-0.279218598176862,-0.011653274573476877,-0.004891623628598369,-0.03578885029861186,0,70,255.0,255.0,255.0
137,6.8500000000000005,1.2187139484769969,-4.646858721245154,-0.9808226078026919,-0.08045409382152949,-0.041839446262355154,-0.281030480241964,-0.012308166343079859,-0.005350781391776165,-0.036686432305466456,0,70,255.0,255.0,255.0
138,6.9,1.214675585706421,-4.648957573350746,-0.9949203638476749,-0.08108587443292355,-0.04211846427602341,-0.2828872414074086,-0.01296305811268284,-0.005809939154953961,-0.03758401431232104,0,70,255.0,255.0,255.0
139,6.95,1.2106048152905633,-4.651070950304225,-1.0091120799284385,-0.08175039963279777,-0.042420440177850544,-0.2847888816731961,-0.01361794988228582,-0.006269096918131757,-0.03848159631917563,0,70,255.0,255.0,255.0
140,7.0,1.2065,-4.6532,-1.0234,-0.08244766942115213,-0.04274537396783657,-0.28673540103932627,-0.014272841651888357,-0.006728254681309609,-0.03937917832602977,0,70,255.0,255.0,255.0
141,7.050000000000001,1.2023602390261325,-4.6553457062051375,-1.037785878428214,-0.08313349854842994,-0.04308341800554219,-0.2886974241560181,-0.013160323439223338,-0.0067935068269150975,-0.039101746341645156,0,70,255.0,255.0,255.0
142,7.1000000000000005,1.1981875772436674,-4.6575083961773425,-1.0522695112222817,-0.08376370176507447,-0.04342472465052809,-0.2906455756734908,-0.012047805226558338,-0.006858758972520585,-0.038824314357260546,0,70,255.0,255.0,255.0
143,7.15,1.1939847959481358,-4.659688233046978,-1.0668502048022426,-0.08433827907108575,-0.04376929390279425,-0.2925798555917442,-0.01093528701389334,-0.006924011118126073,-0.038546882372875936,0,70,255.0,255.0,255.0
144,7.2,1.1897546764350695,-4.66188537994441,-1.0815272655881356,-0.0848572304664638,-0.04411712576234069,-0.2945002639107784,-0.00982276880122834,-0.00698926326373156,-0.03826945038849132,0,70,255.0,255.0,255.0
145,7.25,1.1855,-4.6641,-1.0963,-0.08532055595120859,-0.044468220229167396,-0.2964068006305933,-0.00871025058856334,-0.007054515409336992,-0.03799201840410582,0,70,255.0,255.0,255.0
146,7.300000000000001,1.1812231030637532,-4.66633192908641,-1.111167918448673,-0.08575494800766331,-0.04480294184099383,-0.2983117051990658,-0.008665431669625322,-0.006334349063720181,-0.03820416433479288,0,70,255.0,255.0,255.0
147,7.3500000000000005,1.1769245425483326,-4.668579694045479,-1.1261313473081824,-0.08618709911817113,-0.04510165513553942,-0.3002272170640726,-0.008620612750687305,-0.005614182718103381,-0.03841631026547994,0,70,255.0,255.0,255.0
148,7.4,1.1726044305010355,-4.670841494461343,-1.1411908169433558,-0.08661700928273204,-0.04536436011280417,-0.3021533362256138,-0.00857579383174929,-0.0048940163724865825,-0.038628456196167,0,70,255.0,255.0,255.0
149,7.45,1.1682628789691587,-4.673115529918137,-1.1563468577190192,-0.08704467850134605,-0.045591056772788074,-0.3040900626836893,-0.008530974912811273,-0.004173850026869782,-0.03884060212685405,0,70,255.0,255.0,255.0
150,7.5,1.1639,-4.6754,-1.1716,-0.08747010677401316,-0.045781745115491136,-0.30603739643829925,-0.008486155993873035,-0.003453683681252817,-0.03905274805754155,0,70,255.0,255.0,255.0
151,7.550000000000001,1.1595153487188534,-4.677693777449225,-1.1869504477770962,-0.08792670942091714,-0.045976814630476294,-0.30797575504771735,-0.009777949882285994,-0.004349096918153263,-0.03848159631918219,0,70,255.0,255.0,255.0
152,7.6000000000000005,1.1551062525630011,-4.6799984276407445,-1.20239709954499,-0.08844790176224178,-0.04621665480730647,-0.3098855560702175,-0.011069743770698928,-0.005244510155053693,-0.037910444580822836,0,70,255.0,255.0,255.0
153,7.65,1.1506694820477221,-4.682316189107653,-1.2179385274243357,-0.08903368379798704,-0.04650126564598166,-0.31176679950579966,-0.012361537659111863,-0.006139923391954122,-0.037339292842463484,0,70,255.0,255.0,255.0
154,7.7,1.1462018076882954,-4.6846493003830405,-1.2335733035357879,-0.08968405552815295,-0.046830647146501876,-0.3136194853544638,-0.013653331547524798,-0.007035336628854553,-0.03676814110410413,0,70,255.0,255.0,255.0
155,7.75,1.1417,-4.687,-1.2493,-0.0903990169527395,-0.04720479930886711,-0.31544361361621004,-0.014945125435937179,-0.007930749865754871,-0.03619698936574478,0,70,255.0,255.0,255.0
156,7.800000000000001,1.1371619020608326,-4.689369761116692,-1.265117490442944,-0.09111421430866852,-0.04757779963710427,-0.31725727461006586,-0.013662768801223527,-0.00698926326373148,-0.03634945038848683,0,70,255.0,255.0,255.0
157,7.8500000000000005,1.1325896471996622,-4.691756995391542,-1.2810258545118591,-0.09176529383286186,-0.047903725635240264,-0.31907855865505874,-0.0123804121665099,-0.006047776661708105,-0.036501911411228875,0,70,255.0,255.0,255.0
158,7.9,1.1279864413080751,-4.694159349108047,-1.297025473359302,-0.0923522555253195,-0.04818257730327508,-0.3209074657511887,-0.011098055531796271,-0.0051062900596847306,-0.03665437243397092,0,70,255.0,255.0,255.0
159,7.95,1.123355490277659,-4.696574468549702,-1.31311672813783,-0.0928750993860415,-0.04841435464120874,-0.3227439958984558,-0.009815698897082642,-0.004164803457661356,-0.03680683345671296,0,70,255.0,255.0,255.0
160,8.0,1.1187,-4.699,-1.3293,-0.09333382541502776,-0.04859905764904122,-0.32458814909686,-0.008533342262368904,-0.00322331685563787,-0.03695929447945412,0,70,255.0,255.0,255.0
161,8.05,1.1140226430378164,-4.701434378084009,-1.3455755904511288,-0.09376043334440738,-0.048783986821103485,-0.32643514651201777,-0.00853097491281558,-0.004173850026852624,-0.03692060212685435,0,70,255.0,255.0,255.0
162,8.1,1.1093239586383508,-4.703879190793085,-1.3619434824075745,-0.09418692290630931,-0.04901644265172648,-0.32828020930954543,-0.008528607563262259,-0.0051243831980673435,-0.03688190977425458,0,70,255.0,255.0,255.0
163,8.15,1.1046039527199767,-4.706336814460157,-1.3784035791384561,-0.0946132941007336,-0.04929642514091021,-0.3301233374894432,-0.008526240213708935,-0.006074916369282098,-0.03684321742165482,0,70,255.0,255.0,255.0
164,8.200000000000001,1.0998626312010682,-4.708809625418153,-1.394955783912892,-0.09503954692768021,-0.04962393428865469,-0.331964531051711,-0.008523872864155613,-0.007025449540496852,-0.03680452506905505,0,70,255.0,255.0,255.0
165,8.25,1.0951,-4.7113,-1.4116,-0.09546568138714916,-0.0499989700949599,-0.3338037899963487,-0.00852150551460229,-0.00797598271171146,-0.036765832716454394,0,70,255.0,255.0,255.0
166,8.3,1.0903155257879023,-4.713809526547269,-1.4283361477525414,-0.09592405231370234,-0.0503742530784749,-0.33564213934186277,-0.00981333154752497,-0.0070353366288885754,-0.03676814110410822,0,70,255.0,255.0,255.0
167,8.35,1.0855065182469357,-4.7163366414361105,-1.4451642158578426,-0.09644701454190165,-0.05070250375784876,-0.3374806041067595,-0.011105157580447602,-0.006094690546065724,-0.036770449491762044,0,70,255.0,255.0,255.0
168,8.4,1.080669747812018,-4.718878993051319,-1.4620842100868736,-0.09703456807174711,-0.05098372213308147,-0.33931918429103897,-0.01239698361337028,-0.00515404446324284,-0.03677275787941588,0,70,255.0,255.0,255.0
169,8.450000000000001,1.0758019849180667,-4.721434229777684,-1.4790961362106034,-0.0976867129032387,-0.051217908204173046,-0.34115787989470114,-0.01368880964629296,-0.004213398380419954,-0.0367750662670697,0,70,255.0,255.0,255.0
170,8.5,1.0709,-4.724,-1.4962,-0.09840344903637638,-0.051405061971123475,-0.34299669091774593,-0.014980635679215482,-0.003272752297597159,-0.03677737465472264,0,70,255.0,255.0,255.0
171,8.55,1.0659616538105747,-4.726574715726912,-1.5133958185387066,-0.09911935740078372,-0.05159100086500452,-0.3448362961205317,-0.013655698897077854,-0.004164803457644285,-0.03680683345670817,0,70,255.0,255.0,255.0
172,8.6,1.060989168373907,-4.729159843462468,-1.5306836541610547,-0.09976901892608415,-0.051821542316887896,-0.3466773742634167,-0.012330762114940273,-0.00505685461769138,-0.03683629225869369,0,70,255.0,255.0,255.0
173,8.65,1.0559858560319513,-4.731757613334567,-1.5480635805140501,-0.10035243361227775,-0.05209668632677365,-0.3485199253464011,-0.011005825332802645,-0.005948905777738506,-0.03686575106067922,0,70,255.0,255.0,255.0
174,8.700000000000001,1.0509550291266638,-4.734370255471112,-1.565535671244697,-0.10086960145936444,-0.05241643289466176,-0.35036394936948473,-0.009680888550665017,-0.006840956937785633,-0.03689520986266474,0,70,255.0,255.0,255.0
175,8.75,1.0459,-4.737,-1.5831,-0.10132052246734424,-0.05278078202055222,-0.3522094463326675,-0.008355951768527214,-0.00773300809783245,-0.03692466866464983,0,70,255.0,255.0,255.0
176,8.8,1.0408234589697989,-4.739648410545084,-1.6007565780926332,-0.10174251808316141,-0.053149743461510024,-0.35405267617601016,-0.008523872864159811,-0.007025449540479568,-0.03680452506905496,0,70,255.0,255.0,255.0
177,8.85,1.0357256082574378,-4.74231438471402,-1.6185051674979376,-0.10217290975376023,-0.053483326974600176,-0.35588989883957295,-0.008691793959792403,-0.006317890983126712,-0.03668438147346009,0,70,255.0,255.0,255.0
178,8.9,1.0306060280601768,-4.744996153610414,-1.6363454678569271,-0.10261169747914066,-0.05378153255982269,-0.3577211143233561,-0.008859715055425,-0.0056103324257738285,-0.036564237877865224,0,70,255.0,255.0,255.0
179,8.950000000000001,1.025464298575277,-4.747691948337871,-1.654277178810611,-0.10305888125930274,-0.05404436021717756,-0.3595463226273596,-0.009027636151057597,-0.004902773868420947,-0.036444094282270356,0,70,255.0,255.0,255.0
180,9.0,1.0203,-4.7504,-1.6723,-0.10351446109424642,-0.05427180994666478,-0.3613655237515832,-0.009195557246690411,-0.004195215311068035,-0.03632395068667682,0,70,255.0,255.0,255.0
181,9.05,1.0151125103102294,-4.753118842092752,-1.6904138690907629,-0.10399057026657102,-0.05448202528895241,-0.363192999175427,-0.009848809646293387,-0.00421339838043715,-0.03677506626707397,0,70,255.0,255.0,255.0
182,9.1,1.0099003985963435,-4.755848217681454,-1.708619675847193,-0.10449934205887575,-0.054693149784708496,-0.3650430303782906,-0.010502062045896338,-0.004231581449806265,-0.037226181847471104,0,70,255.0,255.0,255.0
183,9.15,1.004662031727342,-4.75858817222378,-1.726918548058242,-0.10504077647116065,-0.05490518343393303,-0.3669156173601741,-0.011155314445499314,-0.004249764519175381,-0.03767729742786825,0,70,255.0,255.0,255.0
184,9.200000000000001,0.9993957765722274,-4.761338751177404,-1.7453116135128612,-0.1056148735034257,-0.05511812623662604,-0.36881076012107744,-0.01180856684510229,-0.004267947588544496,-0.0381284130082654,0,70,255.0,255.0,255.0
185,9.25,0.9941,-4.7641,-1.7638,-0.10622163315567089,-0.05533197819278748,-0.3707284586610007,-0.01246181924470513,-0.004286130657913556,-0.03857952858866298,0,70,255.0,255.0,255.0
186,9.3,0.988773699789283,-4.766872221083912,-1.782383945544317,-0.10682320085055509,-0.05556215538268007,-0.3726153271222838,-0.011600888550662446,-0.0049209569377900424,-0.03689520986265966,0,70,255.0,255.0,255.0
187,9.35,0.9834183973571895,-4.769656744560168,-1.8010601291132897,-0.10738172201073713,-0.055824073886566475,-0.37441797964726664,-0.010739957856619792,-0.005555783217666505,-0.035210891136656396,0,70,255.0,255.0,255.0
188,9.4,0.9780362450304544,-4.772455157494468,-1.819824339910105,-0.10789719663621705,-0.05611773370444672,-0.3761364162359494,-0.009879027162577108,-0.006190609497542992,-0.03352657241065308,0,70,255.0,255.0,255.0
189,9.450000000000001,0.9726293951358127,-4.775269046952513,-1.8386723671379472,-0.10836962472699485,-0.05644313483632078,-0.37777063688833196,-0.009018096468534423,-0.006825435777419477,-0.031842253684649754,0,70,255.0,255.0,255.0
190,9.5,0.9672,-4.7781,-1.8576,-0.10879900628307049,-0.056800277282188665,-0.3793206416044144,-0.008157165774491215,-0.007460262057295941,-0.03015793495864605,0,70,255.0,255.0,255.0
191,9.55,0.961749490532638,-4.780949073571603,-1.8766047487319708,-0.10922862633120922,-0.05715735318033148,-0.3808896923354374,-0.009027636151057563,-0.006822773868416434,-0.03260409428227108,0,70,255.0,255.0,255.0
192,9.600000000000001,0.9562764119748983,-4.783815204077876,-1.8956910076996472,-0.10970176989817626,-0.057482554669030315,-0.3825810510326416,-0.00989810652762391,-0.006185285679536927,-0.035050253605896114,0,70,255.0,255.0,255.0
193,9.65,0.9507785881508399,-4.786696797798348,-1.9148648923013378,-0.11021843698397159,-0.05777588174828517,-0.38439471769602696,-0.010768576904190225,-0.005547797490657442,-0.03749641292952106,0,70,255.0,255.0,255.0
194,9.700000000000001,0.9452538428845207,-4.789592261012547,-1.9341325179353526,-0.11077862758859527,-0.058037334418096054,-0.38633069232559364,-0.011639047280756572,-0.004910309301777935,-0.03994257225314609,0,70,255.0,255.0,255.0
195,9.75,0.9397,-4.7925,-1.9535,-0.11138234171204726,-0.058266912678462957,-0.38838897492134156,-0.012509517657323221,-0.004272821112898395,-0.04238873157677103,0,70,255.0,255.0,255.0
196,9.8,0.9341155380801643,-4.795418684629679,-1.9729714595278014,-0.11199029382460791,-0.0584804318959986,-0.3904499035359676,-0.011808566845102465,-0.004267947588527399,-0.040048413008269945,0,70,255.0,255.0,255.0
197,9.850000000000001,0.9285015547432159,-4.798348039128331,-1.9925430400881237,-0.11256319839655753,-0.0586937074373157,-0.3923938162221686,-0.011107616032881708,-0.004263074064156402,-0.03770809443976886,0,70,255.0,255.0,255.0
198,9.9,0.9228598023661855,-4.801288051312141,-2.0122088908845446,-0.11310105542789609,-0.05890673930241424,-0.3942207129799445,-0.010406665220660978,-0.004258200539785406,-0.035367775871267854,0,70,255.0,255.0,255.0
199,9.950000000000001,0.9171920333261032,-4.804238708997301,-2.031963161120644,-0.11360386491862362,-0.059119527491294246,-0.39593059380929535,-0.00970571440844022,-0.00425332701541441,-0.033027457302766766,0,70,255.0,255.0,255.0
200,10.0,0.9115,-4.8072,-2.0518,-0.11407162686874012,-0.05933207200395568,-0.39752345871022116,-0.009004763596219156,-0.0042484534910436356,-0.030687138734263986,0,70,255.0,255.0,255.0
201,10.05,0.9057851571467042,-4.810172187909681,-2.071715013156825,-0.11452219837035894,-0.05956091923566738,-0.3990866935206939,-0.009018096468533887,-0.004905435777424048,-0.031842253684644925,0,70,255.0,255.0,255.0
202,10.100000000000001,0.900047769052237,-4.813156639408805,-2.091709631947862,-0.11497343651559351,-0.059822615581698095,-0.4007076840786857,-0.009031429340848619,-0.00556241806380446,-0.03299736863502586,0,70,255.0,255.0,255.0
203,10.15,0.8942878023844179,-4.816154996953089,-2.1117867441604856,-0.1154253413044438,-0.06011716104204782,-0.40238643038419647,-0.00904476221316335,-0.00621940035018485,-0.034152483585406755,0,70,255.0,255.0,255.0
204,10.200000000000001,0.8885052238110657,-4.819168902998249,-2.131949237582073,-0.11587791273690985,-0.06044455561671658,-0.40412293243722636,-0.00905809508547808,-0.006876382636565263,-0.03530759853578769,0,70,255.0,255.0,255.0
205,10.25,0.8827,-4.8222,-2.1522,-0.11633115081299161,-0.06080479930570434,-0.4059171902377752,-0.009071427957792366,-0.007533364922945651,-0.036462713486169473,0,70,255.0,255.0,255.0
206,10.3,0.8768718333330185,-4.825249363731596,-2.1725412878448997,-0.1168009126939554,-0.061163891161323175,-0.40773132238125803,-0.009719047280758994,-0.00683030930180747,-0.0361025722531429,0,70,255.0,255.0,255.0
207,10.350000000000001,0.8710193690478353,-4.828315803236448,-2.1929728321204323,-0.11730305554106753,-0.061487830235885096,-0.40952744746308956,-0.010366666603725623,-0.006127253680669289,-0.03574243102011633,0,70,255.0,255.0,255.0
208,10.4,0.8651409880961427,-4.8313975608755015,-2.2134937324735144,-0.11783757935432795,-0.06177661652939011,-0.4113055654832697,-0.011014285926692229,-0.005424198059531133,-0.035382289787089766,0,70,255.0,255.0,255.0
209,10.450000000000001,0.8592350714296334,-4.8344928790097015,-2.234103088551065,-0.11840448413373675,-0.06203025004183821,-0.41306567644179853,-0.011661905249658858,-0.0047211424383929515,-0.035022148554063194,0,70,255.0,255.0,255.0
210,10.5,0.8533,-4.8376,-2.2548,-0.11900376987929384,-0.062248730773229406,-0.41480778033867594,-0.012309524572625019,-0.004018086817254962,-0.034662007321034416,0,70,255.0,255.0,255.0
211,10.55,0.8473347095212211,-4.840717557163933,-2.2755838354635776,-0.11960215085382042,-0.06245551611904572,-0.416548016954271,-0.011625714408437727,-0.004253327015397482,-0.03494745730276936,0,70,255.0,255.0,255.0
212,10.600000000000001,0.8413403547564212,-4.843845747645403,-2.296455039570412,-0.12016634132013762,-0.06267406347476917,-0.4183025260689529,-0.010941904244250436,-0.004488567213540002,-0.03523290728450431,0,70,255.0,255.0,255.0
213,10.65,0.8353186452310108,-4.846985159544908,-2.3174143259454576,-0.12069634127824545,-0.06290437284039972,-0.4200713076827215,-0.010258094080063168,-0.0047238074116825145,-0.035518357266239246,0,70,255.0,255.0,255.0
214,10.700000000000001,0.8292712904704003,-4.850136380962942,-2.338462408213669,-0.12119215072814393,-0.0631464442159374,-0.42185436179557684,-0.009574283915875878,-0.0049590476098250345,-0.03580380724797419,0,70,255.0,255.0,255.0
215,10.75,0.8232,-4.8533,-2.3596,-0.12165376966983303,-0.06340027760138223,-0.4236516884075188,-0.008890473751688277,-0.005194287807967601,-0.03608925722970513,0,70,255.0,255.0,255.0
216,10.8,0.8171061285820963,-4.856476407612675,-2.3808273703007905,-0.1221024838907622,-0.06365404436249524,-0.4254366098016564,-0.009058095085477927,-0.004956382636552622,-0.035307598535795646,0,70,255.0,255.0,255.0
217,10.850000000000001,0.8109896119264788,-4.8596652061819405,-2.4021430095979213,-0.12255957917838084,-0.0638959158650375,-0.4271824482610984,-0.009225716419267576,-0.004718477465137642,-0.034525939841886163,0,70,255.0,255.0,255.0
218,10.9,0.8048500309798134,-4.862865800944869,-2.4235449637446553,-0.12302505553268894,-0.064125892109009,-0.428889203785845,-0.009393337753057219,-0.0044805722937226716,-0.033744281147976715,0,70,255.0,255.0,255.0
219,10.950000000000001,0.7986869666887652,-4.866077597138531,-2.4450312785942607,-0.12349891295368655,-0.06434397309440976,-0.43055687637589607,-0.009560959086846869,-0.004242667122307692,-0.03296262245406723,0,70,255.0,255.0,255.0
220,11.0,0.7925,-4.8693,-2.4666,-0.12398115144137363,-0.06455015882123975,-0.4321854660312517,-0.00972858042063629,-0.004004761950892388,-0.03218096376015778,0,70,255.0,255.0,255.0
221,11.05,0.7862887761503934,-4.87253281238537,-2.4882498833332605,-0.12446791358313107,-0.06476830643097231,-0.43381754383910687,-0.009741905249660987,-0.004721142438410052,-0.03310214855405028,0,70,255.0,255.0,255.0
222,11.100000000000001,0.7800531975376624,-4.875777427626836,-2.5099825220379066,-0.12495534196633974,-0.06502227306508077,-0.43549568088665674,-0.009755230078685685,-0.005437522925927717,-0.03402333334794279,0,70,255.0,255.0,255.0
223,11.15,0.7737932308497353,-4.879035636675619,-2.5318002190759215,-0.12544343659099963,-0.06531205872356509,-0.43721987717390115,-0.009768554907710381,-0.006153903413445355,-0.03494451814183527,0,70,255.0,255.0,255.0
224,11.200000000000001,0.7675088427745385,-4.882309230482933,-2.5537052774092914,-0.12593219745711076,-0.0656376634064253,-0.4389901327008403,-0.009781879736735078,-0.006870283900963019,-0.03586570293572777,0,70,255.0,255.0,255.0
225,11.25,0.7612,-4.8856,-2.5757,-0.12642162456467315,-0.06599908711366137,-0.4408064474674739,-0.009795204565758997,-0.007586664388480324,-0.03678688772961802,0,70,255.0,255.0,255.0
226,11.3,0.7548667668163298,-4.888909142845844,-2.5977858963661684,-0.12690586177671395,-0.0663607299136189,-0.44262121484191363,-0.009574283915873224,-0.0068790476098205995,-0.035803807247971685,0,70,255.0,255.0,255.0
227,11.350000000000001,0.7485095979228699,-4.892235483310713,-2.619961302250457,-0.12737905295626048,-0.06668699187464344,-0.4443868281922711,-0.00935336326598745,-0.006171430831160876,-0.03482072676632535,0,70,255.0,255.0,255.0
228,11.4,0.7421290456212454,-4.89557725235266,-2.6422237599516607,-0.1278411981033127,-0.06697787299673498,-0.44610328751854617,-0.009132442616101686,-0.005463814052501176,-0.033837646284679036,0,70,255.0,255.0,255.0
229,11.450000000000001,0.7357256622130803,-4.898932680929738,-2.6645708117685767,-0.12829229721787064,-0.06723337327989357,-0.447770592820739,-0.008911521966215913,-0.0047561972738414515,-0.0328545658030327,0,70,255.0,255.0,255.0
230,11.5,0.7293,-4.9023,-2.687,-0.12873235029993427,-0.06745349272411913,-0.4493887440988494,-0.008690601316329483,-0.004048580495181531,-0.03187148532138506,0,70,255.0,255.0,255.0
231,11.55,0.7228521565842867,-4.905677816231253,-2.7095097312020666,-0.12918863931001368,-0.06766077391455592,-0.45100959679323593,-0.009560959086846812,-0.004242667122290425,-0.03296262245407597,0,70,255.0,255.0,255.0
232,11.600000000000001,0.7163804107708563,-4.909066239130312,-2.732101868960268,-0.12968844620861897,-0.06787775943634818,-0.452685006344257,-0.01043131685736414,-0.004436753749399319,-0.034053759586766874,0,70,255.0,255.0,255.0
233,11.65,0.7098825866652827,-4.912465753913744,-2.7547791411174356,-0.1302317709957501,-0.06810444928949587,-0.4544149727519126,-0.011301674627881437,-0.004630840376508206,-0.03514489671945774,0,70,255.0,255.0,255.0
234,11.700000000000001,0.7033565083731392,-4.915876845798117,-2.777544275516403,-0.13081861367140712,-0.06834084347399899,-0.4561994960162028,-0.012172032398398765,-0.004824927003617101,-0.036236033852148644,0,70,255.0,255.0,255.0
235,11.75,0.6968,-4.9193,-2.8004,-0.13144897423558996,-0.06858694198985756,-0.45803857613712745,-0.013042390168916507,-0.005019013630725877,-0.037327170984840397,0,70,255.0,255.0,255.0
236,11.8,0.6902118068465226,-4.922735592229143,-2.823347978825567,-0.13206758098323126,-0.06883617442815032,-0.4598683979851417,-0.011701879736734913,-0.004950283900984397,-0.035865702935727196,0,70,255.0,255.0,255.0
237,11.850000000000001,0.6835943589937035,-4.92618356016804,-2.8463856219084733,-0.13261916220926348,-0.069081970379956,-0.46162514643070024,-0.01036136930455332,-0.004881554171242917,-0.034404234886613996,0,70,255.0,255.0,255.0
238,11.9,0.6769510077176232,-4.929643731992364,-2.869509275578596,-0.13310371791368658,-0.0693243298452746,-0.46330882147380303,-0.009020858872371775,-0.004812824441501439,-0.032942766837500845,0,70,255.0,255.0,255.0
239,11.950000000000001,0.6702851042943617,-4.933115935877793,-2.8927152861658127,-0.13352124809650062,-0.06956325282410615,-0.4649194231144503,-0.007680348440190181,-0.004744094711759959,-0.03148129878838765,0,70,255.0,255.0,255.0
240,12.0,0.6636,-4.9366,-2.916,-0.13387175275770563,-0.0697987393164506,-0.4664569513526418,-0.006339838008008858,-0.004675364982018038,-0.030019830739275388,0,70,255.0,255.0,255.0
241,12.05,0.656898216029622,-4.940095814852172,-2.9393607534956665,-0.13420503675706125,-0.07003452837284709,-0.46798081126619945,-0.006991521966215606,-0.004756197273841224,-0.03093456580302806,0,70,255.0,255.0,255.0
242,12.100000000000001,0.6501789532543285,-4.943603520197529,-2.96279884340584,-0.13457090495432722,-0.07027435904383472,-0.46955040793294467,-0.007643205924422355,-0.00483702956566441,-0.031849300866780735,0,70,255.0,255.0,255.0
243,12.15,0.6434405824642242,-4.947123318116799,-2.986316556568181,-0.1349693573495035,-0.07051823132941352,-0.4711657413528775,-0.00829488988262908,-0.004917861857487594,-0.03276403593053337,0,70,255.0,255.0,255.0
244,12.200000000000001,0.636681474449413,-4.950655410690713,-3.0099161798203475,-0.1354003939425901,-0.07076614522958348,-0.472826811525998,-0.008946573840835827,-0.0049986941493107805,-0.03367877099428604,0,70,255.0,255.0,255.0
245,12.25,0.6299,-4.9542,-3.0336,-0.13586401473358703,-0.07101810074434459,-0.47453361845230607,-0.009598257799041887,-0.0050795264411336305,-0.03459350605803957,0,70,255.0,255.0,255.0
246,12.3,0.6230945290349887,-4.9577571483621705,-3.0573698071917685,-0.13636027198852307,-0.07126571208046294,-0.47625635695006097,-0.010252032398398968,-0.004824927003599951,-0.03431603385215362,0,70,255.0,255.0,255.0
247,12.350000000000001,0.6162634279889814,-4.961326359041848,-3.081225404468168,-0.13688921797342693,-0.07150059344470458,-0.4779652218375215,-0.010905806997756048,-0.004570327566066272,-0.03403856164626767,0,70,255.0,255.0,255.0
248,12.4,0.60940506242548,-4.964906995540442,-3.1051660981486826,-0.13745085268829865,-0.07172274483706956,-0.4796602131146877,-0.011559581597113105,-0.004315728128532602,-0.03376108944038174,0,70,255.0,255.0,255.0
249,12.450000000000001,0.6025177979079854,-4.968498421359358,-3.129191194552799,-0.13804517613313824,-0.07193216625755784,-0.4813413307815596,-0.012213356196470185,-0.004061128690998922,-0.03348361723449579,0,70,255.0,255.0,255.0
250,12.5,0.5956,-4.9721,-3.1533,-0.1386721883079457,-0.07212885770616945,-0.4830085748381373,-0.01286713079582702,-0.0038065292534650297,-0.03320614502860941,0,70,255.0,255.0,255.0
251,12.55,0.5886508678304226,-4.97571159169915,-3.17749201773726,-0.1392818752888462,-0.07234262330530049,-0.4846737609335622,-0.011520348440192034,-0.0047440947117768275,-0.03340129878838294,0,70,255.0,255.0,255.0
252,12.600000000000001,0.5816729347897449,-4.9793350436350785,-3.2017675387214903,-0.1398242231519649,-0.07260326717734714,-0.4863487047169756,-0.010173566084557046,-0.005681660170088625,-0.03359645254815647,0,70,255.0,255.0,255.0
253,12.65,0.5746695678338559,-4.982972699721433,-3.2261270508370905,-0.1402992318973019,-0.07291078932230935,-0.48803340618837776,-0.008826783728922108,-0.006619225628400389,-0.03379160630792999,0,70,255.0,255.0,255.0
254,12.700000000000001,0.5676441339186443,-4.986626903871858,-3.250571041968461,-0.14070690152485713,-0.07326518974018717,-0.48972786534776863,-0.00748000137328712,-0.007556791086712186,-0.03398676006770352,0,70,255.0,255.0,255.0
255,12.75,0.5606,-4.9903,-3.2751,-0.1410472320346306,-0.07366646843098057,-0.4914320821951481,-0.006133219017650848,-0.008494356545023951,-0.03418191382747615,0,70,255.0,255.0,255.0
256,12.8,0.55353959964332,-4.993993284841232,-3.299714121859195,-0.14137622685609272,-0.0740517946983384,-0.493128599315692,-0.007026573840833018,-0.006918694149289073,-0.03367877099427758,0,70,255.0,255.0,255.0
257,12.850000000000001,0.5464616328520379,-4.997703866417838,-3.3244124406458755,-0.14174988941871391,-0.07435833784590949,-0.49479995929457593,-0.007919928664015188,-0.0053430317535541946,-0.033175628161079,0,70,255.0,255.0,255.0
258,12.9,0.5393638662390959,-5.001427805573828,-3.3491936985029582,-0.14216821972249422,-0.07458609787369382,-0.4964461621317999,-0.008813283487197328,-0.003767369357819372,-0.032672485327880446,0,70,255.0,255.0,255.0
259,12.950000000000001,0.5322440664174358,-5.005161163153211,-3.374056637573361,-0.14263121776743365,-0.07473507478169142,-0.4980672078273639,-0.009706638310379496,-0.0021917069620844935,-0.032169342494681875,0,70,255.0,255.0,255.0
260,13.0,0.5251,-5.0089,-3.399,-0.14313888355353216,-0.07480526856990227,-0.49966309638126805,-0.010599993133560748,-0.0006160445663496716,-0.03166619966148154,0,70,255.0,255.0,255.0
261,13.05,0.5179299335962968,-5.012641668935922,-3.4240226948259624,-0.14366121728678294,-0.07487419790133652,-0.5012438418036678,-0.010293356196470333,-0.002141128691020388,-0.03156361723450835,0,70,255.0,255.0,255.0
262,13.100000000000001,0.5107341338021024,-5.01638869069357,-3.4491242986950117,-0.1441682191731792,-0.07501938143900432,-0.502819458104719,-0.00998671925937992,-0.0036662128156911044,-0.03146103480753517,0,70,255.0,255.0,255.0
263,13.15,0.5035133672097598,-5.020144877983259,-3.4743045551510785,-0.14465988921272094,-0.07524081918290562,-0.5043899452844213,-0.009680082322289516,-0.0051912969403617665,-0.03135845238056199,0,70,255.0,255.0,255.0
264,13.200000000000001,0.49626840041161124,-5.0239140435152985,-3.499563207738098,-0.14513622740540816,-0.07553851113304048,-0.5059553033427752,-0.009373445385199101,-0.006716381065032483,-0.0312558699535888,0,70,255.0,255.0,255.0
265,13.25,0.489,-5.0277,-3.5249,-0.1455972337512408,-0.07591245728940886,-0.5075155322797801,-0.009066808448108032,-0.008241465189703034,-0.03115328752661295,0,70,255.0,255.0,255.0
266,13.3,0.48170866597149226,-5.031505639415082,-3.5503150988369567,-0.1460589039967757,-0.07630741369631924,-0.5090960334696378,-0.009400001373287519,-0.007556791086712179,-0.03206676006769894,0,70,255.0,255.0,255.0
267,13.350000000000001,0.4743938319395512,-5.03533017080788,-3.575810364574082,-0.1465372338885696,-0.07666813639808008,-0.51072220828655,-0.009733194298467005,-0.006872116983721324,-0.03298023260878494,0,70,255.0,255.0,255.0
268,13.4,0.4670546649218643,-5.039171882493137,-3.601388080892729,-0.1470322234266224,-0.07699462539469139,-0.5123940567305164,-0.010066387223646481,-0.006187442880730493,-0.0338937051498709,0,70,255.0,255.0,255.0
269,13.450000000000001,0.4596903319361181,-5.043029062785597,-3.6270505314742514,-0.14754387261093424,-0.07728688068615314,-0.514111578801537,-0.010399580148825967,-0.005502768777739638,-0.03480717769095689,0,70,255.0,255.0,255.0
270,13.5,0.4523,-5.0469,-3.6528,-0.14807218144150502,-0.07754490227246534,-0.5158747744996122,-0.010732773074006552,-0.004818094674748363,-0.03572065023204374,0,70,255.0,255.0,255.0
271,13.55,0.4448834025177336,-5.050782973403754,-3.678637709826214,-0.14858316672611466,-0.07776814731338562,-0.5176200243177802,-0.009706638310378487,-0.0041117069620628345,-0.03408934249467703,0,70,255.0,255.0,255.0
272,13.600000000000001,0.43744253843969133,-5.054676226074911,-3.704560643008664,-0.14904284527254288,-0.07795607296867162,-0.5192837087490799,-0.008680503546750422,-0.0034053192493773057,-0.03245803475731032,0,70,255.0,255.0,255.0
273,13.65,0.4299799731027824,-5.058577992044192,-3.7305647212780073,-0.1494512170807897,-0.07810867923832335,-0.5208658277935112,-0.007654368783122393,-0.0026989315366918016,-0.030826727019943677,0,70,255.0,255.0,255.0
274,13.700000000000001,0.4224982718439154,-5.062486505342316,-3.756645866364901,-0.14980828215085512,-0.0782259661223408,-0.5223663814510743,-0.006628234019494328,-0.0019925438240062723,-0.029195419282576972,0,70,255.0,255.0,255.0
275,13.75,0.415,-5.0664,-3.7828,-0.15011404048273916,-0.07830793362072398,-0.5237853697217688,-0.005602099255866078,-0.0012861561113203246,-0.027564111545211212,0,70,255.0,255.0,255.0
276,13.8,0.4074865239575725,-5.070317666969906,-3.8090244618581903,-0.1504404290987658,-0.07841199705013345,-0.5252078692592389,-0.007453445385198503,-0.002876381065058276,-0.02933586995359241,0,70,255.0,255.0,255.0
277,13.850000000000001,0.3999544143016821,-5.074242524892475,-3.835322263391265,-0.150859385021259,-0.07859557172722981,-0.5267189567171281,-0.009304791514530928,-0.004466606018796227,-0.03110762836197361,0,70,255.0,255.0,255.0
278,13.9,0.39239904266700554,-5.078178549330091,-3.861697833995243,-0.15137090825021884,-0.07885865765201307,-0.5283186320954363,-0.011156137643863286,-0.006056830972534122,-0.03287938677035475,0,70,255.0,255.0,255.0
279,13.950000000000001,0.3848157806882191,-5.082129715845137,-3.888155603066149,-0.15197499878564535,-0.07920125482448323,-0.5300068953941636,-0.01300748377319571,-0.007647055926272074,-0.03465114517873595,0,70,255.0,255.0,255.0
280,14.0,0.3772,-5.0861,-3.9147,-0.15267165662753845,-0.07962336324464027,-0.53178374661331,-0.014858829902528292,-0.00923728088000908,-0.03642290358711975,0,70,255.0,255.0,255.0
281,14.05,0.36954890165197546,-5.090091958716623,-3.941334042741026,-0.15335111687882233,-0.08003986448608387,-0.5335644986452622,-0.01231958014882629,-0.007422768777734708,-0.03480717769096662,0,70,255.0,255.0,255.0
282,14.100000000000001,0.36186700435357894,-5.09410247435519,-3.96805510342628,-0.15390361464242108,-0.08036564012241375,-0.5352644643824066,-0.009780330395124288,-0.005608256675460336,-0.03319145179481348,0,70,255.0,255.0,255.0
283,14.15,0.3541606562291949,-5.098127010635446,-3.9948591427410203,-0.15432914991833477,-0.0806006901536299,-0.5368836438247434,-0.007241080641422375,-0.003793744573186029,-0.03157572589866041,0,70,255.0,255.0,255.0
284,14.200000000000001,0.3464362054032069,-5.102161031277134,-4.021742121370508,-0.15462772270656333,-0.08074501457973235,-0.5384220369722728,-0.004701830887720372,-0.001979232470911657,-0.02996000000250728,0,70,255.0,255.0,255.0
285,14.25,0.3387,-5.1062,-4.0487,-0.15479933300710677,-0.08079861340072106,-0.5398796438249942,-0.0021625811340177936,-0.00016472036863723893,-0.02834427410635243,0,70,255.0,255.0,255.0
286,14.3,0.3309562694345248,-5.110240898163604,-4.075729767177707,-0.15497110338594458,-0.08085254500553672,-0.541318136159717,-0.004708234019494465,-0.0019925438239892825,-0.029195419282558546,0,70,255.0,255.0,255.0
287,14.350000000000001,0.3232007682840008,-5.114286777686767,-4.102832522903619,-0.15527015640905623,-0.08099786778311999,-0.5427991857532501,-0.0072538869049711355,-0.0038203672793413264,-0.03004656445876466,0,70,255.0,255.0,255.0
288,14.4,0.3154271324162147,-5.118342208128129,-4.130010395040678,-0.15569649207644168,-0.08123458173347085,-0.5443227926055935,-0.009799539790447715,-0.005648190734693305,-0.030897709634970745,0,70,255.0,255.0,255.0
289,14.450000000000001,0.3076289976989521,-5.122411759046327,-4.1572655114518255,-0.156250110388101,-0.08156268685658932,-0.5458889567167472,-0.012345192675924387,-0.00747601419004535,-0.03174885481117686,0,70,255.0,255.0,255.0
290,14.5,0.2998,-5.1265,-4.1846,-0.1569310113440341,-0.0819821831524754,-0.5474976780867112,-0.014890845561399857,-0.009303837645397661,-0.03259999998738561,0,70,255.0,255.0,255.0
291,14.55,0.2919356206099249,-5.130610048628964,-4.212015688548149,-0.157628469577399,-0.08240595549176713,-0.5491309567158644,-0.013007483773196755,-0.007647055926271749,-0.03273114517874287,0,70,255.0,255.0,255.0
292,14.600000000000001,0.28403872251041673,-5.134739214897745,-4.239513204959246,-0.15823175972135378,-0.08274688874510258,-0.5507707926045856,-0.011124121984993653,-0.005990274207145837,-0.03286229037010014,0,70,255.0,255.0,255.0
293,14.65,0.2761140141059464,-5.138883356852042,-4.2670928770962675,-0.1587408817758984,-0.08300498291248172,-0.5524171857528746,-0.00924076019679062,-0.004333492488019985,-0.032993435561457396,0,70,255.0,255.0,255.0
294,14.700000000000001,0.26816620380098377,-5.14303833253756,-4.294755032822193,-0.15915583574103284,-0.08318023799390457,-0.5540701361607313,-0.0073573984085875165,-0.002676710768894073,-0.03312458075281466,0,70,255.0,255.0,255.0
295,14.75,0.2602,-5.1472,-4.3225,-0.15947662161675713,-0.08327265398937114,-0.555729643828156,-0.005474036620384037,-0.001019929049768109,-0.03325572594417281,0,70,255.0,255.0,255.0
296,14.8,0.2522188481257751,-5.15136530732054,-4.350327478629696,-0.15977901830445973,-0.08334763302738855,-0.5573580369768233,-0.006621830887719343,-0.001979232470928474,-0.03188000000251845,0,70,255.0,255.0,255.0
297,14.850000000000001,0.24422114167433098,-5.155535562722257,-4.378234657259398,-0.16013880470552905,-0.08347057723646399,-0.5589176438284079,-0.007769625155054648,-0.002938535892088839,-0.030504274060864096,0,70,255.0,255.0,255.0
298,14.9,0.2362040111599995,-5.159713164463704,-4.406218096574252,-0.1605559808199652,-0.08364148661659744,-0.5604084643829098,-0.008917419422389914,-0.00389783931324917,-0.029128548119209785,0,70,255.0,255.0,255.0
299,14.950000000000001,0.22816458709711177,-5.163900510803433,-4.4342743572594046,-0.16103054664776809,-0.0838603611677889,-0.5618304986403289,-0.010065213689725218,-0.004857142734409535,-0.02775282217755543,0,70,255.0,255.0,255.0
300,15.0,0.2201,-5.1681,-4.4624,-0.1615625021889377,-0.08412720089003839,-0.5631837466006652,-0.01121300795706004,-0.005816446155569643,-0.026377096235898456,0,70,255.0,255.0,255.0
301,15.05,0.21200818688697382,-5.172313522088877,-4.4905927969330675,-0.16210345720476227,-0.08441151239867888,-0.5645408953768419,-0.0104251926759228,-0.005556014190049915,-0.02790885481116965,0,70,255.0,255.0,255.0
302,15.100000000000001,0.2038903107922578,-5.1765409342132305,-4.518855366003164,-0.16260502145653,-0.08468280230904339,-0.5659746320817822,-0.009637377394785563,-0.005295582224530186,-0.02944061338644084,0,70,255.0,255.0,255.0
303,15.15,0.19574834125405513,-5.180781585293144,-4.547191536606726,-0.16306719494424082,-0.0849410706211319,-0.5674849567154859,-0.008849562113648351,-0.005035150259010466,-0.030972371961711976,0,70,255.0,255.0,255.0
304,15.200000000000001,0.18758424781056807,-5.185034824248705,-4.575605138140192,-0.1634899776678948,-0.08518631733494443,-0.5690718692779533,-0.008061746832511114,-0.004774718293490738,-0.032504130536983165,0,70,255.0,255.0,255.0
305,15.25,0.1794,-5.1893,-4.6041,-0.1638733696274919,-0.08541854245048099,-0.5707353697691844,-0.007273931551372792,-0.004514286327970685,-0.03403588911225519,0,70,255.0,255.0,255.0
306,15.3,0.1711972043263289,-5.193576604323952,-4.632678933638033,-0.16423915287649096,-0.08564631737790207,-0.5724143815158111,-0.007357398408588224,-0.004596710768872449,-0.03312458075281589,0,70,255.0,255.0,255.0
307,15.350000000000001,0.16297601515663634,-5.197864700424825,-4.6613406787279485,-0.16460910946835075,-0.08587821352736823,-0.5740478278444661,-0.007440865265803656,-0.004679135209774213,-0.03221327239337659,0,70,255.0,255.0,255.0
308,15.4,0.15473622382377955,-5.202164494363721,-4.690082956998848,-0.1649832394030713,-0.08611423089887948,-0.5756357087551488,-0.007524332123019084,-0.0047615596506759734,-0.03130196403393732,0,70,255.0,255.0,255.0
309,15.450000000000001,0.14647762166061493,-5.206476192201746,-4.718903490179831,-0.16536154268065265,-0.08635436949243583,-0.5771780242478598,-0.007607798980234517,-0.0048439840915777375,-0.030390655674498016,0,70,255.0,255.0,255.0
310,15.5,0.1382,-5.2108,-4.7478,-0.16574401930109475,-0.08659862930803726,-0.5786747743225986,-0.007691265837449945,-0.004926408532479498,-0.029479347315058746,0,70,255.0,255.0,255.0
311,15.55,0.12990299580770986,-5.215136060615318,-4.7767706685148,-0.16613993128927412,-0.08684321808970949,-0.5801535785599139,-0.008145213689724923,-0.004857142734409491,-0.02967282217754921,0,70,255.0,255.0,255.0
312,15.600000000000001,0.12158562858119544,-5.219484264087472,-4.805815519085044,-0.16655854067006726,-0.08708434358147822,-0.5816420565403536,-0.008599161541999903,-0.004787876936339484,-0.029866297040039673,0,70,255.0,255.0,255.0
313,15.65,0.11324676345082632,-5.223844437251969,-4.834935035397888,-0.16699984744347413,-0.08732200578334344,-0.5831402082639178,-0.009053109394274865,-0.004718611138269479,-0.030059771902530133,0,70,255.0,255.0,255.0
314,15.700000000000001,0.1048852655469712,-5.228216406944309,-4.864129701140488,-0.16746385160949473,-0.08755620469530516,-0.5846480337306066,-0.009507057246549842,-0.004649345340199472,-0.030253246765020596,0,70,255.0,255.0,255.0
315,15.75,0.0965,-5.2326,-4.8934,-0.16795055316812912,-0.0877869403173634,-0.5861655329404198,-0.009961005098824138,-0.004580079542130022,-0.0304467216275075,0,70,255.0,255.0,255.0
316,15.8,0.08809001244283085,-5.236995153214775,-4.922746392302767,-0.16844912196641249,-0.08802081026325434,-0.5876913042445322,-0.00998174683250994,-0.004774718293507887,-0.030584130536987077,0,70,255.0,255.0,255.0
317,15.850000000000001,0.07965507051858045,-5.241402243225284,-4.952169244931879,-0.16894872785138015,-0.0882644121467142,-0.5892239459941186,-0.010002488566195745,-0.004969357044885753,-0.030721539446466654,0,70,255.0,255.0,255.0
318,15.9,0.07119512237291484,-5.2458217566284056,-4.981668901409605,-0.16944937082303205,-0.08851774596774292,-0.5907634581891789,-0.010023230299881548,-0.005163995796263611,-0.030858948355946225,0,70,255.0,255.0,255.0
319,15.950000000000001,0.06271011615149923,-5.2502541800210185,-5.01124570525822,-0.16995105088136828,-0.08878081172634054,-0.5923098408297133,-0.01004397203356735,-0.005358634547641477,-0.0309963572654258,0,70,255.0,255.0,255.0
320,16.0,0.0542,-5.2547,-5.0409,-0.1704537680263888,-0.08905360942250705,-0.5938630939157213,-0.010064713767253597,-0.0055532732990192235,-0.03113376617490271,0,70,255.0,255.0,255.0
321,16.05,0.04566495442096596,-5.259159326525579,-5.07063176227413,-0.17094358084507605,-0.08931354085727197,-0.5954012044619563,-0.00952779898023514,-0.004843984091577637,-0.030390655674498203,0,70,255.0,255.0,255.0
322,16.1,0.037106089344481334,-5.263630763011387,-5.100439501187446,-0.17140654792441234,-0.08953800783166482,-0.5969021594831713,-0.008990884193216682,-0.0041346948841360495,-0.029647545174093695,0,70,255.0,255.0,255.0
323,16.150000000000002,0.028524747057513664,-5.268112536234406,-5.130321358963697,-0.17184266926439773,-0.08972701034568559,-0.5983659589793657,-0.008453969406198225,-0.0034254056766944625,-0.028904434673689184,0,70,255.0,255.0,255.0
324,16.2,0.01992226984703111,-5.272602872971617,-5.160275477826631,-0.17225194486503215,-0.08988054839933426,-0.5997926029505402,-0.007917054619179804,-0.002716116469252926,-0.02816132417328473,0,70,255.0,255.0,255.0
325,16.25,0.0113,-5.2771,-5.1903,-0.1726343747263157,-0.08999862199261087,-0.6011820913966943,-0.007380139832162236,-0.0020068272618115612,-0.02741821367288111,0,70,255.0,255.0,255.0
326,16.3,0.002658969873304561,-5.2816027406829065,-5.220393758600714,-0.1730085546532835,-0.09011702630766084,-0.6025758779076419,-0.007587057246549381,-0.0027293453401873047,-0.028333246765024012,0,70,255.0,255.0,255.0
327,16.35,-0.006001027896507252,-5.286112304729166,-5.250558350318341,-0.17339308045097065,-0.0902715565266296,-0.6040154160731968,-0.007793974660936526,-0.0034518634185630487,-0.02924827985716692,0,70,255.0,255.0,255.0
328,16.400000000000002,-0.014680510602971406,-5.290630498433969,-5.280796062735612,-0.17378795211937717,-0.09046221264951715,-0.6055007058933587,-0.008000892075323672,-0.004174381496938792,-0.030163312949309823,0,70,255.0,255.0,255.0
329,16.45,-0.023379995539623256,-5.295159128092514,-5.311109183435253,-0.174193169658503,-0.09068899467632348,-0.6070317473681277,-0.008207809489710801,-0.004896899575314485,-0.031078346041452664,0,70,255.0,255.0,255.0
330,16.5,-0.0321,-5.2997,-5.3415,-0.1746087330683482,-0.0909519026070486,-0.608608540497504,-0.008414726904098835,-0.0056194176536902285,-0.03199337913359823,0,70,255.0,255.0,255.0
331,16.55,-0.040840833914184936,-5.304254510742792,-5.371970003323015,-0.17502220054178988,-0.09122635391208231,-0.6101832839074797,-0.00812397203356818,-0.005358634547658366,-0.030996357265424542,0,70,255.0,255.0,255.0
332,16.6,-0.04960197775845379,-5.308822418071953,-5.402517497539192,-0.17542113027170506,-0.09148776606181444,-0.6117081762240466,-0.007833217163037523,-0.005097851441626503,-0.029999335397250852,0,70,255.0,255.0,255.0
333,16.650000000000002,-0.058382704645630244,-5.313403070029719,-5.433139990093863,-0.17580552225809365,-0.09173613905624496,-0.6131832174472047,-0.0075424622925068675,-0.0048370683355946405,-0.029002313529077162,0,70,255.0,255.0,255.0
334,16.7,-0.06718228768853735,-5.317995814658322,-5.463834988432355,-0.1761753765009557,-0.0919714728953739,-0.6146084075769541,-0.007251707421976232,-0.004576285229562797,-0.028005291660903545,0,70,255.0,255.0,255.0
335,16.75,-0.076,-5.3226,-5.4946,-0.17653069300029128,-0.09219376757920122,-0.615983746613295,-0.00696095255144602,-0.004315502123530379,-0.02700826979272808,0,70,255.0,255.0,255.0
336,16.8,-0.08483563421656556,-5.327215216345926,-5.525433428107232,-0.17690264317955695,-0.09241755804402027,-0.6173629864624449,-0.007917054619180167,-0.0046361164692313266,-0.028161324173267326,0,70,255.0,255.0,255.0
337,16.85,-0.09369106106967906,-5.3318420229830235,-5.556337259524896,-0.17732239846220932,-0.09265737922612437,-0.6187998790306218,-0.008873156686914312,-0.004956730814932273,-0.029314378553806576,0,70,255.0,255.0,255.0
338,16.900000000000002,-0.10256867081450986,-5.336481221447159,-5.587314376888945,-0.1777899588482484,-0.0929132311255135,-0.6202944243178257,-0.009829258754648459,-0.00527734516063322,-0.030467432934345822,0,70,255.0,255.0,255.0
339,16.95,-0.11147085370622661,-5.341133613274197,-5.618367662835327,-0.17830532433767413,-0.09318511374218767,-0.6218466223240563,-0.010785360822382536,-0.005597959506334144,-0.03162048731488499,0,70,255.0,255.0,255.0
340,17.0,-0.1204,-5.3458,-5.6495,-0.17886849493048662,-0.09347302707614691,-0.6234564730493142,-0.011741462890115795,-0.005918573852035092,-0.032773541695425124,0,70,255.0,255.0,255.0
341,17.05,-0.12935742921955357,-5.350480623873508,-5.680713084248063,-0.17941522673998228,-0.09374341391183065,-0.6250527702427366,-0.010127809489710482,-0.004896899575314592,-0.031078346041471482,0,70,255.0,255.0,255.0
342,17.1,-0.13834017796283146,-5.355173489995952,-5.712003864361229,-0.1798812758794577,-0.09396271703367838,-0.6265643076534614,-0.008514156089305168,-0.0038752252985940912,-0.029383150387517838,0,70,255.0,255.0,255.0
343,17.150000000000002,-0.1473442120963326,-5.359876044181644,-5.743368102350365,-0.18026664234891282,-0.09413093644169007,-0.6279910852814884,-0.006900502688899854,-0.0028535510218735912,-0.027687954733564196,0,70,255.0,255.0,255.0
344,17.2,-0.15636549748655537,-5.36458573224489,-5.774801560226332,-0.18057132614834767,-0.09424807213586574,-0.6293331031268178,-0.005286849288494656,-0.0018318767451531636,-0.025992759079610673,0,70,255.0,255.0,255.0
345,17.25,-0.1654,-5.3693,-5.8063,-0.1807953272777623,-0.09431412411620538,-0.6305903611894493,-0.0036731958880895643,-0.0008102024684326636,-0.024297563425654367,0,70,255.0,255.0,255.0
346,17.3,-0.17444504890522083,-5.374017488160047,-5.83786063490052,-0.18102044986051397,-0.0944007863086558,-0.6318499325666134,-0.005331707421976774,-0.0026562852295840588,-0.02608529166090661,0,70,255.0,255.0,255.0
347,17.35,-0.18350342707899653,-5.3787416170331666,-5.869486483030192,-0.18132849801995995,-0.0945797526391638,-0.63319889035554,-0.006990218955863983,-0.004502367990735454,-0.027873019896158854,0,70,255.0,255.0,255.0
348,17.400000000000002,-0.19257928080016193,-5.383477001826264,-5.901182013709604,-0.18171947175610037,-0.09485102310772935,-0.6346372345562293,-0.008648730489751193,-0.006348450751886848,-0.029660748131411094,0,70,255.0,255.0,255.0
349,17.45,-0.2016767563475511,-5.388228257746241,-5.932951696259343,-0.18219337106893507,-0.09521459771435246,-0.636164965168681,-0.010307242023638283,-0.008194533513038112,-0.03144847636666321,0,70,255.0,255.0,255.0
350,17.5,-0.2108,-5.393,-5.9648,-0.18275019595846415,-0.09567047645903314,-0.6377820821928954,-0.011965753557524383,-0.010040616274189174,-0.03323620460191279,0,70,255.0,255.0,255.0
351,17.55,-0.2199519751595639,-5.397795023486308,-5.996729976149861,-0.1833189738179618,-0.09610944085354568,-0.6394034994908151,-0.010785360822381556,-0.007517959506312519,-0.031620487314868814,0,70,255.0,255.0,255.0
352,17.6,-0.22913091372118383,-5.402608841871382,-6.02873900351801,-0.18382873204070233,-0.0964222724096644,-0.6409441309243824,-0.00960496808723873,-0.004995302738435865,-0.030004770027824843,0,70,255.0,255.0,255.0
353,17.650000000000002,-0.23833386470302179,-5.407435148513301,-6.060823042811228,-0.1842794706266857,-0.09660897112738928,-0.6424039764935976,-0.008424575352095903,-0.00247264597055921,-0.028389052740780872,0,70,255.0,255.0,255.0
354,17.7,-0.24755787712323937,-5.412267636770147,-6.092978054736297,-0.1846711895759119,-0.09666953700672033,-0.6437830361984603,-0.00724418261695316,5.001079731726567e-05,-0.026773335453737016,0,70,255.0,255.0,255.0
355,17.75,-0.2568,-5.4171,-6.1252,-0.18500388888838096,-0.09660397004765756,-0.6450813100389712,-0.006063789881809223,0.002572667565194031,-0.025157618166694817,0,70,255.0,255.0,255.0
356,17.8,-0.2660582504565242,-5.421928017894722,-6.157485860500038,-0.1853356548676386,-0.09653745027715707,-0.6463600694701288,-0.007206849288495903,8.812325482533212e-05,-0.025992759079610305,0,70,255.0,255.0,255.0
357,17.85,-0.2753345180362697,-5.426755815481307,-6.189836702897775,-0.18572457381723056,-0.09659515772217502,-0.6476805859469323,-0.008349908695182583,-0.002396421055543367,-0.026827899992525796,0,70,255.0,255.0,255.0
358,17.900000000000002,-0.2846316603877531,-5.431589604120531,-6.222254615045493,-0.18617064573715686,-0.09677709238271141,-0.6490428594693815,-0.009492968101869264,-0.004880965365912066,-0.027663040905441284,0,70,255.0,255.0,255.0
359,17.95,-0.29395253515949055,-5.43643559517317,-6.254741684795473,-0.18667387062741744,-0.09708325425876621,-0.6504468900374762,-0.010636027508555863,-0.007365509676280588,-0.028498181818356717,0,70,255.0,255.0,255.0
360,18.0,-0.3033,-5.4413,-6.2873,-0.18723424848801243,-0.09751364335033946,-0.651892677651217,-0.011779086915241654,-0.009850053986648843,-0.029333322731265987,0,70,255.0,255.0,255.0
361,18.05,-0.31267582301434,-5.446187304934803,-6.31993138184999,-0.1877864067114844,-0.09796475803783163,-0.6533642226286652,-0.01030724202363651,-0.008194533513037758,-0.029528476366663805,0,70,255.0,255.0,255.0
362,18.1,-0.3220774141337391,-5.451095096203389,-6.352636584890897,-0.1882649726903761,-0.09833309670164325,-0.6548455252878834,-0.008835397132031367,-0.006539013039426675,-0.029723630002061623,0,70,255.0,255.0,255.0
363,18.150000000000002,-0.3315010937459682,-5.456019235004573,-6.385416097006809,-0.18866994642468754,-0.09861865934177431,-0.6563365856288714,-0.007363552240426223,-0.004883492565815591,-0.029918783637459444,0,70,255.0,255.0,255.0
364,18.2,-0.34094318223879777,-5.460955582537171,-6.418270406081811,-0.1890013279144187,-0.09882144595822481,-0.6578374036516292,-0.005891707348821183,-0.003227972092204624,-0.030113937272857248,0,70,255.0,255.0,255.0
365,18.25,-0.3504,-5.4659,-6.4512,-0.1892591171595696,-0.09894145655099476,-0.6593479793561571,-0.004419862457214929,-0.00157245161859354,-0.03030909090825329,0,70,255.0,255.0,255.0
366,18.3,-0.3598688574861167,-5.4708491623660676,-6.4842046121000045,-0.1895027182864238,-0.09902751757152613,-0.6608230400152072,-0.005324182616951591,-0.001869989202661286,-0.02869333545375079,0,70,255.0,255.0,255.0
367,18.35,-0.3693510254287758,-5.47580299970514,-6.517280957538643,-0.18979153542126478,-0.0991284554712609,-0.6622173129015322,-0.006228502776688253,-0.002167526786729032,-0.02707757999924829,0,70,255.0,255.0,255.0
368,18.400000000000002,-0.3788487646283765,-5.480762255861181,-6.550424996927279,-0.19012556856409263,-0.09924427025019904,-0.663530798015132,-0.007132822936424915,-0.002465064370796778,-0.02546182454474579,0,70,255.0,255.0,255.0
369,18.45,-0.3883643358853177,-5.485727674678147,-6.583632690877276,-0.19050481771490724,-0.09937496190834057,-0.6647634953560068,-0.008037143096161513,-0.0027626019548645034,-0.023846069090243407,0,70,255.0,255.0,255.0
370,18.5,-0.3979,-5.4907,-6.6169,-0.19092928287370875,-0.09952053044568548,-0.6659154049241564,-0.008941463255898174,-0.0030601395389320274,-0.02223031363573913,0,70,255.0,255.0,255.0
371,18.55,-0.407457547041194,-5.495680045600932,-6.650224569749995,-0.19137072014282017,-0.0996851716760656,-0.6670876173105085,-0.008716027508558086,-0.0035255096762722604,-0.02465818181834528,0,70,255.0,255.0,255.0
372,18.6,-0.41703688415115947,-5.500668904976055,-6.683610784954538,-0.19180088562456457,-0.09987308141331272,-0.6683812231059909,-0.008490591761217997,-0.0039908798136124935,-0.027086050000951437,0,70,255.0,255.0,255.0
373,18.650000000000002,-0.42663744774052803,-5.505667741550711,-6.7170647152840814,-0.192219779318942,-0.10008425965742684,-0.6697962223106037,-0.008265156013877907,-0.004456249950952726,-0.02951391818355759,0,70,255.0,255.0,255.0
374,18.7,-0.4362586742199305,-5.5106777187502445,-6.750592430409082,-0.19262740122595234,-0.10031870640840798,-0.6713326149243466,-0.008039720266537834,-0.004921620088292927,-0.03194178636616357,0,70,255.0,255.0,255.0
375,18.75,-0.4459,-5.5157,-6.7842,-0.19302375134559574,-0.10057642166625612,-0.6729904009472198,-0.007814284519197745,-0.005386990225633048,-0.034369654548768835,0,70,255.0,255.0,255.0
376,18.8,-0.455560954349108,-5.520735455230206,-6.817891508900016,-0.1934144011422962,-0.1008397957242028,-0.6746504907427604,-0.007811707348819308,-0.0051479720922342955,-0.032033937272852565,0,70,255.0,255.0,255.0
377,18.85,-0.46524143796658796,-5.525783780390642,-6.851663102643214,-0.19380492208047767,-0.10109121887547956,-0.6761937946745051,-0.007809130178440871,-0.004908953958835542,-0.029698219996936292,0,70,255.0,255.0,255.0
378,18.900000000000002,-0.474941444409514,-5.530844377935977,-6.885508941936404,-0.19419531416014027,-0.10133069112008637,-0.677620312742454,-0.0078065530080624335,-0.004669935825436789,-0.027362502721020022,0,70,255.0,255.0,255.0
379,18.95,-0.48466096723495955,-5.535916650320873,-6.919423187486394,-0.1945855773812839,-0.10155821245802323,-0.6789300449466071,-0.007803975837683996,-0.004430917692038053,-0.025026785445103915,0,70,255.0,255.0,255.0
380,19.0,-0.4944,-5.541,-6.9534,-0.19497571174390865,-0.10177378288929016,-0.6801229912869643,-0.007801398667304671,-0.0041918995586393,-0.02269106816918498,0,70,255.0,255.0,255.0
381,19.05,-0.5041586355623751,-5.546094133478245,-6.987434994649944,-0.1953716752879953,-0.10199564542712765,-0.6812864197184499,-0.008037143096160108,-0.004682601954859973,-0.023846069090242332,0,70,255.0,255.0,255.0
382,19.1,-0.5139373639824905,-5.551199973461377,-7.021529604472613,-0.19577942605352466,-0.10224204308477616,-0.6825075981959885,-0.008272887525015545,-0.0051733043510806456,-0.025001070011299687,0,70,255.0,255.0,255.0
383,19.150000000000002,-0.5237367746214185,-5.5563187467053865,-7.055686716970312,-0.19619896404049683,-0.10251297586223572,-0.68378652671958,-0.008508631953870981,-0.005664006747301319,-0.02615607093235704,0,70,255.0,255.0,255.0
384,19.200000000000003,-0.5335574568402313,-5.561451679966264,-7.089909219645341,-0.1966302892489118,-0.1028084437595063,-0.6851232052892243,-0.008744376382726418,-0.0061547091435219916,-0.02731107185341439,0,70,255.0,255.0,255.0
385,19.25,-0.5434,-5.5666,-7.1242,-0.19707340167876944,-0.1031284467765879,-0.6865176339049214,-0.008980120811581171,-0.006645411539742407,-0.028466072774469886,0,70,255.0,255.0,255.0
386,19.3,-0.5532645034013925,-5.571764010856816,-7.158561312500211,-0.19749889770572246,-0.10341762256728836,-0.6879318303834375,-0.008039720266538928,-0.004921620088275656,-0.028101786366171482,0,70,255.0,255.0,255.0
387,19.35,-0.5631491061034517,-5.576940325763854,-7.192992879466338,-0.19787737370542335,-0.10362060878541549,-0.6893278125415385,-0.007099319721496684,-0.0031978286368089036,-0.02773749995787308,0,70,255.0,255.0,255.0
388,19.400000000000002,-0.5730514571048144,-5.582124635242481,-7.2274937901823595,-0.19820882967787212,-0.10373740543096925,-0.6907055803792248,-0.00615891917645444,-0.0014740371853421514,-0.027373213549574678,0,70,255.0,255.0,255.0
389,19.450000000000003,-0.5829692054041182,-5.587312629814074,-7.262063133932254,-0.1984932656230688,-0.1037680125039497,-0.692065133896496,-0.005218518631412197,0.00024975426612460026,-0.027008927141276274,0,70,255.0,255.0,255.0
390,19.5,-0.5929,-5.5925,-7.2967,-0.19873068154101337,-0.10371243000435681,-0.6934064730933523,-0.004278118086369798,0.0019735457175911186,-0.02664464073297612,0,70,255.0,255.0,255.0
391,19.55,-0.6028425508320552,-5.597684223094492,-7.331403755349214,-0.19898473388911475,-0.10367786430371821,-0.6947462587478042,-0.0058839758376848525,-0.0005909176920470579,-0.02694678544509746,0,70,255.0,255.0,255.0
392,19.6,-0.6127998116037044,-5.6028699234832136,-7.366174877662043,-0.19931907912478186,-0.10377152177356153,-0.6961011516378621,-0.0074898335889999074,-0.0031553811016852345,-0.027248930157218795,0,70,255.0,255.0,255.0
393,19.650000000000002,-0.6227757969593265,-5.60806351232469,-7.4010141223002615,-0.19973371724801475,-0.10399340241388674,-0.6974711517635261,-0.009095691340314961,-0.0057198445113234115,-0.027551074869340133,0,70,255.0,255.0,255.0
394,19.700000000000003,-0.632774521543299,-5.613271400777443,-7.435922244625655,-0.20022864825881337,-0.10434350622469386,-0.6988562591247961,-0.010701549091630017,-0.008284307920961588,-0.02785321958146147,0,70,255.0,255.0,255.0
395,19.75,-0.6428,-5.6185,-7.4709,-0.2008038721571777,-0.10482183320598287,-0.7002564737216722,-0.012307406842943625,-0.010848771330599583,-0.02815536429358101,0,70,255.0,255.0,255.0
396,19.8,-0.6528548932703876,-5.623753496765218,-7.5059476661029345,-0.20137816673781941,-0.10529492021783579,-0.7016431346253467,-0.010664376382724215,-0.008074709143517338,-0.027311071853396197,0,70,255.0,255.0,255.0
397,19.85,-0.6629364474817321,-5.629027180303294,-7.541063609885502,-0.20187030979545015,-0.10562930412033462,-0.7029875809070119,-0.009021345922504807,-0.005300646956435094,-0.02646677941321138,0,70,255.0,255.0,255.0
398,19.900000000000002,-0.6730405550578827,-5.634314115458762,-7.576245720616604,-0.2022803013300699,-0.10582498491347932,-0.7042898125666678,-0.007378315462285397,-0.0025265847693528506,-0.02562248697302657,0,70,255.0,255.0,255.0
399,19.950000000000003,-0.6831631084226891,-5.639607367076153,-7.611491887565136,-0.2026081413416787,-0.1058819625972699,-0.7055498296043147,-0.0057352850020659886,0.0002474774177293939,-0.024778194532841753,0,70,255.0,255.0,255.0
400,20.0,-0.6933,-5.6449,-7.6468,-0.20285382983027647,-0.10580023717170639,-0.7067676320199521,-0.004092254541845586,0.0030215396048114407,-0.023933902092657888,0,70,255.0,255.0,255.0
401,20.05,-0.7034482760863952,-5.650187389844637,-7.682168780239051,-0.2030865991596079,-0.10571845482493343,-0.707993202750801,-0.005218518631410134,0.000249754266107299,-0.025088927141297308,0,70,255.0,255.0,255.0
402,20.1,-0.7136095984693691,-5.655474155303608,-7.717600282795956,-0.2033756816934175,-0.10577526174509566,-0.7092765247340819,-0.006344782720974683,-0.0025220310725968427,-0.026243952189936727,0,70,255.0,255.0,255.0
403,20.150000000000002,-0.7237867828091453,-5.660767225840263,-7.753097395233334,-0.20372107743170537,-0.10597065793219311,-0.7106175979697946,-0.0074710468105392315,-0.005293816411300984,-0.027398977238576143,0,70,255.0,255.0,255.0
404,20.200000000000003,-0.7339826447659479,-5.666073530917944,-7.788663005113809,-0.20412278637447143,-0.10630464338622578,-0.7120164224579395,-0.00859731090010378,-0.008065601750005126,-0.028554002287215562,0,70,255.0,255.0,255.0
405,20.25,-0.7442,-5.6714,-7.8243,-0.2045808085217157,-0.10677721810719361,-0.7134729981985162,-0.00972357498966736,-0.010837387088709405,-0.029709027335853122,0,70,255.0,255.0,255.0
406,20.3,-0.7544408023840321,-5.6767513438562345,-7.860010012940864,-0.2050434366237482,-0.10725526048243496,-0.7149120543714494,-0.008781549091631589,-0.008284307920944419,-0.02785321958147688,0,70,255.0,255.0,255.0
407,20.35,-0.7647035586407934,-5.682123398482271,-7.895789658930684,-0.20545896343087885,-0.10760564889928807,-0.7162583201566639,-0.007839523193595816,-0.005731228753179434,-0.02599741182710064,0,70,255.0,255.0,255.0
408,20.400000000000002,-0.7749859137055386,-5.68750978118019,-7.931634298450071,-0.2058273889431078,-0.10782838335775291,-0.7175117955541596,-0.006897497295560044,-0.0031781495854144495,-0.024141604072724396,0,70,255.0,255.0,255.0
409,20.450000000000003,-0.7852855125135227,-5.692904109252073,-7.967539291979639,-0.2061487131604349,-0.10792346385782951,-0.7186724805639364,-0.0059554713975242726,-0.0006250704176494638,-0.022285796318348157,0,70,255.0,255.0,255.0
410,20.5,-0.7956,-5.6983,-8.0035,-0.20642293608286022,-0.10789089039951787,-0.7197403751859943,-0.005013445499488789,0.0019280087501155618,-0.02042998856397027,0,70,255.0,255.0,255.0
411,20.55,-0.8059277143774769,-5.703692834730426,-8.039513567997492,-0.20669165434539913,-0.10783650324532175,-0.7208225797634139,-0.00573528500206778,0.00024747741772936766,-0.022858194532812737,0,70,255.0,255.0,255.0
412,20.6,-0.8162697669674589,-5.709085050767309,-8.075584281481317,-0.206996464583067,-0.10786614265774493,-0.7220261946392756,-0.00645712450464677,-0.0014330539146568265,-0.025286400501655208,0,70,255.0,255.0,255.0
413,20.650000000000002,-0.8266279623687027,-5.714480849438978,-8.111718210966396,-0.20733736679586381,-0.10797980863678742,-0.7233512198135794,-0.007178964007225761,-0.003113585247043021,-0.027714606470497675,0,70,255.0,255.0,255.0
414,20.700000000000003,-0.8370041051799646,-5.719884432073765,-8.14792142696765,-0.2077143609837896,-0.10817750118244925,-0.7247976552863254,-0.007900803509804752,-0.004794116579429215,-0.030142812439340146,0,70,255.0,255.0,255.0
415,20.75,-0.8474,-5.7253,-8.1842,-0.20812744714684425,-0.10845922029473032,-0.7263655010575135,-0.008622643012383469,-0.006474647911814957,-0.03257101840818333,0,70,255.0,255.0,255.0
416,20.8,-0.857817140106061,-5.730730917222059,-8.22055811506917,-0.20855794599465638,-0.10877472653627636,-0.7279416265748979,-0.008597310900101228,-0.00614560175002667,-0.030474002287193405,0,70,255.0,255.0,255.0
417,20.85,-0.8682557734893724,-5.736177198448493,-8.256992415144058,-0.2089871782368544,-0.109073780469733,-0.7294129012862329,-0.00857197878781899,-0.005816555588238383,-0.028376986166203485,0,70,255.0,255.0,255.0
418,20.900000000000002,-0.8787158368196533,-5.741638021063896,-8.293497657684359,-0.20941514387343826,-0.10935638209510021,-0.7307793251915183,-0.00854664667553675,-0.005487509426450096,-0.026279970045213562,0,70,255.0,255.0,255.0
419,20.950000000000003,-0.8891972667666229,-5.747112562452868,-8.330068600149774,-0.20984184290440808,-0.109622531412378,-0.7320408982907544,-0.008521314563254511,-0.005158463264661809,-0.024182953924223642,0,70,255.0,255.0,255.0
420,21.0,-0.8997,-5.7526,-8.3667,-0.21026727532976372,-0.10987222842156638,-0.7331976205839407,-0.008495982450971828,-0.0048294171028733235,-0.022085937803233868,0,70,255.0,255.0,255.0
421,21.05,-0.9102237251982799,-5.758099496381338,-8.403387571725833,-0.21067656167597607,-0.1101045906095788,-0.7343069139369814,-0.007875471397522062,-0.00446507041762349,-0.022285796318398533,0,70,255.0,255.0,255.0
422,21.1,-0.9207671390750534,-5.76361015543872,-8.440130857942462,-0.21105482246951593,-0.11031873546332874,-0.7354262002157805,-0.007254960344072296,-0.004100723732373657,-0.022485654833563202,0,70,255.0,255.0,255.0
423,21.150000000000002,-0.9313286903526872,-5.769131066305433,-8.476930358296174,-0.2114020577103833,-0.11051466298281619,-0.7365554794203378,-0.006634449290622531,-0.0037363770471238247,-0.022685513348727867,0,70,255.0,255.0,255.0
424,21.200000000000003,-0.9419068277535476,-5.774661318114765,-8.513786572433258,-0.2117182673985782,-0.11069237316804112,-0.7376947515506533,-0.006013938237172765,-0.0033720303618739915,-0.022885371863892535,0,70,255.0,255.0,255.0
425,21.25,-0.9525,-5.7802,-8.5507,-0.21200345153410058,-0.11085186601900357,-0.7388440166067269,-0.005393427183723043,-0.0030076836766246284,-0.02308523037905097,0,70,255.0,255.0,255.0
426,21.3,-0.9631071591008207,-5.785746297252588,-8.587671598027503,-0.21228780730143884,-0.11099891102540503,-0.7400307176771862,-0.005980803509806928,-0.0028741165794336147,-0.024382812439318276,0,70,255.0,255.0,255.0
427,21.35,-0.973729270210416,-5.791299779796627,-8.624704153086105,-0.21260153188508127,-0.11113927767694694,-0.7412822978506588,-0.0065681798358908135,-0.002740549482242601,-0.025680394499585583,0,70,255.0,255.0,255.0
428,21.400000000000002,-0.9843678017696008,-5.796860113714368,-8.661800909130953,-0.21294462528502792,-0.11127296597362929,-0.7425987571271447,-0.0071555561619747,-0.002606982385051587,-0.02697797655985289,0,70,255.0,255.0,255.0
429,21.450000000000003,-0.9950242222191907,-5.802426965088075,-8.698965110117204,-0.21331708750127878,-0.1113999759154521,-0.7439800955066441,-0.007742932488058585,-0.002473415287860573,-0.028275558620120197,0,70,255.0,255.0,255.0
430,21.5,-1.0057,-5.808,-8.7362,-0.2137189185338338,-0.11152030750241536,-0.7454263129891567,-0.00833030881414265,-0.002339848190670124,-0.029573140680385634,0,70,255.0,255.0,255.0
431,21.55,-1.0163964383984385,-5.813579314608307,-8.773507636164162,-0.21414020911826867,-0.1116597652887992,-0.7468662153542718,-0.00852131456325216,-0.003238463264683346,-0.028022953924215322,0,70,255.0,255.0,255.0
432,21.6,-1.0271141800832846,-5.819166725374775,-8.810885329713132,-0.21457104999015902,-0.1118441538288837,-0.7482286083815782,-0.00871232031236167,-0.004137078338696568,-0.02647276716804501,0,70,255.0,255.0,255.0
433,21.650000000000002,-1.0378537025689123,-5.82476447883709,-8.848329205180022,-0.21501144114950482,-0.11207347312266887,-0.7495134920710763,-0.008903326061471182,-0.005035693412709791,-0.024922580411874694,0,70,255.0,255.0,255.0
434,21.700000000000003,-1.0486154833696932,-5.830374821532937,-8.885835387097943,-0.21546138259630615,-0.11234772317015468,-0.7507208664227658,-0.009094331810580692,-0.005934308486723012,-0.023372393655704385,0,70,255.0,255.0,255.0
435,21.75,-1.0594,-5.836,-8.9234,-0.21592087433056292,-0.11266690397134115,-0.7518507314366468,-0.009285337559690854,-0.006832923560735948,-0.021822206899533292,0,70,255.0,255.0,255.0
436,21.8,-1.0702070873054266,-5.841641244314186,-8.961020257315859,-0.21635135622548457,-0.11297002781940586,-0.7529684209057323,-0.00793393823717479,-0.00529203036185244,-0.022885371863888986,0,70,255.0,255.0,255.0
437,21.85,-1.0810340094564466,-5.847295718704275,-8.99869772806138,-0.2167142681542804,-0.1131961070075264,-0.7541392686230357,-0.006582538914658726,-0.003751137162968932,-0.02394853682824468,0,70,255.0,255.0,255.0
438,21.900000000000002,-1.091877387954753,-5.852959570937273,-9.036435070148968,-0.21700961011695044,-0.11334514153570276,-0.7553632745885569,-0.005231139592142662,-0.002210243964085424,-0.02501170179260037,0,70,255.0,255.0,255.0
439,21.950000000000003,-1.10273384430204,-5.85862894878018,-9.074234941491039,-0.2172373821134947,-0.11341713140393495,-0.7566404388022959,-0.0038797402696265975,-0.0006693507652019157,-0.026074866756956066,0,70,255.0,255.0,255.0
440,22.0,-1.1136,-5.8643,-9.1121,-0.2173975841439131,-0.11341207661222295,-0.7579707612642524,-0.002528340947110186,0.0008715424336814825,-0.027138031721309908,0,70,255.0,255.0,255.0
441,22.05,-1.1244736123798549,-5.869970108134954,-9.150032134572406,-0.2175583659797924,-0.11340412343357713,-0.7593081010227882,-0.0039029324880610365,-0.0005534152878483559,-0.026355558620123343,0,70,255.0,255.0,255.0
442,22.1,-1.1353569820909302,-5.875641599808126,-9.18803015804136,-0.2177878773927192,-0.11346741814100779,-0.7606063171262648,-0.005277524029011887,-0.0019783730093781943,-0.025573085518936778,0,70,255.0,255.0,255.0
443,22.150000000000002,-1.1462535456120782,-5.8813180374138225,-9.226092114224116,-0.21808611838269357,-0.11360196073451495,-0.7618654095746821,-0.006652115569962739,-0.0034033307309080324,-0.024790612417750213,0,70,255.0,255.0,255.0
444,22.200000000000003,-1.1571667394221505,-5.887002983346345,-9.264216046937914,-0.21845308894971552,-0.1138077512140986,-0.7630853783680399,-0.008026707110913588,-0.004828288452437871,-0.024008139316563648,0,70,255.0,255.0,255.0
445,22.25,-1.1681,-5.8927,-9.3024,-0.2188887890937849,-0.1140847895797587,-0.7642662235063383,-0.009401298651863677,-0.006253246173967275,-0.023225666215375362,0,70,255.0,255.0,255.0
446,22.3,-1.1790560631751537,-5.898411923146003,-9.34064240439452,-0.21935117985534602,-0.11438947844627681,-0.7654311750031154,-0.009094331810581032,-0.0059343084867569075,-0.023372393655704295,0,70,255.0,255.0,255.0
447,22.35,-1.1900348621798338,-5.904138682063222,-9.37894323977318,-0.219798222274843,-0.11467822042843441,-0.7666034628719087,-0.008787364969298385,-0.00561537079954654,-0.023519121096033227,0,70,255.0,255.0,255.0
448,22.400000000000002,-1.201035629596937,-5.909879479407439,-9.41730287295458,-0.22022991635227587,-0.11495101552623148,-0.7677830871127187,-0.00848039812801574,-0.005296433112336171,-0.023665848536362163,0,70,255.0,255.0,255.0
449,22.450000000000003,-1.2120575980093609,-5.915633517834439,-9.455721670757319,-0.2206462620876446,-0.11520786373966803,-0.768970047725545,-0.008173431286733096,-0.004977495425125804,-0.023812575976691095,0,70,255.0,255.0,255.0
450,22.5,-1.2231,-5.9214,-9.4942,-0.22104725948094917,-0.11544876506874405,-0.7701643447103879,-0.007866464445449584,-0.0046585577379152365,-0.023959303417020905,0,70,255.0,255.0,255.0
451,22.55,-1.2341621349195313,-5.927178199281038,-9.532738247849515,-0.22143691459882595,-0.11567796278132175,-0.7713671989647374,-0.0077197402696215865,-0.00450935076519303,-0.02415486675695995,0,70,255.0,255.0,255.0
452,22.6,-1.2452435691897366,-5.932967671938989,-9.571336882865923,-0.22181923350791133,-0.11589970014526335,-0.7725798313860839,-0.00757301609379359,-0.004360143792470824,-0.024350430096898995,0,70,255.0,255.0,255.0
453,22.650000000000002,-1.2563439360001762,-5.93876804495642,-9.609996393957573,-0.22219421620820534,-0.11611397716056884,-0.7738022419744274,-0.007426291917965593,-0.004210936819748616,-0.02454599343683804,0,70,255.0,255.0,255.0
454,22.700000000000003,-1.2674628685404108,-5.944578945315902,-9.648717270032817,-0.2225618626997079,-0.11632079382723823,-0.7750344307297676,-0.007279567742137597,-0.00406172984702641,-0.024741556776777085,0,70,255.0,255.0,255.0
455,22.75,-1.2786,-5.9504,-9.6875,-0.22292217298241906,-0.11652015014527146,-0.7762763976521051,-0.007132843566308278,-0.003912522874303659,-0.024937120116715228,0,70,255.0,255.0,255.0
456,22.8,-1.2897545971467226,-5.956230479729848,-9.726344604207418,-0.2232531617493496,-0.11669067042843925,-0.7775000291379378,-0.006106707110912954,-0.0029082884524078336,-0.024008139316596008,0,70,255.0,255.0,255.0
457,22.85,-1.3009244610612225,-5.962068230180825,-9.765249228763128,-0.22353284369351037,-0.11681097899051225,-0.7786772115837648,-0.005080570655517628,-0.0019040540305120084,-0.02307915851647679,0,70,255.0,255.0,255.0
458,22.900000000000002,-1.312107026402361,-5.967910740766881,-9.804211551215129,-0.22376121881490135,-0.11688107583149046,-0.7798079449895856,-0.004054434200122304,-0.0008998196086161831,-0.02215017771635757,0,70,255.0,255.0,255.0
459,22.950000000000003,-1.323299727829,-5.973755500901957,-9.84322924911142,-0.22393828711352262,-0.11690096095137388,-0.7808922293554005,-0.003028297744726979,0.00010441481327964214,-0.021221196916238354,0,70,255.0,255.0,255.0
460,23.0,-1.3345,-5.9796,-9.8823,-0.22406404858937404,-0.1168706343501625,-0.7819300646812094,-0.0020021612893315055,0.0011086492351753963,-0.02029221611611387,0,70,255.0,255.0,255.0
461,23.05,-1.3457066764935794,-5.9854430817995725,-9.921422535320817,-0.2242224384037758,-0.11687135550491191,-0.7829846844835279,-0.004333431286737788,-0.0011374954251518786,-0.021892575976626305,0,70,255.0,255.0,255.0
462,23.1,-1.3569241865653756,-5.991289007337708,-9.960599802081573,-0.2244973917180478,-0.11698438389267768,-0.7841193222788722,-0.00666470128414407,-0.0033836400854791535,-0.02349293583713874,0,70,255.0,255.0,255.0
463,23.150000000000002,-1.3681583583903825,-5.997143391976057,-9.99983580118192,-0.22488890853219018,-0.11720971951345983,-0.7853339780672418,-0.008995971281550351,-0.0056297847458064276,-0.025093295697651175,0,70,255.0,255.0,255.0
464,23.200000000000003,-1.3794150201435929,-6.0030118510762716,-10.039134533521514,-0.22539698884620288,-0.11754736236725834,-0.7866286518486372,-0.011327241278956634,-0.007875929406133703,-0.02669365555816361,0,70,255.0,255.0,255.0
465,23.25,-1.3907,-6.0089,-10.0785,-0.22602163266008582,-0.11799731245407316,-0.788003343623058,-0.013658511276361418,-0.010122074066459819,-0.028294015418675045,0,70,255.0,255.0,255.0
466,23.3,-1.4020170968789605,-6.014811593071862,-10.117934854509326,-0.22664108463554816,-0.11844790755191052,-0.7893772329279451,-0.011119567742131862,-0.00790172984703387,-0.026661556776808103,0,70,255.0,255.0,255.0
467,23.35,-1.4133619926772767,-6.020742940468341,-10.157436362910593,-0.227133589434299,-0.11878748543877655,-0.7906694993007388,-0.008580624207902305,-0.005681385627607919,-0.025029098134941162,0,70,255.0,255.0,255.0
468,23.400000000000002,-1.4247283400361124,-6.02668849132889,-10.197000444057199,-0.2274991470563384,-0.11901604611467131,-0.7918801427414394,-0.006041680673672748,-0.003461041408181969,-0.02339663949307422,0,70,255.0,255.0,255.0
469,23.450000000000003,-1.4361097915966323,-6.03264269479296,-10.236623016802538,-0.2277377575016663,-0.11913358957959476,-0.7930091632500463,-0.00350273713944319,-0.0012406971887560202,-0.02176418085120728,0,70,255.0,255.0,255.0
470,23.5,-1.4475,-6.0386,-10.2763,-0.22784942077028272,-0.1191401158335469,-0.7940565608265601,-0.0009637936052138141,0.0009796470306701055,-0.020131722209343117,0,70,255.0,255.0,255.0
471,23.55,-1.458894535990579,-6.0445561459129795,-10.316028446641885,-0.22794922305403123,-0.11911301428744775,-0.7950903838046997,-0.0030282977447271112,0.00010441481329649259,-0.021221196916237,0,70,255.0,255.0,255.0
472,23.6,-1.4702966427255197,-6.0505120307889255,-10.35580994627606,-0.22815225054475544,-0.11912967435221725,-0.7961786805181837,-0.005092801884240408,-0.0007708174040771203,-0.02231067162313088,0,70,255.0,255.0,255.0
473,23.650000000000002,-1.481711481465171,-6.056469842708383,-10.395647222589293,-0.2284585032424553,-0.11919009602785545,-0.7973214509670128,-0.007157306023753706,-0.001646049621450733,-0.023400146330024765,0,70,255.0,255.0,255.0
474,23.700000000000003,-1.4931442134698818,-6.062431769751893,-10.435542999268353,-0.22886798114713083,-0.11929427931436233,-0.7985186951511863,-0.009221810163267003,-0.002521281838824346,-0.02448962103691865,0,70,255.0,255.0,255.0
475,23.75,-1.5046,-6.0684,-10.4755,-0.229380684258782,-0.11944222421173788,-0.7997704130707044,-0.011286314302780376,-0.0033965140561972307,-0.025579095743809788,0,70,255.0,255.0,255.0
476,23.8,-1.5160823591587245,-6.074376623276219,-10.515520158923138,-0.2298980231483255,-0.11962803529829635,-0.801029231853253,-0.009407241278960372,-0.004035929406141867,-0.024773655558131925,0,70,255.0,255.0,255.0
477,23.85,-1.5275882364206461,-6.080363336375954,-10.555602251985173,-0.23032140838667806,-0.11984581715235207,-0.8022477786265176,-0.007528168255140368,-0.004675344756086504,-0.023968215372454058,0,70,255.0,255.0,255.0
478,23.900000000000002,-1.539112934103206,-6.08636173783758,-10.595744265585635,-0.23065083997383956,-0.12009556977390501,-0.8034260533904983,-0.005649095231320365,-0.0053147601060311404,-0.023162775186776195,0,70,255.0,255.0,255.0
479,23.950000000000003,-1.550651754523844,-6.09237342619947,-10.63594418612407,-0.2308863179098101,-0.12037729316295519,-0.8045640561451953,-0.0037700222075003603,-0.005954175455975777,-0.022357335001098332,0,70,255.0,255.0,255.0
480,24.0,-1.5622,-6.0984,-10.6762,-0.23102784219458963,-0.12069098731950256,-0.8056617868906082,-0.0018909491836811565,-0.0065935908059202575,-0.0215518948154223,0,70,255.0,255.0,255.0
481,24.05,-1.5737544273745243,-6.104442160982143,-10.716510117665564,-0.23116268435266774,-0.12098284451936968,-0.8067446887822749,-0.0035027371394434465,-0.0050806971887641834,-0.021764180851244323,0,70,255.0,255.0,255.0
482,24.1,-1.585317611591897,-6.110497023707256,-10.756874645783258,-0.23137811590853397,-0.12119905703837898,-0.8078382049757327,-0.0051145250952057365,-0.0035678035716081094,-0.021976466887066344,0,70,255.0,255.0,255.0
483,24.150000000000002,-1.5968935821220078,-6.116560805941299,-10.79729411506817,-0.23167413686218835,-0.1213396248765305,-0.8089423354709816,-0.006726313050968027,-0.0020549099544520354,-0.022188752922888366,0,70,255.0,255.0,255.0
484,24.200000000000003,-1.608486368434746,-6.122629725450229,-10.837769056235388,-0.23205074721363078,-0.1214045480338242,-0.8100570802680215,-0.008338101006730316,-0.0005420163372959613,-0.022401038958710384,0,70,255.0,255.0,255.0
485,24.25,-1.6201,-6.1287,-10.8783,-0.23250794696286134,-0.12139382651026011,-0.8111824393668524,-0.009949888962492937,0.0009708772798596721,-0.022613324994529727,0,70,255.0,255.0,255.0
486,24.3,-1.6317375313431801,-6.134769132795213,-10.918887370414602,-0.23298723944100524,-0.12138458662423347,-0.8123120130176387,-0.00922181016326288,-0.0006012818387945097,-0.022569621036920572,0,70,255.0,255.0,255.0
487,24.35,-1.6433981172117682,-6.140839768795022,-10.959531164881799,-0.23343012797918763,-0.12145395469413955,-0.8134394014705445,-0.00849373136403282,-0.0021734409574486915,-0.022525917079311418,0,70,255.0,255.0,255.0
488,24.400000000000002,-1.6550799374087664,-6.146915838397226,-11.000231274141694,-0.23383661257740854,-0.12160193071997835,-0.8145646047255699,-0.007765652564802763,-0.003745600076102873,-0.022482213121702264,0,70,255.0,255.0,255.0
489,24.450000000000003,-1.6667811717371765,-6.15300127199962,-11.040987588934392,-0.23420669323566795,-0.12182851470174985,-0.8156876227827147,-0.007037573765572705,-0.005317759194757055,-0.02243850916409311,0,70,255.0,255.0,255.0
490,24.5,-1.6785,-6.1591,-11.0818,-0.23454036995396582,-0.12213370663945403,-0.8168084556419791,-0.006309494966343365,-0.006889918313410348,-0.022394805206482182,0,70,255.0,255.0,255.0
491,24.55,-1.690234647252757,-6.165214907837006,-11.122668400676023,-0.23484035788331192,-0.1224548089836891,-0.8179272591471687,-0.005690022207500691,-0.005954175455992359,-0.022357335001098908,0,70,255.0,255.0,255.0
492,24.6,-1.7019835195610327,-6.1713447011126545,-11.163592694689545,-0.2351093721747159,-0.12272912418505327,-0.8190441891420891,-0.005070549448658018,-0.0050184325985743695,-0.022319864795715638,0,70,255.0,255.0,255.0
493,24.650000000000002,-1.7137450682429298,-6.1774870404697975,-11.204572788365061,-0.23534741282817773,-0.12295665224354654,-0.8201592456267403,-0.004451076689815344,-0.00408268974115638,-0.022282394590332363,0,70,255.0,255.0,255.0
494,24.700000000000003,-1.7255177446165517,-6.183639586551294,-11.24560858802705,-0.23555447984369746,-0.12313739315916891,-0.8212724286011224,-0.0038316039309726694,-0.003146946883738391,-0.022244924384949093,0,70,255.0,255.0,255.0
495,24.75,-1.7373,-6.1898,-11.2867,-0.235730573221275,-0.12327134693192038,-0.822383738065235,-0.0032121311721309276,-0.002211204026319802,-0.02220745417956138,0,70,255.0,255.0,255.0
496,24.8,-1.7490910796457935,-6.195966435856759,-11.327847026881312,-0.23592332902574656,-0.12338817744101109,-0.8234989503936917,-0.004498101006731066,-0.002462016337308718,-0.02240103895870789,0,70,255.0,255.0,255.0
497,24.85,-1.7608934045441038,-6.20213902675436,-11.36905005636002,-0.2361803833219481,-0.12351754856565125,-0.8246238419611058,-0.005784070841331205,-0.0027128286482976344,-0.022594623737854397,0,70,255.0,255.0,255.0
498,24.900000000000002,-1.7727101896195174,-6.2083183997235825,-11.410309572398072,-0.23650173610987968,-0.12365946030584087,-0.8257584127674772,-0.0070700406759313435,-0.0029636409592865504,-0.022788208517000905,0,70,255.0,255.0,255.0
499,24.950000000000003,-1.784544649796621,-6.214505181795204,-11.451626058957418,-0.23688738738954127,-0.12381391266157991,-0.826902662812806,-0.008356010510531482,-0.003214453270275467,-0.022981793296147413,0,70,255.0,255.0,255.0
500,25.0,-1.7964,-6.2207,-11.493,-0.2373373371609328,-0.12398090563286841,-0.8280565920970918,-0.009641980345131973,-0.003465265581264698,-0.023175378075294795,0,70,255.0,255.0,255.0
501,25.05,-1.8082786341640702,-6.226903348735959,-11.534431491798737,-0.23780232601370052,-0.12415248125226863,-0.8291969392780757,-0.008957573765577188,-0.003397759194744209,-0.022438509164060063,0,70,255.0,255.0,255.0
502,25.1,-1.8201796622625541,-6.233115191869905,-11.575919079870381,-0.23823309453749053,-0.12432068155234284,-0.8303004430134978,-0.008273167186022404,-0.0033302528082237194,-0.021701640252825328,0,70,255.0,255.0,255.0
503,25.150000000000002,-1.8321013732790032,-6.239335360635871,-11.61746092204266,-0.2386296427323028,-0.12448550653309101,-0.8313671033033583,-0.007588760606467619,-0.0032627464217032305,-0.020964771341590596,0,70,255.0,255.0,255.0
504,25.200000000000003,-1.8440420561969686,-6.245563686267893,-11.659055176143294,-0.23899197059813732,-0.12464695619451317,-0.832396920147657,-0.0069043540269128345,-0.003195240035182741,-0.02022790243035586,0,70,255.0,255.0,255.0
505,25.25,-1.856,-6.2518,-11.7007,-0.23932007813499406,-0.1248050305366093,-0.8333898935463939,-0.0062199474473580985,-0.0031277336486619234,-0.01949103351912207,0,70,255.0,255.0,255.0
506,25.3,-1.8679735836979274,-6.258044169199406,-11.742394205923746,-0.23961936691945224,-0.1249618975499193,-0.8343852924939966,-0.00575160393096849,-0.0031469468837379113,-0.02032492438498502,0,70,255.0,255.0,255.0
507,25.35,-1.879961546405682,-6.264296205766021,-11.784139224158455,-0.23989523852809091,-0.1251197252249831,-0.8354223859848925,-0.005283260414578881,-0.003166160118813899,-0.021158815250847975,0,70,255.0,255.0,255.0
508,25.400000000000002,-1.8919627172644733,-6.270556157732933,-11.825937139431291,-0.24014769296091013,-0.1252785135618007,-0.8365011740190815,-0.004814916898189272,-0.0031853733538898875,-0.021992706116710926,0,70,255.0,255.0,255.0
509,25.450000000000003,-1.90397592541551,-6.2768240731332305,-11.867790036469419,-0.24037673021790984,-0.12543826256037208,-0.8376216565965635,-0.004346573381799663,-0.0032045865889658754,-0.02282659698257388,0,70,255.0,255.0,255.0
510,25.5,-1.916,-6.2831,-11.9097,-0.2405823502990901,-0.1255989722206973,-0.8387838337173388,-0.0038782298654096437,-0.00322379982404164,-0.023660487848436773,0,70,255.0,255.0,255.0
511,25.55,-1.928034231044222,-6.289383974466418,-11.951668484506282,-0.2407922063084886,-0.1257599285480552,-0.8399498907459534,-0.004516010510531841,-0.003214453270275497,-0.022981793296147038,0,70,255.0,255.0,255.0
512,25.6,-1.9400797521147202,-6.295675985066011,-11.993694423495803,-0.24103395135014327,-0.12592041754772484,-0.8410820130469535,-0.005153791155654038,-0.0032051067165093537,-0.0223030987438573,0,70,255.0,255.0,255.0
513,25.650000000000002,-1.9521381576631074,-6.301976008432396,-12.035776120232185,-0.24130758542405403,-0.12608043921970616,-0.8421802006203392,-0.005791571800776234,-0.0031957601627432106,-0.021624404191567564,0,70,255.0,255.0,255.0
514,25.700000000000003,-1.9642110421409966,-6.308284021199187,-12.077911877979044,-0.24161310853022092,-0.12623999356399918,-0.8432444534661103,-0.006429352445898432,-0.0031864136089770675,-0.020945709639277825,0,70,255.0,255.0,255.0
515,25.75,-1.9763,-6.3146,-12.1201,-0.24195052066864386,-0.1263990805806039,-0.8442747715842669,-0.007067133091021027,-0.003177067055211147,-0.020267015086988138,0,70,255.0,255.0,255.0
516,25.8,-1.988406292125186,-6.320923932934925,-12.162339056051133,-0.24229980784659233,-0.12655838825786375,-0.8452871445221988,-0.006904354026917401,-0.0031952400351826786,-0.020227902430288578,0,70,255.0,255.0,255.0
517,25.85,-2.000529845135439,-6.327255853969937,-12.204628681858342,-0.2426409560713356,-0.12671860458412215,-0.8462975618272958,-0.006741574962813774,-0.00321341301515421,-0.02018878977358902,0,70,255.0,255.0,255.0
518,25.900000000000002,-2.0126702520831,-6.3335958085374875,-12.246968779639984,-0.24297396534287374,-0.12687972955937915,-0.8473060234995577,-0.006578795898710148,-0.0032315859951257417,-0.02014967711688946,0,70,255.0,255.0,255.0
519,25.950000000000003,-2.0248271060205068,-6.339943842070025,-12.289359251614417,-0.24329883566120664,-0.12704176318363475,-0.8483125295389847,-0.006416016834606521,-0.003249758975097273,-0.020110564460189904,0,70,255.0,255.0,255.0
520,26.0,-2.037,-6.3463,-12.3318,-0.24361556702633436,-0.1272047054568889,-0.8493170799455766,-0.006253237770502018,-0.0032679319550688035,-0.020071451803485907,0,70,255.0,255.0,255.0
521,26.05,-2.0491886004550346,-6.352664293793887,-12.374291291289191,-0.24392856230514187,-0.12736651842048932,-0.8503415311652299,-0.0062665733817988565,-0.0032045865889488204,-0.020906596982645288,0,70,255.0,255.0,255.0
522,26.1,-2.061392867343524,-6.359036599054245,-12.416834849070838,-0.24424222436451426,-0.12752516411578377,-0.8514077396438412,-0.006279908993095696,-0.003141241222828837,-0.02174174216180467,0,70,255.0,255.0,255.0
523,26.150000000000002,-2.073612834004496,-6.365416757417661,-12.459432761207893,-0.24455655320445147,-0.12768064254277223,-0.8525157053814104,-0.006293244604392534,-0.003077895856708854,-0.02257688734096405,0,70,255.0,255.0,255.0
524,26.200000000000003,-2.085848533776979,-6.371804610520717,-12.502087115563297,-0.24487154882495352,-0.12783295370145464,-0.8536654283779376,-0.0063065802156893735,-0.0030145504905888707,-0.02341203252012343,0,70,255.0,255.0,255.0
525,26.25,-2.0981,-6.3782,-12.5448,-0.24518721122602039,-0.12798209759183113,-0.8548569086334227,-0.006319915826986211,-0.002951205124469558,-0.024247177699280975,0,70,255.0,255.0,255.0
526,26.3,-2.110367306054676,-6.384602891889531,-12.587572578792106,-0.2455059429328425,-0.12813553806016817,-0.8560347308168865,-0.006429352445898752,-0.0031864136090115325,-0.02286570963927355,0,70,255.0,255.0,255.0
527,26.35,-2.1226506854904676,-6.391013749813087,-12.630402321858307,-0.24583014647061027,-0.12830073895273228,-0.85714347959735,-0.006538789064811293,-0.003421622093553507,-0.021484241579266122,0,70,255.0,255.0,255.0
528,26.400000000000002,-2.1349504118989198,-6.397433161791876,-12.67328577552846,-0.24615982183932364,-0.12847770026952351,-0.8581831549748132,-0.006648225683723834,-0.0036568305780954814,-0.020102773519258696,0,70,255.0,255.0,255.0
529,26.450000000000003,-2.147266758871582,-6.4038617158471105,-12.716219486132406,-0.24649496903898266,-0.12866642201054182,-0.859153756949276,-0.006757662302636375,-0.003892039062637456,-0.01872130545925127,0,70,255.0,255.0,255.0
530,26.5,-2.1596,-6.4103,-12.7592,-0.24683558806958725,-0.12886690417578728,-0.8600552855207383,-0.006867098921549131,-0.0041272475471796355,-0.01733983739923861,0,70,255.0,255.0,255.0
531,26.55,-2.1719501753262622,-6.416748138647986,-12.802224793542395,-0.24716766596349082,-0.12905132933884378,-0.8609435455672232,-0.006416016834593601,-0.003249758975080029,-0.0181905644601562,0,70,255.0,255.0,255.0
532,26.6,-2.1843163906946104,-6.423204401693408,-12.845295063495941,-0.2474771897530466,-0.12919188007329527,-0.8618743419667539,-0.005964934747638071,-0.0023722704029804226,-0.01904129152107379,0,70,255.0,255.0,255.0
533,26.650000000000002,-2.196697518399828,-6.429666595414838,-12.88841293667829,-0.24776415943825464,-0.12928855637914183,-0.8628476747193305,-0.005513852660682542,-0.0014947818308808161,-0.01989201858199138,0,70,255.0,255.0,255.0
534,26.700000000000003,-2.2090924307366975,-6.436132526090846,-12.931580539907094,-0.24802857501911488,-0.12934135825638338,-0.8638635438249531,-0.005062770573727012,-0.0006172932587812097,-0.02074274564290897,0,70,255.0,255.0,255.0
535,26.75,-2.2215,-6.4426,-12.9748,-0.24827043649562736,-0.12935028570501994,-0.8649219492836214,-0.0046116884867704044,0.00026019531331833434,-0.021593472703822947,0,70,255.0,255.0,255.0
536,26.8,-2.233919192640277,-6.449067753518528,-13.01807304703832,-0.24849539321318914,-0.1293711445844514,-0.865999086914221,-0.004386580215701749,-0.0010945504905766706,-0.021492032520160895,0,70,255.0,255.0,255.0
537,26.85,-2.246349351731093,-6.455538243413281,-13.061399824157936,-0.24870909451719755,-0.12945974075407762,-0.8670711525356376,-0.004161471944633093,-0.0024492962944716755,-0.021390592336498846,0,70,255.0,255.0,255.0
538,26.900000000000002,-2.2587899145017714,-6.462014856548772,-13.104780077758397,-0.24891154040765248,-0.12961607421389856,-0.868138146147871,-0.003936363673564437,-0.00380404209836668,-0.021289152152836794,0,70,255.0,255.0,255.0
539,26.950000000000003,-2.2712403181816327,-6.468500979789508,-13.148213554239238,-0.24910273088455398,-0.1298401449639143,-0.8692000677509212,-0.0037112554024957816,-0.005158787902261685,-0.021187711969174745,0,70,255.0,255.0,255.0
540,27.0,-2.2837,-6.475,-13.1917,-0.24928266594790205,-0.13013195300412472,-0.8702569173447883,-0.003486147131426698,-0.0065135337061565934,-0.02108627178550826,0,70,255.0,255.0,255.0
541,27.05,-2.2961690541126307,-6.481514447277904,-13.235239018304338,-0.24949076118375374,-0.13044009232334533,-0.8713001067759063,-0.004837662302640863,-0.005812039062667286,-0.020641305459210096,0,70,255.0,255.0,255.0
542,27.1,-2.3086502023810187,-6.488043424653465,-13.27882963987232,-0.24976643217816616,-0.13071315691039145,-0.8723210478907093,-0.006189177473855029,-0.005110544419177979,-0.020196339132911932,0,70,255.0,255.0,255.0
543,27.150000000000002,-2.3211468235930908,-6.494585178390073,-13.322470752288138,-0.2501096789311393,-0.13095114676526312,-0.8733197406891975,-0.007540692645069193,-0.00440904977568867,-0.01975137280661377,0,70,255.0,255.0,255.0
544,27.200000000000003,-2.3336622965367755,-6.5011379547511225,-13.36616124313597,-0.25052050144267307,-0.13115406188796033,-0.8742961851713708,-0.00889220781628336,-0.003707555132199363,-0.019306406480315605,0,70,255.0,255.0,255.0
545,27.25,-2.3462,-6.5077,-13.4099,-0.2509988997127676,-0.13132190227848303,-0.8752503813372291,-0.01024372298749876,-0.003006060488709883,-0.018861440154020137,0,70,255.0,255.0,255.0
546,27.3,-2.3587621909092005,-6.514269657369855,-13.45368607974434,-0.25147756205179783,-0.1314604861221702,-0.8761924859821525,-0.008902770573709588,-0.002537293258776823,-0.018822745642913394,0,70,255.0,255.0,255.0
547,27.35,-2.371346638744835,-6.520845657972859,-13.497519216352792,-0.2518891767701386,-0.13157563160436073,-0.8771326559015205,-0.007561818159920415,-0.0020685260288437622,-0.018784051131806655,0,70,255.0,255.0,255.0
548,27.400000000000002,-2.3839499911258697,-6.527426829890933,-13.54139931308907,-0.2522337438677899,-0.1316673387250546,-0.8780708910953331,-0.006220865746131242,-0.001599758798910702,-0.018745356620699913,0,70,255.0,255.0,255.0
549,27.450000000000003,-2.39656889567127,-6.534012001206006,-13.585326273216898,-0.2525112633447517,-0.1317356074842518,-0.8790071915635905,-0.004879913332342069,-0.0011309915689776417,-0.018706662109593174,0,70,255.0,255.0,255.0
550,27.5,-2.4092,-6.5406,-13.6293,-0.25272173520102403,-0.13178043788195234,-0.8799415573062924,-0.0035389609185525472,-0.0006622243390437266,-0.018667967598484658,0,70,255.0,255.0,255.0
551,27.55,-2.4218405822505673,-6.5471901232426735,-13.673320662718302,-0.25290299060905064,-0.13182996318798434,-0.8808899492954839,-0.003711255402512495,-0.0013187879022361496,-0.01926771196917568,0,70,255.0,255.0,255.0
552,27.6,-2.434490442639642,-6.5537835434551015,-13.717389494716524,-0.2530928607412753,-0.13191231667217596,-0.88186832850321,-0.003883549886472442,-0.0019753514654285726,-0.019867456339866703,0,70,255.0,255.0,255.0
553,27.650000000000002,-2.447150011903432,-6.560381902046194,-13.761507995355599,-0.2532913455976979,-0.1320274983345272,-0.8828766949294706,-0.004055844370432389,-0.002631915028620996,-0.020467200710557725,0,70,255.0,255.0,255.0
554,27.700000000000003,-2.4598197207781487,-6.566986840424857,-13.80567766399645,-0.25349844517831854,-0.13217550817503806,-0.8839150485742657,-0.004228138854392337,-0.003288478591813419,-0.021066945081248744,0,70,255.0,255.0,255.0
555,27.75,-2.4725,-6.5736,-13.8499,-0.2537141594831372,-0.1323563461937085,-0.8849833894375956,-0.004400433338352716,-0.003945042155005574,-0.021666689451940613,0,70,255.0,255.0,255.0
