idx,t,px,py,pz,vx,vy,vz,ax,ay,az,yaw,mode,ledr,ledg,ledb
0,0.0,-7.5,4.5,0.0,0.0011433545717360362,0.0007469334495768549,0.0018220417916630892,-0.028120254860855717,-0.012963201394948463,-0.05546450149995706,0,70,255.0,255.0,255.0
1,0.05,-7.499978039235417,4.5000212896041845,2.1593504499871212e-05,-0.00026605689700241985,0.00010758938680423349,-0.0009618607758349788,-0.028256203888682517,-0.012610561115956393,-0.055891601199965654,0,70,255.0,255.0,255.0
2,0.1,-7.500026718980556,4.50001105280558,-9.654199400017172e-05,-0.001682265817132216,-0.0005141226620187843,-0.003767118328333476,-0.02839215291650932,-0.012257920836964321,-0.05631870089997424,0,70,255.0,255.0,255.0
3,0.15000000000000002,-7.500146379107988,4.499970171204882,-0.00035547424475015037,-0.003105272188653352,-0.001118202696892199,-0.006593730865832404,-0.02852810194433612,-0.01190528055797225,-0.05674580059998283,0,70,255.0,255.0,255.0
4,0.2,-7.500337359490279,4.499899526402789,-0.000756270997000086,-0.004535076011565828,-0.0017046507178160094,-0.00944169838833176,-0.028664050972162923,-0.011552640278980179,-0.05717290029999142,0,70,255.0,255.0,255.0
5,0.25,-7.5006,4.4998,-0.0013,-0.005971677285869644,-0.0022734667247902166,-0.012311020895831545,-0.02879999999998971,-0.011199999999988108,-0.057600000000000054,0,70,255.0,255.0,255.0
6,0.30000000000000004,-7.500934640509722,4.499672473597209,-0.0019877290029999147,-0.007415076011564801,-0.0028246507178148208,-0.015201698388331764,-0.02893594902781652,-0.010847359720996036,-0.058027099700008605,0,70,255.0,255.0,255.0
7,0.35000000000000003,-7.5013416208920125,4.499517828795118,-0.0028205257552498504,-0.008865272188651296,-0.003358202696889821,-0.018113730865832407,-0.02907189805564333,-0.010494719442003966,-0.05845419940001715,0,70,255.0,255.0,255.0
8,0.4,-7.501821281019444,4.499336947194419,-0.003799458005999829,-0.010322265817129132,-0.003874122662015217,-0.02104711832833348,-0.029207847083470136,-0.010142079163011896,-0.0588812991000257,0,70,255.0,255.0,255.0
9,0.45,-7.502373960764583,4.499130710395815,-0.004925593504499871,-0.01178605689699831,-0.0043724106131910094,-0.024001860775834976,-0.029343796111296946,-0.009789438884019824,-0.059308398800034245,0,70,255.0,255.0,255.0
10,0.5,-7.503,4.4989,-0.0062,-0.013256645428258825,-0.004853066550417199,-0.026977958208336903,-0.029479745139123686,-0.00943679860502776,-0.059735498500042755,0,70,255.0,255.0,255.0
11,0.55,-7.503699398725695,4.498645616006974,-0.007623477492500216,-0.014713639056737088,-0.005320986515543134,-0.029959345670837974,-0.028800000000006758,-0.009280000000009638,-0.05951999999999997,0,70,255.0,255.0,255.0
12,0.6000000000000001,-7.504470797451391,4.49836803201395,-0.009195754985000432,-0.016136645428259502,-0.005781066550418164,-0.032929958208336906,-0.02812025486088983,-0.009123201394991518,-0.05930450149995718,0,70,255.0,255.0,255.0
13,0.65,-7.505312496814239,4.498067640017437,-0.010916293731250536,-0.017525664542826072,-0.006233306655042286,-0.03588979582083369,-0.027440509721772904,-0.008966402789973396,-0.05908900299991439,0,70,255.0,255.0,255.0
14,0.7000000000000001,-7.506222797451391,4.49774483201395,-0.01278455498500043,-0.018880696400436794,-0.0066777068294155036,-0.03883885850832835,-0.026760764582655975,-0.008809604184955275,-0.0588735044998716,0,70,255.0,255.0,255.0
15,0.75,-7.5072,4.4974,-0.0148,-0.020201741001091664,-0.0071142670735378135,-0.04177714627082085,-0.026081019443539077,-0.008652805579937153,-0.058658005999828955,0,70,255.0,255.0,255.0
16,0.8,-7.508242964587495,4.497033062374891,-0.01696236102699923,-0.021522367761484328,-0.007571403220010859,-0.04472091892831637,-0.026744050972167432,-0.009632640278984653,-0.05909290029999146,0,70,255.0,255.0,255.0
17,0.8500000000000001,-7.509352789302422,4.496642043149083,-0.019272454304748443,-0.02287614609830841,-0.00807753110143628,-0.047686436300820007,-0.02740708250079579,-0.010612474978032154,-0.05952779460015396,0,70,255.0,255.0,255.0
18,0.9,-7.510531131723601,4.4962244927358315,-0.021731367068998034,-0.024263076011563904,-0.008632650717814074,-0.05067369838833176,-0.028070114029424144,-0.011592309677079651,-0.05996268890031646,0,70,255.0,255.0,255.0
19,0.9500000000000001,-7.511779649429853,4.495777961548385,-0.02434018655549842,-0.025683157501250824,-0.009236762069144245,-0.05368270519085165,-0.028733145558052498,-0.012572144376127152,-0.060397583200478965,0,70,255.0,255.0,255.0
20,1.0,-7.5131,4.4953,-0.0271,-0.027136390567369155,-0.009889865155426789,-0.05671345670837965,-0.029396177086680964,-0.013551979075174678,-0.060832477500641524,0,70,255.0,255.0,255.0
21,1.05,-7.51449354292432,4.494789334493465,-0.030011078399502865,-0.028604889897319033,-0.010521400604406967,-0.05971697861589655,-0.029343796111314,-0.011709438884032416,-0.0593083988000343,0,70,255.0,255.0,255.0
22,1.1,-7.515960445338919,4.494249395389719,-0.033070427796005816,-0.030070770178500558,-0.011060809043830031,-0.06264429658838308,-0.02929141513594704,-0.009866898692890152,-0.05778432009942708,0,70,255.0,255.0,255.0
23,1.1500000000000001,-7.517500576291358,4.493684789039241,-0.03627423799275734,-0.03153403141091374,-0.011508090473695982,-0.06549541062583926,-0.02923903416058008,-0.008024358501747889,-0.05626024139881985,0,70,255.0,255.0,255.0
24,1.2000000000000002,-7.519113804829197,4.4931001217925095,-0.03961869879300591,-0.032994673594558564,-0.011863244894004822,-0.06827032072826508,-0.02918665318521312,-0.006181818310605627,-0.054736162698212625,0,70,255.0,255.0,255.0
25,1.25,-7.5208,4.4925,-0.0431,-0.034452696729435045,-0.012126272304756545,-0.07096902689566052,-0.029134272209846213,-0.0043392781194633995,-0.05321208399760591,0,70,255.0,255.0,255.0
26,1.3,-7.522558863715223,4.491887199651252,-0.04671572537498932,-0.03589807264924749,-0.012406994362366698,-0.07367516660809748,-0.028680764582651497,-0.006889604184942704,-0.055033504499871926,0,70,255.0,255.0,255.0
27,1.35,-7.524389429341903,4.491257175292042,-0.050469034511228306,-0.0373207731877002,-0.012815232723250816,-0.07647237734564771,-0.02822725695545678,-0.009439930250422009,-0.056854925002137936,0,70,255.0,255.0,255.0
28,1.4000000000000001,-7.526290563110971,4.490603551107205,-0.05436448095997264,-0.038720798344793174,-0.0133509873874089,-0.07936065910831128,-0.027773749328262064,-0.011990256315901313,-0.058676345504403954,0,70,255.0,255.0,255.0
29,1.4500000000000002,-7.52826113125336,4.48991995128158,-0.058406618272478,-0.0400981481205264,-0.01401425835484095,-0.08234001189608811,-0.02732024170106735,-0.014540582381380618,-0.060497766006669965,0,70,255.0,255.0,255.0
30,1.5,-7.5303,4.4892,-0.0626,-0.0414528225148999,-0.01480504562554696,-0.08541043570897826,-0.026866734073872744,-0.017090908446859926,-0.06231918650893664,0,70,255.0,255.0,255.0
31,1.55,-7.53240620221479,4.488439466901528,-0.06694762010053991,-0.042794819505697294,-0.015594621946121524,-0.08847835495171365,-0.026813145558022944,-0.014492144376122677,-0.060397583200478985,0,70,255.0,255.0,255.0
32,1.6,-7.534579437293474,4.487642703442114,-0.071446234159081,-0.0441341370707022,-0.01625426006315923,-0.09145019402902617,-0.026759557042173143,-0.011893380305385427,-0.05847597989202133,0,70,255.0,255.0,255.0
33,1.6500000000000001,-7.536819571264763,4.486816206531937,-0.07609103816735215,-0.04547077520991461,-0.01678395997666007,-0.09432595294091578,-0.026705968526323343,-0.009294616234648178,-0.05655437658356367,0,70,255.0,255.0,255.0
34,1.7000000000000002,-7.539126470157369,4.485966473081173,-0.08087722811708221,-0.046804733923334535,-0.01718372168662405,-0.09710563168738254,-0.026652380010473542,-0.006695852163910927,-0.054632773275106024,0,70,255.0,255.0,255.0
35,1.75,-7.5415,4.4851,-0.0858,-0.04813601321096196,-0.017453545193051163,-0.09978923026842638,-0.026598791494623852,-0.004097088093173745,-0.052711169966648375,0,70,255.0,255.0,255.0
36,1.8,-7.543940327425621,4.484221332742641,-0.09085619422285111,-0.04948264932795843,-0.017710517853146073,-0.10247541358504791,-0.02726665318523469,-0.006181818310622719,-0.054736162698212736,0,70,255.0,255.0,255.0
37,1.85,-7.546448821484205,4.483327210939504,-0.09604922885244778,-0.050862678529485436,-0.018071727024113436,-0.10526284653824766,-0.02793451487584553,-0.008266548528071693,-0.05676115542977709,0,70,255.0,255.0,255.0
38,1.9000000000000001,-7.5490271518299785,4.482412422765049,-0.10138416637061887,-0.05227610081554298,-0.018537172705953245,-0.10815152912802563,-0.028602376566456367,-0.010351278745520665,-0.05878614816134145,0,70,255.0,255.0,255.0
39,1.9500000000000002,-7.551676988117167,4.481471756393727,-0.10686606925919333,-0.05372291618613107,-0.019106854898665503,-0.11114146135438181,-0.02927023825706721,-0.012436008962969638,-0.06081114089290581,0,70,255.0,255.0,255.0
40,2.0,-7.5544,4.4805,-0.1125,-0.055203124641249705,-0.019780773602250206,-0.1142326432173162,-0.02993809994767821,-0.014520739180418546,-0.06283613362446949,0,70,255.0,255.0,255.0
41,2.0500000000000003,-7.557197288082728,4.479493602127913,-0.11828920300805568,-0.056682583182468244,-0.020459306641294875,-0.1173159907080947,-0.029240241701062927,-0.012620582381368001,-0.06049776600666995,0,70,255.0,255.0,255.0
42,2.1,-7.560067676769708,4.47845565279987,-0.12422965043112798,-0.058127148811356,-0.021042831840387008,-0.1202824198179832,-0.02854238345444765,-0.010720425582317474,-0.05815939838887043,0,70,255.0,255.0,255.0
43,2.15,-7.563009421415325,4.477390902407873,-0.13031549635017248,-0.059536821527912995,-0.021531349199526616,-0.12313193054698172,-0.02784452520783237,-0.008820268783266947,-0.0558210307710709,0,70,255.0,255.0,255.0
44,2.2,-7.566020777373961,4.476304101343916,-0.13654089484614465,-0.06091160133213924,-0.0219248587187137,-0.1258645228950903,-0.02714666696121709,-0.0069201119842164024,-0.05348266315327136,0,70,255.0,255.0,255.0
45,2.25,-7.5691,4.4752,-0.1429,-0.062251488224034715,-0.022223360397948255,-0.12848019686230888,-0.026448808714601868,-0.0050199551851658475,-0.05114429553547151,0,70,255.0,255.0,255.0
46,2.3000000000000003,-7.572245720243468,4.474081858745714,-0.14938859374492633,-0.0635790179421616,-0.02251625558167518,-0.13107662358257333,-0.026652380010473542,-0.006695852163910985,-0.052712773275105915,0,70,255.0,255.0,255.0
47,2.35,-7.575458071436962,4.4729469778610165,-0.15600896942304038,-0.06491672622508207,-0.022892945614339355,-0.13375147418981947,-0.026855951306345216,-0.008371749142656107,-0.05428125101474031,0,70,255.0,255.0,255.0
48,2.4000000000000004,-7.5787375625087225,4.471791167603464,-0.1627650482286913,-0.06626461307279613,-0.02335343049594079,-0.13650474868404738,-0.02705952260221689,-0.010047646121401244,-0.05584972875437472,0,70,255.0,255.0,255.0
49,2.45,-7.582084702386989,4.4706102382306065,-0.16966075135622813,-0.06762267848530376,-0.02389771022647948,-0.13933644706525697,-0.027263093898088564,-0.011723543100146366,-0.05741820649400911,0,70,255.0,255.0,255.0
50,2.5,-7.5855,4.4694,-0.1767,-0.06899092246260498,-0.024525784805955422,-0.14224656933344826,-0.027466665193960238,-0.01339944007889149,-0.05898668423364306,0,70,255.0,255.0,255.0
51,2.5500000000000003,-7.588983830943399,4.468157362889236,-0.18388602201223922,-0.07036134504888121,-0.025171671032001953,-0.145193514961612,-0.02735023825708882,-0.012436008962969609,-0.058891140892905904,0,70,255.0,255.0,255.0
52,2.6,-7.59253603748244,4.466883635756063,-0.1912192718767106,-0.07172594628831386,-0.025769385702252384,-0.14813568342273886,-0.027233811320217405,-0.011472577847047737,-0.058795597552168746,0,70,255.0,255.0,255.0
53,2.6500000000000004,-7.5961563285497835,4.465581227178274,-0.19869951073506248,-0.07308472618090295,-0.02631892881670673,-0.15107307471682888,-0.027117384383345988,-0.010509146731125855,-0.05870005421143158,0,70,255.0,255.0,255.0
54,2.7,-7.599844413078084,4.464252545733657,-0.20632649972894287,-0.07443768472664847,-0.026820300375364974,-0.15400568884388202,-0.02700095744647457,-0.009545715615203983,-0.058604510870694425,0,70,255.0,255.0,255.0
55,2.75,-7.6036,4.4629,-0.2141,-0.07578482192555042,-0.027273500378227126,-0.15693352580389827,-0.026884530509603266,-0.008582284499282139,-0.0585089675299566,0,70,255.0,255.0,255.0
56,2.8000000000000003,-7.607422955982936,4.461525489697346,-0.22201931820611712,-0.07713560186232052,-0.027709060290314905,-0.15982931657097899,-0.027146666961200074,-0.008840111984228956,-0.057322663153270566,0,70,255.0,255.0,255.0
57,2.85,-7.611313778633274,4.460128879114731,-0.23008194307011737,-0.07849948862167043,-0.028157511576650023,-0.16266579211922533,-0.02740880341279688,-0.00909793946917577,-0.05613635877658454,0,70,255.0,255.0,255.0
58,2.9000000000000004,-7.615273123292146,4.458709523683444,-0.2382849088310591,-0.0798764822036002,-0.028618854237232483,-0.16544295244863744,-0.027670939864393687,-0.009355766954122586,-0.0549500543998985,0,70,255.0,255.0,255.0
59,2.95,-7.619301645300678,4.45726677883477,-0.24662524972800054,-0.08126658260810979,-0.029093088272062282,-0.16816079755921517,-0.027933076315990492,-0.009613594439069402,-0.05376375002321247,0,70,255.0,255.0,255.0
60,3.0,-7.6234,4.4558,-0.2551,-0.08266978983519922,-0.02958021368113942,-0.17081932745095865,-0.028195212767587408,-0.009871421924016327,-0.05257744564652689,0,70,255.0,255.0,255.0
61,3.0500000000000003,-7.627568345124859,4.454308678321381,-0.2637071051632926,-0.0840562475018407,-0.030072087806743177,-0.17347321875447208,-0.027263093898071595,-0.009803543100133821,-0.053578206494009135,0,70,255.0,255.0,255.0
62,3.1,-7.631804847984459,4.4527928477850125,-0.2724481558428201,-0.08539609922500639,-0.030560567991152802,-0.17617714810035956,-0.02633097502855579,-0.009735664276251315,-0.05457896734149137,0,70,255.0,255.0,255.0
63,3.1500000000000004,-7.636107178281634,4.451252678087953,-0.28132565394070147,-0.08668934500469629,-0.03104565423436831,-0.1789311154886212,-0.025398856159039977,-0.009667785452368809,-0.055579728188973616,0,70,255.0,255.0,255.0
64,3.2,-7.640473005719205,4.449688338927262,-0.2903421013590552,-0.08793598484091039,-0.03152734653638969,-0.18173512091925695,-0.024466737289524174,-0.009599906628486305,-0.05658048903645585,0,70,255.0,255.0,255.0
65,3.25,-7.6449,4.4481,-0.2995,-0.08913601873364871,-0.03200564489721693,-0.18458916439226675,-0.023534618420008924,-0.009532027804603771,-0.05758124988393698,0,70,255.0,255.0,255.0
66,3.3000000000000003,-7.649386863517635,4.446487797017128,-0.3088010611407128,-0.09035140813031135,-0.03248258848271213,-0.18744580841113254,-0.02508095744649635,-0.009545715615203999,-0.056684510870694364,0,70,255.0,255.0,255.0
67,3.35,-7.653936429428886,4.444851729745221,-0.31824383355860225,-0.09164411447829836,-0.03296021645873733,-0.1902576154793362,-0.026627296472983765,-0.009559403425804225,-0.05578777185745176,0,70,255.0,255.0,255.0
68,3.4000000000000004,-7.6585525635813205,4.443191763964746,-0.32782607540613534,-0.09301413777760972,-0.03343852882529256,-0.19302458559687774,-0.028173635499471196,-0.009573091236404452,-0.054891032844209146,0,70,255.0,255.0,255.0
69,3.45,-7.663239131822503,4.441507865456183,-0.337545544835779,-0.09446147802824546,-0.033917525582377775,-0.1957467187637571,-0.02971997452595861,-0.009586779047004678,-0.053994293830966544,0,70,255.0,255.0,255.0
70,3.5,-7.668,4.4398,-0.3474,-0.09598613523020559,-0.03439720672999302,-0.19842401497997436,-0.031266313552446356,-0.009600466857604906,-0.05309755481772305,0,70,255.0,255.0,255.0
71,3.5500000000000003,-7.6728378008046025,4.438068133610103,-0.35738785027385656,-0.0975141199769164,-0.03487755826240988,-0.20109554760099776,-0.02985307631598594,-0.00961359443906945,-0.05376375002321252,0,70,255.0,255.0,255.0
72,3.6,-7.677750234299994,4.436312233234108,-0.367510109922771,-0.09897144286180419,-0.03535856617389996,-0.20380038998229563,-0.02843983907952554,-0.009626722020533995,-0.054429945228701995,0,70,255.0,255.0,255.0
73,3.6500000000000004,-7.682733767393086,4.434532266053061,-0.3777684444347573,-0.10035810388486896,-0.035840230464463274,-0.20653854212386796,-0.027026601843065125,-0.00963984960199854,-0.05509614043419147,0,70,255.0,255.0,255.0
74,3.7,-7.687784866990784,4.432728199248011,-0.3881645192978291,-0.1016741030461107,-0.03632255113409982,-0.20931000402571479,-0.02561336460660472,-0.009652977183463085,-0.05576233563968094,0,70,255.0,255.0,255.0
75,3.75,-7.6929,4.4309,-0.3987,-0.10291944034552943,-0.03680552818280959,-0.21211477568783604,-0.024200127370143876,-0.009666104764927685,-0.05642853084516952,0,70,255.0,255.0,255.0
76,3.8000000000000003,-7.6980763332639555,4.42904766854246,-0.40937633776386134,-0.10413611196202113,-0.03728717846764494,-0.2149400011848767,-0.024466737289524223,-0.009599906628486265,-0.056580489036455094,0,70,255.0,255.0,255.0
77,3.85,-7.703313833371135,4.42717133731835,-0.4201941267503137,-0.10536611407448185,-0.037765518845658215,-0.21777282459148156,-0.024733347208904567,-0.009533708492044846,-0.056732447227740665,0,70,255.0,255.0,255.0
78,3.9000000000000004,-7.7086131668463365,4.425271171823008,-0.4311537468548356,-0.1066094466829116,-0.03824054931684943,-0.22061324590765075,-0.024999957128284914,-0.009467510355603425,-0.05688440541902624,0,70,255.0,255.0,255.0
79,3.95,-7.713975000214358,4.423347337551778,-0.442255577972905,-0.10786610978731033,-0.03871226988121856,-0.22346126513338418,-0.025266567047665257,-0.009401312219162005,-0.057036363610311815,0,70,255.0,255.0,255.0
80,4.0,-7.7194,4.4214,-0.4535,-0.10913610338767811,-0.03918068053876562,-0.2263168822686819,-0.025533176967045157,-0.009335114082720308,-0.0571883218015965,0,70,255.0,255.0,255.0
81,4.05,-7.724888866139576,4.419429192220057,-0.4648867986706983,-0.110421432175003,-0.039653727867009166,-0.22914444765949596,-0.02587997452595061,-0.009586779047021642,-0.05591429383096581,0,70,255.0,255.0,255.0
82,4.1000000000000005,-7.730442432215466,4.417434417492495,-0.4764133830759742,-0.11172410084027318,-0.04013935844346779,-0.2319083116517785,-0.02622677208485607,-0.00983844401132298,-0.05464026586033509,0,70,255.0,255.0,255.0
83,4.15,-7.736061565221569,4.415415046654907,-0.4880765681459007,-0.11304410938348862,-0.04063757226814147,-0.2346084742455295,-0.02657356964376152,-0.010090108975624314,-0.0533662378897044,0,70,255.0,255.0,255.0
84,4.2,-7.741747132151781,4.413370450544878,-0.49987316881055155,-0.11438145780464933,-0.041148369341030215,-0.23724493544074896,-0.026920367202666974,-0.010341773939925648,-0.0520922099190737,0,70,255.0,255.0,255.0
85,4.25,-7.7475,4.4113,-0.5118,-0.1157361461037553,-0.04167174966213403,-0.23981769523743685,-0.02726716476157187,-0.01059343890422687,-0.050818181948441676,0,70,255.0,255.0,255.0
86,4.3,-7.753321002177741,4.409203562577313,-0.5238548675533454,-0.11710615933796002,-0.04217791006432585,-0.24238620817713988,-0.02753336460661706,-0.009652977183446102,-0.05192233563967958,0,70,255.0,255.0,255.0
87,4.3500000000000005,-7.759210837767,4.4070829927116675,-0.5360395409457903,-0.11848948256441702,-0.04263704738047864,-0.24500992880140482,-0.027799564451662255,-0.008712515462665316,-0.053026489330917505,0,70,255.0,255.0,255.0
88,4.4,-7.7651701722673865,4.404940641557366,-0.548356780561562,-0.11988611578312626,-0.043049161610592385,-0.24768885711023164,-0.028065764296707443,-0.007772053741884548,-0.05413064302215541,0,70,255.0,255.0,255.0
89,4.45,-7.7711996711785165,4.402778860268709,-0.5608093467848893,-0.12129605899408774,-0.04341425275466709,-0.2504229931036204,-0.02833196414175263,-0.006831592021103779,-0.05523479671339331,0,70,255.0,255.0,255.0
90,4.5,-7.7773,4.4006,-0.5734,-0.12271931219730152,-0.043732320812702764,-0.25321233678157096,-0.02859816398679771,-0.005891130300323011,-0.05633895040463077,0,70,255.0,255.0,255.0
91,4.55,-7.783471125149458,4.39840535747069,-0.5861305311159201,-0.12411393047316298,-0.04406663187568957,-0.2559987196319445,-0.02718656704766061,-0.0074813122191493,-0.0551163636103107,0,70,255.0,255.0,255.0
92,4.6000000000000005,-7.789710216716534,4.3961920116608315,-0.5989988531408659,-0.1254379689020676,-0.0444804520346177,-0.2587239731426021,-0.025774970108523483,-0.009071494137975616,-0.0538937768159906,0,70,255.0,255.0,255.0
93,4.65,-7.796013745708882,4.393955987115628,-0.6120019096078517,-0.12669142748401535,-0.04497378128948714,-0.26138809731354357,-0.024363373169386384,-0.010661676056801905,-0.052671190021670526,0,70,255.0,255.0,255.0
94,4.7,-7.802378183134153,4.391693308380283,-0.6251366440498918,-0.12787430621900622,-0.04554661964029789,-0.26399109214476907,-0.02295177623024928,-0.012251857975628194,-0.051448603227350446,0,70,255.0,255.0,255.0
95,4.75,-7.8088,4.3894,-0.6384,-0.12898660510704024,-0.04619896708704995,-0.26653295763627866,-0.021540179291111627,-0.013842039894454372,-0.05022601643303082,0,70,255.0,255.0,255.0
96,4.800000000000001,-7.815276897224429,4.387073407539927,-0.6517902079829746,-0.13010211876938452,-0.04685156243290977,-0.26909091329508134,-0.02308036720265847,-0.012261773939938114,-0.05209220991907533,0,70,255.0,255.0,255.0
97,4.8500000000000005,-7.821811495366864,4.384716160645005,-0.6653106464907466,-0.1312946418273061,-0.04742514448104377,-0.2717421786281862,-0.024620555114205283,-0.010681507985421885,-0.053958403405119815,0,70,255.0,255.0,255.0
98,4.9,-7.828407644897085,4.3823322099801185,-0.6789659810070314,-0.13256417428080502,-0.04791971323145195,-0.27448675363559333,-0.0261607430257521,-0.009101242030905654,-0.05582459689116429,0,70,255.0,255.0,255.0
99,4.95,-7.835069196284872,4.379925506210155,-0.6927608770155442,-0.1339107161298813,-0.04833526868413433,-0.27732463831730264,-0.02770093093729891,-0.007520976076389424,-0.05769079037720877,0,70,255.0,255.0,255.0
100,5.0,-7.8418,4.3775,-0.7067,-0.1353342673745349,-0.0486718108390909,-0.28025583267331416,-0.029241118848844838,-0.005940710121873083,-0.05955698386325414,0,70,255.0,255.0,255.0
101,5.050000000000001,-7.848602885952826,4.375058612369602,-0.7207862369521826,-0.1367735944493003,-0.048991118392665754,-0.28317362718773037,-0.028331964141769448,-0.0068315920211208265,-0.05715479671339315,0,70,255.0,255.0,255.0
102,5.1000000000000005,-7.855476601816007,4.372600145759152,-0.7350153608961484,-0.1381674637887119,-0.04935497004120298,-0.2859713123446535,-0.027422809434694075,-0.007722473920368554,-0.0547526095635322,0,70,255.0,255.0,255.0
103,5.15,-7.862418874702776,4.370122372963899,-0.749381366364023,-0.1395158753927697,-0.0497633657847026,-0.2886488881440836,-0.0265136547276187,-0.00861335581961628,-0.05235042241367126,0,70,255.0,255.0,255.0
104,5.2,-7.869427431726362,4.367623066779098,-0.7638782478879317,-0.14081882926147374,-0.050216305623164606,-0.2912063545860206,-0.025604500020543326,-0.009504237718864009,-0.04994823526381031,0,70,255.0,255.0,255.0
105,5.25,-7.8765,4.3651,-0.7785,-0.142076325394824,-0.05071378955658899,-0.2936437116704646,-0.02469534531346662,-0.010395119618111459,-0.04754604811394847,0,70,255.0,255.0,255.0
106,5.300000000000001,-7.8836347589642655,4.362551342981666,-0.7932424442082964,-0.14331550343341637,-0.05123196399643218,-0.2960705779539971,-0.02487177623022712,-0.01033185797561551,-0.0495286032273506,0,70,255.0,255.0,255.0
107,5.3500000000000005,-7.890831697369106,4.359976856318393,-0.808108709924661,-0.14456350301784673,-0.05174697535415055,-0.2985965719931997,-0.025048207146987612,-0.010268596333119561,-0.051511158340752705,0,70,255.0,255.0,255.0
108,5.4,-7.8980912562918135,4.357376698164286,-0.8231037535368775,-0.14582032414811513,-0.05225882362974412,-0.30122169378807234,-0.025224638063748108,-0.010205334690623612,-0.0534937134541548,0,70,255.0,255.0,255.0
109,5.45,-7.905413876809682,4.354751026673453,-0.8382325314327294,-0.14708596682422154,-0.05276750882321291,-0.3039459433386152,-0.0254010689805086,-0.010142073048127665,-0.0554762685675569,0,70,255.0,255.0,255.0
110,5.5,-7.9128,4.3521,-0.8535,-0.14836043104616595,-0.05327303093455688,-0.30676932064482804,-0.02557749989726843,-0.01007881140563166,-0.057458823680958115,0,70,255.0,255.0,255.0
111,5.550000000000001,-7.920250078190114,4.349424015703736,-0.868909586214633,-0.14964439181703068,-0.053761025621607304,-0.30960006099628223,-0.025780930937320215,-0.009440976076384968,-0.055770790377207,0,70,255.0,255.0,255.0
112,5.6000000000000005,-7.9277646087075695,4.346724428967281,-0.8844585994052087,-0.15093852413989797,-0.05421712854219539,-0.3123463996825488,-0.025984361977371997,-0.008803140747138286,-0.05408275707345592,0,70,255.0,255.0,255.0
113,5.65,-7.935344100129971,4.344002834378958,-0.9001428194884679,-0.15224282801476788,-0.05464133969632113,-0.31500833670362777,-0.02618779301742378,-0.008165305417891606,-0.05239472376970483,0,70,255.0,255.0,255.0
114,5.7,-7.942989061034913,4.3412608265270896,-0.9159580263811515,-0.15355730344164034,-0.05503365908398454,-0.3175858720595192,-0.02639122405747556,-0.007527470088644925,-0.050706690465953747,0,70,255.0,255.0,255.0
115,5.75,-7.9507,4.3385,-0.9319,-0.1548819504205154,-0.05539408670518562,-0.32007900575022313,-0.02659465509752712,-0.006889634759398022,-0.04901865716220266,0,70,255.0,255.0,255.0
116,5.800000000000001,-7.9584769282752825,4.335721394203392,-0.9479656109331731,-0.15618692929846675,-0.05575593351714229,-0.3225531780608735,-0.02560450002052591,-0.0075842377188682685,-0.049948235263812285,0,70,255.0,255.0,255.0
117,5.8500000000000005,-7.9663178678006155,4.332923827812486,-0.9641560924545054,-0.15744240042256802,-0.056152510477072454,-0.3250738292766044,-0.024614344943524713,-0.008278840678338503,-0.05087781336542189,0,70,255.0,255.0,255.0
118,5.9,-7.974220343188308,4.330105564319885,-0.9804737685092514,-0.15864836379281919,-0.056583817584976125,-0.3276409593974157,-0.02362418986652352,-0.008973443637808736,-0.05180739146703149,0,70,255.0,255.0,255.0
119,5.95,-7.982181879050667,4.327264867218188,-0.996920963042665,-0.15980481940922034,-0.05704985484085332,-0.3302545684233075,-0.022634034789522327,-0.009668046597278969,-0.052736969568641094,0,70,255.0,255.0,255.0
120,6.0,-7.9902,4.3244,-1.0135,-0.16091176727177145,-0.05755062224470403,-0.33291465635427975,-0.021643879712521352,-0.01036264955674937,-0.05366654767025114,0,70,255.0,255.0,255.0
121,6.050000000000001,-7.998273408708758,4.321509607482698,-1.0302127700526762,-0.16203989098909732,-0.058063240309825535,-0.33559522676022496,-0.023481068980512703,-0.01014207304811063,-0.05355626856755719,0,70,255.0,255.0,255.0
122,6.1000000000000005,-8.006405520089967,4.318593859782774,-1.0470594307767704,-0.16325987416982274,-0.0585648295495151,-0.33827028321103547,-0.02531825824850402,-0.009921496539471894,-0.05344598946486325,0,70,255.0,255.0,255.0
123,6.15,-8.014600927116796,4.315653308341503,-1.0640397064745273,-0.16457171681394772,-0.05905538996377273,-0.34093982570671133,-0.027155447516495335,-0.009700920030833159,-0.05333571036216931,0,70,255.0,255.0,255.0
124,6.2,-8.022864222762417,4.312688504600154,-1.0811533214481892,-0.16597541892147225,-0.05953492155259841,-0.34360385424725237,-0.028992636784486655,-0.009480343522194422,-0.05322543125947536,0,70,255.0,255.0,255.0
125,6.25,-8.0312,4.3097,-1.0984,-0.16747098049239637,-0.06000342431599216,-0.3462623688326588,-0.030829826052477527,-0.009259767013555575,-0.05311515215678053,0,70,255.0,255.0,255.0
126,6.300000000000001,-8.039611036889687,4.306688175865819,-1.1157793088561245,-0.16894950674514553,-0.06047110524354749,-0.34890591489822714,-0.028311224057487656,-0.009447470088657341,-0.052626690465950955,0,70,255.0,255.0,255.0
127,6.3500000000000005,-8.048092851839519,4.303652733056416,-1.133290184438414,-0.17030210289814515,-0.06094817132485791,-0.35152503787925393,-0.025792622062497834,-0.009635173163759106,-0.05213822877512139,0,70,255.0,255.0,255.0
128,6.4,-8.056639148344507,4.300593202314104,-1.150931405592641,-0.17152876895139527,-0.0614346225599234,-0.3541197377757393,-0.02327402006750801,-0.009822876238860868,-0.05164976708429183,0,70,255.0,255.0,255.0
129,6.45,-8.065243629899664,4.297509114381194,-1.1687017511645788,-0.17262950490489593,-0.06193045894874399,-0.35669001458768307,-0.020755418072518184,-0.010010579313962632,-0.05116130539346226,0,70,255.0,255.0,255.0
130,6.5,-8.0739,4.2944,-1.1866,-0.1736043107586471,-0.062435680491319666,-0.35923586831508547,-0.01823681607752836,-0.010198282389064783,-0.05067284370263181,0,70,255.0,255.0,255.0
131,6.550000000000001,-8.082604043732493,4.291265689054027,-1.204625194522827,-0.17457808203032307,-0.0629323387159787,-0.3617731136468673,-0.020714034789510095,-0.009668046597296257,-0.050816969568641034,0,70,255.0,255.0,255.0
132,6.6000000000000005,-8.091359872551958,4.288107207991563,-1.2227774314695754,-0.17567571423759812,-0.06340248515104929,-0.3643175652719496,-0.023191253501491788,-0.009137810805527741,-0.050961095434650265,0,70,255.0,255.0,255.0
133,6.65,-8.100173679505179,4.284925882402082,-1.2410570711549103,-0.17689720738047224,-0.06384611979653147,-0.3668692231903323,-0.025668472213473476,-0.008607575013759224,-0.05110522130065949,0,70,255.0,255.0,255.0
134,6.7,-8.109051657638933,4.281723037875069,-1.2594644738934968,-0.17824256145894546,-0.06426324265242522,-0.36942808740201555,-0.028145690925455165,-0.008077339221990706,-0.051249347166668714,0,70,255.0,255.0,255.0
135,6.75,-8.118,4.2785,-1.278,-0.17971177647301778,-0.06465385371873054,-0.3719941579069992,-0.030622909637437967,-0.00754710343022269,-0.05139347303267883,0,70,255.0,255.0,255.0
136,6.800000000000001,-8.127023188180344,4.275257867918071,-1.2966639130525688,-0.1812021651335659,-0.06503153989254067,-0.3745616305143031,-0.028992636784486756,-0.0075603435221818895,-0.05130543125947575,0,70,255.0,255.0,255.0
137,6.8500000000000005,-8.136118857952647,4.271996834977336,-1.315456089683286,-0.18261104015146645,-0.06540988807094873,-0.3771247010329468,-0.027362363931535575,-0.007573583614141089,-0.05121738948627268,0,70,255.0,255.0,255.0
138,6.9,-8.145282933634778,4.268716868077567,-1.3343763097877193,-0.18393840152671947,-0.06578889825395477,-0.37968336946293035,-0.025732091078584395,-0.007586823706100288,-0.05112934771306961,0,70,255.0,255.0,255.0
139,6.95,-8.154511339544605,4.265417934118531,-1.3534243532614347,-0.18518424925932492,-0.06616857044155876,-0.38223763580425374,-0.024101818225633214,-0.007600063798059486,-0.051041305939866534,0,70,255.0,255.0,255.0
140,7.0,-8.1638,4.2621,-1.3726,-0.18634858334928278,-0.06654890463376072,-0.38478750005691703,-0.022471545372682478,-0.0076133038900184635,-0.0509532641666639,0,70,255.0,255.0,255.0
141,7.050000000000001,-8.173145603546137,4.258762839273689,-1.391903153266899,-0.1874772574354127,-0.06694150171386036,-0.38734036429592017,-0.02267541807251368,-0.008090579313967113,-0.05116130539346164,0,70,255.0,255.0,255.0
142,7.1000000000000005,-8.182547895637459,4.255405452099094,-1.4113342097972814,-0.18861612515653417,-0.06735796256515743,-0.38990363059626326,-0.022879290772344876,-0.008567854737915753,-0.05136934662025938,0,70,255.0,255.0,255.0
143,7.15,-8.192007385955709,4.252026645287653,-1.4308936896942142,-0.18976518651264718,-0.06779828718765193,-0.39247729895794614,-0.023083163472176073,-0.009045130161864394,-0.05157738784705712,0,70,255.0,255.0,255.0
144,7.2,-8.20152458418264,4.248625225650809,-1.4505821130607648,-0.19092444150375176,-0.06826247558134388,-0.3950613693809689,-0.02328703617200727,-0.009522405585813033,-0.05178542907385486,0,70,255.0,255.0,255.0
145,7.25,-8.2111,4.2452,-1.4704,-0.1920938901298479,-0.06875052774623323,-0.3976558418653316,-0.023490908871838023,-0.00999968100976123,-0.0519934703006526,0,70,255.0,255.0,255.0
146,7.300000000000001,-8.220734397635105,4.2417499749871705,-1.490347473879837,-0.19328880512478047,-0.06925045325202693,-0.40023691230201464,-0.02430569092546443,-0.009997339221986335,-0.05124934716666897,0,70,255.0,255.0,255.0
147,7.3500000000000005,-8.230429559497523,4.238274956626286,-1.5104230711275901,-0.19452445922239436,-0.06975026166843187,-0.4027807765819985,-0.02512047297909082,-0.00999499743421144,-0.05050522403268535,0,70,255.0,255.0,255.0
148,7.4,-8.240187522542389,4.2347749507718175,-1.530624931435425,-0.19580085242268955,-0.07024995299544808,-0.40528743470528317,-0.025935255032717215,-0.009992655646436543,-0.049761100898701734,0,70,255.0,255.0,255.0
149,7.45,-8.250010323724837,4.231249963278231,-1.5509511944955063,-0.19711798472566608,-0.07074952723307552,-0.4077568866718687,-0.026750037086343607,-0.009990313858661648,-0.04901697776471811,0,70,255.0,255.0,255.0
150,7.5,-8.2599,4.2277,-1.5714,-0.1984758561313239,-0.07124898438131423,-0.410189132481755,-0.027564819139970442,-0.009987972070886308,-0.04827285463073361,0,70,255.0,255.0,255.0
151,7.550000000000001,-8.269857605913444,4.224125260777625,-1.5919701512137552,-0.1998155220654639,-0.07173668527803734,-0.4126239864960201,-0.026021818225629167,-0.009520063798037775,-0.04912130593987111,0,70,255.0,255.0,255.0
152,7.6000000000000005,-8.279880266372452,4.220526721395757,-1.6126631056923597,-0.20107803795388682,-0.07220099076111801,-0.4151012630757421,-0.02447881731128792,-0.009052155525189249,-0.049969757249008595,0,70,255.0,255.0,255.0
153,7.65,-8.289964123874737,4.216905551625074,-1.6334809845640867,-0.20226340379659272,-0.07264190083055626,-0.417620962220921,-0.022935816396946675,-0.008584247252340723,-0.050818208558146075,0,70,255.0,255.0,255.0
154,7.7,-8.300105320918014,4.213262921236262,-1.6544259089572093,-0.2033716195935815,-0.07305941548635209,-0.42018308393155673,-0.021392815482605427,-0.008116338979492198,-0.05166665986728356,0,70,255.0,255.0,255.0
155,7.75,-8.3103,4.2096,-1.6755,-0.20440268534485323,-0.07345353472850548,-0.4227876282076493,-0.019849814568264623,-0.007648430706643672,-0.052515111176421936,0,70,255.0,255.0,255.0
156,7.800000000000001,-8.32054557871112,4.2059177819023255,-1.696704721265144,-0.20543310661336017,-0.07383480563581744,-0.42539514171390613,-0.021367036172011678,-0.00760240558583447,-0.05178542907385112,0,70,255.0,255.0,255.0
157,7.8500000000000005,-8.330844575012673,4.202216557790685,-1.7180389061029722,-0.2065393889620544,-0.07421377528708892,-0.42796617111503443,-0.022884257775758705,-0.007556380465025269,-0.05105574697128032,0,70,255.0,255.0,255.0
158,7.9,-8.341200781958664,4.198496442727883,-1.7395007303082282,-0.20772153239093602,-0.07459044368231996,-0.4305007164110342,-0.02440147937950573,-0.007510355344216069,-0.05032606486870951,0,70,255.0,255.0,255.0
159,7.95,-8.351617992603103,4.194757551776721,-1.7610883696756563,-0.20897953690000498,-0.07496481082151055,-0.43299877760190536,-0.025918700983252756,-0.007464330223406868,-0.04959638276613871,0,70,255.0,255.0,255.0
160,8.0,-8.3621,4.191,-1.7828,-0.2103134024892613,-0.07533687670466063,-0.435460354687648,-0.027435922587000894,-0.007418305102597111,-0.048866700663567464,0,70,255.0,255.0,255.0
161,8.05,-8.372649679242071,4.187223611613073,-1.8046341637256709,-0.21166805148109497,-0.0757240921786922,-0.4379074466483551,-0.026750037086343992,-0.008070313858665799,-0.049016977764717674,0,70,255.0,255.0,255.0
162,8.1,-8.38326623357686,4.1834270474415005,-1.826590869895753,-0.2129884061978957,-0.07614390809052721,-0.44036205246411975,-0.026064151585687118,-0.008722322614734462,-0.04916725486586788,0,70,255.0,255.0,255.0
163,8.15,-8.39394794829061,4.179608677463391,-1.8486704942030003,-0.21427446663966365,-0.07659632444016566,-0.4428241721349419,-0.025378266085030216,-0.009374331370803152,-0.049317531967018095,0,70,255.0,255.0,255.0
164,8.200000000000001,-8.404693108669575,4.175766871656855,-1.8708734123401651,-0.21552623280639877,-0.07708134122760754,-0.4452938056608216,-0.024692380584373317,-0.010026340126871838,-0.049467809068168306,0,70,255.0,255.0,255.0
165,8.25,-8.4155,4.1719,-1.8932,-0.21674370469810098,-0.07759895845285283,-0.44777095304175873,-0.02400649508371644,-0.010678348882940503,-0.04961808616931851,0,70,255.0,255.0,255.0
166,8.3,-8.426366904320592,4.168006971645379,-1.915650623832174,-0.2179266874622589,-0.07811682564941355,-0.45025507169267387,-0.023312815482600904,-0.010036338979487826,-0.049746659867284215,0,70,255.0,255.0,255.0
167,8.35,-8.437292090679891,4.164088852443311,-1.9382256143140155,-0.21907498624636104,-0.07860259235080162,-0.45274561902848715,-0.02261913588148539,-0.009394329076035173,-0.04987523356524992,0,70,255.0,255.0,255.0
168,8.4,-8.448273824878894,4.160147247418553,-1.960925292879771,-0.22018860105040747,-0.07905625855701706,-0.4552425950491988,-0.021925456280369855,-0.008752319172582497,-0.05000380726321563,0,70,255.0,255.0,255.0
169,8.450000000000001,-8.4593103727186,4.156183761595862,-1.9837499809636843,-0.22126753187439807,-0.07947782426805987,-0.4577459997548088,-0.021231776679254317,-0.00811030926912982,-0.05013238096118133,0,70,255.0,255.0,255.0
170,8.5,-8.4704,4.1522,-2.0067,-0.22231177871833288,-0.07986728948393004,-0.460255833145317,-0.020538097078138362,-0.007468299365676723,-0.05026095465914748,0,70,255.0,255.0,255.0
171,8.55,-8.48154190347556,4.148197301805405,-2.0297753409456343,-0.2233771986698679,-0.08024060522365713,-0.46275226658094915,-0.022078700983262124,-0.007464330223406401,-0.04959638276613817,0,70,255.0,255.0,255.0
172,8.6,-8.492739003703575,4.144175942785253,-2.052974672848184,-0.2245196488166591,-0.08061372250627069,-0.46521547142193076,-0.023619304888385827,-0.00746036108113608,-0.04893181087312888,0,70,255.0,255.0,255.0
173,8.65,-8.503995152193811,4.140135932862397,-2.0762963342779166,-0.22573912915870648,-0.08098664133177072,-0.46764544766826205,-0.02515990879350959,-0.007456391938865758,-0.04826723898011957,0,70,255.0,255.0,255.0
174,8.700000000000001,-8.515314200456032,4.136077281959694,-2.0997386638050997,-0.2270356396960101,-0.08135936170015727,-0.47004219531994285,-0.026700512698633348,-0.007452422796595437,-0.04760266708711026,0,70,255.0,255.0,255.0
175,8.75,-8.5267,4.132,-2.1233,-0.22840918042856984,-0.08173188361143026,-0.47240571437697304,-0.02824111660375772,-0.007448453654324783,-0.04693809519410275,0,70,255.0,255.0,255.0
176,8.8,-8.538155081777175,4.127903821132997,-2.146979212385289,-0.22978051785827303,-0.08212075345595986,-0.47476786198353,-0.026612380584369055,-0.008106340126859278,-0.04754780906817341,0,70,255.0,255.0,255.0
177,8.85,-8.54967669450581,4.1237873764156765,-2.1707772942932477,-0.23107041848700674,-0.08254251762411617,-0.4771604952837904,-0.024983644564980444,-0.00876422659939375,-0.04815752294224404,0,70,255.0,255.0,255.0
178,8.9,-8.56126076634586,4.119649021131858,-2.194695770008563,-0.23227888231477103,-0.08299717611589924,-0.4795836142777543,-0.02335490854559178,-0.009422113071928244,-0.0487672368163147,0,70,255.0,255.0,255.0
179,8.950000000000001,-8.572903225457273,4.115487110565359,-2.218736163815919,-0.23340590934156594,-0.08348472893130902,-0.48203721896542195,-0.02172617252620311,-0.01007999954446274,-0.04937695069038536,0,70,255.0,255.0,255.0
180,9.0,-8.5846,4.1113,-2.2429,-0.23445149956739136,-0.0840051760703455,-0.48452130934679283,-0.02009743650681406,-0.010737886016997544,-0.049986664564453775,0,70,255.0,255.0,255.0
181,9.05,-8.596348169415743,4.107086613662606,-2.267188609513211,-0.23548472989704308,-0.084524380952499,-0.4870242854849336,-0.02123177667925386,-0.01003030926914249,-0.05013238096117654,0,70,255.0,255.0,255.0
182,9.1,-8.60814941827318,4.10284815155204,-2.291602549978824,-0.23657467723531675,-0.08500820699725974,-0.4895345474429105,-0.02236611685169362,-0.009322732521287463,-0.050278097357899294,0,70,255.0,255.0,255.0
183,9.15,-8.62000658242275,4.09858638261017,-2.3161421856878324,-0.23772134158221242,-0.08545665420462774,-0.4920520952207235,-0.023500457024133423,-0.00861515577343241,-0.050423813754622064,0,70,255.0,255.0,255.0
184,9.200000000000001,-8.63192249771488,4.094303075778868,-2.3408078809312274,-0.23892472293773012,-0.08586972257460299,-0.49457692881837273,-0.024634797196573223,-0.007907579025577356,-0.05056953015134483,0,70,255.0,255.0,255.0
185,9.25,-8.6439,4.09,-2.3656,-0.24018482130186972,-0.08624741210718549,-0.497109048235858,-0.025769137369012318,-0.007200002277722217,-0.05071524654806581,0,70,255.0,255.0,255.0
186,9.3,-8.65594104055986,4.085678524216577,-2.39051834956187,-0.241448562553561,-0.08661372273404344,-0.4996149960767373,-0.02478051269863813,-0.0074524227965950636,-0.049522667087106224,0,70,255.0,255.0,255.0
187,9.35,-8.668044032401465,4.081338417376163,-2.4155605057914564,-0.24266287257173352,-0.08699265438684499,-0.5020613149445686,-0.023791888028263982,-0.0077048433154679,-0.048330087626146684,0,70,255.0,255.0,255.0
188,9.4,-8.68020650396314,4.07697904842746,-2.440723487240109,-0.24382775135638737,-0.08738420706559022,-0.504448004839352,-0.022803263357889795,-0.007957263834340747,-0.04713750816518711,0,70,255.0,255.0,255.0
189,9.450000000000001,-8.692425983683211,4.072599786319171,-2.466004312459175,-0.24494319890752253,-0.08778838077027908,-0.5067750657610873,-0.02181463868751561,-0.008209684353213592,-0.045944928704227526,0,70,255.0,255.0,255.0
190,9.5,-8.7047,4.0682,-2.4914,-0.24600921522513897,-0.08820517550091156,-0.5090424977097746,-0.02082601401714257,-0.008462104872085874,-0.04475234924326532,0,70,255.0,255.0,255.0
191,9.55,-8.717026868344824,4.063779289471084,-2.516908392239313,-0.24707301988872177,-0.08862072811132539,-0.5112997302081159,-0.02172617252616932,-0.008159999544467129,-0.04553695069038445,0,70,255.0,255.0,255.0
192,9.600000000000001,-8.729408052120965,4.059338178943307,-2.542530626855352,-0.24818183247775594,-0.08902117545535827,-0.5135961927788131,-0.02262633103519607,-0.007857894216848385,-0.04632155213750357,0,70,255.0,255.0,255.0
193,9.65,-8.741845801724692,4.054877423679988,-2.5682686653517335,-0.24933565299224136,-0.08940651753301024,-0.5159318854218662,-0.02352648954422279,-0.007555788889229651,-0.047106153584622674,0,70,255.0,255.0,255.0
194,9.700000000000001,-8.754342367552278,4.050397778944446,-2.594124469232077,-0.2505344814321782,-0.08977675434428124,-0.5183068081372754,-0.024426648053249542,-0.007253683561610907,-0.0478907550317418,0,70,255.0,255.0,255.0
195,9.75,-8.7669,4.0459,-2.6201,-0.2517783177975663,-0.09013188588917133,-0.5207209609250405,-0.02532680656227626,-0.006951578233992506,-0.048675356478861787,0,70,255.0,255.0,255.0
196,9.8,-8.779520286060846,4.041384317899086,-2.646196881480881,-0.2530273578915384,-0.09050336482066017,-0.5231540830907958,-0.024634797196606675,-0.007907579025560533,-0.048649530151348944,0,70,255.0,255.0,255.0
197,9.850000000000001,-8.792202159114684,4.036848866850607,-2.672415386787141,-0.254241797517227,-0.0909226437917274,-0.5255859139401754,-0.023942787830937087,-0.008863579817128557,-0.048623703823836094,0,70,255.0,255.0,255.0
198,9.9,-8.804943889138096,4.032291256852587,-2.698755451352959,-0.2554216366746321,-0.09138972280237301,-0.5280164534731795,-0.023250778465267526,-0.00981958060869655,-0.04859787749632325,0,70,255.0,255.0,255.0
199,9.950000000000001,-8.817743746107674,4.027709097903044,-2.7252170106125186,-0.2565668753637538,-0.09190460185259705,-0.5304457016898078,-0.022558769099597937,-0.010775581400264576,-0.0485720511688104,0,70,255.0,255.0,255.0
200,10.0,-8.8306,4.0231,-2.7518,-0.2576775135845919,-0.09246728094239948,-0.5328736585900604,-0.021866759733927488,-0.011731582191832235,-0.04854622484129756,0,70,255.0,255.0,255.0
201,10.05,-8.843511187411794,4.018462638932573,-2.7785040818371645,-0.25876954854512796,-0.09301381260602593,-0.5352839374286987,-0.02181463868751585,-0.010129684353225588,-0.047864928704229814,0,70,255.0,255.0,255.0
202,10.100000000000001,-8.856476911420309,4.013799953654263,-2.8053278259960894,-0.2598589774533435,-0.09348024937772205,-0.5376601514604835,-0.021762517641104217,-0.008527786514618938,-0.04718363256716207,0,70,255.0,255.0,255.0
203,10.15,-8.869497041722925,4.009115948909667,-2.832269529236432,-0.2609458003092384,-0.09386659125748782,-0.5400023006854149,-0.021710396594692583,-0.006925888676012348,-0.046502336430094354,0,70,255.0,255.0,255.0
204,10.200000000000001,-8.882571448017027,4.00441462944338,-2.8593274883178497,-0.26203001711281276,-0.09417283824532327,-0.5423103851034928,-0.021658275548280946,-0.0053239908374057,-0.04582104029302661,0,70,255.0,255.0,255.0
205,10.25,-8.8957,3.9997,-2.8865,-0.2631116278640665,-0.09439899034122841,-0.5445844047147174,-0.021606154501869312,-0.003722092998798554,-0.04513974415595268,0,70,255.0,255.0,255.0
206,10.3,-8.908882964291976,3.994974726370622,-2.9137859911704624,-0.26421444792794374,-0.09462538475523875,-0.5468621671944096,-0.022506648053220082,-0.005333683561615388,-0.04597075503173668,0,70,255.0,255.0,255.0
207,10.350000000000001,-8.922122195204086,3.99023611853234,-2.941186909228505,-0.26536229266938854,-0.09493235869738995,-0.549181480217891,-0.02340714160457085,-0.006945274124432223,-0.04680176590752068,0,70,255.0,255.0,255.0
208,10.4,-8.935419943970206,3.9854801475087474,-2.9687048317013147,-0.26655516208840085,-0.09531991216768197,-0.5515423437851618,-0.02430763515592159,-0.008556864687249,-0.047632776783304645,0,70,255.0,255.0,255.0
209,10.450000000000001,-8.94877846182422,3.9807027843234364,-2.996341836116084,-0.2677930561849807,-0.09578804516611485,-0.5539447578962216,-0.025208128707272355,-0.010168455250065834,-0.048463787659088646,0,70,255.0,255.0,255.0
210,10.5,-8.9622,3.9759,-3.0241,-0.26907597495912805,-0.09633675769268854,-0.5563887225510704,-0.026108622258622205,-0.011780045812881612,-0.04929479853486818,0,70,255.0,255.0,255.0
211,10.55,-8.975685755420296,3.9710688555849383,-3.051980753480987,-0.27034065974308513,-0.09690064837301697,-0.5588353937936624,-0.024478769099660957,-0.010775581400255725,-0.048572051168810394,0,70,255.0,255.0,255.0
212,10.600000000000001,-8.989232707763342,3.9662107722163755,-3.079982937089895,-0.27152385186909417,-0.09741431583271414,-0.5612459276679516,-0.02284891594069971,-0.00977111698762984,-0.04784930380275261,0,70,255.0,255.0,255.0
213,10.65,-9.002836782396239,3.961328261055344,-3.108104743958309,-0.2726255513371551,-0.09787776007177997,-0.5636203241739377,-0.021219062781738518,-0.00876665257500399,-0.04712655643669485,0,70,255.0,255.0,255.0
214,10.700000000000001,-9.016493904686092,3.9564238332628747,-3.136344367217817,-0.27364575814726805,-0.09829098109021452,-0.565958583311621,-0.01958920962277727,-0.007762188162378104,-0.04640380907063706,0,70,255.0,255.0,255.0
215,10.75,-9.0302,3.9515,-3.1647,-0.2745844722994329,-0.09865397888801776,-0.5682607050810015,-0.017959356463815634,-0.0067577237497519205,-0.04568106170457842,0,70,255.0,255.0,255.0
216,10.8,-9.043952414026837,3.9465586512896254,-3.193170194905593,-0.2755269130997346,-0.0990040217526968,-0.5705482576309415,-0.019738275548251076,-0.0072439908374097705,-0.045821040293023606,0,70,255.0,255.0,255.0
217,10.850000000000001,-9.057754173742545,3.941599192602157,-3.2217549424119185,-0.276558299854258,-0.09937837797175875,-0.5728428091103038,-0.021517194632686514,-0.007730257925067621,-0.0459610188814688,0,70,255.0,255.0,255.0
218,10.9,-9.071609726444834,3.936620408269876,-3.2504545924654464,-0.27767863256300324,-0.09977704754520356,-0.5751443595190885,-0.023296113717121893,-0.008216525012725455,-0.04610099746991399,0,70,255.0,255.0,255.0
219,10.950000000000001,-9.085523519431415,3.931621082625063,-3.2792694950126506,-0.27888791122597023,-0.10020003047303129,-0.5774529088572953,-0.02507503280155733,-0.008702792100383305,-0.046240976058359175,0,70,255.0,255.0,255.0
220,11.0,-9.0995,3.9266,-3.3082,-0.280186135843159,-0.10064732675524189,-0.5797684571249243,-0.026853951885993155,-0.009189059188040916,-0.046380954646802586,0,70,255.0,255.0,255.0
221,11.05,-9.113542188472358,3.9215565392565606,-3.337246466896643,-0.28148768785798894,-0.10108326461619446,-0.5820915756825716,-0.025208128707203747,-0.008248455250061246,-0.046543787659090265,0,70,255.0,255.0,255.0
222,11.100000000000001,-9.127647397266486,3.916492457374995,-3.3664092932624348,-0.28270694871387936,-0.10147217228024802,-0.5844228358908333,-0.02356230552841434,-0.0073078513120815765,-0.046706620671377944,0,70,255.0,255.0,255.0
223,11.15,-9.14181151182443,3.9114101058651505,-3.3956888861799035,-0.2838439184108304,-0.10181404974740262,-0.5867622377497095,-0.02191648234962499,-0.006367247374101941,-0.04686945368366562,0,70,255.0,255.0,255.0
224,11.200000000000001,-9.156030417588251,3.9063118362368705,-3.4250856527315823,-0.2848985969488419,-0.10210889701765821,-0.5891097812592,-0.020270659170835578,-0.005426643436122272,-0.0470322866959533,0,70,255.0,255.0,255.0
225,11.25,-9.1703,3.9012,-3.4546,-0.28587098432791386,-0.10235671409101484,-0.5914654664193049,-0.01862483599204312,-0.0044860394981428575,-0.04719511970824186,0,70,255.0,255.0,255.0
226,11.3,-9.184617232083731,3.8960759916841328,-3.484231937507835,-0.28682633546828606,-0.10261491978252799,-0.5938054396387767,-0.019589209622844553,-0.005842188162382553,-0.046403809070628896,0,70,255.0,255.0,255.0
227,11.350000000000001,-9.19898343719152,3.8909373778978598,-3.5139798845383474,-0.2878299052901983,-0.10294093290725309,-0.5961058473263677,-0.020553583253645986,-0.007198336826622248,-0.04561249843301594,0,70,255.0,255.0,255.0
228,11.4,-9.213401026257445,3.885780768269521,-3.543841862814941,-0.28888169379365064,-0.1033347534651902,-0.5983666894820782,-0.02151795688444738,-0.008554485490861895,-0.044821187795403,0,70,255.0,255.0,255.0
229,11.450000000000001,-9.227872410215578,3.880602772427454,-3.573815894061023,-0.28998170097864306,-0.10379638145633929,-0.6005879661059081,-0.022482330515248814,-0.00991063415510159,-0.04402987715779004,0,70,255.0,255.0,255.0
230,11.5,-9.2424,3.8754,-3.6039,-0.29112992684517547,-0.10432581688070036,-0.6027696771978573,-0.02344670414604888,-0.011266782819341348,-0.04323856652017799,0,70,255.0,255.0,255.0
231,11.55,-9.256985683192715,3.870169894006907,-3.634092983072018,-0.2922949702688658,-0.10487305625369316,-0.6049586657623207,-0.023155032801562565,-0.010622792100370128,-0.04432097605835407,0,70,255.0,255.0,255.0
232,11.600000000000001,-9.271629253967433,3.864913231033563,-3.664396768584181,-0.29344543012533175,-0.10538809609073739,-0.6072017748036928,-0.02286336145707625,-0.00997880138139891,-0.04540338559653015,0,70,255.0,255.0,255.0
233,11.65,-9.286329983145794,3.859631621056766,-3.6948140625603347,-0.29458130641457336,-0.10587093639183304,-0.6094990043219737,-0.022571690112589946,-0.009334810662427712,-0.046485795134706194,0,70,255.0,255.0,255.0
234,11.700000000000001,-9.301087141549436,3.8543266740533118,-3.725347571024327,-0.29570259913659075,-0.10632157715698015,-0.6118503543171635,-0.02228001876810363,-0.008690819943456492,-0.047568204672882274,0,70,255.0,255.0,255.0
235,11.75,-9.3159,3.849,-3.756,-0.29680930829138374,-0.1067400183861787,-0.6142558247892619,-0.02198834742361644,-0.008046829224485408,-0.04865061421105832,0,70,255.0,255.0,255.0
236,11.8,-9.330768035145407,3.843653232288239,-3.786772930204096,-0.2979137834562449,-0.10712485520269444,-0.6166478973119376,-0.022190659170829543,-0.00734664343614343,-0.04703228669597104,0,70,255.0,255.0,255.0
237,11.850000000000001,-9.345691546938747,3.8382880979678875,-3.817663441124932,-0.29902837420846673,-0.10747468272979306,-0.618959053458859,-0.022392970918042647,-0.006646457647801454,-0.045413959180883756,0,70,255.0,255.0,255.0
238,11.9,-9.36067104115938,3.8329063475034166,-3.848667486943719,-0.3001530805480491,-0.10778950096747458,-0.621189293230026,-0.022595282665255748,-0.005946271859459501,-0.04379563166579653,0,70,255.0,255.0,255.0
239,11.950000000000001,-9.375707023586674,3.827509731359297,-3.879781021841672,-0.3012879024749923,-0.108069309915739,-0.6233386166254388,-0.02279759441246885,-0.005246086071117525,-0.04217730415070925,0,70,255.0,255.0,255.0
240,12.0,-9.3908,3.8221,-3.911,-0.302432839989296,-0.10831410957458633,-0.6254070236450969,-0.022999906159680616,-0.004545900282775128,-0.040558976635622024,0,70,255.0,255.0,255.0
241,12.05,-9.405950176225648,3.816677976840137,-3.942321696111601,-0.30356989590616923,-0.10857952293553305,-0.627473744989932,-0.022482330515247898,-0.00607063415509339,-0.042109877157778385,0,70,255.0,255.0,255.0
242,12.100000000000001,-9.42115655827758,3.811240777094886,-3.9737486669160957,-0.3046810730408208,-0.10892117299009568,-0.6296180113608748,-0.02196475487081518,-0.007595368027411652,-0.043660777679934745,0,70,255.0,255.0,255.0
243,12.15,-9.43641785221669,3.805784588929567,-4.005284789664789,-0.30576637139325075,-0.10933905973827421,-0.6318398227579254,-0.021447179226382482,-0.009120101899729859,-0.04521167820209106,0,70,255.0,255.0,255.0
244,12.200000000000001,-9.45173276410387,3.8003056005094984,-4.03693394160899,-0.3068257909634591,-0.10983318318006867,-0.634139179181084,-0.020929603581949764,-0.010644835772048122,-0.04676257872424742,0,70,255.0,255.0,255.0
245,12.25,-9.4671,3.7948,-4.0687,-0.30785933175144575,-0.110403543315479,-0.6365160806303501,-0.020412027937517507,-0.012169569644365774,-0.04831347924640372,0,70,255.0,255.0,255.0
246,12.3,-9.482518459952008,3.7892652603512125,-4.100585885349504,-0.3088786329190855,-0.11097305305517424,-0.6389131227283326,-0.020360018768073827,-0.010610819943443529,-0.04756820467289077,0,70,255.0,255.0,255.0
247,12.350000000000001,-9.497987819950936,3.7837039936525665,-4.132590691210689,-0.30989533362825317,-0.11146462530982336,-0.6412729010976393,-0.020308009598630147,-0.009052070242521281,-0.04682293009937782,0,70,255.0,255.0,255.0
248,12.4,-9.513507949973857,3.7781200967783146,-4.164712554397123,-0.31090943387894854,-0.11187826007942636,-0.6435954157382703,-0.02025600042918647,-0.0074933205415990915,-0.04607765552586489,0,70,255.0,255.0,255.0
249,12.450000000000001,-9.529078719997855,3.7725174666027077,-4.196949611722371,-0.3119209336711718,-0.11221395736398326,-0.6458806666502258,-0.02020399125974279,-0.005934570840676845,-0.04533238095235193,0,70,255.0,255.0,255.0
250,12.5,-9.5447,3.7669,-4.2293,-0.3129298330049229,-0.11247171716349404,-0.6481286538335054,-0.020151982090300447,-0.004375821139754321,-0.04458710637883634,0,70,255.0,255.0,255.0
251,12.55,-9.560371983966327,3.7612705817550127,-4.261761962490388,-0.3139555724174922,-0.11271226484376626,-0.6503457640967437,-0.02087759441247271,-0.005246086071134472,-0.044097304150695744,0,70,255.0,255.0,255.0
252,12.600000000000001,-9.576096161918684,3.7556280482948474,-4.294334168241153,-0.31501759244617017,-0.11299632577060749,-0.652538384248575,-0.021603206734644973,-0.006116351002514622,-0.04360750192255514,0,70,255.0,255.0,255.0
253,12.65,-9.59187434788788,3.749970223957176,-4.327015392746722,-0.3161158930909567,-0.11332389994401772,-0.6547065142889992,-0.02232881905681721,-0.006986615933894741,-0.04311769969441456,0,70,255.0,255.0,255.0
254,12.700000000000001,-9.607708355904716,3.7442949330796695,-4.359804411501528,-0.31725047435185194,-0.11369498736399695,-0.6568501542180165,-0.023054431378989475,-0.007856880865274892,-0.04262789746627397,0,70,255.0,255.0,255.0
255,12.75,-9.6236,3.7386,-4.3927,-0.3184213362288556,-0.11410958803054519,-0.6589693040356266,-0.02378004370116127,-0.0087271457966549,-0.04213809523813161,0,70,255.0,255.0,255.0
256,12.8,-9.639550404182685,3.732883612628737,-4.425701464688949,-0.3195870774109341,-0.11454588756976267,-0.6610958208846861,-0.02284960358197966,-0.008724835772043837,-0.04292257872424764,0,70,255.0,255.0,255.0
257,12.850000000000001,-9.655557932374329,3.7271454131680435,-4.458810235824708,-0.3207062965870536,-0.11498207160774959,-0.6632615619080514,-0.02191916346279805,-0.008722525747432774,-0.04370706221036367,0,70,255.0,255.0,255.0
258,12.9,-9.671620258474626,3.7213854073929826,-4.492028274615991,-0.32177899375721397,-0.11541814014450594,-0.6654665271057225,-0.02098872334361647,-0.008720215722821712,-0.044491545696479666,0,70,255.0,255.0,255.0
259,12.950000000000001,-9.687735056383284,3.7156036010786138,-4.525357542271518,-0.32280516892141525,-0.11585409318003174,-0.6677107164776993,-0.020058283224434863,-0.008717905698210649,-0.0452760291825957,0,70,255.0,255.0,255.0
260,13.0,-9.7039,3.7098,-4.5588,-0.3237848220796575,-0.11628993071432701,-0.6699941300239819,-0.01912784310525284,-0.008715595673599474,-0.04606051266870903,0,70,255.0,255.0,255.0
261,13.05,-9.72011359930293,3.703974967730039,-4.592356978753821,-0.3247681179387824,-0.11670418487718381,-0.6722789523645087,-0.020203991259743252,-0.007854570840672103,-0.04533238095236721,0,70,255.0,255.0,255.0
262,13.100000000000001,-9.736377708584008,3.698130299032975,-4.626027288460022,-0.3258052212056318,-0.11707538779839423,-0.6745273681192187,-0.021280139414233665,-0.006993546007744731,-0.0446042492360254,0,70,255.0,255.0,255.0
263,13.15,-9.752695018213622,3.6922681464708935,-4.659809108789312,-0.3268961318802058,-0.11740353947795829,-0.6767393772881114,-0.02235628756872404,-0.00613252117481739,-0.04387611751968361,0,70,255.0,255.0,255.0
264,13.200000000000001,-9.769068218562158,3.686390662605874,-4.693700619412401,-0.32804084996250427,-0.11768863991587597,-0.678914979871187,-0.02343243572321445,-0.005271496341890018,-0.04314798580334179,0,70,255.0,255.0,255.0
265,13.25,-9.7855,3.6805,-4.7277,-0.32923937545252724,-0.11793068911214727,-0.6810541758684456,-0.02450858387770527,-0.004410471508962566,-0.04241985408700266,0,70,255.0,255.0,255.0
266,13.3,-9.8019919986056,3.674597316451108,-4.7618058202957725,-0.3304284508339429,-0.11818937292150332,-0.6831803696572776,-0.023054431378920784,-0.005936880865279303,-0.042627897466274337,0,70,255.0,255.0,255.0
267,13.350000000000001,-9.818541633289646,3.668679790700052,-4.796018210335211,-0.33154481859041934,-0.11852437719867522,-0.6853169656150732,-0.021600278880136294,-0.007463290221596041,-0.04283594084554601,0,70,255.0,255.0,255.0
268,13.4,-9.835145268670892,3.6627436067234433,-4.830337690226762,-0.3325884787219565,-0.11893570194366292,-0.6874639637418322,-0.02014612638135186,-0.008989699577912725,-0.04304398422481768,0,70,255.0,255.0,255.0
269,13.450000000000001,-9.851799269368094,3.656784948497889,-4.864764780078876,-0.3335594312285545,-0.11942334715646648,-0.6896213640375549,-0.018691973882567374,-0.01051610893422946,-0.04325202760408935,0,70,255.0,255.0,255.0
270,13.5,-9.8685,3.6508,-4.8993,-0.3344576761102133,-0.11998731283708584,-0.6917891665022411,-0.01723782138378338,-0.012042518290546256,-0.04346007098335747,0,70,255.0,255.0,255.0
271,13.55,-9.885244806274672,3.644786166465529,-4.933943740063091,-0.3353420787254206,-0.12055432343680467,-0.6939595690063896,-0.01813828322450749,-0.010637905698206308,-0.043356029182579546,0,70,255.0,255.0,255.0
272,13.600000000000001,-9.902034958257408,3.6387457381668127,-4.96869587019914,-0.3362715044326641,-0.1210511034069065,-0.6961247694204991,-0.019038745065231604,-0.009233293105866363,-0.043251987381801624,0,70,255.0,255.0,255.0
273,13.65,-9.918872707102807,3.632682226635332,-5.003556130303641,-0.3372459532319438,-0.12147765274739131,-0.6982847677445697,-0.019939206905955683,-0.007828680513526465,-0.0431479455810237,0,70,255.0,255.0,255.0
274,13.700000000000001,-9.93576030396547,3.6265991434025673,-5.038524260272096,-0.33826542512325963,-0.12183397145825914,-0.7004395639786014,-0.020839668746679793,-0.006424067921186519,-0.04304390378024578,0,70,255.0,255.0,255.0
275,13.75,-9.9527,3.6205,-5.0736,-0.3393299201066117,-0.12212005953950997,-0.7025891581225943,-0.02174013058740476,-0.005019455328846734,-0.04293986197946964,0,70,255.0,255.0,255.0
276,13.8,-9.969693576295706,3.6143876176867744,-5.1087832194518645,-0.34041123426437736,-0.12237733333127838,-0.7047413543171647,-0.02151243572321961,-0.005271496341889884,-0.04314798580334483,0,70,255.0,255.0,255.0
277,13.850000000000001,-9.98674093368072,3.608262056632695,-5.1440743088682375,-0.3414811636789337,-0.12264720917369897,-0.7069039567029288,-0.02128474085903446,-0.0055235373549330355,-0.043356109627220016,0,70,255.0,255.0,255.0
278,13.9,-10.003841502917878,3.602122686735227,-5.179473788558677,-0.34253970835028075,-0.1229296870667717,-0.7090769652798866,-0.02105704599484932,-0.005775578367976177,-0.04356423345109519,0,70,255.0,255.0,255.0
279,13.950000000000001,-10.020994714770026,3.5959688778918397,-5.214982178832745,-0.34358686827841867,-0.12322476701049659,-0.7112603800480383,-0.02082935113066417,-0.006027619381019328,-0.04377235727497038,0,70,255.0,255.0,255.0
280,14.0,-10.0382,3.5898,-5.2506,-0.3446226434633472,-0.12353244900487363,-0.7134542010073835,-0.020601656266480806,-0.006279660394062803,-0.043980481098842894,0,70,255.0,255.0,255.0
281,14.05,-10.055456888542508,3.5836153627873717,-5.286327382129454,-0.34565298421707247,-0.12385634323808095,-0.7156350137249569,-0.020611973882529798,-0.006676108934229879,-0.04325202760408703,0,70,255.0,255.0,255.0
282,14.100000000000001,-10.07276530701972,3.577414035302408,-5.322162894327917,-0.3466838408516002,-0.12420005989829663,-0.7177794037677923,-0.020622291498578794,-0.007072557474396957,-0.042523574109331164,0,70,255.0,255.0,255.0
283,14.15,-10.090125281225681,3.5711950264237586,-5.358104715461654,-0.34771521336693034,-0.12456359898552065,-0.7198873711358899,-0.020632609114627786,-0.0074690060145640195,-0.041795120614575326,0,70,255.0,255.0,255.0
284,14.200000000000001,-10.107536836954425,3.5649573450300727,-5.394151024396928,-0.348747101763063,-0.12494696049975303,-0.7219589158292499,-0.020642926730676782,-0.007865454554731097,-0.04106666711981946,0,70,255.0,255.0,255.0
285,14.25,-10.125,3.5587,-5.4303,-0.3497795060399981,-0.12535014444099374,-0.7239940378478719,-0.020653244346727995,-0.008261903094898049,-0.04033821362506185,0,70,255.0,255.0,255.0
286,14.3,-10.142514869534267,3.552422131163737,-5.466550452030323,-0.3508168288673341,-0.12576529371639597,-0.7260305907830042,-0.020839668746714505,-0.008344067921190669,-0.04112390378023375,0,70,255.0,255.0,255.0
287,14.350000000000001,-10.160081838240401,3.5461234021576717,-5.502903713820097,-0.3518634729146696,-0.12618455123311284,-0.7281064282258953,-0.021026093146701015,-0.00842623274748329,-0.04190959393540565,0,70,255.0,255.0,255.0
288,14.4,-10.177701372179401,3.5398036075697377,-5.5393617495947085,-0.3529194381820043,-0.1266079169911443,-0.7302215501765448,-0.021212517546687515,-0.008508397573775906,-0.04269528409057753,0,70,255.0,255.0,255.0
289,14.450000000000001,-10.195373937412269,3.5334625419878685,-5.575926523579548,-0.3539847246693383,-0.1270353909904904,-0.732375956634953,-0.021398941946674025,-0.008590562400068526,-0.04348097424574943,0,70,255.0,255.0,255.0
290,14.5,-10.2131,3.5271,-5.6126,-0.35505933237667164,-0.12746697323115116,-0.7345696476011198,-0.021585366346661417,-0.008672727226362253,-0.04426666440091953,0,70,255.0,255.0,255.0
291,14.55,-10.230879633320429,3.520716112557678,-5.649383609749256,-0.35611970031360396,-0.1278824818963356,-0.7367706231430179,-0.02082935113063068,-0.00794761938101537,-0.04377235727500252,0,70,255.0,255.0,255.0
292,14.600000000000001,-10.24871134001868,3.5143123560669043,-5.686276650391697,-0.35714226748973477,-0.1282617351692527,-0.7389468833286201,-0.020073335914599946,-0.007222511535668487,-0.043278050149085506,0,70,255.0,255.0,255.0
293,14.65,-10.26659323005672,3.507890543297291,-5.7232778861595115,-0.35812703390506395,-0.12860473304990244,-0.7410984281579264,-0.019317320698569236,-0.00649740369032163,-0.042783743023168515,0,70,255.0,255.0,255.0
294,14.700000000000001,-10.284523413396508,3.501452487018452,-5.760386081284885,-0.35907399955959163,-0.1289114755382849,-0.7432252576309369,-0.0185613054825385,-0.005772295844974747,-0.0422894358972515,0,70,255.0,255.0,255.0
295,14.75,-10.3025,3.495,-5.7976,-0.3599831644533178,-0.12918196263439993,-0.7453273717476515,-0.017805290266508678,-0.005047187999628333,-0.04179512877132918,0,70,255.0,255.0,255.0
296,14.8,-10.320521797184027,3.4885342186055492,-5.83491830897266,-0.36089636987824764,-0.12945677869825903,-0.7473989166449297,-0.018722926730682602,-0.00594545455473542,-0.04106666711979993,0,70,255.0,255.0,255.0
297,14.850000000000001,-10.338590401684879,3.4820535735747113,-5.872339284613118,-0.36185545712638606,-0.12977650808987348,-0.7494340384596316,-0.019640563194856523,-0.006843721109842508,-0.040338205468270674,0,70,255.0,255.0,255.0
298,14.9,-10.35670810759372,3.4755558192410994,-5.909861105767246,-0.36286042619773323,-0.13014115080924327,-0.7514327371917568,-0.020558199659030413,-0.007741987664949563,-0.03960974381674144,0,70,255.0,255.0,255.0
299,14.950000000000001,-10.374877209001706,3.4690387099383244,-5.947481951280917,-0.3639112770922891,-0.13055070685636844,-0.7533950128413056,-0.021475836123204337,-0.00864025422005665,-0.03888128216521219,0,70,255.0,255.0,255.0
300,15.0,-10.3931,3.4625,-5.9852,-0.3650080098100537,-0.13100517623124894,-0.7553208654082779,-0.02239347258737956,-0.009538520775163706,-0.03815282051367852,0,70,255.0,255.0,255.0
301,15.05,-10.411377977943472,3.455938213020125,-6.023014354360112,-0.36610282017340506,-0.13145840331062975,-0.7572657102772634,-0.021398941946674452,-0.008590562400069,-0.039640974245740444,0,70,255.0,255.0,255.0
302,15.100000000000001,-10.429709453241808,3.4493549496342495,-6.060927811155837,-0.3671479040047212,-0.13186423247125587,-0.7592849628328521,-0.020404411305969344,-0.0076426040249742925,-0.04112912797780237,0,70,255.0,255.0,255.0
303,15.15,-10.448091939568409,3.4427525797383116,-6.098944090771506,-0.36814326130400205,-0.1322226637131272,-0.7613786230750437,-0.01940988066526427,-0.00669464564987962,-0.042617281709864244,0,70,255.0,255.0,255.0
304,15.200000000000001,-10.466522950596673,3.4361334732282494,-6.137066913591452,-0.3690888920712476,-0.1325336970362438,-0.7635466910038384,-0.018415350024559164,-0.005746687274784914,-0.04410543544192617,0,70,255.0,255.0,255.0
305,15.25,-10.485,3.4295,-6.1753,-0.3699847963064579,-0.13279733244060565,-0.7657891666192361,-0.017420819383853203,-0.004798728899690463,-0.04559358917398537,0,70,255.0,255.0,255.0
306,15.3,-10.503521491042093,3.422853729313951,-6.2136458735868985,-0.3708843494281177,-0.13306160805922207,-0.7680342422460174,-0.018561305482538266,-0.005772295844966649,-0.0442094358972623,0,70,255.0,255.0,255.0
307,15.350000000000001,-10.522089385347895,3.4161930278882897,-6.2521022707635385,-0.37184092685471176,-0.13337456202510234,-0.7702101102089624,-0.019701791581223326,-0.006745862790242835,-0.04282528262053922,0,70,255.0,255.0,255.0
308,15.4,-10.540706534132646,3.4095154618056536,-6.29066573114673,-0.37285452858624,-0.13373619433824638,-0.7723167705080712,-0.020842277679908348,-0.007719429735518986,-0.0414411293438162,0,70,255.0,255.0,255.0
309,15.450000000000001,-10.5593757886116,3.4028185971486775,-6.329332794353282,-0.3739251546227026,-0.13414650499865421,-0.774354223143344,-0.021982763778593407,-0.008692996680795172,-0.040056976067093124,0,70,255.0,255.0,255.0
310,15.5,-10.5781,3.3961,-6.3681,-0.3750528049640993,-0.13460549400632588,-0.7763224681147806,-0.023123249877277985,-0.009666563626071323,-0.03867282279036832,0,70,255.0,255.0,255.0
311,15.55,-10.596880857888154,3.3893580697240706,-6.4069645512923,-0.3761677821141123,-0.1350631644524793,-0.7782613207386696,-0.021475836123239465,-0.008640254220065098,-0.03888128216519267,0,70,255.0,255.0,255.0
312,15.600000000000001,-10.615715405366617,3.38259453881259,-6.445926305790014,-0.3772003885764233,-0.1354695194283324,-0.7802105963312999,-0.019828422369200946,-0.007613944814058875,-0.039089741540017015,0,70,255.0,255.0,255.0
313,15.65,-10.634599523901,3.3758119730390757,-6.484985784641575,-0.37815062435103236,-0.13582455893388518,-0.7821702948926713,-0.018181008615162485,-0.006587635408052687,-0.039298200914841354,0,70,255.0,255.0,255.0
314,15.700000000000001,-10.653529094956925,3.3690129381770406,-6.524143508995426,-0.37901848943793953,-0.13612828296913765,-0.7841404164227841,-0.016533594861123966,-0.005561326002046463,-0.0395066602896657,0,70,255.0,255.0,255.0
315,15.75,-10.6725,3.3622,-6.5634,-0.3798039838371447,-0.13638069153408983,-0.7861209609216379,-0.014886181107084173,-0.004535016596039831,-0.03971511966448471,0,70,255.0,255.0,255.0
316,15.8,-10.69150947740529,3.3553747917897674,-6.6027559212439035,-0.38058852211543587,-0.13663773413086044,-0.7881204747992983,-0.01649535002456315,-0.005746687274784729,-0.040265435441931716,0,70,255.0,255.0,255.0
317,15.850000000000001,-10.710560193185641,3.3485352168613485,-6.642212506076412,-0.38145351883960105,-0.1369553602615683,-0.790147504465831,-0.018104518942042125,-0.006958357953529627,-0.04081575121937872,0,70,255.0,255.0,255.0
318,15.9,-10.729656170263347,3.3416782460380454,-6.681771130286967,-0.38239897400964007,-0.1373335699262134,-0.7922020499212362,-0.019713687859521045,-0.008170028632274482,-0.041366066996825705,0,70,255.0,255.0,255.0
319,15.950000000000001,-10.748801431560702,3.3348008501431616,-6.7214331696650165,-0.3834248876255531,-0.13777236312479577,-0.7942841111655137,-0.02132285677700002,-0.00938169931101938,-0.04191638277427271,0,70,255.0,255.0,255.0
320,16.0,-10.768,3.3279,-6.7612,-0.38453125968734014,-0.13827173985731536,-0.7963936881986633,-0.022932025694478497,-0.010593369989764456,-0.042466698551715254,0,70,255.0,255.0,255.0
321,16.05,-10.787254832490687,3.320973963116859,-6.801072563732087,-0.3856541294241661,-0.13875389902407936,-0.7985047800641338,-0.021982763778558644,-0.008692996680795168,-0.041976976067104835,0,70,255.0,255.0,255.0
322,16.1,-10.806564621890821,3.3140261937420163,-6.841050069904343,-0.38672953606519606,-0.1391410395253949,-0.8005913858053739,-0.021033501862638786,-0.00679262337182588,-0.041487253582494416,0,70,255.0,255.0,255.0
323,16.150000000000002,-10.82592699504561,3.307061442808744,-6.881131294210555,-0.38775747961043,-0.13943316136126196,-0.8026535054223833,-0.020084239946718933,-0.004892250062856592,-0.040997531097884,0,70,255.0,255.0,255.0
324,16.2,-10.845339578800266,3.3000844612503144,-6.92131501234451,-0.3887379600598679,-0.13963026453168054,-0.8046911389151622,-0.019134978030799145,-0.0029918767538874395,-0.04050780861327362,0,70,255.0,255.0,255.0
325,16.25,-10.8648,3.2931,-6.9616,-0.38967097741350987,-0.1397323490366507,-0.8067042862837105,-0.018185716114878403,-0.0010915034449181515,-0.040018086128660535,0,70,255.0,255.0,255.0
326,16.3,-10.884306392631965,3.286110955742796,-7.001985023827746,-0.39058696018790895,-0.1398506697728247,-0.8086924049441686,-0.01845359486108436,-0.0036413260020422473,-0.03950666028966391,0,70,255.0,255.0,255.0
327,16.35,-10.903858919251082,3.279112808170586,-7.042468814306218,-0.3915163368996183,-0.14009648163685492,-0.8106549523126769,-0.018721473607290314,-0.006191148559166343,-0.03899523445066729,0,70,255.0,255.0,255.0
328,16.400000000000002,-10.923458249554216,3.2720991827269796,-7.083050092870817,-0.392459107548638,-0.14046978462874132,-0.8125919283892354,-0.018989352353496268,-0.00874097111629044,-0.03848380861167067,0,70,255.0,255.0,255.0
329,16.45,-10.94310505323823,3.2650637048555815,-7.123727580956941,-0.3934152721349679,-0.14097057874848393,-0.8145033331738439,-0.019257231099702204,-0.011290793673414354,-0.03797238277267408,0,70,255.0,255.0,255.0
330,16.5,-10.9628,3.258,-7.1645,-0.39438483065860824,-0.1415988639960828,-0.8163891666665027,-0.019525109845907718,-0.013840616230538672,-0.03746095693367568,0,70,255.0,255.0,255.0
331,16.55,-10.98254359698146,3.2509038139119575,-7.205366540956927,-0.39535802982418194,-0.14222742188462165,-0.8182776001592008,-0.019402856777038388,-0.011301699311015021,-0.03807638277424506,0,70,255.0,255.0,255.0
332,16.6,-11.002335701104862,3.243779373575637,-7.246328272870789,-0.3963251163363121,-0.1427290339271843,-0.8201968049439272,-0.019280603708169062,-0.008762782391491369,-0.038691808614814444,0,70,255.0,255.0,255.0
333,16.650000000000002,-11.022176006737533,3.236633026283338,-7.287386734306187,-0.3972860901949989,-0.14310370012377077,-0.8221467810206823,-0.019158350639299732,-0.006223865471967719,-0.039307234455383824,0,70,255.0,255.0,255.0
334,16.7,-11.042064208246803,3.22947111932736,-7.328543463827722,-0.398240951400242,-0.14335142047438107,-0.8241275283894656,-0.019036097570430413,-0.003684948552444247,-0.03992266029595316,0,70,255.0,255.0,255.0
335,16.75,-11.062,3.2223,-7.3698,-0.39918969995204184,-0.1434721949790152,-0.8261390470502776,-0.01891384450155842,-0.0011460316329205966,-0.040538086136526985,0,70,255.0,255.0,255.0
336,16.8,-11.081983219442199,3.2151241886093747,-7.41115761234455,-0.40014092051535166,-0.1435756426886856,-0.8281651944190231,-0.01913497803083191,-0.0029918767538959206,-0.04050780861329066,0,70,255.0,255.0,255.0
337,16.85,-11.102014276329475,3.207940897526864,-7.452616494210634,-0.40110319775512504,-0.1437713826544048,-0.8301898279116068,-0.0193561115601054,-0.004837721874871245,-0.04047753109005434,0,70,255.0,255.0,255.0
338,16.900000000000002,-11.122093723495654,3.200745512139666,-7.494176569904442,-0.4020765316713622,-0.14405941487617274,-0.8322129475280287,-0.01957724508937889,-0.006683566995846569,-0.04044725356681802,0,70,255.0,255.0,255.0
339,16.95,-11.142222113774553,3.1935334178349795,-7.535837763732166,-0.40306092226406287,-0.14443973935398943,-0.8342345532682884,-0.019798378618652364,-0.008529412116821762,-0.0404169760435817,0,70,255.0,255.0,255.0
340,17.0,-11.1624,3.1863,-7.5776,-0.4040563695332273,-0.1449123560878549,-0.8362546451323868,-0.0200195121479263,-0.01037525723779753,-0.04038669852034449,0,70,255.0,255.0,255.0
341,17.05,-11.182627525249742,3.179041831650545,-7.619463009664876,-0.4050382881144172,-0.14540600736063533,-0.8382616221647121,-0.019257231099669158,-0.00937079367341925,-0.03989238277266711,0,70,255.0,255.0,255.0
342,17.1,-11.202903193577235,3.1717602363169064,-7.661425750286683,-0.4059820926431943,-0.14584943545519685,-0.8402438834096535,-0.01849495005141202,-0.008366330109040969,-0.03939806702498972,0,70,255.0,255.0,255.0
343,17.150000000000002,-11.223225099279857,3.1644577251579955,-7.7034869860760535,-0.4068877831195585,-0.14624264037153945,-0.8422014288672112,-0.01773266900315488,-0.007361866544662689,-0.03890375127731234,0,70,255.0,255.0,255.0
344,17.2,-11.243591336654983,3.1571368093327234,-7.745645481243613,-0.4077553595435097,-0.1465856221096631,-0.8441342585373847,-0.016970387954897793,-0.00635740298028448,-0.03840943552963499,0,70,255.0,255.0,255.0
345,17.25,-11.264,3.1498,-7.7879,-0.4085848219150482,-0.14687838066956788,-0.8460423724201745,-0.01620810690664065,-0.005352939415905755,-0.03791511978195583,0,70,255.0,255.0,255.0
346,17.3,-11.284449879558828,3.142449284788445,-7.83024954899595,-0.40941792702697505,-0.1471523278687765,-0.8479403169221225,-0.017116097570433742,-0.005604948552439474,-0.038002660295959424,0,70,255.0,255.0,255.0
347,17.35,-11.304942549361584,3.1350845572055084,-7.872694104642641,-0.4102964316720916,-0.14743887552481183,-0.8498426384497705,-0.018024088234226836,-0.005856957688973193,-0.03809020080996302,0,70,255.0,255.0,255.0
348,17.400000000000002,-11.325480279384925,3.12770518722835,-7.9152338857913564,-0.41122033585039774,-0.14773802363767383,-0.8517493370031188,-0.018932078898019927,-0.0061089668255069115,-0.03817774132396661,0,70,255.0,255.0,255.0
349,17.45,-11.34606533960551,3.1203105448341275,-7.95786911129338,-0.41218963956189353,-0.1480497722073625,-0.8536604125821671,-0.019840069561812956,-0.006360975962040613,-0.0382652818379702,0,70,255.0,255.0,255.0
350,17.5,-11.3667,3.1129,-8.0006,-0.41320434280657903,-0.1483741212338779,-0.8555758651869156,-0.02074806022560516,-0.006612985098573443,-0.03835282235197113,0,70,255.0,255.0,255.0
351,17.55,-11.387385756514943,3.105473029195675,-8.043426794351324,-0.4142180037776854,-0.14870468116426247,-0.8574971101468046,-0.01979837861865191,-0.006609412116809122,-0.03849697604358617,0,70,255.0,255.0,255.0
352,17.6,-11.40812100897643,3.0980295348610585,-8.086349831142758,-0.41518418066844426,-0.1490350624455588,-0.8594255627912742,-0.018848697011698664,-0.0066058391350448,-0.03864112973520122,0,70,255.0,255.0,255.0
353,17.650000000000002,-11.42890338318045,3.0905695259286032,-8.12936947075853,-0.41610287347885533,-0.14936526507776696,-0.8613612231203248,-0.017899015404745415,-0.0066022661532804785,-0.03878528342681627,0,70,255.0,255.0,255.0
354,17.7,-11.449730504922975,3.083093011330767,-8.172486073582863,-0.4169740822089188,-0.14969528906088683,-0.8633040911339558,-0.016949333797792236,-0.006598693171516156,-0.038929437118431304,0,70,255.0,255.0,255.0
355,17.75,-11.4706,3.0756,-8.2157,-0.4177978068586346,-0.15002513439491852,-0.8652541668321678,-0.015999652190838543,-0.006595120189750725,-0.03907359081004458,0,70,255.0,255.0,255.0
356,17.8,-11.491510294381404,3.0680905984288542,-8.259011273598755,-0.418622057862278,-0.1503489474741696,-0.867191242490659,-0.01697038795489753,-0.006357402980292678,-0.03840943552959998,0,70,255.0,255.0,255.0
357,17.85,-11.512463014732699,3.0605653033502573,-8.302418570786333,-0.4194948456541244,-0.15066087469294778,-0.8690951103851279,-0.017941123718956516,-0.006119685770834631,-0.03774528024915538,0,70,255.0,255.0,255.0
358,17.900000000000002,-11.533460587893288,3.053024709057234,-8.345920231174535,-0.42041617023417366,-0.15096091605125309,-0.8709657705155746,-0.0189118594830155,-0.005881968561376584,-0.037081124968710785,0,70,255.0,255.0,255.0
359,17.95,-11.554505440702584,3.045469409842807,-8.389514594375155,-0.4213860316024259,-0.15124907154908546,-0.8728032228819989,-0.019882595247074416,-0.005644251351918554,-0.03641696968826623,0,70,255.0,255.0,255.0
360,18.0,-11.5756,3.0379,-8.4332,-0.4224044297588811,-0.15152534118644492,-0.8746074674844011,-0.020853331011132514,-0.005406534142460506,-0.03575281440782163,0,70,255.0,255.0,255.0
361,18.05,-11.596745865959438,3.0303165770889082,-8.476975311253659,-0.4234217647732056,-0.15181952893905767,-0.8764099198905473,-0.019840069561846436,-0.0063609759620490225,-0.0363452818380246,0,70,255.0,255.0,255.0
362,18.1,-11.61794133209278,3.022717251737911,-8.520841485711914,-0.4243884367150658,-0.15216143878264984,-0.8782419956682036,-0.01882680811256036,-0.007315417781637539,-0.036937749268227564,0,70,255.0,255.0,255.0
363,18.150000000000002,-11.639183865246403,3.01509963784246,-8.56480000454334,-0.4253044455844617,-0.15255107071722143,-0.88010369481737,-0.017813546663274282,-0.008269859601226056,-0.037530216698430534,0,70,255.0,255.0,255.0
364,18.2,-11.660470932266684,3.007461349298006,-8.608852348916507,-0.42616979138139316,-0.1529884247427724,-0.8819950173380466,-0.016800285213988277,-0.009224301420814505,-0.038122684128633455,0,70,255.0,255.0,255.0
365,18.25,-11.6818,2.9998,-8.653,-0.4269844741058604,-0.15347350085930284,-0.8839159632302334,-0.01578702376469998,-0.010178743240403687,-0.038715151558836425,0,70,255.0,255.0,255.0
366,18.3,-11.703169441780847,2.992114293215513,-8.69724428138661,-0.427802883044921,-0.15394093676960072,-0.8858570779471642,-0.01694933379772367,-0.008518693171511481,-0.0389294371183965,0,70,255.0,255.0,255.0
367,18.35,-11.724581256896188,2.984407289698097,-8.741585886366018,-0.42867940748563277,-0.15432537017645398,-0.887808906942073,-0.01811164383074736,-0.006858643102619274,-0.039143722677956565,0,70,255.0,255.0,255.0
368,18.400000000000002,-11.746038351121104,2.9766831395729247,-8.78602535065212,-0.42961404742799575,-0.15462680107986265,-0.88977145021496,-0.019273953863771048,-0.0051985930337270685,-0.03935800823751664,0,70,255.0,255.0,255.0
369,18.45,-11.76754363023068,2.9689459929651685,-8.830563209958811,-0.4306068028720098,-0.1548452294798267,-0.8917447077658246,-0.020436263896794656,-0.0035385429648349797,-0.03957229379707669,0,70,255.0,255.0,255.0
370,18.5,-11.7891,2.9612,-8.8752,-0.4316576738176752,-0.15498065537634614,-0.8937286795946674,-0.021598573929819675,-0.0018784928959427738,-0.03978657935663055,0,70,255.0,255.0,255.0
371,18.55,-11.81070916691718,2.9534478500490393,-8.919935563199902,-0.43269470304709845,-0.15512072398254256,-0.8956817683207897,-0.019882595247108868,-0.0037242513519143913,-0.038336969688259774,0,70,255.0,255.0,255.0
372,18.6,-11.832368040322475,2.945686389469699,-8.964766968824023,-0.43364593334238616,-0.1553530805115376,-0.8975623765634935,-0.01816661656439806,-0.005570009807886009,-0.036887360019888994,0,70,255.0,255.0,255.0
373,18.650000000000002,-11.854072330269181,2.9379110038658385,-9.009690592848195,-0.4345113647035383,-0.15567772496333118,-0.8993705043227787,-0.01645063788168725,-0.007415768263857626,-0.03543775035151822,0,70,255.0,255.0,255.0
374,18.7,-11.875817746810592,2.930117078841319,-9.05470281124824,-0.43529099713055486,-0.15609465733792335,-0.9011061515986452,-0.014734659198976565,-0.009261526719829112,-0.033988140683147545,0,70,255.0,255.0,255.0
375,18.75,-11.8976,2.9223,-9.0998,-0.43598483062343585,-0.15660387763531408,-0.9027693183910934,-0.013018680516263537,-0.01110728517580073,-0.032538531014770555,0,70,255.0,255.0,255.0
376,18.8,-11.919416290550442,2.9144567065883287,-9.144979865813788,-0.43668230476669223,-0.15711216730022948,-0.9044398487696788,-0.014880285213990723,-0.009224301420814625,-0.03428268412864066,0,70,255.0,255.0,255.0
377,18.85,-11.941269781813919,2.9065903524231063,-9.190245438337897,-0.4374728591448349,-0.15752630777739557,-0.9061975868039576,-0.01674188991171791,-0.007341317665828519,-0.036026837242510774,0,70,255.0,255.0,255.0
378,18.900000000000002,-11.963165127802174,2.898705644963718,-9.235601077955113,-0.438356493757864,-0.15784629906681236,-0.9080425324939299,-0.018603494609445093,-0.005458333910842414,-0.03777099035638088,0,70,255.0,255.0,255.0
379,18.95,-11.985106982526952,2.8908072916695544,-9.281051145048217,-0.4393332086057794,-0.15807214116847979,-0.9099746858395955,-0.02046509930717215,-0.003575350155856443,-0.03951514347025087,0,70,255.0,255.0,255.0
380,19.0,-12.0071,2.8829,-9.3266,-0.44040300368858126,-0.158203834082398,-0.9119940468409548,-0.022326704004901554,-0.0016923664008701156,-0.041259296584111205,0,70,255.0,255.0,255.0
381,19.05,-12.029147270881058,2.8749869235976435,-9.372250573544951,-0.4414720778861237,-0.1583346068165406,-0.9140148366004843,-0.020436263896796508,-0.0035385429648347607,-0.03957229379707152,0,70,255.0,255.0,255.0
382,19.1,-12.051245632421857,2.8670650008378753,-9.418000077824393,-0.44244663007826096,-0.15855768837888146,-0.915951276220662,-0.018545823788691462,-0.005384719528799406,-0.03788529101003184,0,70,255.0,255.0,255.0
383,19.150000000000002,-12.073390358522126,2.8591296162792856,-9.463844295331361,-0.4433266602649929,-0.15887307876942058,-0.9178033657014876,-0.01665538368058642,-0.0072308960927640505,-0.036198288222992155,0,70,255.0,255.0,255.0
384,19.200000000000003,-12.095576723081598,2.8511761544804637,-9.509779008558885,-0.4441121684463196,-0.1592807779881579,-0.9195711050429612,-0.014764943572481374,-0.009077072656728696,-0.03451128543595247,0,70,255.0,255.0,255.0
385,19.25,-12.1178,2.8432,-9.5558,-0.444803154622241,-0.1597807860350934,-0.9212544942450827,-0.012874503464376463,-0.010923249220692322,-0.032824282648913794,0,70,255.0,255.0,255.0
386,19.3,-12.140057025925332,2.8351979990210943,-9.601904240006414,-0.4454933836888248,-0.16028540543360645,-0.922924804828385,-0.014734659198974969,-0.009261526719828803,-0.03398814068318254,0,70,255.0,255.0,255.0
387,19.35,-12.162350888498663,2.8271728442253896,-9.648093450364534,-0.44627662054213857,-0.1607069387070763,-0.924653308313401,-0.016594814933573475,-0.007599804218965287,-0.03515199871745128,0,70,255.0,255.0,255.0
388,19.400000000000002,-12.184686238109327,2.8191286899191375,-9.69437054071945,-0.44715286518218217,-0.161045385855503,-0.9264400047001302,-0.018454970668171977,-0.005938081718101769,-0.03631585675172003,0,70,255.0,255.0,255.0
389,19.450000000000003,-12.20706772514666,2.81106969040859,-9.740738420716244,-0.4481221176089557,-0.1613007468788865,-0.9282848939885731,-0.020315126402770483,-0.004276359217238251,-0.03747971478598877,0,70,255.0,255.0,255.0
390,19.5,-12.2295,2.803,-9.7872,-0.44918437782245924,-0.1614730217772268,-0.9301879761787291,-0.022175282137371077,-0.002614636716374852,-0.03864357282025921,0,70,255.0,255.0,255.0
391,19.55,-12.251986225417616,2.7949226803179767,-9.8337572664294,-0.450250387358572,-0.1616277714490326,-0.9320939440859902,-0.02046509930713982,-0.003575350155856652,-0.03759514347018323,0,70,255.0,255.0,255.0
392,19.6,-12.2745236135835,2.7868364222605635,-9.880408520717475,-0.45123088775317327,-0.16183055679281247,-0.9339474905257474,-0.018754916476908565,-0.004536063595338452,-0.03654671412010725,0,70,255.0,255.0,255.0
393,19.650000000000002,-12.297107889040575,2.7787388240441624,-9.927151141790851,-0.4521258790062629,-0.16208137780856643,-0.9357486154980009,-0.01704473364667731,-0.005496777034820251,-0.03549828477003127,0,70,255.0,255.0,255.0
394,19.700000000000003,-12.319734776331769,2.7706274838851734,-9.973982508576151,-0.452935361117841,-0.1623802344962945,-0.9374973190027507,-0.015334550816446049,-0.006457490474302051,-0.034449855419955294,0,70,255.0,255.0,255.0
395,19.75,-12.3424,2.7625,-10.0209,-0.45365933408790754,-0.16272712685599666,-0.9391936010399965,-0.01362436798621447,-0.007418203913784005,-0.033401426069882056,0,70,255.0,255.0,255.0
396,19.8,-12.365100472404206,2.7543544797069983,-10.06790189427599,-0.4543690668768766,-0.1630915087702596,-0.9408914188276433,-0.014764943572548822,-0.007157072656732662,-0.03451128543598669,0,70,255.0,255.0,255.0
397,19.85,-12.387837857167343,2.746191066732355,-10.11499006676557,-0.4551358284451624,-0.16344283412166993,-0.9426447295835952,-0.015905519158883174,-0.006895941399681319,-0.03562114480209132,0,70,255.0,255.0,255.0
398,19.900000000000002,-12.410615005728378,2.7380104139042123,-10.162167292117156,-0.455959618792765,-0.16378110291022774,-0.9444535333078524,-0.017046094745217524,-0.006634810142629977,-0.03673100416819595,0,70,255.0,255.0,255.0
399,19.950000000000003,-12.433434769526276,2.7298131740507126,-10.209436344979162,-0.4568404379196842,-0.16410631513593293,-0.9463178300004148,-0.018186670331551878,-0.006373678885578634,-0.03784086353430058,0,70,255.0,255.0,255.0
400,20.0,-12.4563,2.7216,-10.2568,-0.4577782858259202,-0.1644184707987856,-0.9482376196612825,-0.019327245917886593,-0.0061125476285270874,-0.03895072290041135,0,70,255.0,255.0,255.0
401,20.05,-12.479212684965564,2.7133714008540295,-10.304259956466643,-0.4587213451339359,-0.16472619346992984,-0.9501483806034426,-0.01839512640274189,-0.0061963592172421325,-0.03747971478599082,0,70,255.0,255.0,255.0
402,20.1,-12.502171357747132,2.7051273108100164,-10.351813612220251,-0.4596177984661944,-0.16503810672050984,-0.9519855911398816,-0.017463006887597183,-0.006280170805957178,-0.03600870667157028,0,70,255.0,255.0,255.0
403,20.150000000000002,-12.525173688045921,2.696867520338988,-10.399457289740536,-0.46046764582269567,-0.16535421055052557,-0.9537492512705996,-0.01653088737245248,-0.006363982394672222,-0.03453769855714975,0,70,255.0,255.0,255.0
404,20.200000000000003,-12.54821734556314,2.6885918199119727,-10.447187311507214,-0.4612708872034397,-0.16567450495997707,-0.9554393609955967,-0.015598767857307775,-0.006447793983387267,-0.03306669044272921,0,70,255.0,255.0,255.0
405,20.25,-12.5713,2.6803,-10.495,-0.46202752260842633,-0.16599898994886428,-0.9570559203148725,-0.014666648342160027,-0.006531605572101862,-0.031595682328307007,0,70,255.0,255.0,255.0
406,20.3,-12.594419987733547,2.671991916876882,-10.542892679857443,-0.4627775525873906,-0.16632371735002419,-0.9586590587585792,-0.015334550816411073,-0.006457490474293558,-0.03252985541995949,0,70,255.0,255.0,255.0
407,20.35,-12.617578311844134,2.6636676900275784,-10.590866684353434,-0.4635609776900675,-0.16664473899629365,-0.9603089058568685,-0.01600245329066212,-0.006383375376485255,-0.03346402851161197,0,70,255.0,255.0,255.0
408,20.400000000000002,-12.64077664208795,2.655327504739834,-10.638924348920705,-0.46437779791645684,-0.16696205488767268,-0.9620054616097405,-0.016670355764913165,-0.00630926027867695,-0.03439820160326445,0,70,255.0,255.0,255.0
409,20.450000000000003,-12.664016648221176,2.646971546301393,-10.687068008991988,-0.4652280132665588,-0.16727566502416136,-0.9637487260171951,-0.01733825823916421,-0.0062351451808686465,-0.03533237469491693,0,70,255.0,255.0,255.0
410,20.5,-12.6873,2.6386,-10.7353,-0.46611162374037324,-0.16758556940575953,-0.9655386990792322,-0.01800616071341432,-0.006161030083060126,-0.03626654778657201,0,70,255.0,255.0,255.0
411,20.55,-12.710628164100253,2.6302129316384404,-10.78362212410359,-0.4670164445164974,-0.1678989371299755,-0.9673433843622542,-0.018186670331552527,-0.006373678885578829,-0.03592086353430889,0,70,255.0,255.0,255.0
412,20.6,-12.734001794876333,2.6218099290796664,-10.832034050366017,-0.46793029077352855,-0.16822293729431742,-0.9691307854326631,-0.01836717994969073,-0.006586327688097532,-0.03557517928204578,0,70,255.0,255.0,255.0
413,20.650000000000002,-12.757421343602289,2.6133904607016727,-10.880534914576648,-0.4688531625114665,-0.16855756989878526,-0.9709009022904589,-0.018547689567828936,-0.006798976490616235,-0.03522949502978266,0,70,255.0,255.0,255.0
414,20.700000000000003,-12.780887261552161,2.6049539948824525,-10.929123852524853,-0.4697850597303114,-0.16890283494337904,-0.9726537349356414,-0.018728199185967142,-0.007011625293134939,-0.03488381077751954,0,70,255.0,255.0,255.0
415,20.75,-12.8044,2.5965,-10.9778,-0.4707259824300632,-0.16925873242809875,-0.9743892833682108,-0.018908708804104446,-0.007224274095654071,-0.03453812652525379,0,70,255.0,255.0,255.0
416,20.8,-12.827959355865447,2.5880283565693554,-11.026562823728199,-0.47163666934659926,-0.16960053413007478,-0.9761274037924094,-0.017518767857335752,-0.0064477939833872955,-0.03498669044268788,0,70,255.0,255.0,255.0
417,20.85,-12.851562508650538,2.579540593653752,-11.075413114182506,-0.47247785921579677,-0.16990351182643748,-0.9778879524124797,-0.016128826910567055,-0.00567131387112052,-0.03543525436012197,0,70,255.0,255.0,255.0
418,20.900000000000002,-12.875205983502905,2.5710386524534714,-11.124351992772715,-0.47324955203765595,-0.17016766551718684,-0.9796709292284217,-0.01473888596379836,-0.004894833758853745,-0.035883818277556066,0,70,255.0,255.0,255.0
419,20.950000000000003,-12.898886305570183,2.562524474168794,-11.173380580908615,-0.4739517478121767,-0.17039299520232287,-0.9814763342402353,-0.013348945017029667,-0.00411835364658697,-0.03633238219499016,0,70,255.0,255.0,255.0
420,21.0,-12.9226,2.554,-11.2225,-0.47458444653935883,-0.17057950088184554,-0.9833041674479207,-0.011959004070259738,-0.003341873534320694,-0.036780946112425106,0,70,255.0,255.0,255.0
421,21.05,-12.946344812437959,2.545466442084137,-11.271710580983614,-0.4752208780970955,-0.17077092634972516,-0.9851070004681052,-0.013498258239206806,-0.00431514518086448,-0.03533237469495292,0,70,255.0,255.0,255.0
422,21.1,-12.970123370521518,2.536922096305321,-11.321009492903965,-0.4759342723632795,-0.171011015399932,-0.9868374049174161,-0.015037512408153875,-0.005288416827408266,-0.03388380327748073,0,70,255.0,255.0,255.0
423,21.150000000000002,-12.993939522386096,2.528364529484438,-11.37039311433251,-0.47672462933791093,-0.171299768032466,-0.9884953807958533,-0.016576766577100943,-0.006261688473952051,-0.032435231860008545,0,70,255.0,255.0,255.0
424,21.200000000000003,-13.017797116167115,2.519791308442369,-11.419857823840703,-0.47759194902098967,-0.1716371842473272,-0.990080928103417,-0.01811602074604801,-0.007234960120495837,-0.030986660442536357,0,70,255.0,255.0,255.0
425,21.25,-13.0417,2.5112,-11.4694,-0.47853623141251567,-0.1720232640445156,-0.9915940468401069,-0.01965527491499408,-0.008208231767040663,-0.02953808902506072,0,70,255.0,255.0,255.0
426,21.3,-13.065650994382715,2.502589075094096,-11.51901725233735,-0.479495818265038,-0.1724037604710202,-0.9931085943351707,-0.01872819918589846,-0.007011625293143836,-0.031043810777492298,0,70,255.0,255.0,255.0
427,21.35,-13.089648809263396,2.4939606211249594,-11.568712114201647,-0.4804090513311055,-0.17272442657382997,-0.9946984279178561,-0.017801123456802844,-0.005815018819247008,-0.032549532529923875,0,70,255.0,255.0,255.0
428,21.400000000000002,-13.11369112695272,2.4853176296087742,-11.618488349897264,-0.4812759306107183,-0.17298526235294492,-0.9963635475881633,-0.016874047727707224,-0.0046184123453501804,-0.03405525428235545,0,70,255.0,255.0,255.0
429,21.450000000000003,-13.137775629761363,2.476663092061726,-11.66834972372859,-0.4820964561038763,-0.17318626780836502,-0.9981039533460918,-0.015946971998611607,-0.003421805871453352,-0.03556097603478703,0,70,255.0,255.0,255.0
430,21.5,-13.1619,2.468,-11.7183,-0.48287062781057943,-0.17332744294009025,-0.9999196451916417,-0.015019896269516053,-0.0022251993975566098,-0.037066697787214054,0,70,255.0,255.0,255.0
431,21.55,-13.186062410031177,2.459330057539478,-11.768342009666986,-0.48362784884274296,-0.17348603176619384,-1.0017546221911977,-0.015268945017024652,-0.0041183536465869966,-0.03633238219502458,0,70,255.0,255.0,255.0
432,21.6,-13.210262992424898,2.45064981919484,-11.81847485028946,-0.48439752231228195,-0.17373927830474897,-1.003552883411144,-0.015517993764533252,-0.006011507895617383,-0.03559806660283511,0,70,255.0,255.0,255.0
433,21.650000000000002,-13.234502369803028,2.441954552080462,-11.868696686078442,-0.4851796482191963,-0.1740871825557556,-1.0053144288514813,-0.015767042512041852,-0.00790466214464777,-0.03486375101064564,0,70,255.0,255.0,255.0
434,21.700000000000003,-13.25878116478744,2.4332395233107227,-11.91900568124495,-0.48597422656348616,-0.17452974451921374,-1.0070392585122088,-0.01601609125955045,-0.009797816393678157,-0.03412943541845617,0,70,255.0,255.0,255.0
435,21.75,-13.2831,2.4245,-11.9694,-0.4867812573451513,-0.1750669641951234,-1.0087273723933268,-0.016265140007057255,-0.011690970642707743,-0.03339511982626675,0,70,255.0,255.0,255.0
436,21.8,-13.307459365492575,2.4157330947479916,-12.019877908994706,-0.4875927863639808,-0.17558811246420342,-1.010384916900047,-0.016196020746119543,-0.009154960120491449,-0.032906660442531425,0,70,255.0,255.0,255.0
437,21.85,-13.331859221037014,2.4069433020956814,-12.070438084640518,-0.4884008594197633,-0.17598246020717256,-1.0120180384375799,-0.01612690148518183,-0.006618949598275153,-0.0324182010587961,0,70,255.0,255.0,255.0
438,21.900000000000002,-13.356299393835167,2.3981369620693758,-12.12107930578898,-0.48920547651249896,-0.1762500074240309,-1.0136267370059264,-0.01605778222424412,-0.004082939076058859,-0.031929741675060776,0,70,255.0,255.0,255.0
439,21.950000000000003,-13.38077971108888,2.38932041469538,-12.171800351291628,-0.4900066376421877,-0.17639075411477845,-1.0152110126050862,-0.015988662963306408,-0.0015469285538425633,-0.03144128229132545,0,70,255.0,255.0,255.0
440,22.0,-13.4053,2.3805,-12.2226,-0.4908043428088296,-0.17640470027941516,-1.0167708652350589,-0.01591954370237003,0.000989081968374217,-0.030952822907593713,0,70,255.0,255.0,255.0
441,22.05,-13.429860127998527,2.3716799634685564,-12.273477554354193,-0.4916010057013525,-0.17641751837699224,-1.0183377102086177,-0.015946971998544068,-0.0015018058714579307,-0.03172097603476091,0,70,255.0,255.0,255.0
442,22.1,-13.454460123427051,2.3628561724224344,-12.324434411148468,-0.49239904000868406,-0.17655488086656096,-1.019942962838535,-0.015974400294718107,-0.003992693711290078,-0.0324891291619281,0,70,255.0,255.0,255.0
443,22.150000000000002,-13.47910005485631,2.3540223996420333,-12.375472490765652,-0.49319844573082433,-0.17681678774812126,-1.0215866231248107,-0.016001828590892143,-0.0064835815511222255,-0.03325728228909529,0,70,255.0,255.0,255.0
444,22.200000000000003,-13.503779990857046,2.345172417907755,-12.426593713588558,-0.49399922286777326,-0.17720323902167318,-1.0232686910674444,-0.01602925688706618,-0.008974469390954374,-0.03402543541626248,0,70,255.0,255.0,255.0
445,22.25,-13.5285,2.3363,-12.4778,-0.49480137141953084,-0.17771423468721667,-1.024989166666437,-0.01605668518324066,-0.0114653572307859,-0.0347935885434314,0,70,255.0,255.0,255.0
446,22.3,-13.553260122513322,2.3274006513777827,-12.529092673588533,-0.4956031908306006,-0.17824581402782827,-1.0267122422654842,-0.016016091259549902,-0.009797816393677848,-0.03412943541845514,0,70,255.0,255.0,255.0
447,22.35,-13.57806028525479,2.318476808214581,-12.580470670765612,-0.4964029805454859,-0.17869401632658446,-1.0284021102082825,-0.015975497335859144,-0.008130275556569797,-0.03346528229347887,0,70,255.0,255.0,255.0
448,22.400000000000002,-13.6029003867396,2.3095326393624886,-12.631932331148425,-0.49720074056418656,-0.17905884158348526,-1.030058770494832,-0.015934903412168386,-0.006462734719461745,-0.03280112916850261,0,70,255.0,255.0,255.0
449,22.450000000000003,-13.62778032548294,2.300572313673597,-12.683475994354161,-0.4979964708867027,-0.17934028979853064,-1.0316822231251328,-0.01589430948847763,-0.004795193882353693,-0.032136976043526354,0,70,255.0,255.0,255.0
450,22.5,-13.6527,2.2916,-12.7351,-0.4987901715130343,-0.1795383609717206,-1.0332724680991847,-0.015853715564782433,-0.0031276530452455376,-0.031472822918550136,0,70,255.0,255.0,255.0
451,22.55,-13.67765938194819,2.2826190310203116,-12.786802951291678,-0.4995862309762382,-0.1797032255116977,-1.0348453207294326,-0.01598866296337356,-0.0034669285538379718,-0.03144128229136065,0,70,255.0,255.0,255.0
452,22.6,-13.70265873555379,2.273629394719239,-12.838584505789088,-0.5003890378093717,-0.1798850538271044,-1.0364165963283207,-0.016123610361964684,-0.003806204062430406,-0.03140974166417116,0,70,255.0,255.0,255.0
453,22.650000000000002,-13.727698398185293,2.264630242908011,-12.890444584640656,-0.5011985920124347,-0.18008384591794074,-1.0379862948958496,-0.01625855776055581,-0.00414547957102284,-0.031378201036981676,0,70,255.0,255.0,255.0
454,22.700000000000003,-13.752778707211199,2.255620727397855,-12.94238310899482,-0.5020148935854273,-0.1802996017842067,-1.039554416432019,-0.016393505159146934,-0.0044847550796152744,-0.03134666040979219,0,70,255.0,255.0,255.0
455,22.75,-13.7779,2.2466,-12.9944,-0.5028379425283492,-0.18053232142590225,-1.041120960936829,-0.016528452557735385,-0.004824030588206352,-0.03131511978260093,0,70,255.0,255.0,255.0
456,22.8,-13.803062349693919,2.237567224540968,-13.04649552124475,-0.5036518852644676,-0.18078128392538126,-1.0427064748167998,-0.016029256886998227,-0.005134469390953993,-0.03210543541623282,0,70,255.0,255.0,255.0
457,22.85,-13.828264772530057,2.228521612908459,-13.098671306078044,-0.5044408682170491,-0.18104576836499767,-1.0443315044784525,-0.015530061216261068,-0.005444908193701634,-0.03289575104986471,0,70,255.0,255.0,255.0
458,22.900000000000002,-13.853506020519234,2.2194623890054657,-13.15092933028896,-0.5052048913860937,-0.18132577474475142,-1.0459960499217864,-0.015030865545523908,-0.005755346996449275,-0.03368606668349659,0,70,255.0,255.0,255.0
459,22.950000000000003,-13.878784845672273,2.2103887767349812,-13.203271569666585,-0.5059439547716016,-0.18162130306464258,-1.047700111146802,-0.01453166987478675,-0.006065785799196917,-0.03447638231712848,0,70,255.0,255.0,255.0
460,23.0,-13.9041,2.2013,-13.2557,-0.5066580583735723,-0.18193235332467111,-1.0494436881534992,-0.01403247420404874,-0.0063762246019436475,-0.03526669795074966,0,70,255.0,255.0,255.0
461,23.05,-13.929450419276135,2.1921952708158137,-13.30821576372932,-0.5073582279658855,-0.18225963878677845,-1.0511767800033558,-0.01397430948848104,-0.006715193882349007,-0.03405697604351799,0,70,255.0,255.0,255.0
462,23.1,-13.954835774325993,2.1830737536469216,-13.360816669898746,-0.5080554893224204,-0.18260387271290604,-1.0528493857578511,-0.01391614477291334,-0.007054163162754366,-0.032847254136286315,0,70,255.0,255.0,255.0
463,23.150000000000002,-13.980255919737782,2.173934601070122,-13.413499694203518,-0.5087498424431768,-0.1829650551030539,-1.0544615054169846,-0.01385798005734564,-0.007393132443159726,-0.031637532229054646,0,70,255.0,255.0,255.0
464,23.200000000000003,-14.005710710099715,2.1647769656622153,-13.466261812338857,-0.509441287328155,-0.18334318595722202,-1.0560131389807565,-0.01379981534177794,-0.0077321017235650845,-0.030427810321822978,0,70,255.0,255.0,255.0
465,23.25,-14.0312,2.1556,-13.5191,-0.5101298239773547,-0.18373826527541037,-1.0575042864491666,-0.013741650626211133,-0.008071071003969532,-0.029218088414586063,0,70,255.0,255.0,255.0
466,23.3,-14.05672397320154,2.1464036921957765,-13.572011823837975,-0.5108352028719896,-0.18410016092750006,-1.058970405169777,-0.014473505159183919,-0.006404755079618572,-0.029426660409832196,0,70,255.0,255.0,255.0
467,23.35,-14.082284130165977,2.137191372503853,-13.624997214326974,-0.5115771744932731,-0.18437874078337224,-1.0604469524901499,-0.015205359692156705,-0.004738439155267612,-0.029635232405078333,0,70,255.0,255.0,255.0
468,23.400000000000002,-14.107882300529647,2.1279672067140423,-13.67805669289699,-0.5123557388412053,-0.18457400484302683,-1.0619339284102849,-0.01593721422512949,-0.0030721232309166525,-0.029843804400324466,0,70,255.0,255.0,255.0
469,23.450000000000003,-14.133520313928877,2.1187353606161543,-13.731190780978002,-0.5131708959157861,-0.1846859531064639,-1.0634313329301823,-0.016669068758102278,-0.0014058073065656923,-0.030052376395570603,0,70,255.0,255.0,255.0
470,23.5,-14.1592,2.1095,-13.7844,-0.5140226457170155,-0.18471458557368342,-1.064939166049842,-0.01740092329107501,0.0002605086177855931,-0.03026094839081317,0,70,255.0,255.0,255.0
471,23.55,-14.184922487917708,2.1002635604010806,-13.837684940918784,-0.514868960546161,-0.18476371750321893,-1.0664615993175397,-0.016451669874747117,-0.0022257857992055282,-0.03063638231709867,0,70,255.0,255.0,255.0
472,23.6,-14.210686105010105,2.091021556337664,-13.89104647279336,-0.5156678127044902,-0.18493716415360398,-1.068002804281552,-0.015502416458419228,-0.0047120802161966496,-0.03101181624338417,0,70,255.0,255.0,255.0
473,23.650000000000002,-14.236488478143645,2.081767772073706,-13.944485534208546,-0.516419202192003,-0.18523492552483858,-1.0695627809418782,-0.014553163042091337,-0.007198374633187771,-0.03138725016966967,0,70,255.0,255.0,255.0
474,23.700000000000003,-14.262327234184792,2.0724959918731654,-13.998003063749156,-0.5171231290086994,-0.18565700161692275,-1.071141529298519,-0.013603909625763445,-0.009684669050178892,-0.031762684095955174,0,70,255.0,255.0,255.0
475,23.75,-14.2882,2.0632,-14.0516,-0.5177795931545792,-0.18620339242985642,-1.0727390493514737,-0.012654656209432957,-0.012170963467168727,-0.0321381180222442,0,70,255.0,255.0,255.0
476,23.8,-14.31410527512763,2.0538756661998994,-14.105277212486895,-0.5184409549433603,-0.18674896905962465,-1.0743511975600755,-0.01379981534181242,-0.009652101723559977,-0.03234781032181751,0,70,255.0,255.0,255.0
477,23.85,-14.340045049793613,2.04452720214549,-14.159035294499592,-0.5191595746887605,-0.18716860260221244,-1.0759738303836555,-0.014944974474191885,-0.007133239979951228,-0.032557502621390816,0,70,255.0,255.0,255.0
478,23.900000000000002,-14.366022186895783,2.0351609049911312,-14.212874770268844,-0.5199354523907795,-0.18746229305761977,-1.0776069478222146,-0.016090133606571348,-0.004614378236342479,-0.032767194920964124,0,70,255.0,255.0,255.0
479,23.950000000000003,-14.392039549331969,2.025783071891181,-14.266796164025399,-0.5207685880494176,-0.1876300404258467,-1.0792505498757519,-0.017235292738950813,-0.002095516492733729,-0.03297688722053743,0,70,255.0,255.0,255.0
480,24.0,-14.4181,2.0164,-14.3208,-0.5216589816646746,-0.18767184470689316,-1.080904636544268,-0.018380451871324865,0.0004233452508757285,-0.033186579520110726,0,70,255.0,255.0,255.0
481,24.05,-14.444205211571777,2.0070161747993196,-14.374886209133646,-0.5225352196804094,-0.1876964062582853,-1.08253361044216,-0.016669068758066504,-0.001405807306561239,-0.03197237639556397,0,70,255.0,255.0,255.0
482,24.1,-14.470352095815448,1.9976288350803733,-14.429052349208279,-0.5233258885404812,-0.1878124254375493,-1.0841018741838244,-0.014957685644808146,-0.0032349598639982067,-0.03075817327101721,0,70,255.0,255.0,255.0
483,24.150000000000002,-14.49653637427323,1.988233407961767,-14.483295384716092,-0.5240309882448903,-0.18801990224468512,-1.0856094277692616,-0.013246302531549785,-0.005064112421435174,-0.02954397014647045,0,70,255.0,255.0,255.0
484,24.200000000000003,-14.522753768487343,1.9788253205621067,-14.53761228014927,-0.5246505187936362,-0.18831883667969282,-1.0870562711984717,-0.011534919418291425,-0.006893264978872142,-0.028329767021923687,0,70,255.0,255.0,255.0
485,24.25,-14.549,1.9694,-14.592,-0.5251844801867193,-0.18870922874257232,-1.088442404471454,-0.009823536305030522,-0.008722417536308535,-0.027115563897373463,0,70,255.0,255.0,255.0
486,24.3,-14.575272278585269,1.9599540346028201,-14.646456350978529,-0.5257221663349892,-0.1891214059072345,-1.0898183606712875,-0.011683909625766934,-0.007764669050178372,-0.02792268409596411,0,70,255.0,255.0,255.0
487,24.35,-14.6015737669446,1.950488657533015,-14.700982508667295,-0.526352871149296,-0.18948569564759019,-1.0912346728810505,-0.013544282946503347,-0.0068069205640482085,-0.028729804294554764,0,70,255.0,255.0,255.0
488,24.400000000000002,-14.627909116011297,1.9410062631617993,-14.7555804908668,-0.5270765946296395,-0.1898020979636393,-1.092691341100743,-0.01540465626723976,-0.005849172077918045,-0.029536924493145413,0,70,255.0,255.0,255.0
489,24.450000000000003,-14.654282976718665,1.9315092458603889,-14.810252315377538,-0.52789333677602,-0.19007061285538196,-1.094188365330365,-0.017265029587976172,-0.0048914235917878815,-0.03034404469173606,0,70,255.0,255.0,255.0
490,24.5,-14.6807,1.922,-14.865,-0.5288030975884371,-0.19029124032281813,-1.0957257455699165,-0.019125402908712452,-0.003933675105657564,-0.031151164890330207,0,70,255.0,255.0,255.0
491,24.55,-14.707163274087154,1.912480486789399,-14.919825186952247,-0.5297121149796296,-0.1904899701127779,-1.0972809468726885,-0.017235292738983228,-0.004015516492733175,-0.031056887220544026,0,70,255.0,255.0,255.0
492,24.6,-14.733669636406155,1.902950934787566,-14.974728016122546,-0.5305266268623355,-0.19069279197209146,-1.098831434291971,-0.015345182569254004,-0.004097357879808785,-0.030962609550757844,0,70,255.0,255.0,255.0
493,24.650000000000002,-14.76021436168158,1.8934111393910336,-15.029708251816722,-0.531246633236555,-0.1908997059007588,-1.100377207827764,-0.013455072399524778,-0.004179199266884396,-0.030868331880971663,0,70,255.0,255.0,255.0
494,24.700000000000003,-14.786792724638003,1.8838608959963339,-15.084765658340599,-0.5318721341022881,-0.1911107118987799,-1.1019182674800683,-0.011564962229795554,-0.004261040653960007,-0.03077405421118548,0,70,255.0,255.0,255.0
495,24.75,-14.8134,1.8743,-15.1399,-0.5324031294595345,-0.19132580996615478,-1.1034546132488827,-0.00967485206006824,-0.004342882041036056,-0.03067977654140641,0,70,255.0,255.0,255.0
496,24.8,-14.840033025066118,1.8647280182395836,-15.19511090121249,-0.5329333737464926,-0.1915587136416525,-1.1049778518379658,-0.011534919418256556,-0.0049732649788723025,-0.030249767021919987,0,70,255.0,255.0,255.0
497,24.85,-14.866694887430782,1.8551436033167195,-15.250397426842532,-0.5335566214013602,-0.191823136464042,-1.1064795899510749,-0.01339498677644487,-0.00560364791670855,-0.029819757502433562,0,70,255.0,255.0,255.0
498,24.900000000000002,-14.893390237262384,1.8455451792740643,-15.305758501866332,-0.5342728724241371,-0.19211907843332335,-1.1079598275882092,-0.015255054134633185,-0.006234030854544797,-0.029389747982947138,0,70,255.0,255.0,255.0
499,24.950000000000003,-14.920123724729327,1.8359311701542724,-15.36119305126009,-0.5350821268148235,-0.1924465395494965,-1.1094185647493695,-0.0171151214928215,-0.006864413792381044,-0.028959738463460713,0,70,255.0,255.0,255.0
500,25.0,-14.9469,1.8263,-15.4167,-0.5359843845734192,-0.19280551981256142,-1.1108558014345555,-0.018975188851013236,-0.00749479673021658,-0.028529728943976096,0,70,255.0,255.0,255.0
501,25.05,-14.973722225648375,1.8166506402522666,-15.472278408197804,-0.5368903900343949,-0.19316317532061164,-1.1122796457754476,-0.017265029588011214,-0.0068114235917918,-0.028424044691706028,0,70,255.0,255.0,255.0
502,25.1,-15.000587613870719,1.806984251945554,-15.527927876507338,-0.5377108875322204,-0.1934866621717406,-1.1136982059037261,-0.015554870325009192,-0.0061280504533670205,-0.02831836043943596,0,70,255.0,255.0,255.0
503,25.150000000000002,-15.027491889268878,1.7973025435127077,-15.583648140717969,-0.5384458770668958,-0.19377598036594834,-1.1151114818193912,-0.01384471106200717,-0.005444677314942241,-0.028212676187165893,0,70,255.0,255.0,255.0
504,25.200000000000003,-15.054430776444692,1.7876072233865743,-15.639438936619067,-0.5390953586384212,-0.19403112990323482,-1.1165194735224429,-0.012134551799005147,-0.004761304176517461,-0.028106991934895825,0,70,255.0,255.0,255.0
505,25.25,-15.0814,1.7779,-15.6953,-0.5396593322467964,-0.19425211078360005,-1.1179221810128805,-0.010424392536005911,-0.00407793103809162,-0.02800130768262754,0,70,255.0,255.0,255.0
506,25.3,-15.108396472340385,1.7681822207513491,-15.751231465996302,-0.5402090661159407,-0.19446058507590125,-1.1193435650602268,-0.011564962229762103,-0.004261040653955742,-0.028854054211228344,0,70,255.0,255.0,255.0
507,25.35,-15.135421857086339,1.758453788901063,-15.807235067128131,-0.5408158284697726,-0.19467821484899564,-1.1208075864340035,-0.012705531923518297,-0.004444150269819863,-0.029706800739829144,0,70,255.0,255.0,255.0
508,25.400000000000002,-15.162479005662107,1.7487142466751027,-15.86331293526181,-0.5414796193082925,-0.19490500010288325,-1.1223142451342099,-0.013846101617274491,-0.004627259885683984,-0.030559547268429944,0,70,255.0,255.0,255.0
509,25.450000000000003,-15.189570769491915,1.738963136299428,-15.91946720226366,-0.5422004386315,-0.19514094083756406,-1.1238635411608464,-0.014986671311030684,-0.004810369501548105,-0.03141229379703075,0,70,255.0,255.0,255.0
510,25.5,-15.2167,1.7292,-15.9757,-0.5429782864393955,-0.195386037053038,-1.1254554745139131,-0.01612724100479035,-0.004993479117412436,-0.032265040325633265,0,70,255.0,255.0,255.0
511,25.55,-15.243868684990096,1.7194244767423366,-16.032012527816992,-0.543761345501836,-0.19563448437578296,-1.1270340939836405,-0.015195121492828166,-0.004944413792385526,-0.03087973846345731,0,70,255.0,255.0,255.0
512,25.6,-15.271075357783925,1.7096365924501924,-16.088402254980146,-0.5444977985886783,-0.19588047843227657,-1.128543448360259,-0.014263001980865981,-0.004895348467358616,-0.029494436601281353,0,70,255.0,255.0,255.0
513,25.650000000000002,-15.298317688082705,1.6998364697868795,-16.1448657182348,-0.5451876456999226,-0.19612401922251885,-1.1299835376437686,-0.013330882468903798,-0.004846283142331707,-0.028109134739105396,0,70,255.0,255.0,255.0
514,25.700000000000003,-15.325593345587656,1.6900242314157112,-16.20139945432631,-0.5458308868355688,-0.19636510674650973,-1.1313543618341695,-0.012398762956941613,-0.004797217817304797,-0.02672383287692944,0,70,255.0,255.0,255.0
515,25.75,-15.3529,1.6802,-16.258,-0.5464275219956167,-0.19660374100424932,-1.1326559209314617,-0.011466643444981273,-0.004748152492279001,-0.025338531014748256,0,70,255.0,255.0,255.0
516,25.8,-15.380235987699235,1.6703638722793035,-16.314664822735725,-0.5470175518767173,-0.19684147742096914,-1.1339440590052037,-0.012134551799040959,-0.004761304176512926,-0.026186991934930515,0,70,255.0,255.0,255.0
517,25.85,-15.407602311777968,1.6605158412981658,-16.371395112951284,-0.5476409771755208,-0.19707987142190062,-1.1352746201249548,-0.012802460153100645,-0.004774455860746852,-0.027035452855112777,0,70,255.0,255.0,255.0
518,25.900000000000002,-15.435000642007083,1.6506558741773765,-16.42819299179899,-0.5482977978920274,-0.19731892300704382,-1.1366476042907152,-0.013470368507160331,-0.004787607544980777,-0.027883913775295036,0,70,255.0,255.0,255.0
519,25.950000000000003,-15.462432648157467,1.6407839380377243,-16.485060580431128,-0.5489880140262369,-0.1975586321763987,-1.1380630115024846,-0.014138276861220017,-0.004800759229214703,-0.028732374695477295,0,70,255.0,255.0,255.0
520,26.0,-15.4899,1.6309,-16.542,-0.5497116255781493,-0.1977989989299653,-1.1395208417602627,-0.014806185215276102,-0.004813910913448849,-0.02958083561565239,0,70,255.0,255.0,255.0
521,26.05,-15.517404164212968,1.6210040341404481,-16.59901298124011,-0.5504564469913062,-0.1980396059403402,-1.1409976699955782,-0.014986671310996161,-0.004810369501547784,-0.02949229379696696,0,70,255.0,255.0,255.0
522,26.1,-15.544945795104212,1.6110960423571423,-16.65609969321471,-0.5512102927092489,-0.1982800358801201,-1.1424700711399594,-0.015167157406716219,-0.00480682808964672,-0.02940375197828153,0,70,255.0,255.0,255.0
523,26.150000000000002,-15.572525343888973,1.6011760335036125,-16.71325991456926,-0.5519731627319778,-0.1985202887493049,-1.1439380451934062,-0.015347643502436278,-0.004803286677745655,-0.0293152101595961,0,70,255.0,255.0,255.0
524,26.200000000000003,-15.60014326178249,1.591244016433388,-16.770493423949205,-0.5527450570594926,-0.19876036454789464,-1.145401592155919,-0.015528129598156337,-0.0047997452658445905,-0.029226668340910672,0,70,255.0,255.0,255.0
525,26.25,-15.6278,1.5813,-16.8278,-0.5535259756917933,-0.19900026327588935,-1.1468607120274976,-0.01570861569387194,-0.004796203853942638,-0.029138126522227026,0,70,255.0,255.0,255.0
526,26.3,-15.655495355448899,1.571343991158903,-16.885179252303843,-0.5542766601580635,-0.19924009881767055,-1.1483052610124764,-0.01431876295693735,-0.0047972178173049775,-0.02864383287692504,0,70,255.0,255.0,255.0
527,26.35,-15.683226507805195,1.561375989273263,-16.94263011418988,-0.554957851987487,-0.19947998505761985,-1.1497250953151903,-0.012928910220002759,-0.004798231780667317,-0.028149539231623052,0,70,255.0,255.0,255.0
528,26.400000000000002,-15.710989982437036,1.5513959918081714,-17.000151349923996,-0.5555695511800639,-0.19971992199573727,-1.1511202149356388,-0.011539057483068167,-0.004799245744029656,-0.027655245586321067,0,70,255.0,255.0,255.0
529,26.450000000000003,-15.738782304712586,1.5414039962287196,-17.05774172377207,-0.5561117577357939,-0.19995990963202284,-1.1524906198738225,-0.010149204746133577,-0.004800259707391996,-0.027160951941019078,0,70,255.0,255.0,255.0
530,26.5,-15.7666,1.5314,-17.1154,-0.5565844716546772,-0.20019994796647647,-1.1538363101297409,-0.008759352009199084,-0.004801273670753892,-0.026666658295722456,0,70,255.0,255.0,255.0
531,26.55,-15.794440813991436,1.5213840012239384,-17.173125209544523,-0.557060912376438,-0.2004399987889757,-1.155173285954521,-0.010298276861228417,-0.004800759229214924,-0.026812374695479594,0,70,255.0,255.0,255.0
532,26.6,-15.822307373675022,1.5113560005498035,-17.23091745002579,-0.5576142993408,-0.20068002388939796,-1.1565175475992888,-0.01183720171325775,-0.004800244787675956,-0.026958091095236728,0,70,255.0,255.0,255.0
533,26.650000000000002,-15.850203526362893,1.5013159992636997,-17.28877708573479,-0.5582446325477637,-0.2009200232677433,-1.1578690950640447,-0.013376126565287083,-0.0047997303461369874,-0.027103807494993866,0,70,255.0,255.0,255.0
534,26.700000000000003,-15.878133119367176,1.4912639986517302,-17.34670448096253,-0.5589519119973287,-0.20115999692401168,-1.1592279283487883,-0.014915051417316414,-0.00479921590459802,-0.027249523894751,0,70,255.0,255.0,255.0
535,26.75,-15.9061,1.4812,-17.4047,-0.5597361376894952,-0.20139994485820306,-1.1605940474535195,-0.016453976269342974,-0.00479870146305883,-0.027395240294499246,0,70,255.0,255.0,255.0
536,26.8,-15.934106988585366,1.471124003945343,-17.462763909518063,-0.5605356903361834,-0.20163990602642576,-1.161961595169405,-0.015528129598187577,-0.0047997452658486315,-0.027306668340913373,0,70,255.0,255.0,255.0
537,26.85,-15.962152797494726,1.4610360085275218,-17.520896085706976,-0.5612889506493138,-0.20187991938478791,-1.1633247142876109,-0.01460228292703218,-0.004800789068638433,-0.027218096387327504,0,70,255.0,255.0,255.0
538,26.900000000000002,-15.990235112111405,1.4509360111370284,-17.579096307136865,-0.5619959186288866,-0.2021199849332896,-1.1646834048081376,-0.013676436255876783,-0.004801832871428236,-0.02712952443374163,0,70,255.0,255.0,255.0
539,26.950000000000003,-16.018351617818723,1.4408240091643567,-17.637364352377833,-0.5626565942749017,-0.20236010267193077,-1.166037666730985,-0.012750589584721386,-0.0048028766742180375,-0.027040952480155762,0,70,255.0,255.0,255.0
540,27.0,-16.0465,1.4307,-17.6957,-0.5632709775873588,-0.2026002726007114,-1.1673875000561529,-0.011824742913564279,-0.004803920477006951,-0.026952380526571673,0,70,255.0,255.0,255.0
541,27.05,-16.07467843166711,1.4205639829946888,-17.75410315238322,-0.5638683262788494,-0.20284037710532138,-1.1687403333678446,-0.012069204746060795,-0.004800259707391508,-0.027160951941094073,0,70,255.0,255.0,255.0
542,27.1,-16.10288703634608,1.410415965340109,-17.812574207146294,-0.5644778980619649,-0.20308029857145055,-1.1701035952502623,-0.01231366657855731,-0.004796598937776064,-0.02736952335561647,0,70,255.0,255.0,255.0
543,27.150000000000002,-16.1311264251915,1.4002559561881849,-17.87111368571776,-0.5650996929367051,-0.20332003699909898,-1.1714772857034064,-0.012558128411053825,-0.004792938168160621,-0.02757809477013887,0,70,255.0,255.0,255.0
544,27.200000000000003,-16.159397209357945,1.39008396469084,-17.92972210952615,-0.5657337109030702,-0.20355959238826662,-1.1728614047272763,-0.01280259024355034,-0.0047892773985451775,-0.02778666618466127,0,70,255.0,255.0,255.0
545,27.25,-16.1877,1.3799,-17.9884,-0.5663799519610602,-0.20379896473895345,-1.1742559523218725,-0.013047052076043286,-0.00478561662892818,-0.027995237599181877,0,70,255.0,255.0,255.0
546,27.3,-16.216035284746205,1.369704064075901,-18.04714748094905,-0.5670310045483942,-0.2040385855522915,-1.1756370713592206,-0.012995051417318137,-0.004799215904593224,-0.02724952389474423,0,70,255.0,255.0,255.0
547,27.35,-16.244403057120955,1.3594961301120407,-18.105963085707835,-0.567679457102792,-0.20427888632941277,-1.176980904711347,-0.012943050758592988,-0.004812815180258268,-0.02650381019030659,0,70,255.0,255.0,255.0
548,27.400000000000002,-16.27280318712261,1.3492761641102298,-18.164844949992098,-0.5683253096242535,-0.20451986707031733,-1.1782874523782514,-0.012891050099867837,-0.0048264144559233115,-0.025758096485868943,0,70,255.0,255.0,255.0
549,27.450000000000003,-16.301235544749503,1.339044132072279,-18.22379120951758,-0.5689685621127788,-0.20476152777500511,-1.179556714359934,-0.012839049441142688,-0.004840013731588356,-0.025012382781431298,0,70,255.0,255.0,255.0
550,27.5,-16.3297,1.3288,-18.2828,-0.5696092145683677,-0.20500386844347612,-1.1807886906563945,-0.012787048782418431,-0.004853613007251845,-0.024266669076990155,0,70,255.0,255.0,255.0
551,27.55,-16.358196429348062,1.3185437607017056,-18.341870123820588,-0.5702476555275487,-0.20524528068551276,-1.1820233811953216,-0.012750589584824645,-0.00480287667421324,-0.025120952480090622,0,70,255.0,255.0,255.0
552,27.6,-16.38672473517009,1.3082755142117262,-18.40100305002237,-0.5708842735268501,-0.20548415611089746,-1.1833007859044036,-0.012714130387230859,-0.0047521403411746365,-0.025975235883191086,0,70,255.0,255.0,255.0
553,27.650000000000002,-16.415284826318082,1.2979953873708934,-18.460200914313866,-0.5715190685662719,-0.20572049471963022,-1.1846209047836407,-0.012677671189637073,-0.004701404008136032,-0.02682951928629155,0,70,255.0,255.0,255.0
554,27.700000000000003,-16.443876611644058,1.2877035070200402,-18.519465852403574,-0.5721520406458139,-0.20595429651171104,-1.185983737833033,-0.012641211992043287,-0.0046506676750974274,-0.027683802689392016,0,70,255.0,255.0,255.0
555,27.75,-16.4725,1.2774,-18.5788,-0.5727831897654763,-0.20618556148713996,-1.1873892850525796,-0.012604752794452168,-0.004599931342058383,-0.028538086092494197,0,70,255.0,255.0,255.0
556,27.8,-16.501154997861537,1.267084893117275,-18.638204823768618,-0.5734183733414245,-0.20642029170565526,-1.1887974038595068,-0.012802590243481052,-0.004789277398553085,-0.02778666618459588,0,70,255.0,255.0,255.0
557,27.85,-16.52984200219868,1.256757813041054,-18.697679114202696,-0.5740634487898244,-0.20666448922699526,-1.1901679516710393,-0.013000427692509937,-0.0049786234550477865,-0.027035246276697556,0,70,255.0,255.0,255.0
558,27.900000000000002,-16.558561507605063,1.2464182864061948,-18.757220992752465,-0.5747184161106756,-0.20691815405116004,-1.1915009284871767,-0.01319826514153882,-0.005167969511542489,-0.026283826368799237,0,70,255.0,255.0,255.0
559,27.950000000000003,-16.587314008674294,1.2360658398475572,-18.816828580868158,-0.5753832753039783,-0.20718128617814954,-1.192796334307919,-0.013396102590567704,-0.005357315568037191,-0.025532406460900915,0,70,255.0,255.0,255.0
