idx,t,px,py,pz,vx,vy,vz,ax,ay,az,yaw,mode,ledr,ledg,ledb
0,0.0,-4.5,-10.5,0.0,0.0007716300424973985,-0.0005624320900217779,0.0015242139862143358,-0.0244595605099902,0.0027491850802706577,-0.040690567834572026,0,70,255.0,255.0,255.0
1,0.05,-4.499992221318471,-10.50002504755524,2.527170350371609e-05,-0.0004650501804521278,-0.0004467187614095796,-0.0005148615663414053,-0.02500764840799085,0.0018793480642172716,-0.04087245426765762,0,70,255.0,255.0,255.0
2,0.1,-4.500046961757961,-10.500045396740322,-5.1637728661711895e-05,-0.0017291347983016867,-0.0003744972836000507,-0.0025630314405514264,-0.025555736305991502,0.0010095110481638855,-0.041054340700743215,0,70,255.0,255.0,255.0
3,0.15000000000000002,-4.500165591538216,-10.50006322214778,-0.00023118301257899797,-0.0030206238110512783,-0.0003457676565931911,-0.004620295636415728,-0.02610382420399215,0.00013967403211049894,-0.041236227133828816,0,70,255.0,255.0,255.0
4,0.2,-4.50034948087898,-10.50008069837016,-0.000513818864330856,-0.004339517218700902,-0.00036052988038900085,-0.006686654153934307,-0.026651912101992803,-0.0007301629839428867,-0.04141811356691441,0,70,255.0,255.0,255.0
5,0.25,-4.5006,-10.5001,-0.0009,-0.005685815021250558,-0.00041878395498747966,-0.008762106993107168,-0.027199999999993445,-0.0015999999999962702,-0.041600000000000054,0,70,255.0,255.0,255.0
6,0.30000000000000004,-4.500918519121021,-10.50012330162984,-0.0013901811356691446,-0.0070595172187002475,-0.0005205298803886279,-0.010846654153934312,-0.0277480878979941,-0.002469837016049657,-0.04178188643308563,0,70,255.0,255.0,255.0
7,0.35000000000000003,-4.501306408461786,-10.500152777852218,-0.001984816987421003,-0.008460623811049969,-0.0006657676565924455,-0.012940295636415732,-0.028296175795994753,-0.0033396740321030433,-0.041963772866171194,0,70,255.0,255.0,255.0
8,0.4,-4.501765038242041,-10.500190603259679,-0.0026843622713382882,-0.009889134798299722,-0.0008544972835989322,-0.01504303144055143,-0.028844263693995408,-0.004209511048156429,-0.04214565929925677,0,70,255.0,255.0,255.0
9,0.45,-4.50229577868153,-10.500238952444759,-0.003489271703503717,-0.011345050180449508,-0.0010867187614080882,-0.017154861566341408,-0.02939235159199606,-0.005079348064209815,-0.042327545732342334,0,70,255.0,255.0,255.0
10,0.5,-4.5029,-10.5003,-0.0044,-0.012828369957499327,-0.0013624320900199134,-0.019275786013785663,-0.029940439489996765,-0.005949185080263196,-0.04250943216542799,0,70,255.0,255.0,255.0
11,0.55,-4.503578502197451,-10.5003753459254,-0.0054165471608271405,-0.014304880944748972,-0.0016471617170270292,-0.021378521817921367,-0.029119999999989002,-0.005440000000021426,-0.04160000000000002,0,70,255.0,255.0,255.0
12,0.6000000000000001,-4.5043298043949,-10.500464291850802,-0.006537094321654282,-0.01574036995749823,-0.0019064320900220567,-0.02343578601378567,-0.02829956050998124,-0.004930814919779656,-0.04069056783457205,0,70,255.0,255.0,255.0
13,0.65,-4.505151855493626,-10.5005655648135,-0.00775936790206785,-0.017134836995747096,-0.0021402432090049947,-0.02544757860137857,-0.027479121019973476,-0.004421629839537887,-0.03978113566914408,0,70,255.0,255.0,255.0
14,0.7000000000000001,-4.506042604394899,-10.500677891850803,-0.009081094321654283,-0.018488282059495577,-0.0023485950739758447,-0.027413899580700077,-0.026658681529965714,-0.003912444759296117,-0.03887170350371611,0,70,255.0,255.0,255.0
15,0.75,-4.507,-10.5008,-0.0105,-0.01980070514874367,-0.0025314876849346062,-0.029334748951750183,-0.025838242039957965,-0.0034032596790543462,-0.037962271338288195,0,70,255.0,255.0,255.0
16,0.8,-4.5080226720891785,-10.500930514668555,-0.012014830221022298,-0.02111295900229329,-0.0026828232515094257,-0.03127125857438025,-0.026651912102026894,-0.002650162983938411,-0.03949811356691437,0,70,255.0,255.0,255.0
17,0.8500000000000001,-4.509111973958614,-10.501067654744572,-0.013628405725961884,-0.022465896358946358,-0.0027965039833284474,-0.033284560308441624,-0.027465582164095823,-0.0018970662888224757,-0.04103395579554054,0,70,255.0,255.0,255.0
18,0.9,-4.510269939783459,-10.501209537486309,-0.015344566120390318,-0.023859517218702875,-0.002872529880391673,-0.0353746541539343,-0.028279252226164748,-0.0011439695937065422,-0.04256979802416671,0,70,255.0,255.0,255.0
19,0.9500000000000001,-4.511498603738869,-10.50135428015203,-0.01716715100987917,-0.025293821581562834,-0.0029109009426991016,-0.03754154011085829,-0.029092922288233677,-0.0003908728985906069,-0.044105640252792885,0,70,255.0,255.0,255.0
20,1.0,-4.5128,-10.5015,-0.0191,-0.02676880944752624,-0.0029116171702507337,-0.039785218179213586,-0.029906592350302713,0.00036222379652532666,-0.04564148248141897,0,70,255.0,255.0,255.0
21,1.05,-4.514175609445831,-10.501645795400375,-0.02114573195508367,-0.028251283046083712,-0.002933545276942217,-0.042032443884557624,-0.02939235159199612,-0.0012393480641846575,-0.044247545732342394,0,70,255.0,255.0,255.0
22,1.1,-4.515624699770644,-10.50179468917091,-0.0233020827744982,-0.029708044606725853,-0.0030355519766691996,-0.044209972752447826,-0.028878110833689522,-0.0028409199248946417,-0.04285360898326582,0,70,255.0,255.0,255.0
23,1.1500000000000001,-4.517145985372539,-10.501950685241258,-0.025565567616370893,-0.031139094129452663,-0.0032176372694316816,-0.046317804782884206,-0.02836387007538293,-0.004442491785604625,-0.04145967223418925,0,70,255.0,255.0,255.0
24,1.2000000000000002,-4.518738180649624,-10.502117787541073,-0.027932701638829063,-0.03254443161426415,-0.0034798011552296623,-0.048355939975866756,-0.027849629317076335,-0.00604406364631461,-0.04006573548511267,0,70,255.0,255.0,255.0
25,1.25,-4.5204,-10.5023,-0.0304,-0.0339240570611603,-0.003822043634063141,-0.05032437833139547,-0.02733538855876988,-0.007645635507024615,-0.038671798736036433,0,70,255.0,255.0,255.0
26,1.3,-4.522130090127495,-10.502499903729943,-0.032964641958643015,-0.03527390881337784,-0.004158995640721048,-0.05226296588738929,-0.026658681529931637,-0.00583244475929165,-0.03887170350371638,0,70,255.0,255.0,255.0
27,1.35,-4.523926826958814,-10.502714388571782,-0.03562646317604534,-0.03658992521415346,-0.004405288109992307,-0.05421154868176711,-0.025981974501093394,-0.004019254011558686,-0.03907160827139633,0,70,255.0,255.0,255.0
28,1.4000000000000001,-4.525788518726387,-10.502938921548651,-0.03838596341412614,-0.037872106263487186,-0.004560921041876917,-0.05617012671452893,-0.025305267472255154,-0.002206063263825723,-0.03927151303907628,0,70,255.0,255.0,255.0
29,1.4500000000000002,-4.527713473662639,-10.50316896968368,-0.04124364243480463,-0.039120451961378984,-0.004625894436374879,-0.05813869998567474,-0.02462856044341691,-0.00039287251609275865,-0.039471417806756226,0,70,255.0,255.0,255.0
30,1.5,-4.5297,-10.5034,-0.0442,-0.04033496230782887,-0.004600208293486194,-0.06011726849520455,-0.023951853414578783,0.001420318231640176,-0.039671322574436674,0,70,255.0,255.0,255.0
31,1.55,-4.53174723004419,-10.503628989679854,-0.04725570021034426,-0.04156508170039983,-0.004574472160160808,-0.06211569256588529,-0.02525292228825974,-0.00039087289862471414,-0.04026564025279272,0,70,255.0,255.0,255.0
32,1.6,-4.533857592394102,-10.503858956541958,-0.0504120645213205,-0.04286025453665484,-0.004639295583348666,-0.06414383252048382,-0.026553991161940696,-0.0022020640288896044,-0.04085995793114877,0,70,255.0,255.0,255.0
33,1.6500000000000001,-4.536034339721917,-10.504094428564132,-0.05367057872712461,-0.0442204808165939,-0.004794678563049768,-0.06620168835900017,-0.027855060035621652,-0.0040132551591544946,-0.04145427560950482,0,70,255.0,255.0,255.0
34,1.7000000000000002,-4.538280724699822,-10.504339933724204,-0.05703272862195249,-0.04564576054021701,-0.0050406210992641155,-0.06828926008143432,-0.02915612890930261,-0.005824446289419385,-0.04204859328786087,0,70,255.0,255.0,255.0
35,1.75,-4.5406,-10.5046,-0.0605,-0.04713609370752416,-0.0053771231919917065,-0.07040654768778624,-0.03045719778298367,-0.007635637419684288,-0.04264291096621664,0,70,255.0,255.0,255.0
36,1.8,-4.542994589695744,-10.504877737550636,-0.06407335719997996,-0.04864176438502556,-0.0057191157186416795,-0.07252226384906947,-0.029769629317071954,-0.0060440636463146135,-0.04198573548511268,0,70,255.0,255.0,255.0
37,1.85,-4.545463603464782,-10.505170585260386,-0.0677516787386727,-0.050113056639231365,-0.005981529556623169,-0.07460512123629752,-0.02908206085116024,-0.004452489872944939,-0.04132856000400873,0,70,255.0,255.0,255.0
38,1.9000000000000001,-4.548005322385946,-10.50547456419482,-0.07153332167737546,-0.05154997047014158,-0.0061643647059361735,-0.07665511984947035,-0.028394492385248524,-0.0028609160995752654,-0.04067138452290477,0,70,255.0,255.0,255.0
39,1.9500000000000002,-4.550618027538074,-10.505785695419501,-0.07541664307738549,-0.05295250587775621,-0.0062676211665806955,-0.07867225968858799,-0.02770692391933681,-0.0012693423262055909,-0.040014209041800815,0,70,255.0,255.0,255.0
40,2.0,-4.5533,-10.5061,-0.0794,-0.05432066286207526,-0.006291298938556733,-0.08065654075365042,-0.02701935545342521,0.00032223144716404806,-0.03935703356069675,0,70,255.0,255.0,255.0
41,2.0500000000000003,-4.556049611172833,-10.506414460117602,-0.08348207098973594,-0.05565986075949621,-0.006293064965279099,-0.08262725203783676,-0.026548560443412503,-0.0003928725160586826,-0.03947141780675674,0,70,255.0,255.0,255.0
42,2.1,-4.558865593746775,-10.506729902416497,-0.08766282052398873,-0.05697551890641651,-0.006330586190162601,-0.08460368253432608,-0.0260777654333998,-0.001107976479281407,-0.03958580205281672,0,70,255.0,255.0,255.0
43,2.15,-4.5617467707343,-10.50704811465659,-0.09194253456337356,-0.05826763730283618,-0.00640386261320724,-0.08658583224311843,-0.0256069704233871,-0.0018230804425041314,-0.039700186298876707,0,70,255.0,255.0,255.0
44,2.2,-4.564691965147883,-10.507370884597789,-0.09632149906850564,-0.059536215948755224,-0.006512894234413015,-0.08857370116421377,-0.025136175413374394,-0.002538184405726862,-0.03981457054493669,0,70,255.0,255.0,255.0
45,2.25,-4.5677,-10.5077,-0.1008,-0.06078125484417362,-0.006657681053779925,-0.09056728929761211,-0.024665380403361692,-0.003253288368949614,-0.039928954790996785,0,70,255.0,255.0,255.0
46,2.3000000000000003,-4.570770165612925,-10.50803722197895,-0.10537835884107641,-0.06203079257699046,-0.006836624420239263,-0.09256872799958356,-0.025316128909311578,-0.003904446289423875,-0.04012859328786067,0,70,255.0,255.0,255.0
47,2.35,-4.573903621548121,-10.508384205073625,-0.11005703916537242,-0.06331286773510478,-0.007048125682722313,-0.09458014862639819,-0.02596687741526146,-0.00455560420989813,-0.040328231784724555,0,70,255.0,255.0,255.0
48,2.4000000000000004,-4.577101994676856,-10.508742577178822,-0.11483654006913029,-0.0646274803185166,-0.007292184841229077,-0.09660155117805602,-0.026617625921211346,-0.00520676213037239,-0.04052787028158844,0,70,255.0,255.0,255.0
49,2.45,-4.580366911870395,-10.509113966189346,-0.11971736064859209,-0.06597463032722592,-0.0075688018957595525,-0.09863293565455702,-0.027268374427161228,-0.0058579200508466454,-0.040727508778452326,0,70,255.0,255.0,255.0
50,2.5,-4.5837,-10.5095,-0.1247,-0.06735431776123271,-0.00787797684631374,-0.10067430205590124,-0.027919122933110607,-0.006509077971320915,-0.040927147275316655,0,70,255.0,255.0,255.0
51,2.5500000000000003,-4.587102526375473,-10.509901451966593,-0.12978449364595862,-0.06874496893254348,-0.008168437353752533,-0.10269783596382918,-0.027706923919319636,-0.005109342326230757,-0.040014209041800856,0,70,255.0,255.0,255.0
52,2.6,-4.590574320060743,-10.510315677289004,-0.13496902281452167,-0.07012501015316468,-0.008388911078936816,-0.10467572296008133,-0.027494724905528668,-0.003709606681140612,-0.03910127080828507,0,70,255.0,255.0,255.0
53,2.6500000000000004,-4.594114850558277,-10.510739176628118,-0.14025130516010548,-0.07149444142309634,-0.008539398021866594,-0.1066079630446577,-0.027282525891737696,-0.002309871036050455,-0.03818833257476927,0,70,255.0,255.0,255.0
54,2.7,-4.597723587370541,-10.511168450644819,-0.1456290583371262,-0.07285326274233846,-0.008619898182541863,-0.10849455621755826,-0.027070326877946724,-0.0009101353909603095,-0.03727539434125349,0,70,255.0,255.0,255.0
55,2.75,-4.6014,-10.5116,-0.1511,-0.07420147411089101,-0.008630411560962626,-0.11033550247878303,-0.02685812786415598,0.0004896002541297934,-0.03636245610773792,0,70,255.0,255.0,255.0
56,2.8000000000000003,-4.605143728885187,-10.512031370154673,-0.15666286657508938,-0.0755493316928296,-0.008633626164752667,-0.1121919281450999,-0.027056175413387163,-0.0006181844057313566,-0.03789457054493649,0,70,255.0,255.0,255.0
57,2.85,-4.608955098208908,-10.512464285770358,-0.162320469576541,-0.07690709165222973,-0.008692230001535762,-0.11412495953327667,-0.027254222962618348,-0.0017259690655924967,-0.03942668498213504,0,70,255.0,255.0,255.0
58,2.9000000000000004,-4.612834603090034,-10.512901516308709,-0.16807663929044805,-0.07827475398909144,-0.008806223071311917,-0.11613459664331341,-0.027452270511849532,-0.002833753725453647,-0.040958799419333614,0,70,255.0,255.0,255.0
59,2.95,-4.616782738647441,-10.513345831231373,-0.17393520600290338,-0.07965231870341469,-0.008975605374081125,-0.11822083947521005,-0.027650318061080714,-0.003941538385314787,-0.04249091385653217,0,70,255.0,255.0,255.0
60,3.0,-4.6208,-10.5138,-0.1799,-0.08103978579519949,-0.009200376909843393,-0.1203836880289666,-0.027848365610312342,-0.005049323045175955,-0.04402302829373106,0,70,255.0,255.0,255.0
61,3.0500000000000003,-4.62488655808378,-10.514265867414718,-0.18597364005368416,-0.08241770429613635,-0.009425057987243218,-0.12255045145577119,-0.02726837442716112,-0.003937920050817015,-0.04264750877845244,0,70,255.0,255.0,255.0
62,3.1,-4.629041287103628,-10.514741579629561,-0.1921538988793144,-0.0837666232379156,-0.009594168914925096,-0.12464843890681185,-0.026688383244009906,-0.002826517056458084,-0.04127198926317383,0,70,255.0,255.0,255.0
63,3.1500000000000004,-4.633262737081585,-10.515224358137047,-0.19843733767810265,-0.08508654262053733,-0.009707709692889028,-0.12667765038208859,-0.026108392060858684,-0.0017151140620991438,-0.039896469747895215,0,70,255.0,255.0,255.0
64,3.2,-4.637549458039695,-10.51571142442969,-0.20482051765126055,-0.08637746244400148,-0.00976568032113501,-0.12863808588160136,-0.025528400877707465,-0.0006037110677402134,-0.038520950232616605,0,70,255.0,255.0,255.0
65,3.25,-4.6419,-10.5162,-0.2113,-0.08763938270830807,-0.009768080799663048,-0.1305297454053502,-0.024948409694556695,0.0005076919266186614,-0.037145430717337335,0,70,255.0,255.0,255.0
66,3.3000000000000003,-4.646313238779693,-10.516688360186457,-0.21787297321017418,-0.08889185112262077,-0.009778141886272443,-0.132390266031815,-0.02515032687795138,-0.0009101353909944702,-0.037275394341254445,0,70,255.0,255.0,255.0
67,3.35,-4.650789353376582,-10.517178995711392,-0.22453913490620145,-0.09015441539610321,-0.009859094338762494,-0.13425728483947566,-0.025352244061346063,-0.002327962708607589,-0.03740535796517155,0,70,255.0,255.0,255.0
68,3.4000000000000004,-4.655328848583622,-10.517675451143099,-0.2312988099971417,-0.09142707552875538,-0.010010938157133203,-0.13613080182833218,-0.025554161244740747,-0.0037457900262207206,-0.037535321589088656,0,70,255.0,255.0,255.0
69,3.45,-4.659932229193776,-10.518181271049869,-0.23815232339205458,-0.09270983152057728,-0.010233673341384565,-0.1380108169983845,-0.02575607842813543,-0.0051636173438338396,-0.03766528521300576,0,70,255.0,255.0,255.0
70,3.5,-4.6646,-10.5187,-0.2451,-0.09400268337156893,-0.010527299891516585,-0.13989733034963273,-0.02595799561153067,-0.006581444661447014,-0.037795248836922424,0,70,255.0,255.0,255.0
71,3.5500000000000003,-4.669332486797447,-10.519234291839455,-0.2521424671056194,-0.09529489121338434,-0.010838374467684668,-0.14180848441696908,-0.02573031806108543,-0.00586153838527622,-0.03865091385653155,0,70,255.0,255.0,255.0
72,3.6,-4.674129299390047,-10.519783237524873,-0.25928156149587994,-0.09657571517767748,-0.011113453730044208,-0.14376242173528586,-0.025502640510640193,-0.005141632109105433,-0.03950657887614067,0,70,255.0,255.0,255.0
73,3.6500000000000004,-4.678989868583923,-10.520345037290562,-0.2665194223333309,-0.09784515526444836,-0.01135253767859521,-0.14575914230458314,-0.025274962960194956,-0.004421725832934639,-0.040362243895749786,0,70,255.0,255.0,255.0
74,3.7,-4.683913625185199,-10.520917891370834,-0.27385818878052126,-0.09910321147369698,-0.011555626313337673,-0.14779864612486088,-0.02504728540974972,-0.0037018195567638528,-0.041217908915358904,0,70,255.0,255.0,255.0
75,3.75,-4.6889,-10.5215,-0.2813,-0.10034988380542333,-0.011722719634271595,-0.149880933196119,-0.02481960785930426,-0.0029819132805930654,-0.0420735739349678,0,70,255.0,255.0,255.0
76,3.8000000000000003,-4.69394881403052,-10.522089672455724,-0.28884595836734867,-0.1016085840238482,-0.011860360242979815,-0.15194379630030863,-0.0255284008776904,-0.0025237110677357516,-0.040440950232616124,0,70,255.0,255.0,255.0
77,3.85,-4.699061449063233,-10.52268565418912,-0.2964930191102789,-0.10290272389319237,-0.01197509074104517,-0.15392502821938062,-0.026237193896076528,-0.0020655088548784412,-0.03880832653026447,0,70,255.0,255.0,255.0
78,3.9000000000000004,-4.704239677080687,-10.523286799694652,-0.3042371006695348,-0.10423230341345585,-0.01206691112846766,-0.15582462895333507,-0.026945986914462667,-0.0016073066420211274,-0.03717570282791279,0,70,255.0,255.0,255.0
79,3.95,-4.709485270065428,-10.52389196346679,-0.3120741214858605,-0.10559732258463864,-0.012135821405247283,-0.1576425985021719,-0.027654779932848796,-0.0011491044291638175,-0.035543079125561136,0,70,255.0,255.0,255.0
80,4.0,-4.7148,-10.5245,-0.32,-0.10699778140674072,-0.012181821571384041,-0.1593789368658912,-0.028363572951234928,-0.0006909022163065076,-0.03391045542321014,0,70,255.0,255.0,255.0
81,4.05,-4.720185057080475,-10.525110218337643,-0.328012099424986,-0.10839877269122487,-0.012232184560388628,-0.1611203303817966,-0.027676078428131294,-0.00132361734387691,-0.03574528521300597,0,70,255.0,255.0,255.0
82,4.1000000000000005,-4.725639304357021,-10.525723745718645,-0.33611356206300463,-0.10976538924955387,-0.012314183305771734,-0.1629534653871918,-0.026988583905027647,-0.0019563324714473238,-0.037580115002801825,0,70,255.0,255.0,255.0
83,4.15,-4.731161023093328,-10.526342163930826,-0.3443089749885301,-0.11109763108172765,-0.01242781780753336,-0.16487834188207678,-0.02630108938192401,-0.0025890475990177257,-0.039414944792597655,0,70,255.0,255.0,255.0
84,4.2,-4.7367484945530896,-10.526967054762004,-0.35260292527603704,-0.11239549818774626,-0.012573088065673504,-0.16689495986645156,-0.025613594858820372,-0.003221762726588128,-0.04124977458239348,0,70,255.0,255.0,255.0
85,4.25,-4.7424,-10.5276,-0.361,-0.11365899056760968,-0.012749994080192173,-0.1690033193403161,-0.024926100335716517,-0.0038544778541585445,-0.043084604372188195,0,70,255.0,255.0,255.0
86,4.3,-4.7481141576475805,-10.528242254193703,-0.3695032439327073,-0.11490832521124676,-0.012938901515465232,-0.17111088217250478,-0.025047285409766595,-0.0037018195567638528,-0.04121790891535878,0,70,255.0,255.0,255.0
87,4.3500000000000005,-4.7538909335086865,-10.528893762936299,-0.3781095326377032,-0.11616371910858636,-0.01312017603586856,-0.17312511023185198,-0.025168470483816676,-0.0035491612593691584,-0.03935121345852932,0,70,255.0,255.0,255.0
88,4.4,-4.759730630546001,-10.529554144582042,-0.38681419937634526,-0.11742517225962844,-0.013293817641402151,-0.17504600351835772,-0.025289655557866754,-0.003396502961974467,-0.037484518001699905,0,70,255.0,255.0,255.0
89,4.45,-4.765633551722211,-10.53022301748519,-0.3956125774099915,-0.11869268466437302,-0.013459826332066004,-0.17687356203202198,-0.025410840631916832,-0.0032438446645797754,-0.03561782254487049,0,70,255.0,255.0,255.0
90,4.5,-4.7716,-10.5309,-0.4045,-0.11996625632282013,-0.013618202107860125,-0.17860778577284472,-0.0255320257059668,-0.003091186367185042,-0.033751127088040844,0,70,255.0,255.0,255.0
91,4.55,-4.777630312329202,-10.531584764887546,-0.4134733248441846,-0.12124792646379019,-0.01377220937776788,-0.18034014092818476,-0.025734779932836148,-0.0030691044291252276,-0.035543079125560734,0,70,255.0,255.0,255.0
92,4.6000000000000005,-4.783724961608234,-10.532277202536163,-0.42253550738618323,-0.12253973431610377,-0.01392511255077265,-0.18216209368540082,-0.0259375341597055,-0.0030470224910654122,-0.03733503116308065,0,70,255.0,255.0,255.0
93,4.65,-4.789884454722667,-10.532977257741006,-0.4316910275060894,-0.12384167987976076,-0.014076911626874423,-0.18407364404449283,-0.026140288386574853,-0.0030249405530055977,-0.03912698320060054,0,70,255.0,255.0,255.0
94,4.7,-4.796109298558067,-10.533684875297233,-0.44094436508399704,-0.12515376315476123,-0.014227606606073208,-0.18607479200546084,-0.026343042613444202,-0.003002858614945783,-0.04091893523812043,0,70,255.0,255.0,255.0
95,4.75,-4.8024,-10.5344,-0.4503,-0.12647598414110517,-0.014377197488369,-0.18816553756830487,-0.026545796840313773,-0.0029807766768859267,-0.04271088727564032,0,70,255.0,255.0,255.0
96,4.800000000000001,-4.808756593035613,-10.535122686256118,-0.4597610566905544,-0.12777996893358398,-0.014532260973455852,-0.19026455411475574,-0.02561359485883744,-0.0032217627265881434,-0.04124977458239292,0,70,255.0,255.0,255.0
97,4.8500000000000005,-4.815177220058374,-10.535853426919054,-0.46932523781756463,-0.12903734362698893,-0.014699373761027815,-0.19229051502654418,-0.02468139287736112,-0.0034627487762903556,-0.039788661889145545,0,70,255.0,255.0,255.0
98,4.9,-4.821659550563328,-10.536592824453928,-0.4789888905992977,-0.13024810822132007,-0.014878535851084888,-0.19424342030367028,-0.0237491908958848,-0.003703734825992568,-0.03832754919589817,0,70,255.0,255.0,255.0
99,4.95,-4.828201254045521,-10.53734148132587,-0.4887483622540205,-0.13141226271657738,-0.01506974724362707,-0.19612326994613397,-0.022816988914408483,-0.00394472087569478,-0.0368664365026508,0,70,255.0,255.0,255.0
100,5.0,-4.8348,-10.5381,-0.4986,-0.1325298071127609,-0.015273007938654364,-0.1979300639539353,-0.021884786932930833,-0.0041857069253969925,-0.03540532380940231,0,70,255.0,255.0,255.0
101,5.050000000000001,-4.841454515528346,-10.53886849008798,-0.5085408483935984,-0.1336641978018818,-0.015458746728404638,-0.1997056426127922,-0.02349084063190372,-0.003243844664613852,-0.03561782254487209,0,70,255.0,255.0,255.0
102,5.1000000000000005,-4.848167758158271,-10.539645089787623,-0.518570741343559,-0.13487889117595128,-0.015597392405115753,-0.20149184620842253,-0.025096894330876578,-0.0023019824038307277,-0.03583032128034187,0,70,255.0,255.0,255.0
103,5.15,-4.854943743024023,-10.540427444443274,-0.5286902100967202,-0.13617388723496943,-0.01568894496878771,-0.20328867474082638,-0.02670294802984944,-0.001360120143047604,-0.036042820015811654,0,70,255.0,255.0,255.0
104,5.2,-4.8617864852598505,-10.541213199399285,-0.5388997858999209,-0.13754918597893623,-0.01573340441942051,-0.2050961282100037,-0.028309001728822298,-0.0004182578822644798,-0.03625531875128143,0,70,255.0,255.0,255.0
105,5.25,-4.8687,-10.542,-0.5492,-0.13900478740785163,-0.015730770757014158,-0.20691420661595447,-0.02991505542779538,0.0005236043785186717,-0.03646781748675054,0,70,255.0,255.0,255.0
106,5.300000000000001,-4.8756869448510045,-10.542786553391958,-0.5595915497350528,-0.14045923985888256,-0.015744752112924094,-0.2087528754340762,-0.02826304261344028,-0.0010828586149161385,-0.03707893523811775,0,70,255.0,255.0,255.0
107,5.3500000000000005,-4.882744547308543,-10.543575813930454,-0.5700757968082005,-0.14183109166919566,-0.01583905661850577,-0.21062210013976626,-0.02661102979908521,-0.00268932160835092,-0.03769005298948494,0,70,255.0,255.0,255.0
108,5.4,-4.889868677340579,-10.544371797772968,-0.5806542690138221,-0.14312034283879105,-0.016013684273759186,-0.21252188073302467,-0.02495901698473014,-0.0042957846017857015,-0.03830117074085213,0,70,255.0,255.0,255.0
109,5.45,-4.897055204915077,-10.54517852107699,-0.5913284941462957,-0.14432699336766866,-0.01626863507868434,-0.21445221721385146,-0.023307004170375074,-0.005902247595220483,-0.03891228849221933,0,70,255.0,255.0,255.0
110,5.5,-4.9043,-10.546,-0.6021,-0.14545104325582855,-0.01660390903328123,-0.2164131095822466,-0.021654991356020448,-0.007508710588655182,-0.03952340624358608,0,70,255.0,255.0,255.0
111,5.550000000000001,-4.9116001050676354,-10.546838896344186,-0.6129697526661916,-0.1465628427625897,-0.016938244819890723,-0.21837085565090256,-0.022816988914425157,-0.005864720875724376,-0.038786436502651025,0,70,255.0,255.0,255.0
112,5.6000000000000005,-4.918957252607558,-10.547692454490562,-0.6239364714236395,-0.14773274214727106,-0.017190381120853672,-0.2202917532325117,-0.023978986472829845,-0.0042207311627936,-0.03804946676171598,0,70,255.0,255.0,255.0
113,5.65,-4.926374347613661,-10.548556564464844,-0.6349983138479918,-0.14896074140987267,-0.01736031793617008,-0.22217580232707415,-0.025140984031234534,-0.0025767414498628237,-0.03731249702078094,0,70,255.0,255.0,255.0
114,5.7,-4.933854295079843,-10.54942711629275,-0.6461534375148962,-0.15024684055039453,-0.01744805526583995,-0.2240230029345898,-0.026302981589639222,-0.0009327517369320465,-0.03657552727984589,0,70,255.0,255.0,255.0
115,5.75,-4.9414,-10.5503,-0.6574,-0.1515910395688366,-0.01745359310986328,-0.22583335505505872,-0.02746497914804391,0.0007112379759987575,-0.03583855753891041,0,70,255.0,255.0,255.0
116,5.800000000000001,-4.949013434878452,-10.551172261231297,-0.6687366396001819,-0.15293738909075794,-0.017446268607519928,-0.22763570196231356,-0.026389001728809564,-0.0004182578822645106,-0.03625531875128201,0,70,255.0,255.0,255.0
117,5.8500000000000005,-4.956692842261226,-10.552045568107301,-0.6801639174972417,-0.1542299397417176,-0.01749541889808973,-0.22945888693018693,-0.025313024309575237,-0.0015477537405277583,-0.036672079963653605,0,70,255.0,255.0,255.0
118,5.9,-4.964435532204774,-10.552922744367656,-0.6916828755942108,-0.15546869152171547,-0.0176010439815727,-0.23130290995867892,-0.02423704689034091,-0.0026772495987910064,-0.037088841176025206,0,70,255.0,255.0,255.0
119,5.95,-4.972238814765548,-10.553806613752005,-0.7032945557941198,-0.15665364443075167,-0.01776314385796883,-0.23316777104778943,-0.023161069471106584,-0.003806745457054254,-0.0375056023883968,0,70,255.0,255.0,255.0
120,6.0,-4.9801,-10.5547,-0.715,-0.15778479846882612,-0.017981718527278128,-0.2350534701975186,-0.022085092051872257,-0.0049362413153174745,-0.037922363600768616,0,70,255.0,255.0,255.0
121,6.050000000000001,-4.988017355418556,-10.555604858730625,-0.7267996889330818,-0.15891960087438234,-0.01820468075004084,-0.23692633649984332,-0.023307004170375272,-0.003982247595190761,-0.03699228849221939,0,70,255.0,255.0,255.0
122,6.1000000000000005,-4.9959929783475365,-10.556519673080238,-0.7386918585873938,-0.16011549888586366,-0.018379943286797207,-0.23875269904674057,-0.024528916288878266,-0.003028253875064064,-0.03606221338367018,0,70,255.0,255.0,255.0
123,6.15,-5.0040299235672405,-10.55744205806454,-0.7506741837751654,-0.16137249250327013,-0.018507506137547244,-0.24053255783821031,-0.025750828407381264,-0.0020742601549373673,-0.035132138275120975,0,70,255.0,255.0,255.0
124,6.2,-5.0121312458579625,-10.558369628699225,-0.7627443393086244,-0.16269058172660178,-0.01858736930229094,-0.24226591287425264,-0.02697274052588426,-0.0011202664348106705,-0.03420206316657177,0,70,255.0,255.0,255.0
125,6.25,-5.0203,-10.5593,-0.7749,-0.16406976655585853,-0.01861953278102831,-0.24395276415486752,-0.028194652644386142,-0.00016627271468386273,-0.03327198805802234,0,70,255.0,255.0,255.0
126,6.300000000000001,-5.028537943447326,-10.560231503846204,-0.7871398046674919,-0.1654322074117092,-0.018647008392318705,-0.2456509520383142,-0.02630298158963888,-0.0009327517369319969,-0.034655527279843557,0,70,255.0,255.0,255.0
127,6.3500000000000005,-5.036841644348625,-10.561165339571751,-0.7994662481531831,-0.16670006471482243,-0.01871280795472151,-0.2474183168828519,-0.024411310534891654,-0.0016992307591801174,-0.036039066501664746,0,70,255.0,255.0,255.0
128,6.4,-5.045206373526262,-10.562103423374195,-0.8118827893051286,-0.16787333846519834,-0.018816931468236715,-0.24925485868848066,-0.022519639480144425,-0.002465709781428238,-0.037422605723485936,0,70,255.0,255.0,255.0
129,6.45,-5.053627401802599,-10.563047671451093,-0.8243928869713826,-0.16895202866283687,-0.01895937893286433,-0.2511605774552005,-0.020627968425397197,-0.0032321888036763585,-0.038806144945307125,0,70,255.0,255.0,255.0
130,6.5,-5.0621,-10.564,-0.837,-0.16993613530773805,-0.019140150348604352,-0.2531354731830114,-0.01873629737064908,-0.003998667825924479,-0.040189684167129425,0,70,255.0,255.0,255.0
131,6.550000000000001,-5.070621270792142,-10.564961925884559,-0.8497066923969518,-0.17093556947878208,-0.019335285680678823,-0.2551258553468996,-0.021241069471110964,-0.0038067454570542753,-0.03942560238839715,0,70,255.0,255.0,255.0
132,6.6000000000000005,-5.079195644257962,-10.565933368632761,-0.8625119487998744,-0.17206024225484914,-0.01952082489430978,-0.2570780334218511,-0.023745841571572807,-0.003614823088184075,-0.03866152060966489,0,70,255.0,255.0,255.0
133,6.65,-5.087829382327711,-10.566913848438682,-0.8754138590043212,-0.17331015363593932,-0.019696767989497228,-0.25899200740786604,-0.026250613672034646,-0.0034229007193138745,-0.037897438830932634,0,70,255.0,255.0,255.0
134,6.7,-5.09652874693164,-10.567902885496403,-0.8884105128058454,-0.17468530362205262,-0.019863114966241168,-0.26086777730494437,-0.028755385772496485,-0.0032309783504436743,-0.037133357052200375,0,70,255.0,255.0,255.0
135,6.75,-5.1053,-10.5689,-0.9015,-0.17618569221318897,-0.020019865824541596,-0.26270534311308613,-0.03126015787295833,-0.0030390559815734186,-0.03636927527346856,0,70,255.0,255.0,255.0
136,6.800000000000001,-5.114147373384106,-10.569904792615558,-0.9146806257447018,-0.17768951467315994,-0.020171848884951937,-0.2645176265740873,-0.028892740525879347,-0.0030402664348402387,-0.036122063166575555,0,70,255.0,255.0,255.0
137,6.8500000000000005,-5.123066978619526,-10.570917185897205,-0.9279515566473198,-0.17907496626577693,-0.02032389246802562,-0.2663175494297437,-0.026525323178800405,-0.003041476888107059,-0.03587485105968255,0,70,255.0,255.0,255.0
138,6.9,-5.132052897162894,-10.571937182871073,-0.941312174677587,-0.18034204699103998,-0.020475996573762645,-0.2681051116800555,-0.024157905831721466,-0.0030426873413738785,-0.03562763895278955,0,70,255.0,255.0,255.0
139,6.95,-5.141099210470841,-10.572964786563292,-0.9547618618052361,-0.18149075684894905,-0.020628161202163008,-0.26988031332502266,-0.021790488484642524,-0.0030438977946406986,-0.03538042684589655,0,70,255.0,255.0,255.0
140,7.0,-5.1502,-10.574,-0.9683,-0.1825210958395042,-0.020780386353226717,-0.2716431543646451,-0.01942307113756314,-0.003045108247907491,-0.035133214739002216,0,70,255.0,255.0,255.0
141,7.050000000000001,-5.159350835671433,-10.575042903653202,-0.9819260046242422,-0.18352237182857864,-0.020937318779516313,-0.2733956383567528,-0.02062796842541374,-0.0032321888036763416,-0.03496614494530563,0,70,255.0,255.0,255.0
142,7.1000000000000005,-5.168553241263931,-10.576093887778416,-0.9956394246108474,-0.18458389268204559,-0.021103605233594353,-0.2751397688591757,-0.021832865713264316,-0.0034192693594451893,-0.03479907515160905,0,70,255.0,255.0,255.0
143,7.15,-5.177810229020712,-10.577153420077025,-1.0094398422853317,-0.18570565839990508,-0.02127924571546083,-0.2768755458719137,-0.023037763001114896,-0.003606349915214037,-0.034632005357912464,0,70,255.0,255.0,255.0
144,7.2,-5.187124811184995,-10.578221968250423,-1.0233268399732105,-0.18688766898215708,-0.021464240225115755,-0.2786029693949669,-0.024242660288965472,-0.003793430470982884,-0.034464935564215884,0,70,255.0,255.0,255.0
145,7.25,-5.1965,-10.5793,-1.0373,-0.1881299244288016,-0.02165858876255912,-0.2803220394283353,-0.025447557576816937,-0.003980511026751787,-0.03429786577051752,0,70,255.0,255.0,255.0
146,7.300000000000001,-5.205938083930159,-10.580387592771629,-1.051359355758331,-0.18938899801253384,-0.021838875996988156,-0.28205981999890317,-0.02491538577247176,-0.003230978350409564,-0.03521335705219634,0,70,255.0,255.0,255.0
147,7.3500000000000005,-5.215438456324751,-10.581483262989135,-1.065506744909292,-0.1906214630060488,-0.021981686597600077,-0.28384337513355495,-0.024383213968126587,-0.0024814456740673537,-0.03612884833387514,0,70,255.0,255.0,255.0
148,7.4,-5.22499978675426,-10.582585136820825,-1.0797444561810878,-0.1918273194093465,-0.02208702056439489,-0.2856727048322907,-0.02385104216378142,-0.0017319129977251438,-0.037044339615553944,0,70,255.0,255.0,255.0
149,7.45,-5.234620744789181,-10.583691340435012,-1.0940747783019222,-0.19300656722242693,-0.022154877897372593,-0.2875478090951103,-0.02331887035943625,-0.0009823803213829334,-0.03795983089723274,0,70,255.0,255.0,255.0
150,7.5,-5.2443,-10.5848,-1.1085,-0.1941592064452901,-0.022185258596533183,-0.2894686879220139,-0.022786698555091522,-0.00023284764504077904,-0.038875322178910654,0,70,255.0,255.0,255.0
151,7.550000000000001,-5.25403682860793,-10.585909925260278,-1.1230213723424358,-0.19532163612128337,-0.022219177232526185,-0.2913730816476341,-0.023710488484637894,-0.0011238977946793087,-0.03730042684589552,0,70,255.0,255.0,255.0
152,7.6000000000000005,-5.26383293343707,-10.587022660265044,-1.1376359957519862,-0.19653025529375392,-0.022297648376001112,-0.29319873060660345,-0.024634278414184252,-0.0020149479443178223,-0.03572553151288041,0,70,255.0,255.0,255.0
153,7.65,-5.2736906239622465,-10.58814043263967,-1.1523399329903186,-0.1977850639627018,-0.02242067202695797,-0.2949456347989221,-0.025558068343730606,-0.0029059980939563365,-0.0341506361798653,0,70,255.0,255.0,255.0
154,7.7,-5.283612209658282,-10.589265470009533,-1.1671292468191008,-0.199086062128127,-0.02258824818539675,-0.29661379422459,-0.02648185827327696,-0.0037970482435948504,-0.03257574084685019,0,70,255.0,255.0,255.0
155,7.75,-5.2936,-10.5904,-1.182,-0.20043324979002947,-0.02280037685131745,-0.29820320888360713,-0.02740564820282243,-0.004688098393233309,-0.031000845513834197,0,70,255.0,255.0,255.0
156,7.800000000000001,-5.303655401638124,-10.591545506187257,-1.1969495548719271,-0.20177245750232492,-0.023012415072922007,-0.29979185341055853,-0.026162660288994992,-0.003793430470948754,-0.032544935564221625,0,70,255.0,255.0,255.0
157,7.8500000000000005,-5.313776209926971,-10.592700495950693,-1.2119804720827647,-0.203049515818929,-0.02317971989841233,-0.30145770244002934,-0.024919672375167578,-0.002898762548664215,-0.03408902561460902,0,70,255.0,255.0,255.0
158,7.9,-5.323959317396755,-10.593862732620497,-1.2270966118576385,-0.20426442473984166,-0.023302291327788424,-0.30320075597201945,-0.02367668446134016,-0.0020040946263796757,-0.03563311566499642,0,70,255.0,255.0,255.0
159,7.95,-5.334201616577693,-10.595029979526869,-1.242301834421675,-0.205417184265063,-0.023380129361050297,-0.3050210140065289,-0.022433696547512746,-0.001109426704095137,-0.03717720571538381,0,70,255.0,255.0,255.0
160,8.0,-5.3445,-10.5962,-1.2576,-0.2065077943945929,-0.023413233998197936,-0.3069184765435578,-0.02119070863368555,-0.00021475878181051455,-0.038721295765770325,0,70,255.0,255.0,255.0
161,8.05,-5.354851964839575,-10.597371249990694,-1.2729940081698568,-0.20757253386942068,-0.02344316247577777,-0.3088355047101328,-0.02139887035942425,-0.0009823803213829638,-0.03795983089722793,0,70,255.0,255.0,255.0
162,8.1,-5.365257426855047,-10.598544955932194,-1.288482915916956,-0.20864768143053533,-0.023511472030336232,-0.3107144596332806,-0.021607032085162944,-0.001750001860955386,-0.037198366028685564,0,70,255.0,255.0,255.0
163,8.15,-5.375716906450733,-10.599723036878345,-1.3040648195791278,-0.20973323707793695,-0.02361816266187331,-0.31255534131300133,-0.021815193810901648,-0.0025176234005278354,-0.03643690116014317,0,70,255.0,255.0,255.0
164,8.200000000000001,-5.386230924030945,-10.600907411882998,-1.3197378154941997,-0.21082920081162554,-0.02376323437038902,-0.314358149749295,-0.022023355536640348,-0.0032852449401002846,-0.035675436291600776,0,70,255.0,255.0,255.0
165,8.25,-5.3968,-10.6021,-1.3355,-0.211935572631601,-0.023946687155883342,-0.3161228849421614,-0.02223151726238015,-0.00405286647967279,-0.03491397142305841,0,70,255.0,255.0,255.0
166,8.3,-5.407424739003579,-10.603302293849962,-1.351349612448647,-0.21305740701999226,-0.024142935023965886,-0.3178581277489091,-0.022641858273268773,-0.0037970482436289607,-0.0344957408468498,0,70,255.0,255.0,255.0
167,8.35,-5.418106082652841,-10.604514080320534,-1.3672854642494106,-0.21419975845892789,-0.024326391980246238,-0.3195724590268464,-0.02305219928415738,-0.0035412300075851407,-0.03407751027064121,0,70,255.0,255.0,255.0
168,8.4,-5.428845056800315,-10.605734719866122,-1.3833065098258512,-0.21536262694840796,-0.0244970580247244,-0.32126587877597323,-0.023462540295046,-0.0032854117715413115,-0.03365927969443261,0,70,255.0,255.0,255.0
169,8.450000000000001,-5.439642687298526,-10.606963572941142,-1.3994117036015281,-0.2165460124884325,-0.024654933157400374,-0.3229383869962897,-0.02387288130593462,-0.0030295935354974824,-0.033241049118224,0,70,255.0,255.0,255.0
170,8.5,-5.4505,-10.6082,-1.4156,-0.2177499150790014,-0.02480001737827415,-0.3245899836877957,-0.024283222316821673,-0.0027737752994535514,-0.03282281854201585,0,70,255.0,255.0,255.0
171,8.55,-5.461417879146109,-10.609443574609458,-1.4318707420355565,-0.2189658380506101,-0.0249450974283619,-0.3262439842942308,-0.024353696547524572,-0.003029426704056452,-0.033337205715388056,0,70,255.0,255.0,255.0
172,8.6,-5.472396642533587,-10.610694722785674,-1.4482248270854008,-0.22018528473375384,-0.025102960048679793,-0.3279237042593345,-0.02442417077822747,-0.003285078108659343,-0.033851592888760246,0,70,255.0,255.0,255.0
173,8.65,-5.48343646634801,-10.611954083657162,-1.4646635411174675,-0.22140825512843282,-0.025273605239227837,-0.3296291435831068,-0.024494645008930373,-0.0035407295132622437,-0.034365980062132456,0,70,255.0,255.0,255.0
174,8.700000000000001,-5.494537526774956,-10.613222296352433,-1.4811881700996896,-0.22263474923464693,-0.025457033000006023,-0.33136030226554775,-0.02456511923963327,-0.0037963809178651444,-0.03488036723550466,0,70,255.0,255.0,255.0
175,8.75,-5.5057,-10.6145,-1.4978,-0.22386476705239616,-0.025653243331014347,-0.3331171803066572,-0.02463559347033728,-0.00405203232246798,-0.03539475440887552,0,70,255.0,255.0,255.0
176,8.8,-5.516923744411986,-10.615787407712212,-1.5145002194091286,-0.22507924077757052,-0.02583667526257941,-0.33489393507416904,-0.023943355536637057,-0.003285244940134413,-0.035675436291596176,0,70,255.0,255.0,255.0
177,8.85,-5.528207347212812,-10.617083028536772,-1.5312896274089858,-0.22625910260605986,-0.02598176782502779,-0.33668472393581683,-0.02325111760293686,-0.002518457557800874,-0.03595611817431683,0,70,255.0,255.0,255.0
178,8.9,-5.539549077807647,-10.618384945505229,-1.548168925704279,-0.22740435253786423,-0.026088521018359494,-0.33848954689160066,-0.02255887966923664,-0.0017516701754673072,-0.03623680005703749,0,70,255.0,255.0,255.0
179,8.950000000000001,-5.550947205601654,-10.619691241649123,-1.5651388159997153,-0.22851499057298355,-0.02615693484257452,-0.3403084039415206,-0.021866641735536416,-0.0009848827931337404,-0.03651748193975815,0,70,255.0,255.0,255.0
180,9.0,-5.5624,-10.621,-1.5822,-0.22959101671141785,-0.02618700929767287,-0.3421412950855765,-0.02117440380183533,-0.0002180954108002564,-0.03679816382247969,0,70,255.0,255.0,255.0
181,9.05,-5.573906343205951,-10.6223099945417,-1.5993523803279306,-0.23066919883911177,-0.026220201521329572,-0.3439402754090941,-0.021952881305920713,-0.001109593535467858,-0.03516104911822484,0,70,255.0,255.0,255.0
182,9.1,-5.585467568615165,-10.623622763067239,-1.6165926632786558,-0.2317863048420099,-0.026297968651219653,-0.345657399997399,-0.02273135881000607,-0.002001091660135428,-0.033523934413970044,0,70,255.0,255.0,255.0
183,9.15,-5.597085622421404,-10.624940534321924,-1.6339167560654166,-0.23294233472011236,-0.026420310687343115,-0.34729266885049115,-0.023509836314091453,-0.00289258978480303,-0.0318868197097152,0,70,255.0,255.0,255.0
184,9.200000000000001,-5.60876245081843,-10.626265537051076,-1.6513205659014518,-0.2341372884734191,-0.02658722762969996,-0.3488460819683705,-0.024288313818176838,-0.0037840879094706314,-0.030249705005460346,0,70,255.0,255.0,255.0
185,9.25,-5.6205,-10.6276,-1.6688,-0.23537116610193,-0.026798719478290177,-0.35031763935103716,-0.025066791322261528,-0.004675586034138313,-0.028612590301205554,0,70,255.0,255.0,255.0
186,9.3,-5.632299682764215,-10.628945414120992,-1.6863526592791511,-0.23661196386597785,-0.027010518652090268,-0.35180896328945493,-0.024565119239650938,-0.0037963809178651374,-0.03104036723550413,0,70,255.0,255.0,255.0
187,9.35,-5.644160778326529,-10.630300319194278,-1.7039829194763907,-0.23782767802589508,-0.02717835757007669,-0.3534216760745875,-0.024063447157040365,-0.002917175801591993,-0.03346814416980262,0,70,255.0,255.0,255.0
188,9.4,-5.656082032506736,-10.631662517207069,-1.721696850034055,-0.23901830858168188,-0.027302236232249463,-0.3551557777064352,-0.02356177507442978,-0.002037970685318818,-0.0358959211041012,0,70,255.0,255.0,255.0
189,9.450000000000001,-5.668062191124629,-10.633029810146574,-1.7395005203944798,-0.24018385553333813,-0.027382154638608578,-0.35701126818499773,-0.02306010299181919,-0.0011587655690456422,-0.03832369803839977,0,70,255.0,255.0,255.0
190,9.5,-5.6801,-10.6344,-1.7574,-0.24132431888086375,-0.02741811278915403,-0.35898814751027514,-0.02255843090920706,-0.0002795604527725537,-0.04075147497269649,0,70,255.0,255.0,255.0
191,9.55,-5.692194125737191,-10.635771548974333,-1.7753993825554661,-0.24243494569698235,-0.02744972387030254,-0.3609678714330865,-0.021866641735535708,-0.000984882793167895,-0.038437481939757545,0,70,255.0,255.0,255.0
192,9.600000000000001,-5.704342918078721,-10.637145560155645,-1.7934948588157817,-0.24351098305441737,-0.02751660106847082,-0.36283189570425095,-0.021174852561864358,-0.0016902051335632362,-0.0361234889068186,0,70,255.0,255.0,255.0
193,9.65,-5.716544647551655,-10.638523796849796,-1.811680643798364,-0.24455243095316878,-0.02761874438365886,-0.3645802203237684,-0.02048306338819303,-0.0023955274739585527,-0.03380949587387974,0,70,255.0,255.0,255.0
194,9.700000000000001,-5.728797584683059,-10.63990802236263,-1.8299509525206312,-0.24555928939323665,-0.027756153815866675,-0.3662128452916389,-0.019791274214521676,-0.003100849814353894,-0.0314955028409408,0,70,255.0,255.0,255.0
195,9.75,-5.7411,-10.6413,-1.8483,-0.24653155837462093,-0.027928829365094252,-0.36772977060786244,-0.01909948504085035,-0.0038061721547491822,-0.029181509807999273,0,70,255.0,255.0,255.0
196,9.8,-5.753451014287023,-10.64270118998168,-1.8667234104989858,-0.24752025334609598,-0.028118585866699748,-0.3692155509781989,-0.020448313818151594,-0.003784087909470618,-0.030249705005459687,0,70,255.0,255.0,255.0
197,9.850000000000001,-5.765853149358591,-10.64411184018313,-1.8852224452604849,-0.24857638975643612,-0.028307238156041317,-0.37075474110840845,-0.02179714259545284,-0.0037620036641920532,-0.0313179002029201,0,70,255.0,255.0,255.0
198,9.9,-5.778309777286648,-10.645531895393745,-1.903799774772491,-0.24969996760564128,-0.028494786233118956,-0.3723473409984909,-0.023145971372754037,-0.00373991941891349,-0.032386095400380475,0,70,255.0,255.0,255.0
199,9.950000000000001,-5.790824270143137,-10.646961300402905,-1.9224580695229985,-0.25089098689371153,-0.028681230097932667,-0.3739933506484465,-0.02449480015005528,-0.003717835173634925,-0.033454290597840886,0,70,255.0,255.0,255.0
200,10.0,-5.8034,-10.6484,-1.9412,-0.2521494476206468,-0.028866569750482445,-0.37569277005827495,-0.025843628927356033,-0.003695750928356306,-0.03452248579529904,0,70,255.0,255.0,255.0
201,10.05,-5.816039417114718,-10.649847691098952,-1.9600277754485929,-0.2534200409186269,-0.029035932662916535,-0.37741792465411744,-0.024980102991847886,-0.0030787655690070774,-0.034483698038399346,0,70,255.0,255.0,255.0
202,10.100000000000001,-5.828741284486917,-10.651303079111827,-1.9789417601422816,-0.25464745791983157,-0.029174446307383157,-0.37914113986211495,-0.024116577056339735,-0.002461780209657848,-0.03444491028149965,0,70,255.0,255.0,255.0
203,10.15,-5.841503443301756,-10.652764621575225,-1.9979418571116734,-0.25583169862426086,-0.02928211068388232,-0.38086241568226736,-0.02325305112083162,-0.0018447948503086409,-0.03440612252459996,0,70,255.0,255.0,255.0
204,10.200000000000001,-5.854323734744396,-10.654230776025747,-2.017027969387377,-0.25697276303191474,-0.029358925792414017,-0.3825817521145749,-0.022389525185323472,-0.0012278094909594119,-0.034367334767700264,0,70,255.0,255.0,255.0
205,10.25,-5.8672,-10.6557,-2.0362,-0.25807065114279315,-0.029404891632978263,-0.3842991491590374,-0.02152599924981491,-0.0006108241316103435,-0.03432854701080057,0,70,255.0,255.0,255.0
206,10.3,-5.880130517254106,-10.657171245622514,-2.0554574877066454,-0.2591515829794015,-0.029449683481627482,-0.38599275040533104,-0.0217112742145174,-0.001180849814358417,-0.033415502840944265,0,70,255.0,255.0,255.0
207,10.350000000000001,-5.893115312693745,-10.658645443369563,-2.074798514170392,-0.2602417785642449,-0.029522976614414106,-0.3876406994431319,-0.021896549179219887,-0.0017508754971064906,-0.03250245867108796,0,70,255.0,255.0,255.0
208,10.4,-5.906154849506333,-10.660124018305359,-2.0942207967808164,-0.2613412378973235,-0.02962477103133813,-0.3892429962724398,-0.02208182414392237,-0.002320901179854544,-0.031589414501231684,0,70,255.0,255.0,255.0
209,10.450000000000001,-5.919249590879281,-10.6616083954941,-2.1137220529274945,-0.26244996097863715,-0.02975506673239956,-0.39079964089325503,-0.022267099108624858,-0.002890926862602617,-0.030676370331375383,0,70,255.0,255.0,255.0
210,10.5,-5.9324,-10.6631,-2.1333,-0.2635679478081859,-0.029913863717598393,-0.3923106333055774,-0.02245237407332512,-0.003460952545350643,-0.029763326161518666,0,70,255.0,255.0,255.0
211,10.55,-5.945606513868866,-10.664600126410992,-2.1529534737248297,-0.26469362716376965,-0.030093333410573887,-0.3938430737245613,-0.02257480015002491,-0.0037178351736689578,-0.03153429059783524,0,70,255.0,255.0,255.0
212,10.600000000000001,-5.958869464738108,-10.666109547409913,-2.1726857831761537,-0.2658254278231884,-0.030285647234965293,-0.395464062365361,-0.022697226226724702,-0.003974717801987273,-0.03330525503415181,0,70,255.0,255.0,255.0
213,10.65,-5.972189158672916,-10.667628905203344,-2.1925013557650623,-0.2669633497864421,-0.03049080519077261,-0.3971735992279764,-0.022819652303424486,-0.004231600430305578,-0.035076219470468316,0,70,255.0,255.0,255.0
214,10.700000000000001,-5.985565901738483,-10.669158841997849,-2.212404618902648,-0.2681073930535308,-0.03070880727799585,-0.3989716843124078,-0.022942078380124277,-0.004488483058623894,-0.03684718390678489,0,70,255.0,255.0,255.0
215,10.75,-5.999,-10.6707,-2.2324,-0.2692575576244545,-0.030939653496635,-0.4008583176186549,-0.023064504456823176,-0.004745365686942116,-0.03861814834310051,0,70,255.0,255.0,255.0
216,10.8,-6.01249142727043,-10.672252248733527,-2.252490217394039,-0.27039390836550903,-0.03113698287608158,-0.4027309546964248,-0.02238952518535723,-0.0031478094909208497,-0.03628733476769123,0,70,255.0,255.0,255.0
217,10.850000000000001,-6.026038828353825,-10.673812366990777,-2.272671153124997,-0.27149651014299025,-0.03125443444572709,-0.4044870510954241,-0.021714545913891284,-0.0015502532948995832,-0.033956521192281944,0,70,255.0,255.0,255.0
218,10.9,-6.039640515802003,-10.675376360881268,-2.292936980158935,-0.2725653629568982,-0.03129200820557154,-0.40612660681565294,-0.021039566642425362,4.7302901121626904e-05,-0.031625707616872736,0,70,255.0,255.0,255.0
219,10.950000000000001,-6.053294802166787,-10.676940236514506,-2.313281871461916,-0.2736004668072328,-0.031249704155614927,-0.4076496218571114,-0.020364587370959416,0.001644859097142893,-0.029294894041463453,0,70,255.0,255.0,255.0
220,11.0,-6.067,-10.6785,-2.3337,-0.2746018216939941,-0.03112752229585725,-0.40905609621979927,-0.019689608099491718,0.003242415293164186,-0.026964080466053364,0,70,255.0,255.0,255.0
221,11.05,-6.080754977049411,-10.680053278654908,-2.3541872566990167,-0.2756027393741971,-0.031022735085093435,-0.41044910748973534,-0.020347099108627652,0.000949073137388407,-0.02875637033138834,0,70,255.0,255.0,255.0
222,11.100000000000001,-6.094560821846595,-10.681604184626972,-2.3747464043238615,-0.2766365316048569,-0.031032614982118407,-0.41193173325293814,-0.021004590117763584,-0.0013442690183873719,-0.030548660196723317,0,70,255.0,255.0,255.0
223,11.15,-6.108419178119072,-10.683158451271582,-2.395381923599198,-0.27770319838597346,-0.031157161986932164,-0.41350397350940765,-0.021662081126899494,-0.0036376111741630683,-0.03234095006205823,0,70,255.0,255.0,255.0
224,11.200000000000001,-6.1223316895943665,-10.68472181194413,-2.4160982952496903,-0.2788027397175468,-0.03139637609953472,-0.41516582825914394,-0.02231957213603543,-0.005930953329938848,-0.03413323992739321,0,70,255.0,255.0,255.0
225,11.25,-6.1363,-10.6863,-2.4369,-0.27993515559957693,-0.03175025731992605,-0.41691729750214696,-0.02297706314516912,-0.008224295485714461,-0.03592552979272545,0,70,255.0,255.0,255.0
226,11.3,-6.1503254645319245,-10.687897036646842,-2.457790355809896,-0.2810831341377084,-0.03211607678353525,-0.41868861534463464,-0.022942078380089548,-0.006408483058653444,-0.03492718390677954,0,70,255.0,255.0,255.0
227,11.350000000000001,-6.1644082842598005,-10.689510094501331,-2.4787680295795593,-0.2822293634375859,-0.0323911056257914,-0.42041001589282495,-0.022907093615009977,-0.004592670631592426,-0.033928838020833636,0,70,255.0,255.0,255.0
228,11.4,-6.178548371721713,-10.691134634032398,-2.499830525444273,-0.2833738434992094,-0.03257534384669449,-0.42208149914671794,-0.022872108849930406,-0.0027768582045314717,-0.03293049213488776,0,70,255.0,255.0,255.0
229,11.450000000000001,-6.19274563945575,-10.692766115708976,-2.5209753475393257,-0.28451657432257893,-0.032668791446244544,-0.42370306510631367,-0.022837124084850835,-0.0009610457774704541,-0.03193214624894185,0,70,255.0,255.0,255.0
230,11.5,-6.207,-10.6944,-2.5422,-0.2856575559076945,-0.03267144842444154,-0.4252747137716121,-0.022802139319770376,0.0008547666495904993,-0.030933800362993757,0,70,255.0,255.0,255.0
231,11.55,-6.221311164822889,-10.696032974757722,-2.5635025200614003,-0.286784724074963,-0.0326569577807731,-0.42682843113172364,-0.02228458737097138,-0.0002751409028526491,-0.031214894041467114,0,70,255.0,255.0,255.0
232,11.600000000000001,-6.235678041114206,-10.697666637367705,-2.584883077357905,-0.2878860146447917,-0.03269896251472681,-0.4283962031757589,-0.021767035422172384,-0.0014050484552957975,-0.03149598771994047,0,70,255.0,255.0,255.0
233,11.65,-6.250099334994077,-10.699303812598822,-2.606342374623708,-0.2889614276171803,-0.03279746262630267,-0.42997802990371764,-0.021249483473373406,-0.002534956007738906,-0.03177708139841382,0,70,255.0,255.0,255.0
234,11.700000000000001,-6.264573752582633,-10.700947325219962,-2.6278811145930083,-0.290010962992129,-0.032952458115500696,-0.4315739113156002,-0.02073193152457441,-0.0036648635601820544,-0.03205817507688718,0,70,255.0,255.0,255.0
235,11.75,-6.2791,-10.7026,-2.6495,-0.2910346207696377,-0.033163948982320876,-0.4331838474114064,-0.020214379575774544,-0.004794771112625051,-0.03233926875536186,0,70,255.0,255.0,255.0
236,11.8,-6.293677076176519,-10.704263864322265,-2.6711995639445036,-0.29204996956243345,-0.03338409209338423,-0.4347976601284752,-0.020399572136055612,-0.004010953329909095,-0.03221323992738876,0,70,255.0,255.0,255.0
237,11.850000000000001,-6.308305151283377,-10.705937756027852,-2.6929796609888252,-0.29307457798324327,-0.03356504431531179,-0.43640517140414536,-0.02058476469633668,-0.0032271355471931384,-0.032087211099415654,0,70,255.0,255.0,255.0
238,11.9,-6.322984688301976,-10.70761971557231,-2.7148399760608943,-0.29410844603206715,-0.03370680564810354,-0.43800638123841673,-0.020769957256617746,-0.00244331776447721,-0.031961182271442554,0,70,255.0,255.0,255.0
239,11.950000000000001,-6.337716150213717,-10.709307783411177,-2.7367801940886434,-0.2951515737089051,-0.03380937609175951,-0.4396012896312896,-0.020955149816898815,-0.001659499981761253,-0.031835153443469454,0,70,255.0,255.0,255.0
240,12.0,-6.3525,-10.711,-2.7588,-0.29620396101375696,-0.03387275564627967,-0.4411898965827637,-0.021140342377177657,-0.0008756821990453245,-0.03170912461549724,0,70,255.0,255.0,255.0
241,12.05,-6.367336530471037,-10.71269476795322,-2.7808992241605885,-0.29725539767530734,-0.03391867384569257,-0.44278092835437444,-0.020917124084837455,-0.0009610457774705162,-0.031932146248932286,0,70,255.0,255.0,255.0
242,12.100000000000001,-6.382225353752287,-10.714391938520885,-2.8030782786867996,-0.2982956734222407,-0.033968860224026724,-0.44438311120765694,-0.02069390579249725,-0.001046409355895708,-0.03215516788236732,0,70,255.0,255.0,255.0
243,12.15,-6.397165911798018,-10.716091725111939,-2.8253377211327155,-0.29932478825455705,-0.034023314781282135,-0.44599644514261116,-0.020470687500157056,-0.0011317729343208965,-0.03237818951580236,0,70,255.0,255.0,255.0
244,12.200000000000001,-6.412157646562499,-10.717794341135328,-2.847678109052421,-0.3003427421722564,-0.034082037517458814,-0.4476209301592372,-0.020247469207816855,-0.0012171365127460884,-0.0326012111492374,0,70,255.0,255.0,255.0
245,12.25,-6.4272,-10.7195,-2.8701,-0.30134953517533875,-0.03414502843255675,-0.4492565662575349,-0.02002425091547666,-0.001302500091171166,-0.03282423278267066,0,70,255.0,255.0,255.0
246,12.3,-6.442292801939331,-10.721209063864855,-2.892603539413144,-0.3023684397363396,-0.034221212523840694,-0.4508786264540243,-0.020731931524557465,-0.0017448635601864221,-0.03205817507690413,0,70,255.0,255.0,255.0
247,12.350000000000001,-6.457437433707476,-10.722922489888608,-2.9151872242639816,-0.3034227283277945,-0.03431951478857539,-0.45246238376522535,-0.021439612133638274,-0.0021872270292016783,-0.031292117371137594,0,70,255.0,255.0,255.0
248,12.4,-6.472635664505952,-10.724641383979938,-2.9378491394082453,-0.30451240094970344,-0.03443993522676086,-0.45400783819113805,-0.022147292742719055,-0.0026295904982169193,-0.030526059665371093,0,70,255.0,255.0,255.0
249,12.450000000000001,-6.487889263536287,-10.726366852047507,-2.9605873697016736,-0.30563745760206645,-0.03458247383839709,-0.45551498973176247,-0.02285497335179986,-0.0030719539672321755,-0.02976000195960456,0,70,255.0,255.0,255.0
250,12.5,-6.5032,-10.7281,-2.9834,-0.3067978982848834,-0.034747130623484064,-0.4569838383870985,-0.02356265396088153,-0.0035143174362470275,-0.028993944253837167,0,70,255.0,255.0,255.0
251,12.55,-6.518569061771634,-10.729841776587364,-3.0062858181868353,-0.3079588433793282,-0.03492447605893501,-0.45845656582953087,-0.022875149816910578,-0.003579499981790802,-0.029915153443457247,0,70,255.0,255.0,255.0
252,12.600000000000001,-6.533995311417813,-10.73159250192468,-3.0292464242572783,-0.3090854132665745,-0.03510508062166315,-0.45997535373144427,-0.02218764567293963,-0.003644682527334577,-0.030836362633077322,0,70,255.0,255.0,255.0
253,12.65,-6.549477030178173,-10.733352338968317,-3.0522841212343037,-0.3101776079466222,-0.035288944311668465,-0.4615402020928386,-0.021500141528968703,-0.0037098650728783493,-0.03175757182269737,0,70,255.0,255.0,255.0
254,12.700000000000001,-6.565012499292354,-10.735121450674637,-3.075401212140887,-0.31123542741947136,-0.03547606712895099,-0.46315111091371397,-0.020812637384997754,-0.003775047618422124,-0.03267878101231744,0,70,255.0,255.0,255.0
255,12.75,-6.5806,-10.7369,-3.0986,-0.31225887168512195,-0.03566644907351067,-0.4648080801940703,-0.020125133241027715,-0.003840230163965619,-0.03359999020193927,0,70,255.0,255.0,255.0
256,12.8,-6.596238150974127,-10.738687829785693,-3.1218819878395174,-0.3132681867463435,-0.035840883240428355,-0.46646311022785003,-0.02024746920783409,-0.003137136512741557,-0.032601211149246086,0,70,255.0,255.0,255.0
257,12.850000000000001,-6.611926920621273,-10.740483502412669,-3.1452454787069084,-0.31428361860590537,-0.03598016272478483,-0.46806820130899496,-0.02036980517464047,-0.0024340428615174958,-0.031602432096552904,0,70,255.0,255.0,255.0
258,12.9,-6.627666614781355,-10.742285260146794,-3.168687975654539,-0.3153051672638076,-0.036084287526580106,-0.4696233534375053,-0.020492141141446842,-0.0017309492102934592,-0.03060365304385976,0,70,255.0,255.0,255.0
259,12.950000000000001,-6.6434575392942925,-10.744091345253949,-3.192206981734781,-0.3163328327200501,-0.03615325764581418,-0.47112856661338093,-0.020614477108253218,-0.0010278555590693978,-0.029604873991166583,0,70,255.0,255.0,255.0
260,13.0,-6.6593,-10.7459,-3.2158,-0.3173666149746329,-0.03618707308248704,-0.4725838408366219,-0.020736813075058258,-0.00032476190784519465,-0.028606094938472548,0,70,255.0,255.0,255.0
261,13.05,-6.675194334331858,-10.747710104269867,-3.239465430455097,-0.31840840963530403,-0.03622399097936323,-0.47404299325907384,-0.020934973351786648,-0.00115195396720238,-0.029760001959603526,0,70,255.0,255.0,255.0
262,13.100000000000001,-6.691141006097094,-10.749523088424652,-3.2632052609150928,-0.3194601123098116,-0.03630226847920728,-0.4755598410325823,-0.021133133628515037,-0.0019791460265595655,-0.030913908980734504,0,70,255.0,255.0,255.0
263,13.15,-6.707140510696402,-10.751341020444505,-3.2870223761475392,-0.32052172299815557,-0.03642190558201919,-0.47713438415714726,-0.021331293905243423,-0.002806338085916721,-0.032067816001865444,0,70,255.0,255.0,255.0
264,13.200000000000001,-6.723193343530474,-10.753165968309572,-3.3109196609199913,-0.321593241700336,-0.03658290228779895,-0.47876662263276887,-0.021529454181971813,-0.0036335301452739065,-0.03322172302299642,0,70,255.0,255.0,255.0
265,13.25,-6.7393,-10.755,-3.3349,-0.3226746684163527,-0.03678525859654657,-0.48045655645944696,-0.02172761445870064,-0.004460722204631173,-0.0343756300441278,0,70,255.0,255.0,255.0
266,13.3,-6.755460511698445,-10.75684455313484,-3.3589650903400985,-0.32373817471244476,-0.036991152842122905,-0.4821329167358577,-0.020812637384981767,-0.0037750476184220463,-0.03267878101230115,0,70,255.0,255.0,255.0
267,13.350000000000001,-6.77167305499035,-10.758698543888725,-3.3831118776327265,-0.3247559321548509,-0.037162763358388785,-0.48372443456067715,-0.019897660311262895,-0.0030893730322129193,-0.030981931980474494,0,70,255.0,255.0,255.0
268,13.4,-6.787935342433034,-10.760560258075191,-3.407336119755306,-0.32572794074357103,-0.037300090145344196,-0.4852311099339051,-0.018982683237544054,-0.0024036984460038165,-0.0292850829486479,0,70,255.0,255.0,255.0
269,13.450000000000001,-6.804245086583813,-10.76242798150777,-3.4316335745852573,-0.32665420047860527,-0.03740313320298916,-0.4866529428555419,-0.018067706163825185,-0.0017180238597946894,-0.027588233916821244,0,70,255.0,255.0,255.0
270,13.5,-6.8206,-10.7643,-3.456,-0.3275347113599535,-0.03747189253132367,-0.48798993332558727,-0.01715272909010679,-0.001032349273585531,-0.025891384884991986,0,70,255.0,255.0,255.0
271,13.55,-6.836998818874368,-10.766174883190777,-3.4804326081845134,-0.32843089151491306,-0.03752339765214004,-0.48932933979749155,-0.018694477108274855,-0.001027855559069235,-0.02768487399117812,0,70,255.0,255.0,255.0
272,13.600000000000001,-6.853444373941506,-10.768052336020451,-3.5049344285540047,-0.32940415907078097,-0.03757467808723059,-0.4907584207247051,-0.02023622512644292,-0.001023361844552939,-0.029478363097364253,0,70,255.0,255.0,255.0
273,13.65,-6.869940519571461,-10.76993234725474,-3.529509944831239,-0.3304545140275573,-0.037625733836595336,-0.492277176107228,-0.02177797314461093,-0.0010188681300366432,-0.031271852203550325,0,70,255.0,255.0,255.0
274,13.700000000000001,-6.886491110134277,-10.77181490565935,-3.554163640738983,-0.33158195638524207,-0.037676564900234265,-0.49388560594506015,-0.023319721162778993,-0.001014374415520347,-0.03306534130973646,0,70,255.0,255.0,255.0
275,13.75,-6.9031,-10.7737,-3.5789,-0.3327864861438352,-0.03772717127814737,-0.4955837102382016,-0.024861469180947893,-0.001009880701003829,-0.03485883041592075,0,70,255.0,255.0,255.0
276,13.8,-6.919769812804086,-10.775587914102053,-3.60372207692185,-0.3339942592279081,-0.037795256549305274,-0.49728572407417476,-0.02344945418196749,-0.0017135301453124463,-0.03322172302300517,0,70,255.0,255.0,255.0
277,13.850000000000001,-6.936498249243625,-10.777480112029467,-3.628627208151257,-0.335131431562032,-0.03789852429267862,-0.49890588254050217,-0.02203743918298709,-0.0024171795896210635,-0.03158461563008958,0,70,255.0,255.0,255.0
278,13.9,-6.953281779281123,-10.779378352905857,-3.653611300919739,-0.3361980031462068,-0.03803697450826739,-0.5004441856371837,-0.020625424184006737,-0.003120829033929656,-0.02994750823717406,0,70,255.0,255.0,255.0
279,13.950000000000001,-6.97011687287908,-10.781284395854831,-3.6786702624588146,-0.33719397398043266,-0.03821060719607158,-0.5019006333642195,-0.019213409185026335,-0.003824478478238273,-0.028310400844258475,0,70,255.0,255.0,255.0
280,14.0,-6.987,-10.7832,-3.7038,-0.33811934406470945,-0.03841942235609121,-0.5032752257216095,-0.01780139418604687,-0.004528127922546754,-0.026673293451340285,0,70,255.0,255.0,255.0
281,14.05,-7.003928329909293,-10.785126260401016,-3.7289974841280893,-0.3390160715734558,-0.03862357615064878,-0.5046317639058131,-0.018067706163808244,-0.0036380238597561215,-0.027588233916802464,0,70,255.0,255.0,255.0
282,14.100000000000001,-7.020901829083995,-10.78706161586168,-3.7542639388409706,-0.3399261146810903,-0.03878322474206682,-0.5060340491132898,-0.018334018141569614,-0.002747919796965489,-0.028503174382264643,0,70,255.0,255.0,255.0
283,14.15,-7.037921163304049,-10.789003841121836,-3.779601651489806,-0.3408494733876128,-0.03889836813034533,-0.5074820813440396,-0.018600330119330977,-0.0018578157341748885,-0.02941811484772679,0,70,255.0,255.0,255.0
284,14.200000000000001,-7.0549869983494045,-10.79095071092133,-3.805012909425762,-0.3417861476930234,-0.03896900631548431,-0.5089758605980624,-0.01886664209709235,-0.0009677116713842559,-0.03033305531318897,0,70,255.0,255.0,255.0
285,14.25,-7.0721,-10.7929,-3.8305,-0.342736137597322,-0.03899513929748376,-0.5105153868753584,-0.019132954074854602,-7.760760859354399e-05,-0.031247995778648452,0,70,255.0,255.0,255.0
286,14.3,-7.089260867558747,-10.794850244293889,-3.856064786565796,-0.34370145447826356,-0.03902243884808661,-0.5120752203025681,-0.0194797211628055,-0.0010143744155202495,-0.03114534130974018,0,70,255.0,255.0,255.0
287,14.350000000000001,-7.1064704344204,-10.796803024523815,-3.8817074364848665,-0.3446841097136026,-0.039096576739035785,-0.5136299210063324,-0.0198264882507564,-0.001951141222446955,-0.03104268684083191,0,70,255.0,255.0,255.0
288,14.4,-7.1237295675026795,-10.798760682606796,-3.907427693121038,-0.34568410330333915,-0.03921755297033129,-0.5151794889866513,-0.02017325533870729,-0.002887908029373627,-0.03094003237192364,0,70,255.0,255.0,255.0
289,14.450000000000001,-7.141039133723307,-10.800725560459853,-3.9332252998381407,-0.3467014352474733,-0.039385367541973144,-0.5167239242435248,-0.020520022426658187,-0.0038246748363003325,-0.03083737790301537,0,70,255.0,255.0,255.0
290,14.5,-7.1584,-10.8027,-3.9591,-0.34773610554600504,-0.039600020453961327,-0.5182632267769527,-0.02086678951460952,-0.0047614416432268936,-0.030734723434102662,0,70,255.0,255.0,255.0
291,14.55,-7.175812999855723,-10.804685562423433,-3.985051369608728,-0.34878611051349584,-0.039814668456998804,-0.519787354883912,-0.021133409185021983,-0.003824478478272284,-0.030230400844269305,0,70,255.0,255.0,255.0
292,14.600000000000001,-7.193278833234409,-10.80668068604306,-4.011078315219566,-0.3498494464645073,-0.03998246830178857,-0.5212862668613796,-0.021400028855434447,-0.0028875153133176745,-0.029726078254435948,0,70,255.0,255.0,255.0
293,14.65,-7.210798166685232,-10.808683028450975,-4.037179576026041,-0.3509261133990393,-0.04010341998833058,-0.5227599627093555,-0.0216666485258469,-0.0019505521483630982,-0.029221755664602608,0,70,255.0,255.0,255.0
294,14.700000000000001,-7.228371666757371,-10.810690247239258,-4.063353891221678,-0.352016111317092,-0.04017752351662487,-0.5242084424278399,-0.021933268196259365,-0.001013588983408489,-0.02871743307476925,0,70,255.0,255.0,255.0
295,14.75,-7.246,-10.8127,-4.0896,-0.3531194402186652,-0.04020477888667142,-0.5256317060168324,-0.022199887866670043,-7.662581845352401e-05,-0.028213110484933246,0,70,255.0,255.0,255.0
296,14.8,-7.263683133018363,-10.814710706012377,-4.115916934999293,-0.35419410346775876,-0.040230887323917365,-0.5270473601617851,-0.020786642097070353,-0.0009677116713841432,-0.02841305531317513,0,70,255.0,255.0,255.0
297,14.850000000000001,-7.281418232641969,-10.816723831303937,-4.1423049026368695,-0.35519810442837224,-0.04030155005380984,-0.52847301154815,-0.019373396327470663,-0.0018587975243147623,-0.028613000141417017,0,70,255.0,255.0,255.0
298,14.9,-7.299201765756392,-10.818741603589302,-4.168764402774798,-0.35613144310050576,-0.040416767076348836,-0.5299086601759267,-0.017960150557871025,-0.00274988337724535,-0.028812944969658895,0,70,255.0,255.0,255.0
299,14.950000000000001,-7.317030199247211,-10.820766250583114,-4.195295935275152,-0.3569941194841594,-0.04057653839153437,-0.5313543060451158,-0.016546904788271335,-0.003640969230175969,-0.02901288979790078,0,70,255.0,255.0,255.0
300,15.0,-7.3349,-10.8228,-4.2219,-0.35778613357933287,-0.04078086399936643,-0.5328099491557168,-0.015133659018669476,-0.004532055083106334,-0.029212834626138218,0,70,255.0,255.0,255.0
301,15.05,-7.352808868070827,-10.824844413527053,-4.248576890394101,-0.3585814756154663,-0.040989782247350746,-0.5342632044689456,-0.01668002242666733,-0.0038246748362661407,-0.028917377903016822,0,70,255.0,255.0,255.0
302,15.100000000000001,-7.370759436197721,-10.826898388741197,-4.275326074232959,-0.3594541358219996,-0.04116333148299305,-0.5357016869460185,-0.018226385834665182,-0.0031172945894259473,-0.02862192117989543,0,70,255.0,255.0,255.0
303,15.15,-7.3887555702892,-10.828960157191815,-4.302146812874766,-0.3604041141989328,-0.041301511706293335,-0.5371253965869353,-0.01977274924266298,-0.0024099143425857787,-0.028326464456774045,0,70,255.0,255.0,255.0
304,15.200000000000001,-7.406801136253787,-10.831027950428288,-4.329038367677717,-0.36143141074626595,-0.04140432291725162,-0.5385343333916959,-0.021319112650660832,-0.0017025340957455854,-0.028031007733652653,0,70,255.0,255.0,255.0
305,15.25,-7.4249,-10.8331,-4.356,-0.3625360254639988,-0.0414717651158679,-0.5399284973603004,-0.022865476058658185,-0.0009951538489053058,-0.027735551010528603,0,70,255.0,255.0,255.0
306,15.3,-7.443054994698331,-10.83517483987941,-4.383031503424305,-0.3636559940703722,-0.04152198368667574,-0.5413398219624329,-0.02193326819627622,-0.0010135889834083202,-0.028717433074776557,0,70,255.0,255.0,255.0
307,15.350000000000001,-7.461264822567153,-10.83725221373128,-4.4101348004312975,-0.36472935228362646,-0.041573124014208734,-0.5428002406677781,-0.021001060333894258,-0.0010320241179113349,-0.02969931513902451,0,70,255.0,255.0,255.0
308,15.4,-7.479527153086808,-10.839332167643445,-4.437312345726137,-0.3657561001037616,-0.041625186098466875,-0.5443097534763355,-0.020068852471512327,-0.0010504592524143487,-0.030681197203272434,0,70,255.0,255.0,255.0
309,15.450000000000001,-7.497839655737644,-10.84141474770374,-4.464566594013985,-0.3667362375307777,-0.041678169939450165,-0.5458683603881053,-0.019136644609130362,-0.0010688943869173633,-0.031663079267520385,0,70,255.0,255.0,255.0
310,15.5,-7.5162,-10.8435,-4.4919,-0.36766976456467465,-0.04173207553715861,-0.5474760614030875,-0.01820443674674843,-0.001087329521420155,-0.03264496133176653,0,70,255.0,255.0,255.0
311,15.55,-7.534606353135852,-10.845588226955305,-4.519313895908681,-0.3685865481030496,-0.04180228300594862,-0.5490655076813286,-0.018466904788248775,-0.0017209692301802782,-0.03093288979787674,0,70,255.0,255.0,255.0
312,15.600000000000001,-7.553058873533673,-10.847680756333686,-4.546805124041856,-0.36951645504349956,-0.04190417246017664,-0.5505693503828751,-0.01872937282974912,-0.0023546089389404013,-0.029220818263986943,0,70,255.0,255.0,255.0
313,15.65,-7.571558217363569,-10.849779172234415,-4.57436940422069,-0.3704594853860245,-0.042037743899842654,-0.5519875895077273,-0.018991840871249457,-0.0029882486477005024,-0.02750874673009721,0,70,255.0,255.0,255.0
314,15.700000000000001,-7.5901050407956445,-10.851885058756762,-4.60200245626635,-0.3714156391306245,-0.04220299732494669,-0.553320225055885,-0.0192543089127498,-0.0036218883564606255,-0.025796675196207416,0,70,255.0,255.0,255.0
315,15.75,-7.6087,-10.854,-4.6297,-0.3723849162772994,-0.04239993273548873,-0.554567257027348,-0.019516776954249693,-0.004255528065220782,-0.024084603662312354,0,70,255.0,255.0,255.0
316,15.8,-7.6273435927582645,-10.856125052299369,-4.657459312940975,-0.3733578135174223,-0.042596884289512776,-0.5558221473122472,-0.019399112650664917,-0.0036225340957411053,-0.026111007733653786,0,70,255.0,255.0,255.0
317,15.850000000000001,-7.646035683298156,-10.858259160933976,-4.6852839034012845,-0.3743248275423659,-0.04276218614506284,-0.5571783578007135,-0.01928144834708014,-0.0029895401262614294,-0.028137411804995217,0,70,255.0,255.0,255.0
318,15.9,-7.664775977458915,-10.860400743418902,-4.713178837391105,-0.3752859583521303,-0.042895838302138924,-0.5586358884927467,-0.019163784043495367,-0.0023565461567817757,-0.030163815876336576,0,70,255.0,255.0,255.0
319,15.950000000000001,-7.683564181079782,-10.862548217269214,-4.741149180920619,-0.37624120594671545,-0.04299784076074102,-0.5601947393883471,-0.01904611973991059,-0.0017235521873020998,-0.03219021994767801,0,70,255.0,255.0,255.0
320,16.0,-7.7024,-10.8647,-4.7692,-0.3771905703261213,-0.04306819352086912,-0.5618549104875143,-0.01892845543632271,-0.0010905582178225015,-0.03421662401901493,0,70,255.0,255.0,255.0
321,16.05,-7.721283275831091,-10.866854763847218,-4.79733445232742,-0.37814219782725805,-0.04312217983598932,-0.5635019030696781,-0.01913664460914655,-0.0010688943869855301,-0.0316630792675365,0,70,255.0,255.0,255.0
322,16.1,-7.740214393273703,-10.869012199930406,-4.8255480623530085,-0.379104234787036,-0.04317508295956768,-0.5650212184142681,-0.01934483378197039,-0.001047230556148559,-0.02910953451605806,0,70,255.0,255.0,255.0
323,16.150000000000002,-7.759193872800772,-10.871172254089984,-4.853834446214888,-0.3800766812054551,-0.04322690289160418,-0.5664128565212839,-0.01955302295479423,-0.0010255667253115876,-0.026555989764579624,0,70,255.0,255.0,255.0
324,16.2,-7.778222234885226,-10.873334872166375,-4.8821872200511764,-0.38105953708251533,-0.04327763963209884,-0.567676817390726,-0.019761212127618052,-0.001003902894474618,-0.02400244501310137,0,70,255.0,255.0,255.0
325,16.25,-7.7973,-10.8755,-4.9106,-0.3820528024182169,-0.04332729318105165,-0.5688131010225941,-0.019969401300440115,-0.000982239063637813,-0.021448900261619386,0,70,255.0,255.0,255.0
326,16.3,-7.816427303917375,-10.877667892311754,-4.9390684777493465,-0.3830333951735462,-0.04339439636655252,-0.5699462404090399,-0.0192543089127322,-0.0017018883563969624,-0.0238766751962093,0,70,255.0,255.0,255.0
327,16.35,-7.835602743607032,-10.8798400393444,-4.967596647186683,-0.3839782333094901,-0.04349748201669135,-0.571200768542215,-0.018539216525024285,-0.0024215376491561118,-0.02630445013079921,0,70,255.0,255.0,255.0
328,16.400000000000002,-7.854824531338002,-10.882018240221168,-4.996190577749347,-0.38488731682604865,-0.04363655013146814,-0.5725766854221197,-0.01782412413731637,-0.0031411869419152613,-0.02873222506538912,0,70,255.0,255.0,255.0
329,16.45,-7.874090879379312,-10.88420429406529,-5.024856338874673,-0.3857606457232217,-0.043811600710882866,-0.5740739910487539,-0.017109031749608504,-0.0038608362346743592,-0.031159999999978857,0,70,255.0,255.0,255.0
330,16.5,-7.8934,-10.8864,-5.0536,-0.38659822000100946,-0.044022633754935564,-0.5756926854221175,-0.01639393936190059,-0.004580485527433398,-0.03358777493456433,0,70,255.0,255.0,255.0
331,16.55,-7.912750708499409,-10.888606466905765,-5.082426036675197,-0.38743622147855483,-0.044228234697803834,-0.5773371352941731,-0.017126119739913924,-0.0036435521872975364,-0.032190219947658055,0,70,255.0,255.0,255.0
332,16.6,-7.932144232298171,-10.890822042691997,-5.111332548900262,-0.3883108319750009,-0.044386988973665324,-0.5789117074168834,-0.01785830011792726,-0.002706618847161675,-0.030792664960751774,0,70,255.0,255.0,255.0
333,16.650000000000002,-7.951582401847226,-10.893044385025348,-5.14031604278773,-0.3892220514903476,-0.04449889658252001,-0.5804164017902483,-0.018590480495940597,-0.0017696855070258133,-0.029395109973845496,0,70,255.0,255.0,255.0
334,16.7,-7.97106704759752,-10.895271151572466,-5.169373024450131,-0.3901698800245949,-0.044563957524367905,-0.5818512184142678,-0.01932266087395388,-0.0008327521668900183,-0.02799755498693932,0,70,255.0,255.0,255.0
335,16.75,-7.9906,-10.8975,-5.1985,-0.391154317577743,-0.044582171799209015,-0.5832161572889422,-0.020054841251965883,0.0001041811732458986,-0.02660000000003304,0,70,255.0,255.0,255.0
336,16.8,-8.010182662084983,-10.89972944006519,-5.22769377554987,-0.392149718912233,-0.04460466484223973,-0.5845292184142704,-0.019761212127633595,-0.0010039028944747,-0.025922445013096318,0,70,255.0,255.0,255.0
337,16.85,-8.029814727200286,-10.901961389887616,-5.256952357212271,-0.3931304387905064,-0.04468256208865649,-0.5858084017902518,-0.019467583003301307,-0.0021119869621952984,-0.025244890026159598,0,70,255.0,255.0,255.0
338,16.900000000000002,-8.049495461273096,-10.904198619677445,-5.286274051099739,-0.3940964772125632,-0.044815863538459275,-0.5870537074168864,-0.019173953878969016,-0.003220071029915897,-0.024567335039222874,0,70,255.0,255.0,255.0
339,16.95,-8.069224130230603,-10.906443899644849,-5.315657163324803,-0.3950478341784032,-0.04500456919164807,-0.588265135294174,-0.01888032475463675,-0.0043281550976364165,-0.023889780052286202,0,70,255.0,255.0,255.0
340,17.0,-8.089,-10.9087,-5.3451,-0.39598450968802673,-0.0452486790482229,-0.5894426854221151,-0.01858669563030313,-0.005436239165356516,-0.023212225065350367,0,70,255.0,255.0,255.0
341,17.05,-8.108822643160655,-10.91096857283348,-5.374602061125327,-0.3969249028725236,-0.045481105933223666,-0.5906579910487482,-0.01902903174956992,-0.0038608362346741476,-0.02539999999997281,0,70,255.0,255.0,255.0
342,17.1,-8.128692858900687,-10.913246797757546,-5.404167622250654,-0.39788741286298374,-0.04563476267169032,-0.5919826854221124,-0.01947136786883671,-0.002285433303991779,-0.02758777493459525,0,70,255.0,255.0,255.0
343,17.150000000000002,-8.14861175306039,-10.915530736264872,-5.4338021528133185,-0.39887203965940726,-0.04570964926362285,-0.5934167685422077,-0.0199137039881035,-0.0007100303733094107,-0.029775549869217693,0,70,255.0,255.0,255.0
344,17.2,-8.16858043148006,-10.917816449848132,-5.463511122250654,-0.39987878326179405,-0.04570576570902126,-0.5949602404090342,-0.02035604010737026,0.0008653725573728455,-0.03196332480383998,0,70,255.0,255.0,255.0
345,17.25,-8.1886,-10.9201,-5.4933,-0.40090764367014425,-0.045623112007885554,-0.5966131010225918,-0.020798376226635273,0.002440775488055602,-0.034151099738465085,0,70,255.0,255.0,255.0
346,17.3,-8.208670765272393,-10.92237866860089,-5.523172379948823,-0.4019106695976598,-0.045534911424857376,-0.5982628173907272,-0.019322660873987263,0.001087247833071406,-0.03183755498694772,0,70,255.0,255.0,255.0
347,17.35,-8.228789837196972,-10.924654619082196,-5.553124353785114,-0.402839909757543,-0.04551438722457841,-0.5997968565212866,-0.017846945521339256,-0.0002662798219127899,-0.029524010235430366,0,70,255.0,255.0,255.0
348,17.400000000000002,-8.248953526485353,-10.92693123526306,-5.583150137646993,-0.40369536414979373,-0.04556153940704866,-0.6012152184142703,-0.016371230168691246,-0.0016198074768969863,-0.027210465483913007,0,70,255.0,255.0,255.0
349,17.45,-8.269158143849156,-10.929211900962615,-5.61324394767258,-0.4044770327744121,-0.0456763679722681,-0.6025179030696778,-0.014895514816043343,-0.0029733351318810856,-0.02489692073239581,0,70,255.0,255.0,255.0
350,17.5,-8.2894,-10.9315,-5.6434,-0.4051849156313981,-0.04585887292023676,-0.6037049104875096,-0.013419799463394444,-0.0043268627868654486,-0.022583375980877562,0,70,255.0,255.0,255.0
351,17.55,-8.309676695749772,-10.933798352762958,-5.673614019079381,-0.4058964187368486,-0.04607524836734845,-0.6048667393883392,-0.015040324754627866,-0.004328155097602271,-0.023889780052303796,0,70,255.0,255.0,255.0
352,17.6,-8.329990992311428,-10.93610752591366,-5.703887762608893,-0.40668894810686085,-0.04629168842999699,-0.60609388849274,-0.01666085004586129,-0.004329447408339094,-0.02519618412373003,0,70,255.0,255.0,255.0
353,17.650000000000002,-8.350346940998202,-10.938427522682884,-5.734224496598716,-0.4075625037414348,-0.04650819310818237,-0.6073863578007123,-0.01828137533709471,-0.004330739719075915,-0.026502588195156263,0,70,255.0,255.0,255.0
354,17.7,-8.370748593123315,-10.940758346301404,-5.764627487059023,-0.4085170856405703,-0.046724762401904575,-0.6087441473122556,-0.019901900628328015,-0.004332032029812738,-0.027808992266582403,0,70,255.0,255.0,255.0
355,17.75,-8.3912,-10.9431,-5.7951,-0.40955269380426756,-0.04694139631116364,-0.6101672570273704,-0.02152242591956144,-0.004333324340549505,-0.029115396338005084,0,70,255.0,255.0,255.0
356,17.8,-8.411704051728524,-10.945451920347276,-5.825644343733652,-0.41059965545494,-0.047124095105743675,-0.6115982250559164,-0.02035604010733561,-0.002974627442651992,-0.02812332480383225,0,70,255.0,255.0,255.0
357,17.85,-8.432258993557317,-10.947811277263158,-5.856258995779314,-0.41158829781500117,-0.04723885905542884,-0.6129795895077537,-0.01918965429510978,-0.0016159305447544796,-0.02713125326965941,0,70,255.0,255.0,255.0
358,17.900000000000002,-8.452861909521847,-10.950174674005403,-5.8869414759581495,-0.412518620884451,-0.04728568816021913,-0.6143113503828823,-0.018023268482883954,-0.00025723364685696637,-0.026139181735486575,0,70,255.0,255.0,255.0
359,17.95,-8.473509883657586,-10.952538713831764,-5.917689304091322,-0.4133906246632895,-0.04726458242011455,-0.6155935076813023,-0.016856882670658206,0.0011014632510404493,-0.025147110201313806,0,70,255.0,255.0,255.0
360,18.0,-8.4942,-10.9549,-5.9485,-0.41420430915151685,-0.04717554183511508,-0.6168260614030135,-0.015690496858432823,0.002460160148938073,-0.024155038667138307,0,70,255.0,255.0,255.0
361,18.05,-8.514930297336132,-10.957256365847936,-5.979371805986012,-0.4150169594433803,-0.04709237120968803,-0.6180523603880019,-0.01681551481610663,0.0008666648681440287,-0.024896920732395078,0,70,255.0,255.0,255.0
362,18.1,-8.535702633459303,-10.959610565033703,-6.010305854273857,-0.41588586063312755,-0.04708887534830068,-0.6193157534762531,-0.017940532773780438,-0.0007268304126500156,-0.02563880279765185,0,70,255.0,255.0,255.0
363,18.150000000000002,-8.556519820914408,-10.961966581295503,-6.041303999568694,-0.4168110127207584,-0.047165054250953034,-0.6206162406677671,-0.01906555073145424,-0.00232032569344406,-0.02638068486290862,0,70,255.0,255.0,255.0
364,18.2,-8.57738467224634,-10.964328398371533,-6.072368096575685,-0.41779241570627296,-0.04732090791764507,-0.6219538219625439,-0.02019056868912797,-0.003913820974237991,-0.027122566928165337,0,70,255.0,255.0,255.0
365,18.25,-8.5983,-10.9667,-6.1035,-0.41883006958967123,-0.047556436348376835,-0.6233284973605837,-0.02131558664680222,-0.00550731625503198,-0.027864448993422997,0,70,255.0,255.0,255.0
366,18.3,-8.619267558926952,-10.969084216260978,-6.134701232322302,-0.4198605067715487,-0.04780242005549795,-0.6247203333920834,-0.019901900628293737,-0.004332032029812699,-0.027808992266564303,0,70,255.0,255.0,255.0
367,18.35,-8.640284872605474,-10.971479262602028,-6.16597198712527,-0.4208202596525006,-0.047989639551358106,-0.6261093965872402,-0.018488214609785253,-0.003156747804593418,-0.02775353553970561,0,70,255.0,255.0,255.0
368,18.400000000000002,-8.661348406820519,-10.973882200812591,-6.1973121257670885,-0.4217093282325272,-0.0481180948359573,-0.6274956869460541,-0.01707452859127677,-0.0019814635793741374,-0.027698078812846912,0,70,255.0,255.0,255.0
369,18.45,-8.682454627357043,-10.976290092682103,-6.228721509605935,-0.42252771251162824,-0.048187785909295525,-0.6288792044685247,-0.015660842572768383,-0.0008061793541549404,-0.027642622085988222,0,70,255.0,255.0,255.0
370,18.5,-8.7036,-10.9787,-6.2602,-0.423275412489804,-0.04819871277137279,-0.6302599491546528,-0.014247156554259899,0.0003691048710644518,-0.02758716535912953,0,70,255.0,255.0,255.0
371,18.55,-8.724781866956064,-10.981109969108156,-6.291747264724783,-0.4240050134704271,-0.04820994856832091,-0.6316263060436638,-0.01493688267066303,-0.0008185367489891018,-0.027067110201307535,0,70,255.0,255.0,255.0
372,18.6,-8.746001076118807,-10.983521984558182,-6.323362197225069,-0.4247691007568703,-0.0482805664462717,-0.6329666601747835,-0.015626608787066162,-0.0020061783690426553,-0.02654705504348554,0,70,255.0,255.0,255.0
373,18.650000000000002,-8.767259351803515,-10.985939015454132,-6.355043497362964,-0.42556767434913373,-0.048410566405225175,-0.6342810115480123,-0.016316334903469294,-0.003193819989096209,-0.026026999885663548,0,70,255.0,255.0,255.0
374,18.7,-8.788558418325483,-10.988364030900055,-6.386789865000571,-0.4264007342472172,-0.048599948445181305,-0.6355693601633499,-0.017006061019872377,-0.004381461609149678,-0.025506944727841593,0,70,255.0,255.0,255.0
375,18.75,-8.8099,-10.9908,-6.4186,-0.427268280451121,-0.04884871256614014,-0.6368317060207964,-0.017695787136274177,-0.005569103229203121,-0.0249868895700196,0,70,255.0,255.0,255.0
376,18.8,-8.83128577324879,-10.993248707306403,-6.450472908778568,-0.42816743934675533,-0.04908578567122532,-0.6380864424332516,-0.01827056868909801,-0.003913820974203873,-0.025202566928187765,0,70,255.0,255.0,255.0
377,18.85,-8.852717222919306,-10.995707199165242,-6.482408823974457,-0.4290953373200308,-0.04924009466356053,-0.6393519627136153,-0.018845350241921837,-0.0022585387192046256,-0.025418244286355935,0,70,255.0,255.0,255.0
378,18.900000000000002,-8.874195785965421,-10.99817133737088,-6.514408284781063,-0.4300519743709475,-0.049311639543145776,-0.6406282668618872,-0.01942013179474567,-0.0006032564642053781,-0.0256339216445241,0,70,255.0,255.0,255.0
379,18.95,-8.895722899341024,-11.00063698371768,-6.546471830391776,-0.4310373504995053,-0.04930042030998107,-0.6419153548780676,-0.019994913347569455,0.0010520257907937524,-0.025849599002692257,0,70,255.0,255.0,255.0
380,19.0,-8.9173,-11.0031,-6.5786,-0.43205146570570435,-0.0492064369640664,-0.6432132267621563,-0.020569694900391067,0.002707308045793111,-0.02606527636086131,0,70,255.0,255.0,255.0
381,19.05,-8.938927840048775,-11.00555760166623,-6.610793100160945,-0.43305322914253397,-0.04911090874677555,-0.6445079242233277,-0.01950084257279315,0.001113820645840646,-0.02572262208599358,0,70,255.0,255.0,255.0
382,19.1,-8.96060443220398,-11.008012418780845,-6.643050506877105,-0.4340015499629837,-0.049095054899482335,-0.6457854889707557,-0.01843199024519523,-0.0004796667541118191,-0.02537996781112585,0,70,255.0,255.0,255.0
383,19.150000000000002,-8.9823271043348,-11.010468435062345,-6.675371363512792,-0.4348964281670535,-0.049158875422186735,-0.6470459210044404,-0.017363137917597315,-0.0020731541540642846,-0.025037313536258116,0,70,255.0,255.0,255.0
384,19.200000000000003,-9.004093184310413,-11.012929634229229,-6.70775481343232,-0.43573786375474344,-0.049302370314888766,-0.6482892203243815,-0.016294285589999395,-0.003666641554016749,-0.024694659261390386,0,70,255.0,255.0,255.0
385,19.25,-9.0259,-11.0154,-6.7402,-0.43652585672605343,-0.04952553957758841,-0.6495153869305794,-0.015225433262401555,-0.0052601289539690455,-0.02435200498652712,0,70,255.0,255.0,255.0
386,19.3,-9.047745266556113,-11.017882486028677,-6.772706690577654,-0.4372836440831112,-0.049766579341667234,-0.6507618606734387,-0.015086061019911143,-0.004381461609183711,-0.025506944727842668,0,70,255.0,255.0,255.0
387,19.35,-9.069628248264776,-11.02037592571138,-6.8052771485171295,-0.4380344628280446,-0.049963685738506784,-0.6520660814033638,-0.014946688777420732,-0.003502794264398376,-0.026661884469158216,0,70,255.0,255.0,255.0
388,19.400000000000002,-9.091548596695382,-11.02287812237974,-6.837914261167777,-0.43877831296085335,-0.05011685876810707,-0.6534280491203546,-0.01480731653493032,-0.0026241269196130416,-0.02781682421047376,0,70,255.0,255.0,255.0
389,19.450000000000003,-9.113505963417328,-11.025386879365403,-6.870620915878949,-0.43951519448153764,-0.050226098430468095,-0.6548477638244111,-0.014667944292439908,-0.0017454595748277067,-0.028971763951789308,0,70,255.0,255.0,255.0
390,19.5,-9.1355,-11.0279,-6.9034,-0.44024510739009726,-0.05029140472558985,-0.6563252255155335,-0.014528572049948174,-0.0008667922300424902,-0.030126703693103885,0,70,255.0,255.0,255.0
391,19.55,-9.157531093726774,-11.030415654219059,-6.93625293752844,-0.4410121945250337,-0.0503347738865701,-0.6577726330829279,-0.016154913347508803,-0.000867974209167599,-0.027769599002668743,0,70,255.0,255.0,255.0
392,19.6,-9.179602574736919,-11.032933478373641,-6.969175299054386,-0.4418605987248482,-0.050378202146506616,-0.6591021854158005,-0.017781254645069435,-0.000869156188292708,-0.0254124943122336,0,70,255.0,255.0,255.0
393,19.650000000000002,-9.201718508883674,-11.035453475418693,-7.0021611918161115,-0.44279031998954066,-0.050421689505399374,-0.6603138825141512,-0.019407595942630064,-0.0008703381674178168,-0.023055389621798462,0,70,255.0,255.0,255.0
394,19.700000000000003,-9.223882962020289,-11.037975648309164,-7.035204723051893,-0.44380135831911116,-0.050465235963248395,-0.6614077243779802,-0.021033937240190696,-0.0008715201465429257,-0.020698284931363317,0,70,255.0,255.0,255.0
395,19.75,-9.2461,-11.0405,-7.0683,-0.4448937137135597,-0.05050884152005366,-0.6623837110072875,-0.022660278537750322,-0.00087270212566809,-0.018341180240924793,0,70,255.0,255.0,255.0
396,19.8,-9.268371958536788,-11.043026897095087,-7.101443159308591,-0.44596357781675405,-0.05057432511204589,-0.6633636069948458,-0.02013428559002449,-0.0017466415540212013,-0.020854659261400458,0,70,255.0,255.0,255.0
397,19.85,-9.290694252787555,-11.045558160794062,-7.1346384552653355,-0.4469071422725622,-0.050683505675455785,-0.6644691769334277,-0.017608292642298656,-0.0026205809823743125,-0.023368138281876123,0,70,255.0,255.0,255.0
398,19.900000000000002,-9.313060567769924,-11.04809597594549,-7.167892171567785,-0.44772440708098393,-0.05083638321028333,-0.6657004208230334,-0.015082299694572823,-0.0034945204107274235,-0.025881617302351785,0,70,255.0,255.0,255.0
399,19.950000000000003,-9.335464588501528,-11.050642527397947,-7.20121059191349,-0.44841537224201944,-0.051032957716528535,-0.6670573386636628,-0.01255630674684699,-0.004368459839080535,-0.02839509632282745,0,70,255.0,255.0,255.0
400,20.0,-9.3579,-11.0532,-7.2346,-0.44898003775566864,-0.05127322919419136,-0.668539930455316,-0.010030313799121338,-0.005242399267433306,-0.030908575343299383,0,70,255.0,255.0,255.0
401,20.05,-9.380362672126074,-11.05576955740059,-7.268064825237199,-0.4495494942079569,-0.05149592566524863,-0.6700369389376932,-0.012747944292409701,-0.003665459574857332,-0.02897176395178868,0,70,255.0,255.0,255.0
402,20.1,-9.402857214112876,-11.058348278450115,-7.301602079884278,-0.45025483218490964,-0.0516397751516771,-0.671437106850495,-0.015465574785698065,-0.0020885198822813583,-0.02703495256027798,0,70,255.0,255.0,255.0
403,20.150000000000002,-9.425390420036642,-11.060932220799346,-7.335206921912757,-0.4510960516865268,-0.05170477765347677,-0.672740434193721,-0.018183205278986432,-0.0005115801897053844,-0.025098141168767282,0,70,255.0,255.0,255.0
404,20.200000000000003,-9.447969083973605,-11.063517442099052,-7.368874509294158,-0.4520731527128083,-0.051690933170647636,-0.6739469209673716,-0.020900835772274792,0.0010653595028705899,-0.02316132977725658,0,70,255.0,255.0,255.0
405,20.25,-9.4706,-11.0661,-7.4026,-0.45318613526375423,-0.05159824170318972,-0.6750565671714468,-0.023618466265564297,0.0026422991954464514,-0.02122451838574868,0,70,255.0,255.0,255.0
406,20.3,-9.493287752958926,-11.068677273302558,-7.436379939742616,-0.45430244535139896,-0.05150597222696639,-0.6761526372543746,-0.021033937240224582,0.0010484798534866387,-0.02261828493135882,0,70,255.0,255.0,255.0
407,20.35,-9.516028090760951,-11.071251925405482,-7.470216425197559,-0.45528952898777675,-0.051493393717841056,-0.6773183956645826,-0.01844940821488487,-0.000545339488473174,-0.02401205147696896,0,70,255.0,255.0,255.0
408,20.400000000000002,-9.538814552083517,-11.073827940857129,-7.504112940781196,-0.4561473861728875,-0.05156050617581371,-0.6785538424020714,-0.015864879189545156,-0.0021391588304329866,-0.025405818022579102,0,70,255.0,255.0,255.0
409,20.450000000000003,-9.561640675604055,-11.07640930420585,-7.538072970909889,-0.4568760169067313,-0.05170730960088435,-0.6798589774668407,-0.013280350164205442,-0.0037329781723927993,-0.02679958456818924,0,70,255.0,255.0,255.0
410,20.5,-9.5845,-11.079,-7.5721,-0.45747542118930795,-0.05193380399305297,-0.6812338008588903,-0.01069582113886458,-0.005326797514352333,-0.02819335111379928,0,70,255.0,255.0,255.0
411,20.55,-9.607387916038226,-11.081602949389183,-7.606196215792341,-0.4580567243864508,-0.05217618542688879,-0.6826005120448064,-0.012556306746846628,-0.004368459839080294,-0.026475096322846857,0,70,255.0,255.0,255.0
412,20.6,-9.63030722284332,-11.08421681992796,-7.640358619325489,-0.4587310518639926,-0.052370649976961,-0.6838813104911751,-0.014416792354828675,-0.003410122163808255,-0.024756841531894433,0,70,255.0,255.0,255.0
413,20.650000000000002,-9.653262571629298,-11.086839215772148,-7.674582914962467,-0.45949840362193367,-0.05251719764326962,-0.685076196197996,-0.016277277962810723,-0.0024517844885362165,-0.023038586740942005,0,70,255.0,255.0,255.0
414,20.700000000000003,-9.676258613610187,-11.089467741077558,-7.708864807066297,-0.4603587796602737,-0.05261582842581463,-0.6861851691652693,-0.01813776357079277,-0.0014934468132641776,-0.02132033194998958,0,70,255.0,255.0,255.0
415,20.75,-9.6993,-11.0921,-7.7432,-0.46131217997901286,-0.05266654232459604,-0.6872082293929949,-0.019998249178775573,-0.0005351091379924844,-0.019602077159039055,0,70,255.0,255.0,255.0
416,20.8,-9.722390182888173,-11.094734129140718,-7.777585597088023,-0.46228665710278927,-0.05270128606547398,-0.688229314566402,-0.018980835772280522,-0.000854640497125141,-0.021241329777246444,0,70,255.0,255.0,255.0
417,20.85,-9.745527817865772,-11.097370394882681,-7.812024297500489,-0.46321026355624095,-0.05275200637430856,-0.6893323623707195,-0.017963422365785468,-0.0011741718562577976,-0.022880582395453833,0,70,255.0,255.0,255.0
418,20.900000000000002,-9.768710361399291,-11.100009596054282,-7.846520199368944,-0.4640829993393678,-0.05281870325109977,-0.6905173728059474,-0.016946008959290416,-0.0014937032153904543,-0.02451983501366122,0,70,255.0,255.0,255.0
419,20.950000000000003,-9.791935269955205,-11.102652531483923,-7.8810774008249345,-0.46490486445217,-0.0529013766958476,-0.6917843458720857,-0.015928595552795362,-0.0018132345745231109,-0.02615908763186861,0,70,255.0,255.0,255.0
420,21.0,-9.8152,-11.1053,-7.9157,-0.4656758588946474,-0.05300002670855208,-0.6931332815691343,-0.014911182146300828,-0.0021327659336559113,-0.027798340250078546,0,70,255.0,255.0,255.0
421,21.05,-9.838502552409091,-11.107952534047943,-7.950390995855569,-0.46642864720240995,-0.05309867031120425,-0.694498229689591,-0.015200350164200054,-0.0018129781724311633,-0.026799584568189323,0,70,255.0,255.0,255.0
422,21.1,-9.861843105693591,-11.11060960054132,-7.985148990672559,-0.4671958939110674,-0.053181324525795194,-0.6958132400259534,-0.015489518182099279,-0.0014931904112064152,-0.025800828886300104,0,70,255.0,255.0,255.0
423,21.150000000000002,-9.885222382773547,-11.113270400010723,-8.019971487561763,-0.4679775990206199,-0.0532479893523249,-0.6970783125782211,-0.015778686199998504,-0.001173402649981667,-0.02480207320441088,0,70,255.0,255.0,255.0
424,21.200000000000003,-9.908641106569002,-11.115934132986752,-8.05485598963398,-0.4687737625310673,-0.053298664790793364,-0.6982934473463945,-0.01606785421789773,-0.0008536148887569191,-0.02380331752252166,0,70,255.0,255.0,255.0
425,21.25,-9.9321,-11.1186,-8.0898,-0.46958438444240963,-0.05333335084120059,-0.6994586443304732,-0.016357022235796936,-0.0005338271275325268,-0.022804561840630733,0,70,255.0,255.0,255.0
426,21.3,-9.955599607475472,-11.121267734667507,-8.124801619489704,-0.47039875408757365,-0.05338403268971966,-0.7006097666752381,-0.016217763570763297,-0.001493446813230384,-0.023240331949967625,0,70,255.0,255.0,255.0
427,21.35,-9.979139759359871,-11.123939202952045,-8.159861339809284,-0.471206160799486,-0.05348269552252363,-0.7017826775254701,-0.01607850490572966,-0.002453066498928241,-0.023676102059304517,0,70,255.0,255.0,255.0
428,21.400000000000002,-10.002720107506534,-11.12661680390283,-8.19498025038401,-0.47200660457814664,-0.053629339339612496,-0.7029773768811687,-0.01593924624069602,-0.003412686184626098,-0.02411187216864141,0,70,255.0,255.0,255.0
429,21.450000000000003,-10.026340303768798,-11.129302936569077,-8.23015944063916,-0.4728000854235556,-0.053823964140986245,-0.7041938647423341,-0.01579998757566238,-0.004372305870323955,-0.0245476422779783,0,70,255.0,255.0,255.0
430,21.5,-10.05,-11.132,-8.2654,-0.4735866033357129,-0.05406656992664487,-0.7054321411089665,-0.01566072891062742,-0.005331925556021577,-0.024983412387313386,0,70,255.0,255.0,255.0
431,21.55,-10.073699017689025,-11.134709327282035,-8.300702526185619,-0.4743763364472993,-0.05429319892990837,-0.706662703609447,-0.015928595552829175,-0.0037332345745185952,-0.02423908763190833,0,70,255.0,255.0,255.0
432,21.6,-10.097437856866934,-11.137427987650506,-8.336065650090315,-0.47517946289099583,-0.05443989338409673,-0.7078560498721573,-0.016196462195030934,-0.002134543593015613,-0.023494762876503275,0,70,255.0,255.0,255.0
433,21.650000000000002,-10.121217187200328,-11.140151984377958,-8.371487510902204,-0.47599598266680243,-0.054506653289209936,-0.7090121798970974,-0.01646432883723269,-0.0005358526115126312,-0.022750438121098216,0,70,255.0,255.0,255.0
434,21.700000000000003,-10.145037678355816,-11.142877320736941,-8.406966247809397,-0.4768258957747191,-0.054493478645248,-0.7101310936842672,-0.016732195479434445,0.0010628383699903508,-0.02200611336569316,0,70,255.0,255.0,255.0
435,21.75,-10.1689,-11.1456,-8.4425,-0.4776692022147458,-0.05440036945221091,-0.7112127912336667,-0.017000062121633075,0.0026615293514934413,-0.02126178861028638,0,70,255.0,255.0,255.0
436,21.8,-10.192804321768431,-11.148317356204354,-8.478087475767827,-0.47849590012323323,-0.05430717159064346,-0.7122914188869865,-0.016067854217862883,0.0010663851112043816,-0.02188331752250808,0,70,255.0,255.0,255.0
437,21.85,-10.216748813172405,-11.15103204644593,-8.51372965982946,-0.47927598763653206,-0.054293730941090475,-0.7134011229859174,-0.015135646314092695,-0.000528759129084678,-0.022504846434729782,0,70,255.0,255.0,255.0
438,21.900000000000002,-10.240731143692166,-11.15374805858533,-8.54942810600718,-0.4800094647546425,-0.05436004750355193,-0.7145419035304595,-0.014203438410322504,-0.002123903369373738,-0.023126375346951483,0,70,255.0,255.0,255.0
439,21.950000000000003,-10.26474898280795,-11.156469380483154,-8.585184368123267,-0.48069633147756435,-0.05450612127802785,-0.7157137605206126,-0.013271230506552314,-0.0037190476096627973,-0.023747904259173183,0,70,255.0,255.0,255.0
440,22.0,-10.2888,-11.1592,-8.621,-0.48133658780529764,-0.0547319522645182,-0.7169166939563768,-0.01233902260277997,-0.005314191849951633,-0.024369433171391286,0,70,255.0,255.0,255.0
441,22.05,-10.312882895237257,-11.161942847900546,-8.656876370743078,-0.4819920630597588,-0.05497411470752424,-0.7181396208426102,-0.013879987575666618,-0.004372305870289681,-0.024547642277942396,0,70,255.0,255.0,255.0
442,22.1,-10.337000490443453,-11.16469662656577,-8.692814110591852,-0.4827245865628643,-0.05516918285154717,-0.7193714581841711,-0.015420952548553267,-0.003430419890627729,-0.024725851384493507,0,70,255.0,255.0,255.0
443,22.150000000000002,-10.361156638031021,-11.167458981280719,-8.728813665069085,-0.48353415831461416,-0.055317156696587017,-0.7206122059810596,-0.016961917521439916,-0.0024885339109657774,-0.024904060491044617,0,70,255.0,255.0,255.0
444,22.200000000000003,-10.385355190412394,-11.170227557330445,-8.764875479697547,-0.4844207783150083,-0.055418036242643756,-0.7218618642332756,-0.018502882494326564,-0.0015466479313038261,-0.02508226959759573,0,70,255.0,255.0,255.0
445,22.25,-10.4096,-11.173,-8.801,-0.4853844465640467,-0.0554718214897174,-0.7231204329408191,-0.020043847467209996,-0.0006047619516418856,-0.025260478704146827,0,70,255.0,255.0,255.0
446,22.3,-10.433893697282542,-11.17577445219346,-8.837187041259863,-0.48635184763771355,-0.05550836957925858,-0.7243500977425659,-0.018652195479462,-0.0008571616300051467,-0.023926113365722815,0,70,255.0,255.0,255.0
447,22.35,-10.45823402505378,-11.178551047290991,-8.873433897803142,-0.48724966611199294,-0.05555753765271792,-0.7255130442773914,-0.017260543491714003,-0.0011095613083684079,-0.022591748027298804,0,70,255.0,255.0,255.0
448,22.400000000000002,-10.48261750418375,-11.181330416291797,-8.909737233716488,-0.488077901986885,-0.055619325710095424,-0.7266092725452957,-0.015868891503966004,-0.0013619609867316692,-0.021257382688874792,0,70,255.0,255.0,255.0
449,22.450000000000003,-10.50704065554248,-11.184113190195065,-8.946093713086558,-0.48883655526238956,-0.05569373375139109,-0.7276387825462789,-0.014477239516218009,-0.0016143606650949303,-0.01992301735045078,0,70,255.0,255.0,255.0
450,22.5,-10.5315,-11.1869,-8.9825,-0.4895256259385067,-0.05578076177660491,-0.7286015742803408,-0.01308558752846789,-0.0018667603434579516,-0.018588652012025086,0,70,255.0,255.0,255.0
451,22.55,-10.555992715632575,-11.189691343325618,-9.018953864217469,-0.4901845463893822,-0.05587240697543389,-0.729563988187121,-0.013271230506551216,-0.0017990476097011644,-0.019907904259179984,0,70,255.0,255.0,255.0
452,22.6,-10.58051860934142,-11.192487184270266,-9.055457498195587,-0.4908527489891618,-0.05596066653757503,-0.7305923647062588,-0.01345687348463454,-0.0017313348759443773,-0.02122715650633488,0,70,255.0,255.0,255.0
453,22.650000000000002,-10.605078145233975,-11.195287353552098,-9.09201420006497,-0.49153023373784566,-0.05604554046302833,-0.7316867038377545,-0.013642516462717866,-0.00166362214218759,-0.022546408753489778,0,70,255.0,255.0,255.0
454,22.700000000000003,-10.629671787417687,-11.19809168188929,-9.128627267956237,-0.4922170006354336,-0.05612702875179379,-0.7328470055816079,-0.01382815944080119,-0.001595909408430803,-0.023865661000644675,0,70,255.0,255.0,255.0
455,22.75,-10.6543,-11.2009,-9.1653,-0.49291304968192573,-0.05620513140387141,-0.7340732699378187,-0.014013802418882726,-0.0015281966746737985,-0.02518491324779859,0,70,255.0,255.0,255.0
456,22.8,-10.678963440187152,-11.203712174504062,-9.202035101870266,-0.4936299668047561,-0.05628200251902,-0.7353299495089537,-0.01466288249433366,-0.0015466479312697403,-0.02508226959759625,0,70,255.0,255.0,255.0
457,22.85,-10.703663537580539,-11.20652821562795,-9.238832909414521,-0.49437933793135913,-0.05635979619699839,-0.7365814968975783,-0.015311962569784595,-0.0015650991878656821,-0.02497962594739391,0,70,255.0,255.0,255.0
458,22.900000000000002,-10.728401914880349,-11.209348169499808,-9.275693166023647,-0.49516116306173463,-0.056438512437806565,-0.7378279121036931,-0.01596104264523553,-0.0015835504444616242,-0.02487698229719157,0,70,255.0,255.0,255.0
459,22.950000000000003,-10.753180194786774,-11.212172082247779,-9.312615615088516,-0.4959754421958827,-0.05651815124144455,-0.7390691951272975,-0.016610122720686463,-0.001602001701057566,-0.02477433864698923,0,70,255.0,255.0,255.0
460,23.0,-10.778,-11.215,-9.3496,-0.4968221753338032,-0.05659871260791232,-0.7403053459683919,-0.017259202796137796,-0.0016204529576535065,-0.024671694996781568,0,70,255.0,255.0,255.0
461,23.05,-10.80286232361882,-11.217831958658138,-9.386645728301481,-0.4976635863916111,-0.05667958294848103,-0.7415162137770717,-0.01639723951617914,-0.0016143606650948716,-0.023763017350405122,0,70,255.0,255.0,255.0
462,23.1,-10.827765640336429,-11.220667953217937,-9.423750864146337,-0.4984618992854211,-0.05676014867442181,-0.7426816477034325,-0.015535276236220483,-0.0016082683725362366,-0.022854339704028677,0,70,255.0,255.0,255.0
463,23.150000000000002,-10.85270779524463,-11.22350796844867,-9.460913135840453,-0.49921711401523317,-0.05684040978573465,-0.7438016477474746,-0.014673312956261828,-0.0016021760799776017,-0.02194566205765223,0,70,255.0,255.0,255.0
464,23.200000000000003,-10.877686633435221,-11.226351989119602,-9.498130271689712,-0.4999292305810473,-0.056920366282419574,-0.7448762139091977,-0.01381134967630317,-0.0015960837874189667,-0.021036984411275786,0,70,255.0,255.0,255.0
465,23.25,-10.9027,-11.2292,-9.5354,-0.5005982489828635,-0.05700001816447655,-0.745905346188602,-0.012949386396348572,-0.0015899914948602212,-0.02012830676489763,0,70,255.0,255.0,255.0
466,23.3,-10.927746465337574,-11.232051990863388,-9.572720384923818,-0.5012676876287923,-0.05707966568705883,-0.7469091953827417,-0.013828159440801725,-0.0015959094084306736,-0.02002566100068712,0,70,255.0,255.0,255.0
467,23.35,-10.952827501073749,-11.234907971500302,-9.610090834000138,-0.5019810649269438,-0.05715960910531962,-0.7479079122886708,-0.014706932485254879,-0.001601827322001126,-0.01992301523647661,0,70,255.0,255.0,255.0
468,23.400000000000002,-10.977945304141139,-11.237767956705516,-9.647511090614548,-0.5027383808773178,-0.057239848419258936,-0.7489014969063894,-0.015585705529708031,-0.0016077452355715786,-0.019820369472266106,0,70,255.0,255.0,255.0
469,23.450000000000003,-11.003102071472352,-11.24063196127382,-9.68498089815264,-0.5035396354799145,-0.05732038362887678,-0.7498899492358974,-0.016464478574161185,-0.001613663149142031,-0.019717723708055596,0,70,255.0,255.0,255.0
470,23.5,-11.0283,-11.2435,-9.7225,-0.504384828734734,-0.05740121473417314,-0.750873269277195,-0.01734325161861694,-0.0016195810627122609,-0.019615077943844206,0,70,255.0,255.0,255.0
471,23.55,-11.053540615030887,-11.246372077888301,-9.760068732003251,-0.5052336630932175,-0.057481754303267386,-0.751887004691966,-0.016610122720720166,-0.0016020017010574981,-0.02093433864699554,0,70,255.0,255.0,255.0
472,23.6,-11.078822755368574,-11.249248160780859,-9.797689799853117,-0.506045841006806,-0.05756141490427889,-0.7529667031418945,-0.015876993822823395,-0.0015844223394027351,-0.022253599350146872,0,70,255.0,255.0,255.0
473,23.650000000000002,-11.104144588190819,-11.252128204729262,-9.83536650170136,-0.5068213624754998,-0.05764019653720766,-0.7541123646269807,-0.015143864924926621,-0.0015668429777479724,-0.023572860053298207,0,70,255.0,255.0,255.0
474,23.700000000000003,-11.129504280675375,-11.25501216578511,-9.873102135699735,-0.5075602274992987,-0.05771809920205369,-0.7553239891472245,-0.01441073602702985,-0.0015492636160932096,-0.02489212075644954,0,70,255.0,255.0,255.0
475,23.75,-11.1549,-11.2579,-9.9109,-0.5082624360782029,-0.05779512289881697,-0.7566015767026256,-0.013677607129134017,-0.0015316842544381704,-0.026211381459602556,0,70,255.0,255.0,255.0
476,23.8,-11.180330274538884,-11.260791697583397,-9.948762287063186,-0.5089496599983389,-0.05787331709986425,-0.7578787858493965,-0.013811349676304376,-0.0015960837874529963,-0.02487698441123294,0,70,255.0,255.0,255.0
477,23.85,-11.205795077451956,-11.263687385376263,-9.9866867665874,-0.5096435710458334,-0.057954731277562274,-0.759089275143749,-0.013945092223474734,-0.0016604833204678223,-0.023542587362863326,0,70,255.0,255.0,255.0
478,23.900000000000002,-11.23129474309559,-11.266587224377432,-10.024670102580021,-0.5103441692206864,-0.05803936543191104,-0.7602330445856829,-0.014078834770645093,-0.0017248828534826483,-0.02220819031449371,0,70,255.0,255.0,255.0
479,23.950000000000003,-11.256829605826148,-11.269491375585734,-10.062708959048429,-0.5110514545228979,-0.05812721956291054,-0.7613100941751983,-0.014212577317815452,-0.0017892823864974741,-0.020873793266124097,0,70,255.0,255.0,255.0
480,24.0,-11.2824,-11.2724,-10.1008,-0.511765426952468,-0.05821829367056078,-0.7623204239122953,-0.014346319864984913,-0.0018536819195120735,-0.01953939621775458,0,70,255.0,255.0,255.0
481,24.05,-11.308006286813585,-11.275313131778107,-10.138940519744006,-0.5124876969134459,-0.05830497729727713,-0.7633018519104414,-0.014544478574132038,-0.001613663149141905,-0.01971772370808953,0,70,255.0,255.0,255.0
482,24.1,-11.333648934823604,-11.278230297714085,-10.177130333797287,-0.5132198748098812,-0.05837965998547497,-0.7642921962831042,-0.014742637283279163,-0.0013736443787717365,-0.019896051198424487,0,70,255.0,255.0,255.0
483,24.150000000000002,-11.35932843942683,-11.28115089776101,-10.21536988797856,-0.5139619606417738,-0.05844234173515431,-0.7652914570302839,-0.01494079599242629,-0.0011336256084015681,-0.02007437868875944,0,70,255.0,255.0,255.0
484,24.200000000000003,-11.38504529602004,-11.284074331871958,-10.253659628106558,-0.5147139544091238,-0.05849302254631513,-0.7662996341519802,-0.015138954701573415,-0.0008936068380313996,-0.02025270617909439,0,70,255.0,255.0,255.0
485,24.25,-11.4108,-11.287,-10.292,-0.5154758561119311,-0.05853170241895744,-0.7673167276481933,-0.01533711341071875,-0.0006535880676611372,-0.020431033669429333,0,70,255.0,255.0,255.0
486,24.3,-11.436592578206783,-11.289927775304177,-10.330391633960785,-0.5162195523478749,-0.05858677371105045,-0.7683538065088406,-0.014410736027030233,-0.0015492636160589729,-0.021052120756459135,0,70,255.0,255.0,255.0
487,24.35,-11.462421183253635,-11.292859423767396,-10.368835898223457,-0.5169169297146342,-0.05868662878056334,-0.7694219397238391,-0.013484358643341717,-0.0024449391644568086,-0.021673207843488935,0,70,255.0,255.0,255.0
488,24.400000000000002,-11.488283499197095,-11.295797184578525,-10.407334345505742,-0.5175679882122091,-0.05883126762749613,-0.7705211272931893,-0.0125579812596532,-0.0033406147128546442,-0.022294294930518738,0,70,255.0,255.0,255.0
489,24.450000000000003,-11.514177210093704,-11.298743296926437,-10.44588852852535,-0.5181727278405995,-0.05902069025184881,-0.7716513692168911,-0.011631603875964684,-0.00423629026125248,-0.022915382017548537,0,70,255.0,255.0,255.0
490,24.5,-11.5401,-11.3017,-10.4845,-0.5187311485998055,-0.05925489665362137,-0.7728126654949442,-0.010705226492276232,-0.005131965809650252,-0.02353646910458007,0,70,255.0,255.0,255.0
491,24.55,-11.566050600359283,-11.304668567005184,-10.523169744412863,-0.5193060936950579,-0.0594759278585241,-0.7739709220542109,-0.012292577317820476,-0.003709282386458803,-0.022793793266086295,0,70,255.0,255.0,255.0
492,24.6,-11.592031932161863,-11.307646407216334,-10.56189647330889,-0.5199604063315876,-0.059625824892267254,-0.7750920448215528,-0.013879928143364717,-0.002286598963267354,-0.022051117427592516,0,70,255.0,255.0,255.0
493,24.650000000000002,-11.618047963784798,-11.31062996392489,-10.600678329998487,-0.5206940865093944,-0.05970458775485084,-0.7761760337969702,-0.015467278968908961,-0.0008639155400759048,-0.02130844158909874,0,70,255.0,255.0,255.0
494,24.700000000000003,-11.644102663605157,-11.313615680422298,-10.639513457792058,-0.5215071342284785,-0.05971221644627485,-0.7772228889804628,-0.017054629794453203,0.0005587678831155442,-0.02056576575060496,0,70,255.0,255.0,255.0
495,24.75,-11.6702,-11.3166,-10.6784,-0.5223995494888397,-0.05964871096653929,-0.7782326103720307,-0.018641980619997334,0.0019814513063070027,-0.019823089912112124,0,70,255.0,255.0,255.0
496,24.8,-11.696342620356084,-11.319580356675086,-10.717336588387768,-0.5232920728718788,-0.05957351485483421,-0.7792345052743109,-0.017058954701568197,0.0010263931618959752,-0.020252706179093857,0,70,255.0,255.0,255.0
497,24.85,-11.722527888098924,-11.322558147367271,-10.756323808540987,-0.5241054449589966,-0.05954607165034969,-0.7802578809899401,-0.015475928783139059,7.133501748494758e-05,-0.020682322446075586,0,70,255.0,255.0,255.0
498,24.900000000000002,-11.748751845663719,-11.325535759721907,-10.795362734500321,-0.5248396657501928,-0.059566381353085715,-0.7813027375189184,-0.01389290286470992,-0.0008837231269260798,-0.02111193871305732,0,70,255.0,255.0,255.0
499,24.950000000000003,-11.775010535485677,-11.328515581384366,-10.834454440306436,-0.5254947352454676,-0.059634443963042294,-0.782369074861246,-0.012309876946280784,-0.0018387812713371076,-0.021541554980039047,0,70,255.0,255.0,255.0
500,25.0,-11.8013,-11.3315,-10.8736,-0.5260706534448208,-0.05975025948021943,-0.7834568930169225,-0.010726851027849982,-0.0027938394157481228,-0.02197117124701986,0,70,255.0,255.0,255.0
501,25.05,-11.827617318216378,-11.334490806294466,-10.91279990203606,-0.526629614817417,-0.059878012722144554,-0.7845310568485376,-0.011631603875998145,-0.002316290261256908,-0.020995382017586713,0,70,255.0,255.0,255.0
502,25.1,-11.853963715442449,-11.337487403314586,-10.952052292527164,-0.5272338138324207,-0.05998188850634512,-0.7855564312186812,-0.012536356724146306,-0.0018387411067656931,-0.020019592788153566,0,70,255.0,255.0,255.0
503,25.150000000000002,-11.880341453560328,-11.340488597187472,-10.991354732000238,-0.5278832504898316,-0.060061886832821126,-0.786533016127353,-0.013441109572294468,-0.0013611919522744783,-0.019043803558720422,0,70,255.0,255.0,255.0
504,25.200000000000003,-11.90675279445214,-11.343493194040239,-11.030704780982209,-0.5285779247896502,-0.06011800770157257,-0.7874608115745532,-0.01434586242044263,-0.0008836427977832635,-0.018068014329287275,0,70,255.0,255.0,255.0
505,25.25,-11.9332,-11.3465,-11.0701,-0.529317836731876,-0.06015025111259945,-0.7883398175602816,-0.015250615268591616,-0.00040609364329208253,-0.017092225099851532,0,70,255.0,255.0,255.0
506,25.3,-11.959684906778397,-11.34950841814705,-11.109539003467995,-0.5300774678584523,-0.06019443425660205,-0.7892332673315423,-0.015134629794457764,-0.0013612321168118083,-0.018645765750575926,0,70,255.0,255.0,255.0
507,25.35,-11.986207650131284,-11.352520239374389,-11.149024621350364,-0.5308312997113218,-0.060286374324280634,-0.7902043941353392,-0.015018644320323911,-0.002316370590331534,-0.02019930640130032,0,70,255.0,255.0,255.0
508,25.400000000000002,-12.012767940094971,-11.355537851528206,-11.188560737498738,-0.5315793322904847,-0.0604260713156352,-0.7912531979716724,-0.01490265884619006,-0.0032715090638512595,-0.021752847052024717,0,70,255.0,255.0,255.0
509,25.450000000000003,-12.039365486705771,-11.358563642454682,-11.228151235764742,-0.5323215655959408,-0.060613525230665766,-0.7923796788405417,-0.014786673372056207,-0.004226647537370985,-0.02330638770274911,0,70,255.0,255.0,255.0
510,25.5,-12.066,-11.3616,-11.2678,-0.5330579996276904,-0.06084873606937229,-0.7935838367419472,-0.014670687897925028,-0.005181786010890421,-0.024859928353471616,0,70,255.0,255.0,255.0
511,25.55,-12.09267105467003,-11.36464832111734,-11.307509684091968,-0.5337805137487945,-0.06107225025142872,-0.7947918738252857,-0.014229876946241931,-0.003758781271366631,-0.023461554980068636,0,70,255.0,255.0,255.0
512,25.6,-12.119377684032422,-11.367706039187858,-11.347278022071384,-0.5344809873223146,-0.06122461419650896,-0.7959299922399541,-0.013789065994558834,-0.002335776531842841,-0.022063181606665653,0,70,255.0,255.0,255.0
513,25.650000000000002,-12.146118786059802,-11.37076959669971,-11.387101518004819,-0.5351594203482505,-0.06130582790461301,-0.7969981919859523,-0.013348255042875738,-0.0009127717923190504,-0.020664808233262673,0,70,255.0,255.0,255.0
514,25.700000000000003,-12.172893258724788,-11.373835436141038,-11.426976675958835,-0.5358158128266022,-0.06131589137574087,-0.7979964730632804,-0.01290744409119264,0.0005102329472047393,-0.019266434859859693,0,70,255.0,255.0,255.0
515,25.75,-12.1997,-11.3769,-11.4669,-0.5364501647573698,-0.06125480460989254,-0.7989248354719384,-0.012466633139510463,0.0019332376867285395,-0.017868061486459474,0,70,255.0,255.0,255.0
516,25.8,-12.226538074541494,-11.379960697383588,-11.506868660164141,-0.5370724771463679,-0.06118056473767073,-0.7998232373673312,-0.012425862420413124,0.0010363572021440098,-0.018068014329252514,0,70,255.0,255.0,255.0
517,25.85,-12.253407213739038,-11.38301880387417,-11.546882490364103,-0.5376927509994112,-0.06115116888967814,-0.8007316369048637,-0.012385091701315786,0.0001394767175594803,-0.018267967172045558,0,70,255.0,255.0,255.0
518,25.900000000000002,-12.280307315665837,-11.38607656167296,-11.586941990481998,-0.5383109863164995,-0.06116661706591478,-0.8016500340845357,-0.012344320982218446,-0.0007574037670250492,-0.018467920014838598,0,70,255.0,255.0,255.0
519,25.950000000000003,-12.30723827839509,-11.389136212981166,-11.62704766039993,-0.538927183097633,-0.06122690926638064,-0.8025784289063476,-0.012303550263121108,-0.0016542842516095789,-0.01866787285763164,0,70,255.0,255.0,255.0
520,26.0,-12.3342,-11.3922,-11.6672,-0.5395413413428115,-0.06133204549107573,-0.803516821370299,-0.012262779544021107,-0.002551164736194045,-0.01886782570042911,0,70,255.0,255.0,255.0
521,26.05,-12.361192647163998,-11.395269689348309,-11.707399675251475,-0.5401695776657153,-0.06145349079791326,-0.8044751767053787,-0.012866673372129798,-0.0023066475373071235,-0.01946638770275798,0,70,255.0,255.0,255.0
522,26.1,-12.388217461011429,-11.39834514531546,-11.747648016472207,-0.5408280086800245,-0.061562710244806446,-0.8054634601405748,-0.013470567200238488,-0.0020621303384202026,-0.02006494970508685,0,70,255.0,255.0,255.0
523,26.150000000000002,-12.41527595127686,-11.401425756608457,-11.787946520067202,-0.5415166343857392,-0.061659703831755286,-0.8064816716758875,-0.014074461028347177,-0.0018176131395332812,-0.02066351170741572,0,70,255.0,255.0,255.0
524,26.200000000000003,-12.442369627694857,-11.404510911934302,-11.828296682441463,-0.5422354547828592,-0.06174447155875978,-0.8075298113113164,-0.014678354856455867,-0.0015730959406463601,-0.02126207370974459,0,70,255.0,255.0,255.0
525,26.25,-12.4695,-11.4076,-11.8687,-0.5429844698713846,-0.061817013425819925,-0.8086078790468619,-0.015282248684563626,-0.0013285787417595118,-0.021860635712068976,0,70,255.0,255.0,255.0
526,26.3,-12.49666813680251,-11.410692545223183,-11.909157438829963,-0.5437372121907784,-0.06188547207068283,-0.8096840558111609,-0.014827444091189784,-0.0014097670527567063,-0.021186434859887793,0,70,255.0,255.0,255.0
527,26.35,-12.523873342215252,-11.413788614863995,-11.949667843747074,-0.5444672142805036,-0.0619579901310956,-0.8107265225328507,-0.01437263949781594,-0.0014909553637539009,-0.02051223400770661,0,70,255.0,255.0,255.0
528,26.400000000000002,-12.551114479226735,-11.416888411893218,-11.990229529249206,-0.54517447614056,-0.06203456760705822,-0.8117352792119316,-0.013917834904442098,-0.0015721436747510955,-0.01983803315552543,0,70,255.0,255.0,255.0
529,26.450000000000003,-12.57839041082548,-11.419992139281627,-12.030840809834224,-0.5458589977709478,-0.06211520449857071,-0.8127103258484033,-0.013463030311068255,-0.00165333198574829,-0.019163832303344248,0,70,255.0,255.0,255.0
530,26.5,-12.6057,-11.4231,-12.0715,-0.546520779171667,-0.06219990080563305,-0.8136516624422658,-0.013008225717697108,-0.0017345202967454787,-0.01848963145116045,0,70,255.0,255.0,255.0
531,26.55,-12.633042005625958,-11.426212129758966,-12.11220576942868,-0.5471535735711857,-0.06228462091934363,-0.8145806000499841,-0.012303550263052,-0.001654284251677728,-0.018667872857566083,0,70,255.0,255.0,255.0
532,26.6,-12.660414770127574,-11.429328395228563,-12.152958208539504,-0.5477511341979723,-0.06236532923080083,-0.8155184497280225,-0.011598874808406892,-0.001574048206609977,-0.01884611426397172,0,70,255.0,255.0,255.0
533,26.650000000000002,-12.68781653181621,-11.432448595818675,-12.19375776293599,-0.5483134610520264,-0.06244202574000463,-0.8164652114763813,-0.010894199353761784,-0.0014938121615422262,-0.019024355670377354,0,70,255.0,255.0,255.0
534,26.700000000000003,-12.715245529003232,-11.435572530939192,-12.234604878221651,-0.5488405541333483,-0.06251471044695506,-0.8174208852950602,-0.010189523899116674,-0.0014135761164744752,-0.019202597076782988,0,70,255.0,255.0,255.0
535,26.75,-12.7427,-11.4387,-12.2755,-0.549332413441938,-0.06258338335165207,-0.8183854711840595,-0.009484848444470728,-0.001333340071406508,-0.019380838483186835,0,70,255.0,255.0,255.0
536,26.8,-12.770179040693659,-11.441830935740951,-12.31644348345532,-0.5498404935244621,-0.06265604425195255,-0.8193535439888846,-0.010838354856497664,-0.001573095940612238,-0.019342073709815822,0,70,255.0,255.0,255.0
537,26.85,-12.797685177274456,-11.444965804221752,-12.357435322094911,-0.5504162489275878,-0.0627406929457133,-0.8203196785550411,-0.0121918612685246,-0.0018128518098179682,-0.019303308936444805,0,70,255.0,255.0,255.0
538,26.900000000000002,-12.825221793508428,-11.44810520483208,-12.398475419006845,-0.5510596796513146,-0.06283732943293434,-0.8212838748825291,-0.013545367680551538,-0.002052607679023698,-0.019264544163073792,0,70,255.0,255.0,255.0
539,26.950000000000003,-12.852792273161597,-11.451249736961605,-12.439563677279187,-0.551770785695643,-0.06294595371361568,-0.8222461329713485,-0.014898874092578472,-0.0022923635482294284,-0.01922577938970278,0,70,255.0,255.0,255.0
540,27.0,-12.8804,-11.4544,-12.4807,-0.5525495670605726,-0.06306656578775727,-0.8232064528214994,-0.016252380504604425,-0.0025321194174350303,-0.019187014616332654,0,70,255.0,255.0,255.0
541,27.05,-12.908047431599412,-11.457556127277229,-12.52188429675005,-0.5533404523309652,-0.06317120207283686,-0.8241652239944904,-0.015383030311098788,-0.0016533319857483394,-0.01916383230330876,0,70,255.0,255.0,255.0
542,27.1,-12.935733320774602,-11.460716387884425,-12.563116503080856,-0.5540878700916825,-0.06323189898633211,-0.8251228360518303,-0.01451368011759315,-0.0007745445540616486,-0.019140649990284864,0,70,255.0,255.0,255.0
543,27.150000000000002,-12.963455494150088,-11.463878584853003,-12.604396561036639,-0.5547918203427245,-0.06324865652824302,-0.826079288993519,-0.013644329924087513,0.00010424287762504213,-0.01911746767726097,0,70,255.0,255.0,255.0
544,27.200000000000003,-12.991211778350381,-11.467040521214388,-12.645724412661616,-0.5554523030840912,-0.06322147469856959,-0.8270345828195564,-0.012774979730581877,0.000983030309311733,-0.019094285364237074,0,70,255.0,255.0,255.0
545,27.25,-13.019,-11.4702,-12.6871,-0.5560693183157825,-0.06315035349731185,-0.8279887175299426,-0.01190562953707186,0.0018618177409983616,-0.01907110305121318,0,70,255.0,255.0,255.0
546,27.3,-13.046818432908696,-11.47335575515013,-12.728523329544489,-0.5566696971516862,-0.0630911474566997,-0.8289455600331426,-0.012109523899076182,0.0005064238834869869,-0.019202597076782093,0,70,255.0,255.0,255.0
547,27.35,-13.074667139627138,-11.47651024424055,-12.76999466558167,-0.5572802707056902,-0.06309971110896316,-0.8299089772376209,-0.012313418261080506,-0.0008489699740243878,-0.019334091102351007,0,70,255.0,255.0,255.0
548,27.400000000000002,-13.102546629891233,-11.479666855755909,-12.811514336846606,-0.5579010389777944,-0.06317604445410216,-0.8308789691433777,-0.012517312623084828,-0.002204363831535763,-0.01946558512791992,0,70,255.0,255.0,255.0
549,27.450000000000003,-13.130457413436886,-11.482828978180843,-12.853082672074363,-0.5585320019679988,-0.06332014749211673,-0.8318555357504129,-0.012721206985089151,-0.0035597576890471373,-0.019597079153488836,0,70,255.0,255.0,255.0
550,27.5,-13.1584,-11.486,-12.8947,-0.5591731596763031,-0.06353202022300684,-0.8328386770587265,-0.012925101347094348,-0.004915151546557639,-0.019728573179055964,0,70,255.0,255.0,255.0
551,27.55,-13.186374836765811,-11.489182452122252,-12.936366385071999,-0.5598207590622951,-0.06376020810037554,-0.8338125358729463,-0.012978874092584825,-0.004212363548190469,-0.019225779389737057,0,70,255.0,255.0,255.0
552,27.6,-13.214382120716854,-11.492375435153372,-12.97808083459247,-0.5604710470855616,-0.0639532565778259,-0.8347612549977003,-0.013032646838075302,-0.003509575549823298,-0.01872298560041815,0,70,255.0,255.0,255.0
