idx,t,px,py,pz,vx,vy,vz,ax,ay,az,yaw,mode,ledr,ledg,ledb
0,0.0,13.5,-4.5,0.0,-0.002456005566854491,0.00031750082899629096,0.002067439872437897,0.05027206680223384,-0.005410009947937552,-0.05280927846925477,0,70,255.0,255.0,255.0
1,0.05,13.499939583799593,-4.499990969970157,3.762783540776428e-05,3.023743924607802e-05,4.205038133903358e-05,-0.0005569776586785677,0.04917765344178893,-0.005608007958352743,-0.052167422775403816,0,70,255.0,255.0,255.0
2,0.1,13.500002111732792,-4.499995959960208,-5.5162886122981e-05,0.0024617597773244015,-0.00024329996683898335,-0.0031493024051024846,0.048083240081344014,-0.005806005968767933,-0.05152556708155286,0,70,255.0,255.0,255.0
3,0.15000000000000002,13.500184847766192,-4.500015464965183,-0.00027676752535760846,0.00483856144738048,-0.0005385502155377599,-0.005709534366833855,0.0469888267208991,-0.006004003979183124,-0.0508837113877019,0,70,255.0,255.0,255.0
4,0.2,13.500485055866394,-4.500049979980104,-0.0006255814430614907,0.007160642449414311,-0.0008437003647572958,-0.008237673543872675,0.04589441336045419,-0.006202001989598315,-0.05024185569385095,0,70,255.0,255.0,255.0
5,0.25,13.5009,-4.5001,-0.0011,0.009428002783425898,-0.0011587504144975913,-0.010733719936218949,0.04480000000000928,-0.0064000000000135025,-0.04959999999999998,0,70,255.0,255.0,255.0
6,0.30000000000000004,13.501426944133604,-4.500166020019896,-0.00169841855693851,0.01164064244941524,-0.0014837003647586466,-0.013197673543872676,0.043705586639564364,-0.006597998010428696,-0.04895814430614903,0,70,255.0,255.0,255.0
7,0.35000000000000003,13.502063152233807,-4.500248535034818,-0.002419232474642392,0.013798561447382337,-0.001818550215540461,-0.015629534366833852,0.04261117327911945,-0.006795996020843889,-0.048316288612298086,0,70,255.0,255.0,255.0
8,0.4,13.502805888267208,-4.500348040039793,-0.0032608371138770193,0.015901759777327183,-0.0021632999668430354,-0.018029302405102483,0.04151675991867454,-0.006993994031259081,-0.04767443291844714,0,70,255.0,255.0,255.0
9,0.45,13.503652416200406,-4.500465030029844,-0.004221627835407765,0.01795023743924979,-0.002517949618666369,-0.020396977658678567,0.04042234655822963,-0.007191992041674275,-0.047032577224596195,0,70,255.0,255.0,255.0
10,0.5,13.5046,-4.5006,-0.0053,0.019943994433150147,-0.002882499171010462,-0.022732560127562106,0.03932793319778466,-0.007389990052089457,-0.04639072153074533,0,70,255.0,255.0,255.0
11,0.55,13.50564703966599,-4.500752949950261,-0.006495153607653727,0.02195119276309437,-0.003227248922312184,-0.025084328165830744,0.0409599999999841,-0.006399999999979398,-0.04768000000000004,0,70,255.0,255.0,255.0
12,0.6000000000000001,13.506796479331978,-4.500921899900521,-0.007809507215307456,0.024039994433148564,-0.0035224991710084024,-0.027500560127562114,0.04259206680218354,-0.005410009947869339,-0.04896927846925475,0,70,255.0,255.0,255.0
13,0.65,13.508052399164974,-4.501104374875651,-0.009246284019134318,0.026210399443312722,-0.003768249917099117,-0.029981256012756214,0.04422413360438297,-0.004420019895759282,-0.050258556938509454,0,70,255.0,255.0,255.0
14,0.7000000000000001,13.509418879331976,-4.501297899900521,-0.010808707215307457,0.028462407793586858,-0.00396450116058433,-0.032526415821413066,0.04585620040658242,-0.0034300298436492228,-0.05154783540776416,0,70,255.0,255.0,255.0
15,0.75,13.5109,-4.5015,-0.0125,0.03079601948397096,-0.00411125290146404,-0.03513603955353263,0.0474882672087818,-0.0024400397915391864,-0.05283711387701906,0,70,255.0,255.0,255.0
16,0.8,13.51249849720244,-4.5017093801790615,-0.014322567012446587,0.033130586498201865,-0.004279303945992163,-0.03776101379280438,0.045894413360454175,-0.004282001989585747,-0.05216185569385099,0,70,255.0,255.0,255.0
17,0.8500000000000001,13.514211730438278,-4.501929465363097,-0.0162755386641278,0.03538546082001638,-0.004539453100422615,-0.04035222512291773,0.04430055951212655,-0.006123964187632308,-0.051486597510682915,0,70,255.0,255.0,255.0
18,0.9,13.5160357150729,-4.502164860457603,-0.01835722680958572,0.03756064244941452,-0.004891700364755393,-0.04290967354387267,0.04270670566379894,-0.007965926385678865,-0.050811339327514846,0,70,255.0,255.0,255.0
19,0.9500000000000001,13.517966466471682,-4.5024201703680715,-0.02056594330336243,0.03965613138639627,-0.005336045738990501,-0.04543335905566922,0.041112851815471314,-0.009807888583725426,-0.05013608114434678,0,70,255.0,255.0,255.0
20,1.0,13.52,-4.5027,-0.0229,0.04167192763096165,-0.005872489223127937,-0.04792328165830736,0.0395189979671437,-0.011649850781772018,-0.04946082296117876,0,70,255.0,255.0,255.0
21,1.05,13.522133371524252,-4.503007129333492,-0.025357778342559936,0.043670461244096834,-0.006391535293714836,-0.050383616662951734,0.040422346558263725,-0.009111992041703904,-0.048952577224596214,0,70,255.0,255.0,255.0
22,1.1,13.524367798914902,-4.503337038647088,-0.02793793812818136,0.045714162286788027,-0.006783688427298328,-0.05281853938076698,0.041325695149383744,-0.006574133301635787,-0.04844433148801367,0,70,255.0,255.0,255.0
23,1.1500000000000001,13.526705540543425,-4.5036833832939385,-0.030639208742522815,0.04780303075903521,-0.007048948623878414,-0.055228049811753104,0.04222904374050377,-0.004036274561567671,-0.04793608575143112,0,70,255.0,255.0,255.0
24,1.2000000000000002,13.529148854781297,-4.504039818627193,-0.033460319571242854,0.04993706666083841,-0.007187315883455097,-0.057612147955910104,0.043132392331623796,-0.0014984158214995554,-0.04742784001484857,0,70,255.0,255.0,255.0
25,1.25,13.5317,-4.5044,-0.0364,0.05211626999219759,-0.007198790206028371,-0.05997083381323796,0.044035740922743705,0.0010394429185685491,-0.04691959427826603,0,70,255.0,255.0,255.0
26,1.3,13.53436081670055,-4.504759702486972,-0.0394575196173137,0.054315568525429146,-0.0072105548791550735,-0.062336519555388714,0.04393620040651861,-0.0015100298436366492,-0.04770783540776423,0,70,255.0,255.0,255.0
27,1.35,13.537131473902114,-4.505123180048551,-0.042634308823146796,0.05650989003284945,-0.007349793190392035,-0.06474161735401439,0.04383665989029352,-0.004059502605841848,-0.048496076537262435,0,70,255.0,255.0,255.0
28,1.4000000000000001,13.540011722753404,-4.505496806366645,-0.045932338220323055,0.058699234514458506,-0.007616505139739258,-0.06718612720911496,0.04373711937406842,-0.0066089753680470455,-0.04928431766676064,0,70,255.0,255.0,255.0
29,1.4500000000000002,13.54300131440313,-4.5058869551231595,-0.0493535784116662,0.060883601970256294,-0.008010690727196741,-0.06967004912069046,0.04363757885784333,-0.009158448130252244,-0.05007255879625884,0,70,255.0,255.0,255.0
30,1.5,13.5461,-4.5063,-0.0529,0.06306299240024284,-0.008532349952764482,-0.07219338308874083,0.04353803834161851,-0.01170792089245741,-0.05086079992575654,0,70,255.0,255.0,255.0
31,1.55,13.549307361673552,-4.506740460718626,-0.05657294318818532,0.06522726465417084,-0.009070245189668627,-0.0747183051154934,0.04303285181550105,-0.009807888583708376,-0.050136081144346464,0,70,255.0,255.0,255.0
32,1.6,13.552622305476644,-4.50720544115871,-0.06037122657923151,0.06736627758179295,-0.00951313881113532,-0.07720699120317548,0.042527665289383586,-0.00790785627495934,-0.0494113623629364,0,70,255.0,255.0,255.0
33,1.6500000000000001,13.55604356844296,-4.507690191239482,-0.06429303837618505,0.06948003118310919,-0.009861030817164562,-0.07965944135178706,0.042022478763266126,-0.006007823966210305,-0.04868664358152632,0,70,255.0,255.0,255.0
34,1.7000000000000002,13.559569887606182,-4.508189960880169,-0.06833656678209238,0.07156852545811956,-0.010113921207756352,-0.08207565556132812,0.04151729223714866,-0.00410779165746127,-0.04796192480011625,0,70,255.0,255.0,255.0
35,1.75,13.5632,-4.5087,-0.0725,0.07363176040682405,-0.01027180998291069,-0.08445563383179869,0.04101210571103098,-0.002207759348712257,-0.047237206018706734,0,70,255.0,255.0,255.0
36,1.8,13.566932936605241,-4.509216854638528,-0.07678190762994504,0.07568737285789139,-0.0104124643621663,-0.08682225998263758,0.041212392331662184,-0.003418415821512145,-0.04742784001484916,0,70,255.0,255.0,255.0
37,1.85,13.570768904191308,-4.50974225531661,-0.08118238485992722,0.07775299963999027,-0.010613651565061905,-0.08919841783328361,0.04141267895229339,-0.004629072294312033,-0.0476184740109916,0,70,255.0,255.0,255.0
38,1.9000000000000001,13.574708403474755,-4.510279228675429,-0.08570190827493686,0.07982864075312072,-0.010875371591597505,-0.09158410738373675,0.0416129655729246,-0.0058397287671119215,-0.047809108007134025,0,70,255.0,255.0,255.0
39,1.9500000000000002,13.578751935172136,-4.510830801356165,-0.09034095445996435,0.08191429619728274,-0.011197624441773097,-0.09397932863399702,0.041813252193555805,-0.007050385239911809,-0.04799974200327646,0,70,255.0,255.0,255.0
40,2.0,13.5829,-4.5114,-0.0951,0.08400996597247629,-0.011580410115588684,-0.0963840815840644,0.04201353881418668,-0.00826104171271172,-0.048190375999419666,0,70,255.0,255.0,255.0
41,2.0500000000000003,13.587152891905493,-4.51198892072726,-0.09997942629203455,0.08610324391427546,-0.011967897361662896,-0.09879265495395637,0.041717578857779714,-0.007238448130256708,-0.04815255879625868,0,70,255.0,255.0,255.0
42,2.1,13.591510077758132,-4.512595937574848,-0.10497923398105968,0.08818172385825426,-0.012304254928614354,-0.10119933746369028,0.04142161890137275,-0.006215854547801707,-0.0481147415930977,0,70,255.0,255.0,255.0
43,2.15,13.595970817658023,-4.513218494058804,-0.11009932852406755,0.0902454058044127,-0.012589482816443065,-0.10360412911326614,0.04112565894496578,-0.0051932609653467035,-0.048076924389936715,0,70,255.0,255.0,255.0
44,2.2,13.600534371705274,-4.513854033695173,-0.11533961537805033,0.09229428975275085,-0.012823581025149026,-0.10600702990268394,0.040829698988558816,-0.004170667382891693,-0.04803910718677573,0,70,255.0,255.0,255.0
45,2.25,13.6052,-4.5145,-0.1207,0.0943283757032686,-0.013006549554732235,-0.1084080398319437,0.040533739032151406,-0.003148073800436718,-0.048001289983614526,0,70,255.0,255.0,255.0
46,2.3000000000000003,13.60996749577279,-4.515154662452427,-0.12618038720191693,0.09637965148500197,-0.013187946191179687,-0.11080712020153698,0.041517292237182576,-0.004107791657461301,-0.04796192480011576,0,70,255.0,255.0,255.0
47,2.35,13.614838784776172,-4.5158195943839985,-0.1317806792158341,0.09848010492698686,-0.013417328720478365,-0.11320423231195528,0.04250084544221373,-0.005067509514485875,-0.047922559616617,0,70,255.0,255.0,255.0
48,2.4000000000000004,13.619816325893158,-4.516497195089356,-0.13750077762879293,0.10062973602922334,-0.013694697142628276,-0.11559937616319868,0.0434843986472449,-0.006027227371510459,-0.04788319443311824,0,70,255.0,255.0,255.0
49,2.45,13.624902578006765,-4.517189863863142,-0.14334058402783445,0.10282854479171134,-0.01402005145762941,-0.11799255175526711,0.04446795185227606,-0.0069869452285350325,-0.047843829249619475,0,70,255.0,255.0,255.0
50,2.5,13.6301,-4.5179,-0.1493,0.10507653121445093,-0.014393391665481774,-0.12038375908816061,0.04545150505730744,-0.007946663085559622,-0.04780446406612093,0,70,255.0,255.0,255.0
51,2.5500000000000003,13.635409925003351,-4.518629229463029,-0.15537902490029784,0.10730615014572241,-0.01476831787361856,-0.12277886423989559,0.0437332521935513,-0.00705038523991182,-0.04799974200327777,0,70,255.0,255.0,255.0
52,2.6,13.640829183137187,-4.519376084889158,-0.16157804915560384,0.10944985643380606,-0.015098430189472958,-0.1251837332884884,0.042014999329795175,-0.006154107394264026,-0.048195019940434604,0,70,255.0,255.0,255.0
53,2.6500000000000004,13.646353478769345,-4.520138325583771,-0.167897560960761,0.11150765007870192,-0.015383728613044965,-0.12759836623393905,0.040296746466039035,-0.005257829548616224,-0.048390297877591436,0,70,255.0,255.0,255.0
54,2.7,13.651978516267672,-4.520913710852257,-0.17433804851061208,0.11347953108040996,-0.015624213144334579,-0.13002276307624752,0.03857849360228291,-0.00436155170296843,-0.048585575814748275,0,70,255.0,255.0,255.0
55,2.75,13.6577,-4.5217,-0.1809,0.1153654994389302,-0.015819883783341808,-0.13245692381541388,0.03686024073852601,-0.0034652738573207054,-0.048780853751904774,0,70,255.0,255.0,255.0
56,2.8000000000000003,13.663515204213809,-4.522495619695457,-0.18758351319689182,0.11725974793210657,-0.01601078231434712,-0.1348774228388809,0.03890969898852873,-0.004170667382891728,-0.04803910718677513,0,70,255.0,255.0,255.0
57,2.85,13.669427682675085,-4.523301666059373,-0.1943871241617505,0.11925646933778307,-0.01623695052163098,-0.1372608345340914,0.040959157238531434,-0.004876060908462744,-0.04729736062164549,0,70,255.0,255.0,255.0
58,2.9000000000000004,13.675442559029461,-4.524119902575559,-0.20130897852816335,0.12135566365595972,-0.016498388405193395,-0.13960715890104544,0.04300861548853416,-0.005581454434033767,-0.04655561405651584,0,70,255.0,255.0,255.0
59,2.95,13.681564956922555,-4.52495209272783,-0.20834722192971744,0.1235573308866365,-0.016795095965034357,-0.14191639593974298,0.04505807373853686,-0.006286847959604783,-0.045813867491386204,0,70,255.0,255.0,255.0
60,3.0,13.6878,-4.5258,-0.2155,0.12586147102981338,-0.017127073201153867,-0.14418854565018405,0.0471075319885399,-0.006992241485175771,-0.045072120926256565,0,70,255.0,255.0,255.0
61,3.0500000000000003,13.69415085814142,-4.526665091755141,-0.2227661223121351,0.12815085812583465,-0.017476552868996638,-0.14646344440458095,0.04446795185231059,-0.006986945228535019,-0.04592382924961931,0,70,255.0,255.0,255.0
62,3.1,13.70061288616247,-4.527547650873353,-0.23014705419739423,0.13030826621504446,-0.01782576772400737,-0.148780928575146,0.04182837171608131,-0.0069816489718942665,-0.04677553757298205,0,70,255.0,255.0,255.0
63,3.1500000000000004,13.70717948511281,-4.528447664113995,-0.23764492492658587,0.1323336952974428,-0.018174717766186066,-0.15114099816187918,0.039188791579852,-0.006976352715253514,-0.0476272458963448,0,70,255.0,255.0,255.0
64,3.2,13.7138440560421,-4.5293651182364245,-0.2452618637705183,0.13422714537302965,-0.018523402995532724,-0.15354365316478044,0.03654921144362272,-0.006971056458612762,-0.04847895421970754,0,70,255.0,255.0,255.0
65,3.25,13.7206,-4.5303,-0.253,0.13598861644180504,-0.01887182341204734,-0.1559888935838499,0.03390963130739344,-0.0069657602019719544,-0.04933066254307028,0,70,255.0,255.0,255.0
66,3.3000000000000003,13.727442963220513,-4.53125201328398,-0.2608607975545679,0.13775281956454793,-0.019203006209670314,-0.15843679954279538,0.03665849360232107,-0.006281551702946921,-0.0485855758147482,0,70,255.0,255.0,255.0
67,3.35,13.734377572675033,-4.532219730447218,-0.2688430590486726,0.13965446580203716,-0.019499978582342033,-0.16084745116532473,0.03940735589724867,-0.005597343203921894,-0.04784048908642613,0,70,255.0,255.0,255.0
68,3.4000000000000004,13.741410700519296,-4.533201440968465,-0.27694492176549346,0.1416935551542728,-0.019762740530062505,-0.163220848451438,0.0421562181921763,-0.004913134704896861,-0.04709540235810405,0,70,255.0,255.0,255.0
69,3.45,13.74854921890904,-4.534195434326476,-0.2851645229882095,0.14387008762125478,-0.01999129205283172,-0.16555699140113514,0.0449050804871039,-0.0042289262058718335,-0.04635031562978198,0,70,255.0,255.0,255.0
70,3.5,13.7558,-4.5352,-0.2935,0.1461840632029832,-0.020185633150649685,-0.16785588001441618,0.04765394278203172,-0.003544717706846806,-0.045605228901459904,0,70,255.0,255.0,255.0
71,3.5500000000000003,13.763167688976527,-4.536214055108938,-0.30194988746959345,0.1485018636159957,-0.020383422292311514,-0.17014135742423733,0.04505807373846865,-0.004366847959626295,-0.04581386749138621,0,70,255.0,255.0,255.0
72,3.6,13.770648023137397,-4.537239027337775,-0.3105143096079153,0.15068987057683006,-0.020622317946612314,-0.1724372667635548,0.042462204694905595,-0.005188978212405777,-0.04602250608131251,0,70,255.0,255.0,255.0
73,3.6500000000000004,13.778234512810007,-4.5382769720121425,-0.31919378801144055,0.15274808408548626,-0.020902320113552093,-0.1747436080323686,0.039866335651342524,-0.006011108465185266,-0.04623114467123881,0,70,255.0,255.0,255.0
74,3.7,13.785920668321744,-4.539329944457673,-0.3279888442766438,0.15467650414196432,-0.02122342879313084,-0.1770603812306787,0.037270466607779475,-0.006833238717964749,-0.046439783261165116,0,70,255.0,255.0,255.0
75,3.75,13.7937,-4.5404,-0.3369,0.1564751307462642,-0.021585643985348565,-0.17938758635848506,0.03467459756421598,-0.007655368970744286,-0.046648421851090305,0,70,255.0,255.0,255.0
76,3.8000000000000003,13.801567880873385,-4.541488566280267,-0.3459276525670584,0.15825572597146018,-0.02195130462108292,-0.18171777076025503,0.03654921144362252,-0.006971056458629812,-0.046558954219707974,0,70,255.0,255.0,255.0
77,3.85,13.809527134775378,-4.542594560201682,-0.355071702519666,0.16013005189062646,-0.022282749631211546,-0.18404348178045588,0.03842382532302904,-0.006286743946515343,-0.046469486588325636,0,70,255.0,255.0,255.0
78,3.9000000000000004,13.81758244824068,-4.543716270982962,-0.36433192618874455,0.16209810850376308,-0.022579979015734455,-0.1863647194190876,0.04029843920243558,-0.005602431434400868,-0.046380018956943304,0,70,255.0,255.0,255.0
79,3.95,13.825738507803988,-4.5448519878428275,-0.37370809990521525,0.16415989581087,-0.022842992774651634,-0.1886814836761502,0.0421730530818421,-0.004918118922286399,-0.046290551325560966,0,70,255.0,255.0,255.0
80,4.0,13.834,-4.546,-0.3832,0.16631541381194728,-0.023071790907963095,-0.19099377455164368,0.04404766696124818,-0.00423380641017207,-0.04620108369417819,0,70,255.0,255.0,255.0
81,4.05,13.842370387529934,-4.5471588797699924,-0.39280750226217304,0.16849123249815706,-0.02328335922336334,-0.19330755953474266,0.042985080487142606,-0.0042289262058377575,-0.04635031562978202,0,70,255.0,255.0,255.0
82,4.1000000000000005,13.850848237761086,-4.5483283318555,-0.4025308803134207,0.17061392186066154,-0.023494683528546872,-0.1956288061146219,0.041922494013037014,-0.004224046001503445,-0.04649954756538586,0,70,255.0,255.0,255.0
83,4.15,13.859430894227271,-4.549508344056011,-0.41237050723358165,0.17268348189946078,-0.023705763823513686,-0.19795751429128128,0.04085990753893144,-0.004219165797169133,-0.04664877950098969,0,70,255.0,255.0,255.0
84,4.2,13.868115700462305,-4.550698904171014,-0.4223267561024951,0.17469991261455467,-0.023916600108263786,-0.20029368406472087,0.03979732106482587,-0.004214285592834821,-0.046798011436593526,0,70,255.0,255.0,255.0
85,4.25,13.8769,-4.5519,-0.4324,0.17666321400594334,-0.02412719238279717,-0.20263731543494062,0.0387347345907203,-0.004209405388500648,-0.046947243372197356,0,70,255.0,255.0,255.0
86,4.3,13.885781769006874,-4.553111914639762,-0.4425903383842493,0.17861134403590573,-0.024355258485458917,-0.20497199110077466,0.03919046660777492,-0.004913238717969251,-0.04643978326116356,0,70,255.0,255.0,255.0
87,4.3500000000000005,13.89476151418027,-4.554336112376321,-0.4528967762266517,0.18058226066672084,-0.0246185162545941,-0.207281293761057,0.03964619862482955,-0.005617072047437868,-0.04593232315012975,0,70,255.0,255.0,255.0
88,4.4,13.903840374850228,-4.555574352792997,-0.4633180448769293,0.18257596389838868,-0.024916965690202707,-0.20956522341578765,0.040101930641884165,-0.006320905376906471,-0.04542486303909596,0,70,255.0,255.0,255.0
89,4.45,13.913019490346791,-4.556828395473116,-0.47385287568480455,0.18459245373090927,-0.025250606792284743,-0.21182378006496658,0.04055766265893879,-0.007024738706375075,-0.044917402928062164,0,70,255.0,255.0,255.0
90,4.5,13.9223,-4.5581,-0.4845,0.18663173016428258,-0.025619439560840212,-0.21405696370859384,0.04101339467599319,-0.007728572035843678,-0.044409942817027925,0,70,255.0,255.0,255.0
91,4.55,13.931682536442562,-4.5593902616709565,-0.49525834420082954,0.18866339135822857,-0.025983606834794205,-0.21627647606215855,0.04025305308184617,-0.006838118922316081,-0.04437055132556082,0,70,255.0,255.0,255.0
92,4.6000000000000005,13.941165705517829,-4.560697618639217,-0.506127614779973,0.1906570354724672,-0.026303251453071823,-0.21849401884114994,0.039492711487699145,-0.005947665808788468,-0.04433115983409373,0,70,255.0,255.0,255.0
93,4.65,13.950747606371813,-4.562019844772002,-0.5171077132587016,0.1926126625069985,-0.026578373415673054,-0.22070959204556795,0.038732369893552124,-0.00505721269526087,-0.044291768342626624,0,70,255.0,255.0,255.0
94,4.7,13.960426338150532,-4.5633547139365245,-0.5281985411582868,0.19453027246182242,-0.02680897272259791,-0.2229231956754126,0.03797202829940511,-0.004166759581733273,-0.04425237685115953,0,70,255.0,255.0,255.0
95,4.75,13.9702,-4.5647,-0.5394,0.196409865336939,-0.026995049373846378,-0.22513482973068386,0.037211686705258096,-0.003276306468205481,-0.04421298535969176,0,70,255.0,255.0,255.0
96,4.800000000000001,13.98006728522288,-4.566054238676412,-0.5507122848124326,0.19828709053119037,-0.027182314175371963,-0.227362104650591,0.0378773210647963,-0.004214285592817792,-0.0448780114365937,0,70,255.0,255.0,255.0
97,4.8500000000000005,13.990029263748418,-4.567419013066808,-0.5621367646534566,0.20019759744341864,-0.02741647793312816,-0.22962263087434326,0.03854295542433449,-0.005152264717430088,-0.04554303751349563,0,70,255.0,255.0,255.0
98,4.9,14.00008759966252,-4.568796668118996,-0.5736751020882643,0.2021413860736238,-0.02769754064711497,-0.23191640840194058,0.03920858978387268,-0.006090243842042382,-0.04620806359039756,0,70,255.0,255.0,255.0
99,4.95,14.010243957051081,-4.57018954878079,-0.585328959682048,0.2041184564218059,-0.028025502317332397,-0.23424343723338298,0.039874224143410866,-0.007028222966654677,-0.046873089667299486,0,70,255.0,255.0,255.0
100,5.0,14.0205,-4.5716,-0.5971,0.2061288084879649,-0.028400362943780434,-0.23660371736867053,0.04053985850294861,-0.007966202091266972,-0.047538115744202525,0,70,255.0,255.0,255.0
101,5.050000000000001,14.030857122665926,-4.573029583623393,-0.6089893165494406,0.2081562465170121,-0.028775136463721065,-0.23896310533547718,0.040557662658938655,-0.007024738706358045,-0.04683740292806221,0,70,255.0,255.0,255.0
102,5.1000000000000005,14.041315639488499,-4.5744767290935515,-0.6209957266062011,0.21018457475385877,-0.029102836814416243,-0.24128745766147677,0.0405754668149287,-0.006083275321449134,-0.04613669011192191,0,70,255.0,255.0,255.0
103,5.15,14.051875594978108,-4.575939082752014,-0.6331174783882413,0.21221379319850495,-0.02938346399586598,-0.24357677434666936,0.040593270970918735,-0.0051418119365402234,-0.04543597729578161,0,70,255.0,255.0,255.0
104,5.2,14.062537033645146,-4.577414290940317,-0.645352820113521,0.21424390185095063,-0.029617018008070265,-0.24583105539105493,0.04061107512690878,-0.004200348551631313,-0.04473526447964131,0,70,255.0,255.0,255.0
105,5.25,14.0733,-4.5789,-0.6577,0.21627490071119582,-0.029803498851029106,-0.24805030079463347,0.04062887928289882,-0.0032588851667223473,-0.04403455166350101,0,70,255.0,255.0,255.0
106,5.300000000000001,14.084164224113419,-4.580394626830016,-0.6701576489898061,0.2182879234007542,-0.02998913996974092,-0.25025747400750004,0.03989202829943482,-0.004166759581750225,-0.04425237685115997,0,70,255.0,255.0,255.0
107,5.3500000000000005,14.095128178297589,-4.581899670558987,-0.6827259289217398,0.22026410354113932,-0.03022017480920413,-0.25247553847974946,0.03915517731597084,-0.005074633996778087,-0.044470202038818935,0,70,255.0,255.0,255.0
108,5.4,14.106190020425048,-4.583417400872949,-0.6954053843587705,0.22220344113235124,-0.030496603369418732,-0.2547044942113819,0.03841832633250685,-0.005982508411805949,-0.04468802722647789,0,70,255.0,255.0,255.0
109,5.45,14.117347908368336,-4.5849500874579405,-0.7081965598638676,0.22410593617439,-0.030818425650384722,-0.25694434120239723,0.03768147534904287,-0.00689038282683381,-0.04490585241413685,0,70,255.0,255.0,255.0
110,5.5,14.1286,-4.5865,-0.7211,0.22597158866725556,-0.031185641652102105,-0.25919507945279563,0.036944624365578216,-0.007798257241861367,-0.04512367760179625,0,70,255.0,255.0,255.0
111,5.550000000000001,14.139945180880394,-4.588068709056543,-0.7341160874913362,0.22784405987997955,-0.03155630365731501,-0.2614469986345231,0.03795422414338067,-0.007028222966654569,-0.04495308966730018,0,70,255.0,255.0,255.0
112,5.6000000000000005,14.151385247321146,-4.589654988670502,-0.7472445577068403,0.22976701108159367,-0.03188846394876757,-0.2636903884195257,0.038963823921183104,-0.006258188691447783,-0.04478250173280411,0,70,255.0,255.0,255.0
113,5.65,14.162922723321703,-4.591256913756189,-0.7604849841766765,0.23174044227209786,-0.032182122526459786,-0.2659252488078035,0.03997342369898554,-0.0054881544162409986,-0.04461191379830804,0,70,255.0,255.0,255.0
114,5.7,14.174560132881503,-4.592872559227919,-0.7738369404310085,0.23376435345149219,-0.03243727939039166,-0.26815157979935644,0.04098302347678798,-0.004718120141034213,-0.04444132586381198,0,70,255.0,255.0,255.0
115,5.75,14.1863,-4.5945,-0.7873,0.23583874461977664,-0.0326539345405632,-0.27036938139418465,0.0419926232545913,-0.003948085865827178,-0.044270737929315906,0,70,255.0,255.0,255.0
116,5.800000000000001,14.198143852365003,-4.596137736943813,-0.8008740010448504,0.23790383707931417,-0.03285764540099966,-0.27259453145440854,0.04061107512690925,-0.004200348551631276,-0.044735264479639096,0,70,255.0,255.0,255.0
117,5.8500000000000005,14.210089232417824,-4.597785974759005,-0.8145598402508997,0.23989985213246756,-0.033073969395726335,-0.2748429078421486,0.03922952699922722,-0.0044526112374353695,-0.045199791029962286,0,70,255.0,255.0,255.0
118,5.9,14.222132686288145,-4.599445344102291,-0.8283586789345236,0.24182678977923688,-0.0333029065247432,-0.27711451055740477,0.037847978871545195,-0.004704873923239462,-0.04566431758028547,0,70,255.0,255.0,255.0
119,5.95,14.234270760105641,-4.601116475630384,-0.8422716784120985,0.24368465001962208,-0.03354445678805027,-0.2794093396001771,0.036466430743863174,-0.004957136609043556,-0.04612884413060865,0,70,255.0,255.0,255.0
120,6.0,14.2465,-4.6028,-0.8563,0.24547343285362316,-0.033798620185647554,-0.28172739497046556,0.03508488261617915,-0.00520939929484765,-0.0465933706809305,0,70,255.0,255.0,255.0
121,6.050000000000001,14.25881780965959,-4.604496343168207,-0.8704439083292634,0.24724459180275468,-0.03405311473868928,-0.2840148755478423,0.03576147534908048,-0.0049703828268211365,-0.044905852414139136,0,70,255.0,255.0,255.0
122,6.1000000000000005,14.271225023007553,-4.6062051122934795,-0.884700081289562,0.24904958038853123,-0.034295658468329666,-0.2862179802118795,0.03643806808198181,-0.004731366358794628,-0.0432183341473478,0,70,255.0,255.0,255.0
123,6.15,14.28372333152572,-4.607925709834649,-0.899064300085229,0.2508883986109528,-0.03452625137456874,-0.2883367089625771,0.037114660814883134,-0.0044923498907681195,-0.04153081588055646,0,70,255.0,255.0,255.0
124,6.2,14.296314426695924,-4.609657538250547,-0.9135323459205973,0.25276104647001957,-0.03474489345740648,-0.2903710617999351,0.037791253547784454,-0.0042533334227416114,-0.03984329761376512,0,70,255.0,255.0,255.0
125,6.25,14.309,-4.6114,-0.9281,0.2546675239657313,-0.034951584716842905,-0.2923210387239536,0.038467846280684004,-0.004014316954715269,-0.038155779346973784,0,70,255.0,255.0,255.0
126,6.300000000000001,14.321781708996637,-4.613152890383363,-0.942764765638097,0.2566057957096682,-0.03516989564423707,-0.2942899663542232,0.0390630234767925,-0.004718120141051195,-0.040601325863810565,0,70,255.0,255.0,255.0
127,6.3500000000000005,14.334661075551963,-4.6149175760670795,-0.9575310345908532,0.2585738263134105,-0.03542339673094803,-0.29638117131033465,0.03965820067290098,-0.005421923327387109,-0.043046872380647305,0,70,255.0,255.0,255.0
128,6.4,14.347639587608972,-4.616695816559113,-0.9724049207245611,0.2605716157769583,-0.035712087976975775,-0.29859465359228793,0.04025337786900947,-0.006125726513723022,-0.04549241889748405,0,70,255.0,255.0,255.0
129,6.45,14.360718733110657,-4.618489371367431,-0.9873925379055125,0.2625991641003115,-0.03603596938232033,-0.30093041320008307,0.040848555065117954,-0.006829529700058937,-0.04793796541432079,0,70,255.0,255.0,255.0
130,6.5,14.3739,-4.6203,-1.0025,0.2646564712834701,-0.03639504094698168,-0.30338845013372,0.041443732261224664,-0.007533332886394906,-0.050383511931156644,0,70,255.0,255.0,255.0
131,6.550000000000001,14.38718415435387,-4.622128895298342,-1.01773142911835,0.26670022535859617,-0.036755302684367525,-0.30584925903526416,0.040306430743818816,-0.0068771366090390265,-0.04804884413060938,0,70,255.0,255.0,255.0
132,6.6000000000000005,14.400569074784595,-4.623974983438206,-1.033082980347026,0.268687114357852,-0.037082754607885585,-0.308193334546781,0.03916912922641299,-0.0062209403316831596,-0.04571417633006216,0,70,255.0,255.0,255.0
133,6.65,14.414051918038389,-4.625836623928899,-1.0485488170165274,0.2706171382812375,-0.037377396717535843,-0.3104206766682704,0.03803182770900716,-0.005564744054327293,-0.043379508529514936,0,70,255.0,255.0,255.0
134,6.7,14.427629840861455,-4.627712176279728,-1.0641231024573525,0.27249029712875267,-0.037639229013318315,-0.31253128539973246,0.036894526191601336,-0.004908547776971426,-0.04104484072896772,0,70,255.0,255.0,255.0
135,6.75,14.4413,-4.6296,-1.0798,0.27430659090039755,-0.03786825149523298,-0.31452516074116715,0.03575722467419151,-0.004252351499615392,-0.03871017292841872,0,70,255.0,255.0,255.0
136,6.800000000000001,14.455060073587893,-4.631498728423272,-1.0955751178885047,0.2760973028559462,-0.03808089361829148,-0.3164889975047217,0.03587125354775313,-0.004253333422724615,-0.03984329761376248,0,70,255.0,255.0,255.0
137,6.8500000000000005,14.468909825309657,-4.633408090180098,-1.1114498440210434,0.2778937162551729,-0.03829358483750544,-0.3185094905025434,0.03598528242131476,-0.004254315345833837,-0.04097642229910622,0,70,255.0,255.0,255.0
138,6.9,14.482849540237472,-4.63532808772529,-1.12742701120933,0.2796958310980776,-0.03850632515287486,-0.32058663973463236,0.03609931129487638,-0.004255297268943059,-0.042109546984449964,0,70,255.0,255.0,255.0
139,6.95,14.496879503443525,-4.637258723513655,-1.1435094522650775,0.28150364738466055,-0.03871911456439975,-0.32272044520098836,0.036213340168438,-0.004256279192052281,-0.0432426716697937,0,70,255.0,255.0,255.0
140,7.0,14.511,-4.6392,-1.1597,0.2833171651149214,-0.03893195307208009,-0.3249109069016117,0.036327369041997404,-0.004257261115161393,-0.04437579635513833,0,70,255.0,255.0,255.0
141,7.050000000000001,14.525211551294557,-4.641152191008575,-1.1760008993276327,0.2851505632176012,-0.03916112284246114,-0.3271227509458482,0.03700855506519459,-0.004909529700080515,-0.04409796541431942,0,70,255.0,255.0,255.0
142,7.1000000000000005,14.53951562397678,-4.643116655841401,-1.192412043568801,0.28701802062144083,-0.039422906042088146,-0.3293207034430436,0.037689741088391765,-0.005561798284999626,-0.04382013447350053,0,70,255.0,255.0,255.0
143,7.15,14.553913921011722,-4.645095025169938,-1.208932738146153,0.2889195373264404,-0.0397173026709611,-0.33150476439319815,0.038370927111588946,-0.006214066869918738,-0.043542303532681625,0,70,255.0,255.0,255.0
144,7.2,14.568408145364442,-4.6470889296656495,-1.2255622884823365,0.2908551133325997,-0.04004431272908002,-0.3336749337963118,0.03905211313478612,-0.006866335454837849,-0.043264472591862724,0,70,255.0,255.0,255.0
145,7.25,14.583,-4.6491,-1.2423,0.292824748639919,-0.04040393621644488,-0.33583121165238444,0.039733299157982405,-0.007518604039756793,-0.04298664165104382,0,70,255.0,255.0,255.0
146,7.300000000000001,14.597690521233876,-4.65112930754243,-1.2591452848009657,0.29478844427365847,-0.04076261501186298,-0.3379799987118849,0.038814526191595075,-0.006828547776966833,-0.04296484072897089,0,70,255.0,255.0,255.0
147,7.3500000000000005,14.612478078783226,-4.653175686454301,-1.2760979817037537,0.2967062012590785,-0.041086790994141566,-0.3401276957252815,0.037895753225207766,-0.0061384915141768845,-0.042943039806897954,0,70,255.0,255.0,255.0
148,7.4,14.627360375715643,-4.655237411594958,-1.2931580362060586,0.2985780195961792,-0.041376464163280655,-0.3422743026925746,0.03697698025882045,-0.005448435251386935,-0.04292123888482502,0,70,255.0,255.0,255.0
149,7.45,14.642335115098707,-4.6573127578237425,-1.3103253938055757,0.30040389928496053,-0.04163163451928026,-0.34441981961376406,0.03605820729243314,-0.004758378988596987,-0.042899437962752085,0,70,255.0,255.0,255.0
150,7.5,14.6574,-4.6594,-1.3276,0.3021838403254225,-0.041852302062140356,-0.3465642464888498,0.03513943432604405,-0.00406832272580715,-0.042877637040677374,0,70,255.0,255.0,255.0
151,7.550000000000001,14.672553563769947,-4.661497778821708,-1.3449819614685057,0.30396765968778283,-0.042060417110086845,-0.3487172542066116,0.036213340168368115,-0.004256279192052318,-0.04324267166979335,0,70,255.0,255.0,255.0
152,7.6000000000000005,14.687797660890313,-4.663606198341396,-1.3624720296161856,0.30580517434225934,-0.042277929981345594,-0.3508885136558292,0.037287246010692165,-0.004444235658297482,-0.04360770629890932,0,70,255.0,255.0,255.0
153,7.65,14.703134976125709,-4.665725728450231,-1.3800711170296127,0.307696384288852,-0.042504840675916596,-0.3530780248365025,0.038361151853016216,-0.0046321921245426455,-0.04397274092802528,0,70,255.0,255.0,255.0
154,7.7,14.718568194240735,-4.667856839039378,-1.3977801362953597,0.309641289527561,-0.04274114919379985,-0.3552857877486317,0.03943505769534026,-0.00482014859078781,-0.044337775557141246,0,70,255.0,255.0,255.0
155,7.75,14.7341,-4.67,-1.4156,0.311639890058386,-0.04298685553499538,-0.3575118023922166,0.04050896353766298,-0.005008105057033141,-0.04470281018625677,0,70,255.0,255.0,255.0
156,7.800000000000001,14.749732023686342,-4.672155577170736,-1.4335308693250128,0.31362891697519807,-0.04323571654779226,-0.35971098446166966,0.03905211313481993,-0.004946335454842231,-0.04326447259186315,0,70,255.0,255.0,255.0
157,7.8500000000000005,14.765461677655516,-4.674323520180111,-1.4515698998315052,0.31554510137186803,-0.04348148908047961,-0.3618382496514029,0.037595262731976914,-0.004884565852651323,-0.04182613499746955,0,70,255.0,255.0,255.0
158,7.9,14.781285319781526,-4.676503674604116,-1.4697134956754911,0.31738844324839577,-0.0437241731330574,-0.3638935979614165,0.036138412329133895,-0.004822796250460414,-0.04038779740307595,0,70,255.0,255.0,255.0
159,7.95,14.797199307938353,-4.6786958860187475,-1.4879580610129846,0.3191589426047814,-0.043963768705525645,-0.3658770293917105,0.03468156192629088,-0.0047610266482695065,-0.038949459808682356,0,70,255.0,255.0,255.0
160,8.0,14.8132,-4.6809,-1.5063,0.32085659944102485,-0.044200275797884346,-0.3677885439422848,0.03322471152344875,-0.004699257046078598,-0.03751112221428876,0,70,255.0,255.0,255.0
161,8.05,14.829284741484694,-4.683115912495345,-1.5247369612314443,0.3225406724114229,-0.044436716698750815,-0.3697028079467107,0.03413820729247165,-0.0047583789885799485,-0.03905943796274765,0,70,255.0,255.0,255.0
162,8.1,14.845454828487616,-4.685343720938161,-1.5432715710577947,0.32427042017027197,-0.04467611369674234,-0.3716944877385595,0.035051703061494514,-0.004817500931081298,-0.04060775371120647,0,70,255.0,255.0,255.0
163,8.15,14.861712544748194,-4.6875835731333035,-1.5619077002684236,0.3260458427175723,-0.04491846679185894,-0.3737635833178313,0.035965198830517416,-0.004876622873582648,-0.04215606945966536,0,70,255.0,255.0,255.0
164,8.200000000000001,14.878060174005848,-4.689835616885632,-1.580649219652702,0.3278669400533238,-0.04516377598410061,-0.37591009468452613,0.03687869459954032,-0.004935744816083999,-0.04370438520812424,0,70,255.0,255.0,255.0
165,8.25,14.8945,-4.6921,-1.5995,0.3297337121775264,-0.04541204127346734,-0.3781340218386437,0.037792190368564516,-0.004994866758585126,-0.045252700956582625,0,70,255.0,255.0,255.0
166,8.3,14.911033810374892,-4.694376772847885,-1.6184628857492116,0.3316163933791224,-0.04565741665720167,-0.3803737837514869,0.03751505769527581,-0.004820148590787818,-0.04433777555714514,0,70,255.0,255.0,255.0
167,8.35,14.927661408394018,-4.696665596067247,-1.6375366159373157,0.333485217947054,-0.045894056132546115,-0.3825677993943582,0.037237925021987105,-0.004645430422990517,-0.043422850157707686,0,70,255.0,255.0,255.0
168,8.4,14.9443821012257,-4.698966032862667,-1.6567189032508145,0.3353401858813211,-0.04612195969950072,-0.38471606876725767,0.0369607923486984,-0.0044707122551932085,-0.042507924758270206,0,70,255.0,255.0,255.0
169,8.450000000000001,14.961195196038256,-4.701277646438724,-1.6760074603762092,0.33718129718192386,-0.04634112735806545,-0.38681859187018525,0.036683659675409694,-0.0042959940873959004,-0.04159299935883272,0,70,255.0,255.0,255.0
170,8.5,14.9781,-4.7036,-1.6954,0.3390085518488621,-0.046551559108240305,-0.38887536870314093,0.036406527002120104,-0.004121275919598488,-0.04067807395939349,0,70,255.0,255.0,255.0
171,8.55,14.995096017015747,-4.705932996113114,-1.7148946957717104,0.3408337540720731,-0.046773616672437436,-0.39091405704734283,0.03660156192632025,-0.004761026648286568,-0.040869459808681535,0,70,255.0,255.0,255.0
172,8.6,15.012183537936309,-4.708277894792851,-1.7344915651929418,0.34266870804149413,-0.04702766177306896,-0.39296231468400905,0.03679659685052039,-0.005400777376974626,-0.041060845657969566,0,70,255.0,255.0,255.0
173,8.65,15.029363050349001,-4.7106362954160295,-1.754191086728319,0.34451341375712513,-0.047313694410134895,-0.3950201416131398,0.036991631774720535,-0.006040528105662706,-0.04125223150725761,0,70,255.0,255.0,255.0
174,8.700000000000001,15.046635041841128,-4.713009797359471,-1.7739937388424643,0.3463678712189662,-0.047631714583635236,-0.3970875378347349,0.037186666698920685,-0.006680278834350786,-0.04144361735654565,0,70,255.0,255.0,255.0
175,8.75,15.064,-4.7154,-1.7939,0.34823208042701714,-0.047981722293569964,-0.3991645033487943,0.03738170162312038,-0.007320029563038566,-0.04163500320583324,0,70,255.0,255.0,255.0
176,8.8,15.08145812156212,-4.717808042699654,-1.8139103311639482,0.35008859033258455,-0.04833611665304792,-0.4012499880591432,0.03687869459957546,-0.006855744816079372,-0.04178438520812016,0,70,255.0,255.0,255.0
177,8.85,15.09900843986074,-4.720233224761349,-1.8340251232909162,0.35191994988697467,-0.0486672967751779,-0.4033429418696063,0.03637568757603056,-0.006391460069120195,-0.04193376721040707,0,70,255.0,255.0,255.0
178,8.9,15.116649697378298,-4.7226743854732165,-1.854244749835911,0.3537261590901876,-0.04897526265995994,-0.40544336478018383,0.035872680552485645,-0.005927175322161001,-0.04208314921269398,0,70,255.0,255.0,255.0
179,8.950000000000001,15.134380636597237,-4.725130364123389,-1.874569584253937,0.3555072179422233,-0.04926001430739401,-0.4075512567908757,0.03536967352894073,-0.005462890575201808,-0.0422325312149809,0,70,255.0,255.0,255.0
180,9.0,15.1522,-4.7276,-1.895,0.3572631264430816,-0.049521551717480114,-0.40966661790168196,0.03486666650539272,-0.0049986058282426304,-0.042381913217267364,0,70,255.0,255.0,255.0
181,9.05,15.170106696735772,-4.730082033088267,-1.9155359795724984,0.3590038845976001,-0.04975391671537108,-0.41176599071608444,0.03476365967534471,-0.004295994087395906,-0.041592999358831664,0,70,255.0,255.0,255.0
182,9.1,15.188100302620734,-4.732574806161753,-1.936175941643393,0.3607394924106161,-0.0499511511262197,-0.4138259178375651,0.034660652845296715,-0.003593382346549206,-0.040804085500395985,0,70,255.0,255.0,255.0
183,9.15,15.206180560137811,-4.735076562691105,-1.9569179139280395,0.3624699498821297,-0.050113254950026,-0.41584639926612404,0.03455764601524871,-0.002890770605702481,-0.040015171641960286,0,70,255.0,255.0,255.0
184,9.200000000000001,15.224347211769922,-4.737585546146971,-1.9777599241417907,0.364195257012141,-0.050240228186789956,-0.4178274350017612,0.034454639185200704,-0.0021881588648557564,-0.03922625778352458,0,70,255.0,255.0,255.0
185,9.25,15.2426,-4.7401,-1.9987,0.3659154138006498,-0.050332070836511575,-0.4197690250444765,0.03435163235515182,-0.0014855471240090568,-0.03843734392508802,0,70,255.0,255.0,255.0
186,9.3,15.260939091494787,-4.742619024947277,-2.01973695054606,0.36765587127700255,-0.05044021648547037,-0.42171804907651755,0.035266666698959094,-0.0028402788343425437,-0.03952361735655369,0,70,255.0,255.0,255.0
187,9.35,15.27936634965632,-4.745145150591639,-2.040872710135511,0.3694420804705457,-0.05061609871994582,-0.4237213867801318,0.036181701042766336,-0.004195010544675982,-0.040609890788019326,0,70,255.0,255.0,255.0
188,9.4,15.29788406207046,-4.747681763762364,-2.0621099944519328,0.3712740413812792,-0.05085971753993797,-0.4257790381553195,0.03709673538657362,-0.005549742255009469,-0.041696164219484994,0,70,255.0,255.0,255.0
189,9.450000000000001,15.316494516323068,-4.750232251288725,-2.083451519178903,0.37315175400920314,-0.05117107294544678,-0.4278910032020804,0.038011769730380895,-0.006904473965342956,-0.04278243765095067,0,70,255.0,255.0,255.0
190,9.5,15.3352,-4.7528,-2.1049,0.37507521835431723,-0.051550164936472256,-0.4300572819204146,0.03892680407418592,-0.008259205675676395,-0.04386871108241763,0,70,255.0,255.0,255.0
191,9.55,15.354001737285083,-4.755387467122627,-2.1264570182432627,0.37698063029439527,-0.05194121734274453,-0.43220981297784933,0.03728967352893429,-0.0073828905752143835,-0.042232531214968616,0,70,255.0,255.0,255.0
192,9.600000000000001,15.372896698753985,-4.7579933914716905,-2.148119617814563,0.3788041857072107,-0.052288453993993705,-0.4342805350419115,0.03565254298368265,-0.006506575474752372,-0.0405963513475196,0,70,255.0,255.0,255.0
193,9.65,15.39188079158035,-4.760615582259441,-2.169883708264231,0.3805458845927635,-0.05259187489021976,-0.4362694481126012,0.03401541243843108,-0.00563026037429039,-0.03896017148007064,0,70,255.0,255.0,255.0
194,9.700000000000001,15.410949922937807,-4.763251848698129,-2.1917451991426002,0.3822057269510538,-0.05285148003142274,-0.4381765521899186,0.03237828189317945,-0.004753945273828379,-0.03732399161262162,0,70,255.0,255.0,255.0
195,9.75,15.4301,-4.7659,-2.2137,0.3837837127820814,-0.05306726941760261,-0.4400018472738634,0.030741151347925655,-0.003877630173366342,-0.03568781174517355,0,70,255.0,255.0,255.0
196,9.8,15.449328359364888,-4.768558306562219,-2.2357453764808906,0.38536560754540966,-0.05326691414355806,-0.441826699012081,0.032534639185204675,-0.004108158864851244,-0.03730625778352883,0,70,255.0,255.0,255.0
197,9.850000000000001,15.468638055327737,-4.771226883521599,-2.2578840186062403,0.3870371767006019,-0.05347808530408774,-0.4437324730522163,0.034328127022483695,-0.004338687556336147,-0.038924703821884114,0,70,255.0,255.0,255.0
198,9.9,15.488033571608147,-4.77390630719987,-2.280119972491144,0.38879842024765804,-0.05370078289919167,-0.4457191693942693,0.03612161485976265,-0.0045692162478210415,-0.04054314986023934,0,70,255.0,255.0,255.0
199,9.950000000000001,15.507519391925703,-4.77659715391876,-2.302457284250699,0.39064933818657815,-0.05393500692886984,-0.44778678803824024,0.037915102697041674,-0.004799744939305944,-0.04216159589859462,0,70,255.0,255.0,255.0
200,10.0,15.5271,-4.7793,-2.3249,0.3925899305173622,-0.05418075739312225,-0.44993532898412886,0.03970859053432063,-0.0050302736307907825,-0.0437800419369494,0,70,255.0,255.0,255.0
201,10.05,15.546778425255368,-4.782015306628501,-2.3474510758331752,0.3945329395239797,-0.054431126083025284,-0.4520993909738266,0.03801176973038014,-0.004984473965330371,-0.042782437650959335,0,70,255.0,255.0,255.0
202,10.100000000000001,15.566551879935064,-4.7847430744419155,-2.3701091077604786,0.3963911074904003,-0.054679204789655295,-0.45421357274922486,0.03631494892643965,-0.004938674299869959,-0.04178483336496927,0,70,255.0,255.0,255.0
203,10.15,15.586416121987073,-4.787483188941078,-2.3928716017711924,0.3981644344166237,-0.05492499351301228,-0.4562778743103235,0.03461812812249922,-0.004892874634409549,-0.04078722907897924,0,70,255.0,255.0,255.0
204,10.200000000000001,15.606366909359387,-4.790235535626828,-2.415736063854605,0.3998529203026502,-0.05516849225309625,-0.45829229565712276,0.03292130731855872,-0.004847074968949138,-0.03978962479298918,0,70,255.0,255.0,255.0
205,10.25,15.6264,-4.793,-2.4387,0.40145656514847955,-0.0554097010099072,-0.4602568367896225,0.031224486514618288,-0.004801275303488894,-0.03879202050700048,0,70,255.0,255.0,255.0
206,10.3,15.646512339613642,-4.79577646692378,-2.461761520186409,0.4030466343586736,-0.05564858152434057,-0.462207737092613,0.03237828189314424,-0.004753945273845505,-0.0392439916126179,0,70,255.0,255.0,255.0
207,10.350000000000001,15.666705624932018,-4.798564818710743,-2.48492115035185,0.40469439333779406,-0.055885095537291755,-0.4641812359508843,0.033532077271670194,-0.004706615244202116,-0.03969596271823531,0,70,255.0,255.0,255.0
208,10.4,15.68698274044357,-4.8013649370358165,-2.508180020424085,0.4063998420858406,-0.05611924304876077,-0.4661773333644365,0.0346858726501961,-0.0046592852145587275,-0.04014793382385271,0,70,255.0,255.0,255.0
209,10.450000000000001,15.70734657063675,-4.804176703573928,-2.5315392603308817,0.40816298060281364,-0.05635102405874763,-0.4681960293332696,0.03583966802872205,-0.004611955184915338,-0.04059990492947013,0,70,255.0,255.0,255.0
210,10.5,15.7278,-4.807,-2.555,0.40998380888871283,-0.0565804385672523,-0.4702373238573835,0.03699346340724796,-0.004564625155271673,-0.04105187603508664,0,70,255.0,255.0,255.0
211,10.55,15.748345016290067,-4.809834825676384,-2.57856284342119,0.4118085230413211,-0.056814547819616305,-0.47226966065572545,0.0359951026970802,-0.004799744939288722,-0.040241595898589985,0,70,255.0,255.0,255.0
212,10.600000000000001,15.768980020336874,-4.812681650715115,-2.6022262908321263,0.4135833191584209,-0.057060413061181176,-0.4742614834472425,0.034996741986912445,-0.005034864723305772,-0.039431315762093334,0,70,255.0,255.0,255.0
213,10.65,15.78970251623865,-4.815541062915655,-2.625988316532467,0.4153081972400123,-0.05731803429194689,-0.47621279223193475,0.03399838127674472,-0.005269984507322813,-0.038621035625596704,0,70,255.0,255.0,255.0
214,10.700000000000001,15.810510008093617,-4.8184136500774635,-2.6498468948218723,0.41698315728609536,-0.05758741151191346,-0.47812358700980223,0.03300002056657696,-0.005505104291339862,-0.037810755489100054,0,70,255.0,255.0,255.0
215,10.75,15.8314,-4.8213,-2.6738,0.41860819929667,-0.05786854472108087,-0.4799938677808447,0.032001659856410125,-0.005740224075356681,-0.03700047535260387,0,70,255.0,255.0,255.0
216,10.8,15.852370795226097,-4.824200230370687,-2.6978463061288336,0.4202312734760434,-0.058133227197188525,-0.4818656202844845,0.032921307318525016,-0.004847074968949192,-0.03786962479298658,0,70,255.0,255.0,255.0
217,10.850000000000001,15.87342389372049,-4.827112578428797,-2.7219872863196493,0.4219003300285225,-0.0583532522179758,-0.4837808302601434,0.03384095478063991,-0.003953925862541704,-0.03873877423336929,0,70,255.0,255.0,255.0
218,10.9,15.894561594601836,-4.830034811301562,-2.746225113446048,0.4236153689541074,-0.05852861978344269,-0.4857394977078214,0.034760602242754776,-0.003060776756134247,-0.039607923673751974,0,70,255.0,255.0,255.0
219,10.950000000000001,15.915786196988785,-4.832964696116219,-2.770561960381632,0.425376390252798,-0.05865932989358922,-0.4877416226275186,0.03568024970486967,-0.0021676276497267586,-0.04047707311413468,0,70,255.0,255.0,255.0
220,11.0,15.9371,-4.8359,-2.795,0.42718339392459437,-0.05874538254841536,-0.4897872050192349,0.03659989716698764,-0.0012744785433188022,-0.04134622255451781,0,70,255.0,255.0,255.0
221,11.05,15.958504602805549,-4.838839452840866,-2.8195407320634778,0.42899438305448884,-0.05884454339162175,-0.4918358582063348,0.03583966802879103,-0.002691955184936621,-0.040599904929478105,0,70,255.0,255.0,255.0
222,11.100000000000001,15.979998804781166,-4.841785635569697,-2.84418296388928,0.43076736072747357,-0.059014578066909025,-0.49384719551218276,0.035079438890594415,-0.00410943182655444,-0.0398535873044384,0,70,255.0,255.0,255.0
223,11.15,16.001580705354012,-4.844742091878092,-2.8689248296833423,0.4325023269435483,-0.05925548657427719,-0.49582121693677866,0.034319209752397835,-0.005526908468172208,-0.03910726967939872,0,70,255.0,255.0,255.0
224,11.200000000000001,16.02324840395124,-4.847712365457659,-2.8937644636516033,0.4341992817027133,-0.059567268913726254,-0.4977579224801226,0.03355898061420122,-0.006944385109790027,-0.038360952054359014,0,70,255.0,255.0,255.0
225,11.25,16.045,-4.8507,-2.9187,0.4358582250049684,-0.059949925085256185,-0.4996573121422146,0.03279875147600375,-0.008361861751407684,-0.03761463442932067,0,70,255.0,255.0,255.0
226,11.3,16.066833993551718,-4.853707558265844,-2.9437299656172558,0.4375031943060321,-0.060344599236324764,-0.5015429468901751,0.033000020566542256,-0.007425104291335336,-0.03781075548910016,0,70,255.0,255.0,255.0
227,11.350000000000001,16.088750487154847,-4.856733679292415,-2.968854458123235,0.43915822706162266,-0.06069243551438973,-0.5034383876911246,0.03320128965708076,-0.006488346831262988,-0.038006876548879645,0,70,255.0,255.0,255.0
228,11.4,16.110749983982117,-4.859776021186065,-2.9940739678205848,0.4408233232717401,-0.060993433919451064,-0.505343634545063,0.033402558747619264,-0.005551589371190673,-0.03820299760865913,0,70,255.0,255.0,255.0
229,11.450000000000001,16.132832987206264,-4.862832242053145,-3.019388985011957,0.4424984829363846,-0.06124759445150879,-0.5072586874519905,0.03360382783815777,-0.004614831911118325,-0.03839911866843862,0,70,255.0,255.0,255.0
230,11.5,16.155,-4.8659,-3.0448,0.44418370605555596,-0.0614549171105629,-0.509183546411907,0.03380509692869582,-0.0036780744510457875,-0.03859523972822032,0,70,255.0,255.0,255.0
231,11.55,16.177251422987595,-4.868977514095757,-3.0703074054674997,0.4458728397213927,-0.061649059663082095,-0.5111123542329659,0.03376024970477305,-0.004087627649722009,-0.03855707311413141,0,70,255.0,255.0,255.0
232,11.600000000000001,16.199587246599457,-4.87206524726064,-3.0959112036177854,0.4475597310260333,-0.0618636798755351,-0.5130392537233202,0.033715402480850275,-0.004497180848398231,-0.038518906500042506,0,70,255.0,255.0,255.0
233,11.65,16.222007358717512,-4.875164223377644,-3.12161129903432,0.44924437996947775,-0.06209877774792192,-0.5149642448829701,0.033670555256927505,-0.0049067340470744375,-0.038480739885953595,0,70,255.0,255.0,255.0
234,11.700000000000001,16.244511647223714,-4.878275466329765,-3.1474075963005705,0.450926786551726,-0.062354353280242546,-0.5168873277119156,0.03362570803300473,-0.005316287245750659,-0.038442573271864684,0,70,255.0,255.0,255.0
235,11.75,16.2671,-4.8814,-3.1733,0.4526069507727781,-0.06263040647249697,-0.5188085022101566,0.03358086080907974,-0.005725840444426811,-0.03840440665777489,0,70,255.0,255.0,255.0
236,11.8,16.289772314497906,-4.884538385351124,-3.1992884125127454,0.45428544680836275,-0.06289916211135207,-0.5207276361779599,0.033558980614302666,-0.005024385109777419,-0.0383609520543585,0,70,255.0,255.0,255.0
237,11.850000000000001,16.31252852644734,-4.887689331665023,-3.225372727405627,0.45596284883420846,-0.06313284498347471,-0.5226445974155924,0.0335371004195256,-0.004322929775128028,-0.0383174974509421,0,70,255.0,255.0,255.0
238,11.9,16.335368581147826,-4.8908510853033595,-3.251552836042135,0.45763915685031525,-0.0633314550888649,-0.5245593859230542,0.03351522022474853,-0.003621474440478662,-0.03827404284752571,0,70,255.0,255.0,255.0
239,11.950000000000001,16.358292423898877,-4.894021892627798,-3.2778286297857626,0.45931437085668325,-0.06349499242752259,-0.526472001700345,0.033493340029971466,-0.002920019105829271,-0.03823058824410932,0,70,255.0,255.0,255.0
240,12.0,16.3813,-4.8972,-3.3042,0.46098849085331234,-0.06362345699944782,-0.5283824447474652,0.03347145983519306,-0.0022185637711802375,-0.038187133640693816,0,70,255.0,255.0,255.0
241,12.05,16.404391319020796,-4.9003841444997445,-3.3306669444815196,0.46266537304514616,-0.06374629189150541,-0.5302971010551938,0.03360382783815803,-0.0026948319111228147,-0.0383991186684483,0,70,255.0,255.0,255.0
242,12.100000000000001,16.427566647611187,-4.903575026079267,-3.3572298867597095,0.46434887363712823,-0.0638929401905601,-0.5322223566143102,0.033736195841123,-0.003171100051065392,-0.038611103696202784,0,70,255.0,255.0,255.0
243,12.15,16.450826316691177,-4.906773835408917,-3.3838893567971398,0.4660389926292584,-0.06406340189661194,-0.534158211424814,0.033868563844087964,-0.0036473681910079523,-0.038823088723957254,0,70,255.0,255.0,255.0
244,12.200000000000001,16.474170657180778,-4.9099817631590446,-3.4106458845563807,0.46773573002153696,-0.0642576770096609,-0.5361046654867059,0.03400093184705293,-0.00412363633095053,-0.03903507375171174,0,70,255.0,255.0,255.0
245,12.25,16.4976,-4.9132,-3.4375,0.4694390858139637,-0.06447576552970699,-0.5380617187999851,0.03413329985001878,-0.004599904470893312,-0.03924705877946355,0,70,255.0,255.0,255.0
246,12.3,16.521114409418917,-4.916429836649896,-3.464451809561179,0.4711330610110393,-0.06472367032262352,-0.5400039596012681,0.033625708033004194,-0.00531628724576768,-0.038442573271855615,0,70,255.0,255.0,255.0
247,12.350000000000001,16.544712883107923,-4.9196729640179075,-3.491499725555538,0.4728016566172642,-0.06500739425428376,-0.5419059761271707,0.0331181162159896,-0.006032670020642048,-0.03763808776424769,0,70,255.0,255.0,255.0
248,12.4,16.568394152087468,-4.922931173060971,-3.518641736769306,0.47444487263263824,-0.06532693732468772,-0.5437677683776928,0.03261052439897502,-0.006749052795516391,-0.03683360225663978,0,70,255.0,255.0,255.0
249,12.450000000000001,16.592156947378008,-4.926206254736022,-3.545875831988717,0.4760627090571617,-0.0656822995338354,-0.5455893363528347,0.03210293258196043,-0.007465435570390759,-0.03602911674903185,0,70,255.0,255.0,255.0
250,12.5,16.616,-4.9295,-3.5732,0.4776551658908343,-0.0660734808817268,-0.547370680052596,0.03159534076494497,-0.00818181834526499,-0.03522463124142572,0,70,255.0,255.0,255.0
251,12.55,16.639922243303523,-4.932813308900668,-3.600613017273766,0.4792343829107073,-0.06644702681800395,-0.5491590605397344,0.031573340029974604,-0.00676001910582036,-0.03631058824410741,0,70,255.0,255.0,255.0
252,12.600000000000001,16.663923419957126,-4.936143517849102,-3.628116811018143,0.4808124998938318,-0.06674948279230884,-0.5510017388770069,0.03155133929500424,-0.00533821986637573,-0.03739654524678911,0,70,255.0,255.0,255.0
253,12.65,16.68800347495896,-4.9394870723472,-3.6557140961256356,0.4823895168402077,-0.06698084880464153,-0.5528987150644133,0.031529338560033884,-0.0039164206269311505,-0.03848250224947077,0,70,255.0,255.0,255.0
254,12.700000000000001,16.712162353307203,-4.942840417896866,-3.683407587488753,0.4839654337498352,-0.06714112485500197,-0.5548499891019539,0.03150733782506352,-0.00249462138748652,-0.039568459252152466,0,70,255.0,255.0,255.0
255,12.75,16.7364,-4.9462,-3.7112,0.485540250622714,-0.06723031094339017,-0.5568555609896284,0.03148533709009094,-0.001072822148042163,-0.04065441625483324,0,70,255.0,255.0,255.0
256,12.8,16.76071661736698,-4.949563327747431,-3.739092921343757,0.487129407346141,-0.06731222240536468,-0.5588477982397921,0.03208093184698911,-0.0022036363309381572,-0.03903507375171846,0,70,255.0,255.0,255.0
257,12.850000000000001,16.78511343706358,-4.952932164585689,-3.767083430371894,0.48874834380741294,-0.06745067457648399,-0.5607590683648003,0.032676526603887285,-0.003334450513834152,-0.03741573124860369,0,70,255.0,255.0,255.0
258,12.9,16.809591948076687,-4.956309337550232,-3.7951674787281506,0.4903970600065297,-0.06764566745674809,-0.5625893713646526,0.03327212136078544,-0.004465264696730106,-0.035796388745488975,0,70,255.0,255.0,255.0
259,12.950000000000001,16.834153639393193,-4.959697673676517,-3.8233410180562726,0.4920755559434915,-0.067897201046157,-0.5643387072393492,0.03386771611768361,-0.0055960788796261,-0.0341770462423742,0,70,255.0,255.0,255.0
260,13.0,16.8588,-4.9631,-3.8516,0.49378383161829814,-0.0682052753447107,-0.5660070759888899,0.034463310874579545,-0.006726893062521833,-0.032557703739256816,0,70,255.0,255.0,255.0
261,13.05,16.883532087228552,-4.966518180109609,-3.8799416973512066,0.4954959877047132,-0.06851208356053363,-0.5676737465010973,0.03402293258202311,-0.005545435570395091,-0.034109116749036716,0,70,255.0,255.0,255.0
262,13.100000000000001,16.90834923178856,-4.969950223808143,-3.908368667494285,0.4971861248765005,-0.06875981890175022,-0.5694179876637937,0.033582554289466666,-0.004363978078268349,-0.03566052975881662,0,70,255.0,255.0,255.0
263,13.15,16.933250332734293,-4.973393177451873,-3.9368847889617604,0.4988542431336599,-0.06894848136836046,-0.5712397994769789,0.033142175996910245,-0.003182520586141649,-0.03721194276859646,0,70,255.0,255.0,255.0
264,13.200000000000001,16.958234289120018,-4.976844087397069,-3.9654939402861578,0.5005003424761916,-0.06907807096036438,-0.5731391819406533,0.03270179770435381,-0.002001063094014907,-0.03876335577837636,0,70,255.0,255.0,255.0
265,13.25,16.9833,-4.9803,-3.9942,0.5021244229040952,-0.06914858767776196,-0.5751161350548164,0.03226141941179517,-0.000819605601888429,-0.04031476878815532,0,70,255.0,255.0,255.0
266,13.3,17.008446233718807,-4.983759151814135,-4.02300588925142,0.5037186418350167,-0.06923144335249676,-0.5771132157558237,0.031507337825062175,-0.00249462138750385,-0.0395684592521352,0,70,255.0,255.0,255.0
267,13.350000000000001,17.03367123578218,-4.987224540181737,-4.05191069965097,0.5052751566866014,-0.06939804981651235,-0.5790729809800299,0.030753256238329186,-0.004169637173119271,-0.038822149716115084,0,70,255.0,255.0,255.0
268,13.4,17.058973120986145,-4.990700352642274,-4.080912565424809,0.5067939674588495,-0.06964840706980868,-0.5809954307274352,0.02999917465159622,-0.005844652958734631,-0.038075840180094994,0,70,255.0,255.0,255.0
269,13.450000000000001,17.084350004126744,-4.994190776735206,-4.1100096207991,0.5082750741517611,-0.06998251511238582,-0.5828805649980394,0.029245093064863233,-0.007519668744350052,-0.037329530644074876,0,70,255.0,255.0,255.0
270,13.5,17.1098,-4.9977,-4.1392,0.5097184767653359,-0.0704003739442437,-0.5847283837918428,0.02849101147812494,-0.009194684529965969,-0.0365832211080539,0,70,255.0,255.0,255.0
271,13.55,17.135322177896214,-5.001230812633854,-4.168481945643117,0.5111814449552295,-0.0708181430294834,-0.5865453904756038,0.03002771611762205,-0.0075160788796216,-0.036097046242384495,0,70,255.0,255.0,255.0
272,13.600000000000001,17.160919425082724,-5.004780415464907,-4.197854133901839,0.5127212483770982,-0.07115198183220586,-0.5883380884160813,0.03156442075711916,-0.005837473229277232,-0.03561087137671509,0,70,255.0,255.0,255.0
273,13.65,17.18659558332112,-5.008344611979033,-4.227315349339003,0.5143378870309415,-0.07140189035241112,-0.5901064776132752,0.033101125396616214,-0.0041588675789329226,-0.0351246965110457,0,70,255.0,255.0,255.0
274,13.700000000000001,17.212354494373017,-5.011919205662106,-4.256864376517445,0.5160313609167597,-0.07156786859009917,-0.5918505580671859,0.03463783003611333,-0.0024802619285885542,-0.0346385216453763,0,70,255.0,255.0,255.0
275,13.75,17.2382,-5.0155,-4.2865,0.5178016700345528,-0.07164991654526998,-0.5935703297778128,0.03617453467560683,-0.0008016562782442449,-0.03415234677970247,0,70,255.0,255.0,255.0
276,13.8,17.264134654696335,-5.019083997650451,-4.316221528176116,0.5195715783440534,-0.07171998452957604,-0.5952972223417647,0.03462179770441602,-0.0020010630939978737,-0.03492335577837481,0,70,255.0,255.0,255.0
277,13.850000000000001,17.29015586388693,-5.0226729979586375,-4.346030364741677,0.5212638498049944,-0.07185002285466977,-0.5970626653556503,0.03306906073322522,-0.003200469909751503,-0.03569436477704715,0,70,255.0,255.0,255.0
278,13.9,17.316259745729354,-5.026269999441598,-4.375928437219179,0.5228784844173758,-0.07204003152055118,-0.5988666588194694,0.03151632376203447,-0.004399876725505089,-0.03646537377571946,0,70,255.0,255.0,255.0
279,13.950000000000001,17.342442418381193,-5.029878000616373,-4.405917673131122,0.5244154821811979,-0.07229001052722027,-0.6007092027332223,0.029963586790843665,-0.0055992835412587184,-0.0372363827743918,0,70,255.0,255.0,255.0
280,14.0,17.3687,-5.0335,-4.436,0.5258748430964603,-0.07259995987467703,-0.6025902970969086,0.028410849819652917,-0.006798690357012416,-0.03800739177306589,0,70,255.0,255.0,255.0
281,14.05,17.395029603318452,-5.037137996764343,-4.466176741652425,0.5273162416685732,-0.07290991885221121,-0.6044737201573368,0.029245093064861838,-0.005599668744354874,-0.037329530644059604,0,70,255.0,255.0,255.0
282,14.100000000000001,17.421432319369565,-5.040789992700544,-4.49644680713146,0.5287993524029465,-0.07315992674911252,-0.6063232501613146,0.03007933631007076,-0.0044006471316973324,-0.036651669515053324,0,70,255.0,255.0,255.0
283,14.15,17.447910233761448,-5.044452990254577,-4.526808501784282,0.5303241752995802,-0.07334998356538096,-0.608138887108842,0.030913579555279652,-0.003201625519039833,-0.035973808386047065,0,70,255.0,255.0,255.0
284,14.200000000000001,17.47446543210222,-5.048123991872405,-4.5572601309580705,0.5318907103584744,-0.07348008930101652,-0.6099206309999193,0.03174782280048857,-0.0020026039063822908,-0.03529594725704078,0,70,255.0,255.0,255.0
285,14.25,17.5011,-5.0518,-4.5878,0.5334989575796292,-0.0735502439560192,-0.6116684818345461,0.032582066045698355,-0.0008035822937251247,-0.03461808612803807,0,70,255.0,255.0,255.0
286,14.3,17.527815732029868,-5.055479215292183,-4.618426705214186,0.5351314549816728,-0.07363234006157704,-0.6133998970288819,0.03271783003604796,-0.002480261928588658,-0.03463852164539212,0,70,255.0,255.0,255.0
287,14.350000000000001,17.554613258634827,-5.059164631239187,-4.649140006732486,0.536770740583234,-0.07379827014887806,-0.6151323339990854,0.032853594026397565,-0.004156941563452191,-0.03465895716274616,0,70,255.0,255.0,255.0
288,14.4,17.581492919224853,-5.0628604395401,-4.679939955643693,0.5384168143843127,-0.07404803421792226,-0.6168657927451565,0.03298935801674716,-0.005833621198315665,-0.03467939268010021,0,70,255.0,255.0,255.0
289,14.450000000000001,17.608455053209916,-5.066570831894008,-4.7108266030366,0.5400696763849088,-0.07438163226870963,-0.6186002732670954,0.03312512200709677,-0.007510300833179198,-0.03469982819745425,0,70,255.0,255.0,255.0
290,14.5,17.6355,-5.0703,-4.7418,0.5417293265850223,-0.07479906430124017,-0.6203357755649019,0.033260885997446366,-0.009186980468042671,-0.03472026371480652,0,70,255.0,255.0,255.0
291,14.55,17.66262746856208,-5.074050742066927,-4.772860437490831,0.5433579384047293,-0.07521672090147302,-0.622086691727132,0.031883586790839025,-0.007519283541271159,-0.035316382774395555,0,70,255.0,255.0,255.0
292,14.600000000000001,17.689834646091136,-5.077820282342708,-4.804009165938597,0.5449176852641062,-0.0755509926553673,-0.6238674138423416,0.03050628758423169,-0.005851586614499646,-0.035912501833984596,0,70,255.0,255.0,255.0
293,14.65,17.71711808933915,-5.081604451585025,-4.8352476756409475,0.5464085671631527,-0.07580187956292299,-0.6256779419105305,0.0291289883776244,-0.004183889687728192,-0.03650862089357361,0,70,255.0,255.0,255.0
294,14.700000000000001,17.744474355058113,-5.085399080551561,-4.8665774568955324,0.5478305841018686,-0.0759693816241401,-0.627518275931699,0.02775168917101706,-0.002516192760956679,-0.03710473995316265,0,70,255.0,255.0,255.0
295,14.75,17.7719,-5.0892,-4.898,0.5491837360802544,-0.07605349883901866,-0.6293884159058467,0.026374389964408884,-0.0008484958341850035,-0.037700859012751664,0,70,255.0,255.0,255.0
296,14.8,17.799392793721815,-5.093004216440107,-4.929516344822493,0.5505407913993788,-0.07612477633253284,-0.6312613360625915,0.02790782280056574,-0.002002603906382444,-0.03721594725703809,0,70,255.0,255.0,255.0
297,14.850000000000001,17.82695535700063,-5.09681343938998,-4.96112572951313,0.5519745183603111,-0.07625375922965691,-0.6331100106315506,0.029441255636722594,-0.003156711978579884,-0.03673103550132451,0,70,255.0,255.0,255.0
298,14.9,17.85459152341854,-5.100630554119799,-4.992826941792518,0.553484916963051,-0.07644044753039082,-0.6349344396127239,0.030974688472879396,-0.004310820050777283,-0.03624612374561095,0,70,255.0,255.0,255.0
299,14.950000000000001,17.882305126557636,-5.104458445899746,-5.024618769381273,0.555071987207599,-0.07668484123473462,-0.6367346230061117,0.032508121309036256,-0.005464928122974724,-0.03576121198989738,0,70,255.0,255.0,255.0
300,15.0,17.9101,-5.1083,-5.0565,0.5567357290939545,-0.07698694034268828,-0.6385105608117136,0.03404155414518861,-0.006619036195171568,-0.03527630023418027,0,70,255.0,255.0,255.0
301,15.05,17.937978956550655,-5.112157192172644,-5.088469383219197,0.5584148959977617,-0.07729217376839674,-0.6402599640225045,0.033125122007095685,-0.005590300833166458,-0.03469982819745211,0,70,255.0,255.0,255.0
302,15.100000000000001,17.96594072590633,-5.1160283600973715,-5.120525516008887,0.5600482412946641,-0.07754597042600493,-0.6419805436314588,0.03220868986900276,-0.004561565471161348,-0.034123356160723955,0,70,255.0,255.0,255.0
303,15.15,17.99398301698667,-5.1199109319357765,-5.152666957188978,0.5616357649846618,-0.07774833031551288,-0.6436722996385769,0.03129225773090986,-0.0035328301091562746,-0.03354688412399582,0,70,255.0,255.0,255.0
304,15.200000000000001,18.022103538711345,-5.123802335849454,-5.18489226557938,0.5631774670677551,-0.07789925343692056,-0.6453352320438585,0.030375825592816933,-0.002504094747151165,-0.03297041208726766,0,70,255.0,255.0,255.0
305,15.25,18.0503,-5.1277,-5.2172,0.5646733475439435,-0.07799873979022799,-0.6469693408473035,0.029459393454721372,-0.001475359385145869,-0.032393940050535086,0,70,255.0,255.0,255.0
306,15.3,18.078570580075564,-5.131602214869316,-5.2495893223007215,0.5661516246095852,-0.07809852859388097,-0.6486108078473957,0.02967168917094494,-0.002516192760973716,-0.03326473995315401,0,70,255.0,255.0,255.0
307,15.350000000000001,18.106915339374055,-5.135510720220534,-5.282061806451326,0.567640516461038,-0.07825035906632537,-0.650295814842619,0.029883984887168508,-0.0035570261368015627,-0.03413553985577294,0,70,255.0,255.0,255.0
308,15.4,18.135334808634767,-5.139428118137095,-5.314619629451569,0.569140023098302,-0.07845423120756113,-0.6520243618329731,0.03009628060339207,-0.004597859512629372,-0.03500633975839183,0,70,255.0,255.0,255.0
309,15.450000000000001,18.163829518596984,-5.143357010702437,-5.347264968301208,0.5706501445213772,-0.07871014501758831,-0.6537964488184581,0.030308576319615636,-0.00563869288845722,-0.035877139661010755,0,70,255.0,255.0,255.0
310,15.5,18.1924,-5.1473,-5.38,0.5721708807302637,-0.07901810049640685,-0.6556120757990741,0.030520872035840085,-0.0066795262642850295,-0.036747939563627874,0,70,255.0,255.0,255.0
311,15.55,18.221046723147087,-5.151258748350092,-5.412826127577919,0.5736986055638873,-0.07932171185608793,-0.6574248045879122,0.030588121309106955,-0.005464928122957385,-0.03576121198989613,0,70,255.0,255.0,255.0
312,15.600000000000001,18.249769916597447,-5.1552311590204924,-5.445741658185814,0.5752296928611744,-0.0795645933087026,-0.6591881969980637,0.03065537058237382,-0.00425032998162974,-0.03477448441616439,0,70,255.0,255.0,255.0
313,15.65,18.27856974847427,-5.159214195515846,-5.478744125004748,0.5767641426221248,-0.07974674485425089,-0.6609022530295288,0.030722619855640686,-0.0030357318403021385,-0.03378775684243269,0,70,255.0,255.0,255.0
314,15.700000000000001,18.307446386900722,-5.163204821340798,-5.511831061215789,0.5783019548467384,-0.0798681664927328,-0.662566972682307,0.030789869128907556,-0.0018211336989744937,-0.032801029268700946,0,70,255.0,255.0,255.0
315,15.75,18.3364,-5.1672,-5.545,0.5798431295350154,-0.07992885822414836,-0.6641823559563987,0.030857118402171757,-0.0006065355576470033,-0.031814301694965685,0,70,255.0,255.0,255.0
316,15.8,18.365430527336084,-5.171197991730317,-5.578249367387603,0.5813739531348884,-0.08000662398176789,-0.665801973800955,0.030375825592746424,-0.002504094747134049,-0.03297041208728137,0,70,255.0,255.0,255.0
317,15.850000000000001,18.394536994236148,-5.175202243697502,-5.6115811608054225,0.58288071209429,-0.08017926769886177,-0.6674793971651268,0.02989453278332109,-0.004401653936621095,-0.034126522479597056,0,70,255.0,255.0,255.0
318,15.9,18.423718197468173,-5.1792174997995275,-5.644998270529443,0.5843634064132205,-0.08044678937542998,-0.6692146260489146,0.029413239973895774,-0.006299213126108074,-0.035282632871912696,0,70,255.0,255.0,255.0
319,15.950000000000001,18.45297293380013,-5.183248503934369,-5.678503586835642,0.5858220360916796,-0.08080918901147258,-0.6710076604523182,0.02893194716447044,-0.008196772315595121,-0.036438743264228385,0,70,255.0,255.0,255.0
320,16.0,18.4823,-5.1873,-5.7121,0.5872566011296675,-0.08126646660698948,-0.6728585003753375,0.0284506543550469,-0.01009433150508221,-0.03759485365654225,0,70,255.0,255.0,255.0
321,16.05,18.51169836750858,-5.19137488472864,-5.745789202871674,0.5886775818965343,-0.08170779221682872,-0.6746953002082758,0.028388576319622237,-0.007558692888486882,-0.03587713966099295,0,70,255.0,255.0,255.0
322,16.1,18.541167706457955,-5.195468666189502,-5.779568098592499,0.5900954587616298,-0.08202233589583818,-0.6764462143414368,0.028326498284197574,-0.0050230542718915526,-0.03415942566544365,0,70,255.0,255.0,255.0
323,16.150000000000002,18.570707861653045,-5.199575005286044,-5.813432392877489,0.591510231724954,-0.08221009764401789,-0.6781112427748203,0.02826442024877291,-0.002487415655296224,-0.03244171166989435,0,70,255.0,255.0,255.0
324,16.2,18.600318677898755,-5.203687562921723,-5.84737779144165,0.592921900786507,-0.0822710774613678,-0.6796903855084262,0.028202342213348254,4.8222961298924685e-05,-0.030723997674345173,0,70,255.0,255.0,255.0
325,16.25,18.63,-5.2078,-5.8814,0.5943304659462888,-0.08220527534788799,-0.6811836425422546,0.028140264177925367,0.002583861577894142,-0.029006283678791434,0,70,255.0,255.0,255.0
326,16.3,18.6597520026296,-5.211908069355121,-5.915496221125708,0.5957557192789614,-0.08213820715091512,-0.6826808253659415,0.028869869128979007,9.886630102090349e-05,-0.030881029268686105,0,70,255.0,255.0,255.0
327,16.35,18.689576179932025,-5.2160158915444885,-5.949669644824587,0.5972174528591868,-0.0821953887177859,-0.6842717454691233,0.029599474080032648,-0.002386128975852335,-0.03275577485858078,0,70,255.0,255.0,255.0
328,16.400000000000002,18.719474355919644,-5.2201296790562965,-5.983924957960612,0.5987156666869647,-0.08237682004850035,-0.6859564028517997,0.03032907903108629,-0.004871124252725573,-0.03463052044847545,0,70,255.0,255.0,255.0
329,16.45,18.74944835460484,-5.2242556443787365,-6.018266847397757,0.6002503607622953,-0.08268250114305845,-0.6877347975139707,0.03105868398213988,-0.007356119529598635,-0.03650526603836998,0,70,255.0,255.0,255.0
330,16.5,18.7795,-5.2284,-6.0527,0.6018215350851788,-0.08311243200146019,-0.6896069294556365,0.03178828893319441,-0.009841114806471762,-0.03838001162826199,0,70,255.0,255.0,255.0
331,16.55,18.809630421973022,-5.232567237850876,-6.087227512625499,0.6033875409876203,-0.08356337917951144,-0.6914773983279496,0.03085194716446614,-0.008196772315577982,-0.03643874326426208,0,70,255.0,255.0,255.0
332,16.6,18.839837973813953,-5.236754967632542,-6.121846122109159,0.6049067298016254,-0.083932109233018,-0.6932508037820628,0.02991560539573787,-0.0065524298246842005,-0.03449747490026217,0,70,255.0,255.0,255.0
333,16.650000000000002,18.870120314668377,-5.2409590784887685,-6.156550975280069,0.6063791015271942,-0.08421862216197987,-0.694927145817976,0.028979263627009602,-0.004908087333790419,-0.03255620653626226,0,70,255.0,255.0,255.0
334,16.7,18.900475103681863,-5.245175459563331,-6.191337218967319,0.6078046561643263,-0.08442291796639703,-0.6965064244356889,0.028042921858281403,-0.0032637448428967557,-0.03061493817226249,0,70,255.0,255.0,255.0
335,16.75,18.9309,-5.2494,-6.2262,0.6091833937130223,-0.08454499664626954,-0.6979886396352022,0.027106580089552246,-0.0016194023520029743,-0.028673669808261693,0,70,255.0,255.0,255.0
336,16.8,18.961393509478317,-5.253629379241373,-6.261136128372299,0.6105661167705931,-0.08463227613103745,-0.6994735813222669,0.0282023422132797,-0.0018717770387137547,-0.03072399767432546,0,70,255.0,255.0,255.0
337,16.85,18.991957524812165,-5.257863437925343,-6.296149066738784,0.6120036279343504,-0.08473217435014091,-0.7010610394026348,0.029298104337007157,-0.002124151725424535,-0.032774325540389226,0,70,255.0,255.0,255.0
338,16.900000000000002,19.022594785406852,-5.262102806988626,-6.331243940919118,0.6134959272042939,-0.08484469130357991,-0.7027510138763059,0.030393866460734612,-0.0023765264121353154,-0.034824653406453,0,70,255.0,255.0,255.0
339,16.95,19.053308030667694,-5.266348117367939,-6.366425876732967,0.6150430145804237,-0.08496982699135444,-0.7045435047432801,0.031489628584461984,-0.002628901098846078,-0.03687498127251662,0,70,255.0,255.0,255.0
340,17.0,19.0841,-5.2706,-6.4017,0.6166448900627399,-0.08510758141346451,-0.7064385120035575,0.032585390708185,-0.0028812757855568583,-0.038925309138582165,0,70,255.0,255.0,255.0
341,17.05,19.11497234011372,-5.274859245183632,-6.43706957388531,0.6182359919299981,-0.0852675162963432,-0.7083242763829808,0.03105868398213969,-0.0035161195295904646,-0.03650526603835221,0,70,255.0,255.0,255.0
342,17.1,19.145922326937395,-5.279127280666088,-6.472530410935716,0.619750758460954,-0.08545919336642356,-0.7100890386073927,0.02953197725609438,-0.004150963273624071,-0.03408522293812226,0,70,255.0,255.0,255.0
343,17.150000000000002,19.17694614370421,-5.283405693556728,-6.508076461043467,0.6211891896556075,-0.08568261262370562,-0.7117327986767932,0.028005270530049066,-0.004785807017657678,-0.031665179837892306,0,70,255.0,255.0,255.0
344,17.2,19.20803997364735,-5.287696070964912,-6.54370167410081,0.6225512855139588,-0.08593777406818931,-0.7132555565911819,0.026478563804003864,-0.005420650761691239,-0.029245136737662526,0,70,255.0,255.0,255.0
345,17.25,19.2392,-5.292,-6.5794,0.6238370460360079,-0.08622467769987473,-0.7146573123505593,0.024951857077954998,-0.0060554945057248455,-0.02682509363742902,0,70,255.0,255.0,255.0
346,17.3,19.270423530066807,-5.296318440024099,-6.615167176086464,0.6251139155094156,-0.08650565868359017,-0.7160453131458026,0.026122921858353736,-0.005183744842892244,-0.02869493817229947,0,70,255.0,255.0,255.0
347,17.35,19.30171236743826,-5.3006498394103065,-6.6510060895183605,0.6264493382218432,-0.08674305218416396,-0.7175268061677893,0.027293986638752477,-0.004311995180059644,-0.030564782707169922,0,70,255.0,255.0,255.0
348,17.400000000000002,19.33306943977631,-5.304992018784464,-6.686921414907024,0.6278433141732909,-0.08693685820159613,-0.7191017914165196,0.028465051419151215,-0.0034402455172270435,-0.032434627242040374,0,70,255.0,255.0,255.0
349,17.45,19.364497674742903,-5.309342798772414,-6.72291782686379,0.6292958433637583,-0.08708707673588666,-0.7207702688919932,0.029636116199549874,-0.002568495854394505,-0.03430447177691069,0,70,255.0,255.0,255.0
350,17.5,19.396,-5.3137,-6.759,0.6308069257932458,-0.08719370778703557,-0.7225322385942105,0.030807180979946835,-0.001696746191561238,-0.03617431631177492,0,70,255.0,255.0,255.0
351,17.55,19.427578339619057,-5.318062194719969,-6.7951713217688345,0.6323163460323544,-0.08730184896929617,-0.724310471033817,0.02956962858439594,-0.0026289010988628813,-0.03495498127248647,0,70,255.0,255.0,255.0
352,17.6,19.459230603309575,-5.322430961692686,-6.831430030990851,0.6337638886516854,-0.08745659789692187,-0.7260277367214591,0.028332076188845045,-0.0035610560061645246,-0.03373564623319801,0,70,255.0,255.0,255.0
353,17.650000000000002,19.490953697190566,-5.3268086313054175,-6.867773079328449,0.6351495536512389,-0.08765795456991263,-0.7276840356571368,0.027094523793294148,-0.004493210913466168,-0.032516311193909554,0,70,255.0,255.0,255.0
354,17.7,19.522744527381036,-5.331197533945432,-6.904197418444029,0.6364733410310148,-0.08790591898826847,-0.7292793678408501,0.02585697139774334,-0.005425365820767745,-0.03129697615462119,0,70,255.0,255.0,255.0
355,17.75,19.5546,-5.3356,-6.9407,0.6377352507910132,-0.08820049115198939,-0.7308137332725988,0.024619419002187115,-0.006357520728069277,-0.030077641115331843,0,70,255.0,255.0,255.0
356,17.8,19.58651831145697,-5.340017581096023,-6.9772787368382,0.639012700361168,-0.08849494543923299,-0.7323448027189235,0.026478563804000668,-0.005420650761674337,-0.03116513673765803,0,70,255.0,255.0,255.0
357,17.85,19.618502819323453,-5.344448713818951,-7.013935386518245,0.6403831071714133,-0.08874255622815683,-0.7339302469463647,0.028337708605814225,-0.004483780795279398,-0.03225263235998422,0,70,255.0,255.0,255.0
358,17.900000000000002,19.65055817146145,-5.348891055993867,-7.05067266777919,0.6418464712217494,-0.08894332351876093,-0.735570065954922,0.030196853407627778,-0.0035469108288844575,-0.03334012798231041,0,70,255.0,255.0,255.0
359,17.95,19.68268901573296,-5.353342265445856,-7.087493299360087,0.643402792512176,-0.08909724731104526,-0.7372642597445956,0.0320559982094412,-0.002610040862489584,-0.03442762360463652,0,70,255.0,255.0,255.0
360,18.0,19.7149,-5.3578,-7.1244,0.6450520710426935,-0.08920432760500989,-0.7390128283153857,0.033915143011254756,-0.0016731708960945335,-0.03551511922696182,0,70,255.0,255.0,255.0
361,18.05,19.747194014553063,-5.362262680895936,-7.161394530878365,0.6466888525229636,-0.0893103692737721,-0.7407583180904833,0.031556116199545736,-0.0025684958543941497,-0.03430447177694108,0,70,255.0,255.0,255.0
362,18.1,19.779566919396622,-5.366731783031509,-7.198474822936174,0.648207682662648,-0.08946117719044931,-0.7424432754930799,0.029197089387836717,-0.0034638208126937663,-0.033093824326920325,0,70,255.0,255.0,255.0
363,18.150000000000002,19.81201281696365,-5.371209544719114,-7.2356378495547995,0.6496085614617473,-0.08965675135504149,-0.7440677005231754,0.026838062576127697,-0.004359145770993383,-0.03188317687689958,0,70,255.0,255.0,255.0
364,18.2,19.844525809687116,-5.375698204271146,-7.272880584115615,0.6508914889202607,-0.08989709176754863,-0.7456315931807698,0.024479035764418844,-0.005254470729292936,-0.030672529426878918,0,70,255.0,255.0,255.0
365,18.25,19.8771,-5.3802,-7.3102,0.652056465038189,-0.09018219842797076,-0.7471349534658631,0.02212000895270627,-0.006149795687592441,-0.029461881976857285,0,70,255.0,255.0,255.0
366,18.3,19.909731230330785,-5.384716495320231,-7.347593539648338,0.653207889546952,-0.09047157746567977,-0.7486059249191493,0.023936971397812482,-0.005425365820767681,-0.029376976154591006,0,70,255.0,255.0,255.0
367,18.35,19.942422303090066,-5.389246554055013,-7.385060521737064,0.6544501621779703,-0.09072473501004753,-0.7500726510813223,0.025753933842918693,-0.004700935953942921,-0.029292070332324723,0,70,255.0,255.0,255.0
368,18.400000000000002,19.975177760683955,-5.39378836512968,-7.42260073400162,0.6557832829312439,-0.09094167106107406,-0.7515351319523819,0.027570896288024904,-0.003976506087118161,-0.029207164510058444,0,70,255.0,255.0,255.0
369,18.45,20.00800214551856,-5.398340117469564,-7.4602139641774485,0.6572072518067728,-0.09112238561875935,-0.752993367532328,0.029387858733130986,-0.003252076220293453,-0.02912225868779217,0,70,255.0,255.0,255.0
370,18.5,20.0409,-5.4029,-7.4979,0.658722068804557,-0.09126687868310342,-0.7544473578211609,0.031204821178233644,-0.0025276463534685822,-0.029037352865523225,0,70,255.0,255.0,255.0
371,18.55,20.0738746641238,-5.407466537823142,-7.535659310528281,0.6602555892892473,-0.09139532086350238,-0.7559379822329152,0.030135998209376763,-0.0026100408624895057,-0.03058762360464533,0,70,255.0,255.0,255.0
372,18.6,20.106924668243117,-5.412039600748441,-7.573495090115575,0.6617356686254947,-0.09152788276935236,-0.7575061201816256,0.029067175240519886,-0.0026924353715104287,-0.03213789434376744,0,70,255.0,255.0,255.0
373,18.650000000000002,20.14004734030054,-5.416619394762169,-7.611411214438728,0.6631623068132992,-0.09166456440065342,-0.7591517716672919,0.027998352271663005,-0.002774829880531352,-0.03368816508288954,0,70,255.0,255.0,255.0
374,18.7,20.17324000823864,-5.421206125850597,-7.649411559174585,0.6645355038526609,-0.0918053657574055,-0.7608749366899143,0.026929529302806204,-0.0028572243895522696,-0.03523843582201154,0,70,255.0,255.0,255.0
375,18.75,20.2065,-5.4258,-7.6875,0.6658552597435797,-0.09195028683960862,-0.7626756152494929,0.02586070633394666,-0.00293961889857286,-0.036788706561132756,0,70,255.0,255.0,255.0
376,18.8,20.239825313174023,-5.430401353387199,-7.725678818238538,0.6671617532960388,-0.09210713908030581,-0.7644581461491934,0.0263990357644131,-0.003334470729314326,-0.0345125294268868,0,70,255.0,255.0,255.0
377,18.85,20.273216623937458,-5.435011042951222,-7.763943917800642,0.668495163320021,-0.09228373391254006,-0.7661268681921816,0.02693736519487954,-0.0037293225600557923,-0.03223635229264084,0,70,255.0,255.0,255.0
378,18.900000000000002,20.306675278113886,-5.439630055821646,-7.802289608243479,0.6698554898155267,-0.09248007133631139,-0.7676817813784576,0.027475694625345982,-0.004124174390797259,-0.02996017515839488,0,70,255.0,255.0,255.0
379,18.95,20.34020262152687,-5.444259379128046,-7.840710199124207,0.6712427327825556,-0.09269615135161978,-0.7691228857080211,0.028014024055812384,-0.004519026221538697,-0.02768399802414908,0,70,255.0,255.0,255.0
380,19.0,20.3738,-5.4489,-7.8792,0.672656892221108,-0.09293197395846525,-0.7704501811808724,0.028552353486279713,-0.004913878052279941,-0.025407820889904897,0,70,255.0,255.0,255.0
381,19.05,20.4074680831801,-5.45355284862806,-7.917755016517572,0.6740573975265951,-0.09318412281527906,-0.771765433170314,0.027467858733202618,-0.005172076220271919,-0.02720225868776185,0,70,255.0,255.0,255.0
382,19.1,20.44120483600703,-5.4582186274466675,-7.956378038681864,0.6754036780944283,-0.09344918158049245,-0.7731704070496487,0.026383363980125522,-0.005430274388263896,-0.028996696485618808,0,70,255.0,255.0,255.0
383,19.150000000000002,20.475007547243916,-5.462897981951249,-7.995073552587369,0.6766957339246077,-0.09372715025410545,-0.774665102818876,0.025298869227048423,-0.005688472556255875,-0.03079113428347576,0,70,255.0,255.0,255.0
384,19.200000000000003,20.508873505653867,-5.467591557637219,-8.033846044328584,0.6779335650171332,-0.09401802883611804,-0.7762495204779962,0.024214374473971328,-0.005946670724247852,-0.03258557208133272,0,70,255.0,255.0,255.0
385,19.25,20.5428,-5.4723,-8.0727,0.6791171713720049,-0.09432181732653024,-0.7779236600270092,0.023129879720896973,-0.006204868892239701,-0.03438000987919132,0,70,255.0,255.0,255.0
386,19.3,20.576785554105577,-5.477023252100565,-8.111638715691175,0.6803206565975959,-0.09459636965857535,-0.7796161211695403,0.025009529302741234,-0.004777224389564563,-0.033318435822049595,0,70,255.0,255.0,255.0
387,19.35,20.61083363203441,-5.481758447262106,-8.150660727471909,0.681618124302279,-0.09479953976548669,-0.7812555036092141,0.026889178884585495,-0.003349579886889424,-0.032256861764907864,0,70,255.0,255.0,255.0
388,19.400000000000002,20.64494893291046,-5.486502016373362,-8.18976338140705,0.6830095744860544,-0.0949313276472643,-0.7828418073460311,0.028768828466429756,-0.001921935384214285,-0.03119528770776614,0,70,255.0,255.0,255.0
389,19.450000000000003,20.67913615585767,-5.49125039032308,-8.228944023561464,0.6844950071489221,-0.09499173330390813,-0.7843750323799908,0.030648478048274017,-0.0004942908815391469,-0.03013371365062441,0,70,255.0,255.0,255.0
390,19.5,20.7134,-5.496,-8.2682,0.6860744222908819,-0.09498075673541821,-0.7858551787110934,0.03252812763011903,0.0009333536211361126,-0.029072139593486312,0,70,255.0,255.0,255.0
391,19.55,20.74774330039759,-5.50074854296968,-8.307529320717729,0.6876359760830302,-0.09497439855042807,-0.7873220821515343,0.02993402405580806,-0.0006790262215304662,-0.029603998024146358,0,70,255.0,255.0,255.0
392,19.6,20.78216143585533,-5.505498783504913,-8.346932651430514,0.6890678246964627,-0.09504865935757126,-0.7888155785135081,0.027339920481497085,-0.002291406064197045,-0.030135856454806403,0,70,255.0,255.0,255.0
393,19.650000000000002,20.81664792111426,-5.510254752555306,-8.386411321784438,0.6903699681311799,-0.09520353915684777,-0.790335667797015,0.024745816907186115,-0.003903785906863624,-0.030667714885466445,0,70,255.0,255.0,255.0
394,19.700000000000003,20.851196270915466,-5.515020481070466,-8.425966661425575,0.6915424063871813,-0.09543903794825763,-0.7918823500020549,0.02215171333287514,-0.005516165749530203,-0.03119957331612649,0,70,255.0,255.0,255.0
395,19.75,20.8858,-5.5198,-8.4656,0.6925851394644672,-0.09575515573180078,-0.7934556251286276,0.01955760975856169,-0.007128545592196445,-0.03173143174678472,0,70,255.0,255.0,255.0
396,19.8,20.920454844304054,-5.524596176020719,-8.505312001437922,0.6936314390702807,-0.09608203613971146,-0.7950155502243292,0.02229437447397679,-0.005946670724230746,-0.030665572081285203,0,70,255.0,255.0,255.0
397,19.85,20.955165424544294,-5.529407218718249,-8.545100666806047,0.6948145769118649,-0.09634982280422387,-0.7965221823367561,0.025031139189391892,-0.004764795856265047,-0.029599712415785687,0,70,255.0,255.0,255.0
398,19.900000000000002,20.989938582632504,-5.534230173405418,-8.58496333145521,0.6961345529892199,-0.09655851572533798,-0.7979755214659079,0.027767903904806997,-0.003582920988299348,-0.02853385275028617,0,70,255.0,255.0,255.0
399,19.950000000000003,21.024781160480476,-5.5390620853950585,-8.62489733073625,0.6975913673023456,-0.09670811490305381,-0.7993755676117849,0.030504668620222098,-0.002401046120333649,-0.027467993084786653,0,70,255.0,255.0,255.0
400,20.0,21.0597,-5.5439,-8.6649,0.6991850198512422,-0.09679862033737133,-0.8007223207743865,0.03324143333563434,-0.0012191712523674791,-0.026402133419285434,0,70,255.0,255.0,255.0
401,20.05,21.094699722386196,-5.548741952947446,-8.70496987353059,0.70078226763584,-0.09688945689071973,-0.8020877169511352,0.030648478048273694,-0.002414290881568676,-0.028213713650664145,0,70,255.0,255.0,255.0
402,20.1,21.129776065967512,-5.5535899416220955,-8.745110281345307,0.7022498676560696,-0.0970400494255282,-0.803543692139453,0.028055522760913047,-0.0036094105107698734,-0.030025293882042853,0,70,255.0,255.0,255.0
403,20.150000000000002,21.16492254835573,-5.558446953823023,-8.785325752394728,0.7035878199119312,-0.09725039794179673,-0.8050902463393397,0.0254625674735524,-0.004804530139971071,-0.031836874113421565,0,70,255.0,255.0,255.0
404,20.200000000000003,21.200132687162633,-5.5633159773492995,-8.825620815629433,0.7047961244034248,-0.09752050243952531,-0.8067273795507952,0.022869612186191754,-0.005999649769172268,-0.03364845434480027,0,70,255.0,255.0,255.0
405,20.25,21.2354,-5.5682,-8.866,0.7058747811305502,-0.09785036291871392,-0.8084550917738196,0.02027665689882685,-0.0071947693983730465,-0.03546003457617353,0,70,255.0,255.0,255.0
406,20.3,21.27071986615116,-5.573100812189496,-8.906466104439719,0.7069354903863445,-0.0981681362974115,-0.8101695819711278,0.02215171333294122,-0.005516165749530042,-0.033119573316153575,0,70,255.0,255.0,255.0
407,20.35,21.306095111585662,-5.578015414793367,-8.94701500781273,0.7080899524638443,-0.09840197949366693,-0.811767049105435,0.024026769767055586,-0.0038375621006870387,-0.030779112056133616,0,70,255.0,255.0,255.0
408,20.400000000000002,21.34153042394458,-5.58293961130249,-8.98764085896588,0.70933816736305,-0.09855189250748021,-0.8132474931767413,0.025901826201169955,-0.0021589584518440343,-0.028438650796113664,0,70,255.0,255.0,255.0
409,20.450000000000003,21.377030490868997,-5.587869205207742,-9.028337806746023,0.7106801350839614,-0.09861787533885134,-0.8146109141850464,0.027776882635284324,-0.0004803548030010308,-0.02609818953609371,0,70,255.0,255.0,255.0
410,20.5,21.4126,-5.5928,-9.0691,0.7121158556265784,-0.09859992798778032,-0.8158573121303505,0.02965193906939856,0.001198248845842076,-0.023757728276075696,0,70,255.0,255.0,255.0
411,20.55,21.448242413009147,-5.5977291982945685,-9.109923308710533,0.7135717708188174,-0.09858199791964187,-0.8170899551643706,0.028584668620158543,-0.0004810461203037979,-0.025547993084724066,0,70,255.0,255.0,255.0
412,20.6,21.483956287689843,-5.6026595992044355,-9.150810487403778,0.7149743224885944,-0.0986480325998107,-0.818412111438823,0.02751739817091853,-0.0021603410864496717,-0.027338257893372436,0,70,255.0,255.0,255.0
413,20.650000000000002,21.519738955865968,-5.607595400967021,-9.191766011741759,0.7163235106359093,-0.09879803202828683,-0.8198237809537079,0.026450127721678516,-0.0038396360525955455,-0.029128522702020807,0,70,255.0,255.0,255.0
414,20.700000000000003,21.555587749361397,-5.612540801819738,-9.232794357386492,0.7176193352607622,-0.09903199620507026,-0.8213249637090251,0.025382857272438504,-0.005518931018741419,-0.030918787510669177,0,70,255.0,255.0,255.0
415,20.75,21.5915,-5.6175,-9.2739,0.718861796363153,-0.09934992513016094,-0.8229156597047748,0.024315586823194124,-0.007198225984886397,-0.03270905231932186,0,70,255.0,255.0,255.0
416,20.8,21.62747368181225,-5.622475994632232,-9.31508626071815,0.7200894263383857,-0.09967987202401284,-0.8245265973713788,0.024789612186115667,-0.005999649769188836,-0.031728454344837495,0,70,255.0,255.0,255.0
417,20.85,21.663509337654975,-5.627466988388888,-9.35635184257216,0.7213407575817646,-0.09994989010707984,-0.8260885051392585,0.025263637549037214,-0.004801073553491275,-0.030747856370353127,0,70,255.0,255.0,255.0
418,20.900000000000002,21.699608152591566,-5.632469984829427,-9.397694294067097,0.7226157900932895,-0.10015997937936195,-0.8276013830084141,0.025737662911958756,-0.0036024973377937132,-0.02976725839586876,0,70,255.0,255.0,255.0
419,20.950000000000003,21.73577131168544,-5.63748198751331,-9.439111163708024,0.7239145238729604,-0.10031013984085921,-0.8290652309788454,0.0262116882748803,-0.0024039211220961516,-0.02878666042138439,0,70,255.0,255.0,255.0
420,21.0,21.772,-5.6425,-9.4806,0.7252369589207774,-0.10040037149157158,-0.8304800490505525,0.026685713637800035,-0.0012053449063984534,-0.027806062446900093,0,70,255.0,255.0,255.0
421,21.05,21.808294859741835,-5.647522023176501,-9.522158848416874,0.7265505238276081,-0.10049051398430688,-0.8318756553501272,0.025856882635425283,-0.0024003548030136993,-0.028018189536089193,0,70,255.0,255.0,255.0
422,21.1,21.84465436169026,-5.652550047240012,-9.56378774230759,0.72782264718432,-0.10064040697187296,-0.8332818680041614,0.025028051633050528,-0.0035953646996289453,-0.02823031662527829,0,70,255.0,255.0,255.0
423,21.150000000000002,21.881076433767763,-5.65758705971527,-9.605487211989868,0.7290533289909131,-0.10085005045426979,-0.8346986870126551,0.024199220630675776,-0.004790374596244191,-0.02844244371446739,0,70,255.0,255.0,255.0
424,21.200000000000003,21.917559003896848,-5.662636048127019,-9.64725778778143,0.7302425692473876,-0.10111944443149738,-0.8361261123756083,0.02337038962830102,-0.005985384492859437,-0.02865457080365649,0,70,255.0,255.0,255.0
425,21.25,21.9541,-5.6677,-9.6891,0.7313903679537432,-0.10144858890355571,-0.8375641440930208,0.02254155862592455,-0.007180394389474598,-0.02886669789284646,0,70,255.0,255.0,255.0
426,21.3,21.990698079220408,-5.672780712661761,-9.731014345614359,0.7325404783512007,-0.10176607203876067,-0.839010781228108,0.023462857272372174,-0.005518931018723914,-0.02899878751064158,0,70,255.0,255.0,255.0
427,21.35,22.027354815583994,-5.677875222651067,-9.773001188197492,0.7337366536809805,-0.1020004820054281,-0.840464022844085,0.0243841559188198,-0.0038574676479732313,-0.029130877128436698,0,70,255.0,255.0,255.0
428,21.400000000000002,22.064072512337376,-5.682979376309495,-9.81506085797345,0.7349788939430827,-0.10215181880355802,-0.8419238689409518,0.02530545456526742,-0.0021960042772225475,-0.029262966746231817,0,70,255.0,255.0,255.0
429,21.450000000000003,22.100853472727174,-5.688089019978614,-9.857193685166271,0.7362671991375073,-0.10222008243315037,-0.8433903195187082,0.026226753211715047,-0.0005345409064718646,-0.029395056364026936,0,70,255.0,255.0,255.0
430,21.5,22.1377,-5.6932,-9.8994,0.7376015692642542,-0.10220527289420521,-0.8448633745773543,0.02714805185815994,0.0011269224642788123,-0.029527145981812275,0,70,255.0,255.0,255.0
431,21.55,22.174613623376544,-5.698309526176458,-9.941679769125695,0.7389355627675802,-0.10218919786065075,-0.846321219737435,0.026211688274878308,-0.00048392112210051763,-0.02878666042141499,0,70,255.0,255.0,255.0
432,21.6,22.211592775973774,-5.70342026215572,-9.984031504902445,0.7402227380917421,-0.10225366500641525,-0.8477420406194958,0.025275324691596674,-0.0020947647084798475,-0.028046174861017705,0,70,255.0,255.0,255.0
433,21.650000000000002,22.24863511688273,-5.708536235046755,-10.026453356116345,0.7414630952367399,-0.10239867433149874,-0.8491258372235369,0.024338961108315044,-0.003705608294859177,-0.02730568930062042,0,70,255.0,255.0,255.0
434,21.700000000000003,22.285738305194457,-5.713661471958526,-10.0689434715535,0.7426566342025737,-0.10262422583590118,-0.8504726095495578,0.02340259752503341,-0.005316451881238507,-0.026565203740223135,0,70,255.0,255.0,255.0
435,21.75,22.3229,-5.7188,-10.1115,0.7438033549892432,-0.10293031951962256,-0.8517823575975589,0.022466233941751845,-0.006927295467617389,-0.025824718179825012,0,70,255.0,255.0,255.0
436,21.8,22.360118627273422,-5.7239547826324095,-10.154121777882862,0.7449492705784945,-0.10325313651863448,-0.8530963398221462,0.023370389628300903,-0.005985384492859311,-0.026734570803663985,0,70,255.0,255.0,255.0
437,21.85,22.397395680520926,-5.729124528726051,-10.196810392192734,0.7461403939520733,-0.1035288579689085,-0.8544558146779254,0.024274545314849964,-0.0050434735181012335,-0.027644423427502954,0,70,255.0,255.0,255.0
438,21.900000000000002,22.434733420131707,-5.734306883503488,-10.239568117561175,0.7473767251099795,-0.10375748387044462,-0.8558607821648965,0.025178701001399025,-0.004101562543343156,-0.028554276051341927,0,70,255.0,255.0,255.0
439,21.950000000000003,22.472134106494998,-5.739499492187283,-10.282397228619747,0.7486582640522133,-0.10393901422324282,-0.8573112422830597,0.026082856687948082,-0.0031596515685850778,-0.029464128675180896,0,70,255.0,255.0,255.0
440,22.0,22.5096,-5.7447,-10.3253,0.7499850107787744,-0.10407344902730312,-0.8588071950324145,0.026987012374497965,-0.0022177405938264005,-0.03037398129901625,0,70,255.0,255.0,255.0
441,22.05,22.547132667529755,-5.749906543293904,-10.368277919342857,0.7513153549184297,-0.10419025606481089,-0.8603014209739905,0.02622675321171427,-0.0024545409064843627,-0.02939505636402123,0,70,255.0,255.0,255.0
442,22.1,22.584730901942542,-5.755119222940075,-10.411329326326621,0.7526076860999459,-0.10431890311795156,-0.8617467006688168,0.025466494048930578,-0.002691341219142325,-0.028416131429026208,0,70,255.0,255.0,255.0
443,22.150000000000002,22.62239280259045,-5.760338630939294,-10.45445177363896,0.7538620043233228,-0.10445939018672512,-0.8631430341168932,0.024706234886146886,-0.002928141531800287,-0.02743720649403119,0,70,255.0,255.0,255.0
444,22.200000000000003,22.66011646882557,-5.765565359292342,-10.497642813967532,0.7550783095885606,-0.1046117172711316,-0.8644904213182198,0.02394597572336319,-0.003164941844458249,-0.026458281559036168,0,70,255.0,255.0,255.0
445,22.25,22.6979,-5.7708,-10.5409,0.7562566018956592,-0.10477588437117094,-0.8657888622727967,0.02318571656058044,-0.0034017421571161943,-0.025479356624041216,0,70,255.0,255.0,255.0
446,22.3,22.735741902607554,-5.776043044191974,-10.584221744745719,0.7574213097477996,-0.10494583922212948,-0.8670899762819024,0.02340259752503311,-0.0033964518812257703,-0.026565203740188906,0,70,255.0,255.0,255.0
447,22.35,22.77364231170892,-5.78129457951365,-10.62760990250079,0.7585968616481626,-0.10511552955929353,-0.8684453826468157,0.023619478489485785,-0.0033911616053353463,-0.0276510508563366,0,70,255.0,255.0,255.0
448,22.400000000000002,22.81160176950651,-5.786554592739339,-10.671067187882999,0.7597832575967483,-0.10528495538266303,-0.8698550813675362,0.023836359453938458,-0.0033858713294449227,-0.02873689797248429,0,70,255.0,255.0,255.0
449,22.450000000000003,22.84962081820273,-5.791823070643353,-10.714596315510141,0.7609804975935565,-0.10545411669223803,-0.871319072444064,0.02405324041839113,-0.0033805810535544986,-0.02982274508863198,0,70,255.0,255.0,255.0
450,22.5,22.8877,-5.7971,-10.7582,0.7621885816385873,-0.10562301348801849,-0.8728373558763994,0.024270121382840237,-0.003375290777664186,-0.03090859220478226,0,70,255.0,255.0,255.0
451,22.55,22.92583972204004,-5.8023852799382025,-10.801879901674273,0.7633994060903572,-0.1057863870466743,-0.8743466738983986,0.024162856687951793,-0.0031596515685677865,-0.029464128675179935,0,70,255.0,255.0,255.0
452,22.6,22.964039851221788,-5.807678459005327,-10.845633463670234,0.7646048673073825,-0.10593897864487527,-0.8757837687439175,0.024055591993063348,-0.002944012359471387,-0.028019665145577615,0,70,255.0,255.0,255.0
453,22.650000000000002,23.00230011938353,-5.81297899810335,-10.889457074829059,0.7658049652896635,-0.10608078828262144,-0.8771486404129564,0.023948327298174903,-0.0027283731503749873,-0.02657520161597529,0,70,255.0,255.0,255.0
454,22.700000000000003,23.04062025836351,-5.818286358134249,-10.933347123991922,0.7669997000372,-0.10621181595991278,-0.878441288905515,0.023841062603286462,-0.0025127339412785877,-0.025130738086372967,0,70,255.0,255.0,255.0
455,22.75,23.079,-5.8236,-10.9773,0.7681890715499919,-0.10633206167674929,-0.8796617142215934,0.023733797908393583,-0.002297094732181759,-0.023686274556766307,0,70,255.0,255.0,255.0
456,22.8,23.11743920923231,-5.828919836055216,-11.021313048557193,0.7693810658907859,-0.10646861259116572,-0.8808673281244894,0.023945975723363593,-0.003164941844475101,-0.02453828155907304,0,70,255.0,255.0,255.0
457,22.85,23.155938283403927,-5.834247584465044,-11.065387442818285,0.7705836691223283,-0.1066485558611968,-0.8821155423775008,0.024158153538333598,-0.004032788956768443,-0.025390288561379773,0,70,255.0,255.0,255.0
458,22.900000000000002,23.19449775295939,-5.839585414847263,-11.10952531280078,0.7717968812446193,-0.10687189148684256,-0.8834063569806275,0.024370331353303607,-0.004900636069061785,-0.026242295563686506,0,70,255.0,255.0,255.0
459,22.950000000000003,23.233118148343234,-5.844935496819655,-11.153728788522184,0.7730207022576587,-0.10713861946810299,-0.8847397719338695,0.024582509168273616,-0.005768483181355127,-0.02709430256599324,0,70,255.0,255.0,255.0
460,23.0,23.2718,-5.8503,-11.198,0.7742551321614466,-0.10744873980497804,-0.8861157872372268,0.02479468698324183,-0.006636330293648074,-0.02794630956829902,0,70,255.0,255.0,255.0
461,23.05,23.31054344103073,-5.8556801758409325,-11.242340704096957,0.7754763303464874,-0.10774716258865842,-0.8875120136036503,0.024053240418389864,-0.005300581053567191,-0.027902745088637992,0,70,255.0,255.0,255.0
462,23.1,23.34934701516251,-5.861073603134499,-11.286751165056634,0.7766604562032857,-0.10797879791033477,-0.8889060617460907,0.0233117938535379,-0.003964831813486309,-0.027859180608976963,0,70,255.0,255.0,255.0
463,23.150000000000002,23.388208868778925,-5.8664769425075995,-11.331231273967834,0.7778075097318412,-0.10814364577000705,-0.890297931664548,0.022570347288685934,-0.002629082573405427,-0.02781561612931593,0,70,255.0,255.0,255.0
464,23.200000000000003,23.42712714826356,-5.871886854587133,-11.375780921919356,0.7789174909321542,-0.10824170616767533,-0.8916876233590224,0.02182890072383397,-0.001293333333324544,-0.027772051649654902,0,70,255.0,255.0,255.0
465,23.25,23.4661,-5.8773,-11.4204,0.7799903998042246,-0.10827297910333952,-0.8930751368295133,0.021087454158982055,4.241590675602147e-05,-0.027728487169992988,0,70,255.0,255.0,255.0
466,23.3,23.505126226644762,-5.882713860581053,-11.46508813505499,0.7810656127232815,-0.10828673705420228,-0.8944446174609215,0.021921062603289,-0.0005927339412660083,-0.027050738086332505,0,70,255.0,255.0,255.0
467,23.35,23.54420725594603,-5.888129202996961,-11.509843896955191,0.7821825060645535,-0.10833225249746611,-0.8957802106381466,0.022754671047595945,-0.001227883789288038,-0.026372989002672022,0,70,255.0,255.0,255.0
468,23.400000000000002,23.583345171924922,-5.893547615122341,-11.5546655913279,0.783341079828041,-0.10840952543313108,-0.8970819163611887,0.02358827949190289,-0.001863033637310068,-0.025695239919011542,0,70,255.0,255.0,255.0
469,23.450000000000003,23.622542058602544,-5.898970684831814,-11.59955152380041,0.7845413340137438,-0.10851855586119713,-0.8983497346300479,0.02442188793620983,-0.0024981834853320976,-0.02501749083535106,0,70,255.0,255.0,255.0
470,23.5,23.6618,-5.9044,-11.6445,0.7857832686216619,-0.10865934378166427,-0.8995836654447238,0.025255496380518494,-0.0031333333333537494,-0.024339741751694177,0,70,255.0,255.0,255.0
471,23.55,23.701120452390217,-5.909837181834853,-11.6895099556831,0.7870292187603817,-0.1088338891945321,-0.9008215165526662,0.024582509168273592,-0.0038484831813592516,-0.02517430256599945,0,70,255.0,255.0,255.0
472,23.6,23.740502361053363,-5.91528398487766,-11.734582847122613,0.7882415195384893,-0.10904419209980021,-0.9021010957013238,0.023909521956028693,-0.004563633029364754,-0.026008863380304725,0,70,255.0,255.0,255.0
473,23.650000000000002,23.779944043521393,-5.92074219700304,-11.77972076072058,0.7894201709559846,-0.10929025249746857,-0.9034224028906966,0.02323653474378379,-0.0052787828773702555,-0.026843424194610003,0,70,255.0,255.0,255.0
474,23.700000000000003,23.819443817326285,-5.926213606085614,-11.824925782879031,0.7905651730128678,-0.10957207038753723,-0.9047854381207848,0.022563547531538893,-0.005993932725375758,-0.027677985008915277,0,70,255.0,255.0,255.0
475,23.75,23.859,-5.9317,-11.8702,0.7916765257091385,-0.10988964577000614,-0.9061902013915881,0.021890560319295815,-0.006709082573381209,-0.028512545823218716,0,70,255.0,255.0,255.0
476,23.8,23.89861116379436,-5.937202212079534,-11.915544842212622,0.7927695122352167,-0.11018570616767356,-0.9075973163284099,0.021828900723834366,-0.005133333333315804,-0.027772051649652584,0,70,255.0,255.0,255.0
477,23.85,23.938276899840528,-5.942717257492401,-11.960959114554365,0.793859415781522,-0.11040297910333773,-0.9089674065565535,0.021767241128372913,-0.0035575840932503986,-0.027031557476086456,0,70,255.0,255.0,255.0
478,23.900000000000002,23.97799705398952,-5.948241196865501,-12.0064409657898,0.7949462363480541,-0.11054146457699861,-0.9103004720760186,0.021705581532911463,-0.001981834853184993,-0.026291063302520325,0,70,255.0,255.0,255.0
479,23.950000000000003,24.01777147209234,-5.953770090825734,-12.05198854468349,0.7960299739348131,-0.11060116258865622,-0.9115965128868055,0.021643921937450013,-0.00040608561311958856,-0.025550569128954197,0,70,255.0,255.0,255.0
480,24.0,24.0576,-5.9593,-12.0976,0.797110628541799,-0.11058207313831057,-0.912855528988914,0.02158226234198679,0.001169663626945705,-0.024810074955389894,0,70,255.0,255.0,255.0
481,24.05,24.09748289243235,-5.9648283698470115,-12.143273875466424,0.7982127322987524,-0.11056728613477035,-0.9141012181336826,0.022501887936145704,-0.0005781834853363615,-0.025017490835353588,0,70,255.0,255.0,255.0
482,24.1,24.137422039584536,-5.970358185152738,-12.189010294659937,0.7993608173354136,-0.11063989148684421,-0.9153572780724494,0.02342151353030462,-0.002326030597618428,-0.02522490671531728,0,70,255.0,255.0,255.0
483,24.150000000000002,24.177419740520552,-5.975893815534956,-12.234809776120239,0.800554883651783,-0.11079988919453218,-0.9166237088052144,0.024341139124463534,-0.004073877709900494,-0.025432322595280974,0,70,255.0,255.0,255.0
484,24.200000000000003,24.217478294304378,-5.981439630611451,-12.280672838387025,0.80179493124786,-0.11104727925783427,-0.9179005103319775,0.02526076471862245,-0.005821724822182561,-0.02563973847524467,0,70,255.0,255.0,255.0
485,24.25,24.2576,-5.987,-12.3266,0.8030809601236449,-0.11138206167675042,-0.9191876826527388,0.026180390312778634,-0.007569571934464281,-0.025847154355204793,0,70,255.0,255.0,255.0
486,24.3,24.29778606647625,-5.992577908532419,-12.372591655921687,0.8043475585697546,-0.11172114929324642,-0.9204778111368427,0.024483547531603176,-0.0059939327253756055,-0.025757985008951323,0,70,255.0,255.0,255.0
487,24.35,24.338033341821326,-5.99817080189665,-12.418647706805897,0.8055293148768052,-0.11198145494928799,-0.9217634811536339,0.022786704750427718,-0.00441829351628693,-0.02566881566269785,0,70,255.0,255.0,255.0
488,24.400000000000002,24.378337583928282,-6.003774740994673,-12.464767929729264,0.8066262290447973,-0.11216297864487512,-0.9230446927031125,0.02108986196925226,-0.0028426543071982556,-0.02557964631644438,0,70,255.0,255.0,255.0
489,24.450000000000003,24.41869455069015,-6.009385786728465,-12.51095210176842,0.8076383010737305,-0.11226572038000783,-0.9243214457852784,0.0193930191880768,-0.0012670150981095802,-0.02549047697019091,0,70,255.0,255.0,255.0
490,24.5,24.4591,-6.015,-12.5572,0.8085655309636051,-0.1122896801546861,-0.9255937404001314,0.017696176406902353,0.0003086241109788723,-0.025401307623934777,0,70,255.0,255.0,255.0
491,24.55,24.49955124166266,-6.020614396023315,-12.603511500846832,0.809501033422214,-0.11229211669223961,-0.9268675373189538,0.019723921937454165,-0.0004060856131197101,-0.025550569128955126,0,70,255.0,255.0,255.0
492,24.6,24.540051793130164,-6.026229807260661,-12.649886878116485,0.8105379231573505,-0.11233028871599808,-0.928148797313027,0.021751667468005977,-0.0011207953372182925,-0.025699830633975476,0,70,255.0,255.0,255.0
493,24.650000000000002,24.580606723766337,-6.031848020486351,-12.696326504962723,0.8116762001690146,-0.11240419622596146,-0.9294375203823513,0.02377941299855779,-0.001835505061316875,-0.02584909213899583,0,70,255.0,255.0,255.0
494,24.700000000000003,24.62122110293501,-6.037470822474694,-12.742830754539309,0.8129158644572063,-0.11251383922212976,-0.9307337065269266,0.0258071585291096,-0.0025502147854154574,-0.02599835364401618,0,70,255.0,255.0,255.0
495,24.75,24.6619,-6.0431,-12.7894,0.8142569160219255,-0.11265921770450299,-0.9320373557467528,0.027834904059657717,-0.003264924509514433,-0.026147615149034742,0,70,255.0,255.0,255.0
496,24.8,24.70264656687311,-6.048737307374325,-12.836034340690995,0.8155843077413825,-0.11283838393779554,-0.9333320395873581,0.025260764718619162,-0.0039017248221870117,-0.02563973847517484,0,70,255.0,255.0,255.0
497,24.85,24.743456285658024,-6.054384369060707,-12.882732780728174,0.8167829924937875,-0.11304939018672171,-0.9346013295942703,0.022686625377580608,-0.00453852513485959,-0.025131861801314933,0,70,255.0,255.0,255.0
498,24.900000000000002,24.784322721006372,-6.060042777059925,-12.929494050419862,0.8178529702791405,-0.11329223645128149,-0.9358452257674896,0.020112486036542056,-0.005175325447532169,-0.02462398512745503,0,70,255.0,255.0,255.0
499,24.950000000000003,24.82523943756982,-6.0657141233727625,-12.976316880074366,0.8187942410974417,-0.11356692273147492,-0.9370637281070159,0.017538346695503502,-0.005812125760204748,-0.024116108453595124,0,70,255.0,255.0,255.0
500,25.0,24.8662,-6.0714,-13.0232,0.8196068049486908,-0.11387344902730197,-0.9382568366128491,0.014964207354462467,-0.00644892607287717,-0.023608231779729927,0,70,255.0,255.0,255.0
501,25.05,24.907200090844896,-6.077101174479383,-13.070142336389196,0.8204177356122544,-0.11416234755657642,-0.939436304331598,0.017473019188082476,-0.005107015098100612,-0.023570476970226118,0,70,255.0,255.0,255.0
502,25.1,24.948243864237753,-6.082815116496511,-13.11714359897082,0.8213541068674991,-0.11438415053711204,-0.9406138843098717,0.019981831021702482,-0.003765104123324054,-0.023532722160722306,0,70,255.0,255.0,255.0
503,25.150000000000002,24.989337592208173,-6.0885384712739485,-13.164203693357845,0.8224159187144247,-0.11453885796890884,-0.9417895765476703,0.02249064285532249,-0.002423193148547496,-0.023494967351218497,0,70,255.0,255.0,255.0
504,25.200000000000003,25.030487546785725,-6.094267884034258,-13.211322525163247,0.8236031711530313,-0.1146264698519668,-0.9429633810449937,0.024999454688942498,-0.001081282173770938,-0.02345721254171469,0,70,255.0,255.0,255.0
505,25.25,25.0717,-6.1,-13.2585,0.8249158641833189,-0.11464698618628592,-0.9441352978018416,0.02750826652256233,0.0002606288010061908,-0.02341945773220644,0,70,255.0,255.0,255.0
506,25.3,25.112979469747323,-6.1057323947081406,-13.305736313752222,0.8262487498096106,-0.11465622583589669,-0.9453227430862482,0.025807158529108573,-0.0006302147854368905,-0.024078353644053873,0,70,255.0,255.0,255.0
507,25.35,25.154323457390966,-6.111466364953245,-13.353032823388551,0.8274965800362297,-0.11471000766482961,-0.9465431331662469,0.024106050535654816,-0.0015210583718799717,-0.024737249555901304,0,70,255.0,255.0,255.0
508,25.400000000000002,25.195727710160952,-6.117204137844279,-13.400391176148773,0.8286593548631762,-0.1148083316730847,-0.9477964680418383,0.022404942542201062,-0.002411901958323053,-0.025396145467748737,0,70,255.0,255.0,255.0
509,25.450000000000003,25.237187975287295,-6.122947940490209,-13.447813019272663,0.82973707429045,-0.11495119786066192,-0.9490827477130219,0.020703834548747305,-0.0033027455447661343,-0.02605504137959617,0,70,255.0,255.0,255.0
510,25.5,25.2787,-6.1287,-13.4953,0.8307297383180509,-0.1151386062275613,-0.9504019721797979,0.019002726555291893,-0.004193589131209374,-0.026713937291440892,0,70,255.0,255.0,255.0
511,25.55,25.32026043016582,-6.134462046688054,-13.54285320860192,0.8316912651493189,-0.11534074909984635,-0.9517207233234228,0.019458346695428657,-0.003892125760192373,-0.02603610845355372,0,70,255.0,255.0,255.0
512,25.6,25.361869506198385,-6.140233823690509,-13.59047150747498,0.8326755729875936,-0.11552781880358054,-0.9530055830251534,0.019913966835565424,-0.003590662389175372,-0.02535827961566655,0,70,255.0,255.0,255.0
513,25.650000000000002,25.403528367148034,-6.146014577348937,-13.638153202047075,0.8336826618328754,-0.11569981533876388,-0.9542565512849895,0.020369586975702188,-0.003289199018158371,-0.024680450777779375,0,70,255.0,255.0,255.0
514,25.700000000000003,25.445238152065123,-6.15180355400491,-13.685896597746115,0.834712531685164,-0.11585673870539638,-0.9554736281029312,0.020825207115838955,-0.00298773564714137,-0.024002621939892204,0,70,255.0,255.0,255.0
515,25.75,25.487,-6.1576,-13.7337,0.8357651825444593,-0.11599858890347801,-0.9566568134789787,0.021280827255972135,-0.0026862722761241686,-0.02332479310200153,0,70,255.0,255.0,255.0
516,25.8,25.528814809589388,-6.163403418539644,-13.781562051840094,0.8368261895930841,-0.11614077776472485,-0.9578263636200707,0.02115945468901845,-0.0030012821737490916,-0.02345721254167739,0,70,255.0,255.0,255.0
517,25.85,25.5706825178155,-6.169214340284721,-13.829482746711543,0.8378811280133612,-0.11629871712085293,-0.9590025347331465,0.021038082122064768,-0.003316292071374014,-0.023589631981353245,0,70,255.0,255.0,255.0
518,25.900000000000002,25.61260282124692,-6.175033552759977,-13.877462415662944,0.8389299978052905,-0.11647240697186226,-0.960185326818206,0.020916709555111084,-0.0036313019689989366,-0.023722051421029105,0,70,255.0,255.0,255.0
519,25.950000000000003,25.654575416452225,-6.180861843490156,-13.925501389742898,0.8399727989688723,-0.11666184731775282,-0.9613747398752495,0.0207953369881574,-0.00394631186662386,-0.023854470860704965,0,70,255.0,255.0,255.0
520,26.0,25.6966,-6.1867,-13.9736,0.8410095315041063,-0.11686703815852464,-0.9625707739042764,0.020673964421205504,-0.004261321764249315,-0.023986890300376373,0,70,255.0,255.0,255.0
521,26.05,25.73867633147662,-6.192548279153374,-14.021758584037707,0.8420439764783552,-0.11705613984125046,-0.9637738221962766,0.020703834548748114,-0.0033027455447834117,-0.02413504137963365,0,70,255.0,255.0,255.0
522,26.1,25.78080442253961,-6.198404815170609,-14.069977505678862,0.8430799149589812,-0.11719731271300299,-0.9649842780422399,0.02073370467629072,-0.0023441693253175083,-0.024283192458890927,0,70,255.0,255.0,255.0
523,26.150000000000002,25.82298434786429,-6.204267211611159,-14.118257135301164,0.8441173469459843,-0.11729055677378221,-0.9662021414421658,0.02076357480383333,-0.001385593105851605,-0.024431343538148204,0,70,255.0,255.0,255.0
524,26.200000000000003,25.865216182125984,-6.210133072034472,-14.166597843282311,0.8451562724393644,-0.11733587202358815,-0.9674274123960546,0.02079344493137594,-0.0004270168863857015,-0.02457949461740548,0,70,255.0,255.0,255.0
525,26.25,25.9075,-6.216,-14.215,0.8461966914391217,-0.11733325846242079,-0.9686600909039064,0.020823315058917657,0.0005315593330805779,-0.024727645696665412,0,70,255.0,255.0,255.0
526,26.3,25.949835864504138,-6.221866664846864,-14.263463612009083,0.8472379044934906,-0.11734666287027241,-0.9698783475948212,0.02082520711583733,-0.0010677356471455073,-0.02400262193992634,0,70,255.0,255.0,255.0
527,26.35,25.99222379202606,-6.227735999032844,-14.31198723057302,0.8482792121507055,-0.11744003202713535,-0.9710603530978991,0.020827099172757,-0.0026670306273715925,-0.023277598183187267,0,70,255.0,255.0,255.0
528,26.400000000000002,26.034663787295923,-6.233612000795394,-14.360569043132413,0.8493206144107662,-0.11761336593300958,-0.97220610741314,0.020828991229676675,-0.0042663256075976775,-0.022552574426448195,0,70,255.0,255.0,255.0
529,26.450000000000003,26.077155855043856,-6.239498668371962,-14.40920723712787,0.8503621112736732,-0.11786666458789512,-0.9733156105405438,0.020830883286596345,-0.005865620587823763,-0.02182755066970912,0,70,255.0,255.0,255.0
530,26.5,26.1197,-6.2454,-14.4579,0.8514037027394259,-0.11819992799179194,-0.9743888624801108,0.02083277534351602,-0.007464915568049291,-0.021102526912968322,0,70,255.0,255.0,255.0
531,26.55,26.162296210506835,-6.251318661459174,-14.50664616792596,0.8524444055477177,-0.11853320867765867,-0.975464787424451,0.020795336988158296,-0.005866311866619544,-0.02193447086063768,0,70,255.0,255.0,255.0
532,26.6,26.204944409356145,-6.257251988698015,-14.555447172029071,0.8534832364382418,-0.11878655917845389,-0.9765823095661745,0.020757898632800573,-0.004267708165189798,-0.022766414808307035,0,70,255.0,255.0,255.0
533,26.650000000000002,26.247644502952035,-6.263195985207269,-14.604305092169202,0.8545201954109979,-0.11895997949417765,-0.9777414289052817,0.020720460277442853,-0.0026691044637600506,-0.023598358755976392,0,70,255.0,255.0,255.0
534,26.700000000000003,26.29039639769862,-6.269146654477682,-14.653222008206223,0.855555282465986,-0.1190534696248299,-0.9789421454417724,0.02068302192208513,-0.0010705007623303042,-0.024430302703645747,0,70,255.0,255.0,255.0
535,26.75,26.3332,-6.2751,-14.7022,0.8565884976032062,-0.1190670295704107,-0.9801844591756461,0.020645583566726522,0.0005281029390998837,-0.02526224665131238,0,70,255.0,255.0,255.0
536,26.8,26.37605529346852,-6.281053089316441,-14.751240516287083,0.8576244733156554,-0.11906450241909283,-0.981430502707365,0.020793444931238806,-0.00042701688638539207,-0.02457949461744099,0,70,255.0,255.0,255.0
537,26.85,26.418962570549372,-6.287007246175097,-14.800342481310707,0.8586678420963301,-0.11910973125904924,-0.9826424086373903,0.020941306295751087,-0.0013821367118706678,-0.0238967425835696,0,70,255.0,255.0,255.0
538,26.900000000000002,26.46192220089596,-6.292964858375534,-14.849504188190794,0.8597186039452305,-0.11920271609027991,-0.983820176965722,0.02108916766026337,-0.0023372565373559434,-0.023213990549698207,0,70,255.0,255.0,255.0
539,26.950000000000003,26.504934554161697,-6.2989283137173135,-14.898723930047254,0.8607767588623565,-0.11934345691278483,-0.98496380769236,0.02123702902477565,-0.0032923763628412194,-0.022531238515826817,0,70,255.0,255.0,255.0
540,27.0,26.548,-6.3049,-14.948,0.861842306847708,-0.119531953726564,-0.9860733008173046,0.021384890389287925,-0.004247496188326316,-0.021848486481957252,0,70,255.0,255.0,255.0
541,27.05,26.591118615619077,-6.3108817812750635,-14.997330966925713,0.8628977011896086,-0.11973678164596786,-0.9871652017460962,0.02083088328673294,-0.003945620587828098,-0.021827550669709695,0,70,255.0,255.0,255.0
542,27.1,26.634289308446373,-6.316873426601597,-15.046716502728103,0.8639253951763813,-0.11992651578534681,-0.9882560558842757,0.020276876184177957,-0.00364374498732988,-0.021806614857462134,0,70,255.0,255.0,255.0
543,27.150000000000002,26.677510693464132,-6.322874181290598,-15.096156555067633,0.8649253888080264,-0.12010115614470085,-0.9893458632318425,0.019722869081622973,-0.003341869386831662,-0.021785679045214577,0,70,255.0,255.0,255.0
544,27.200000000000003,26.720781385654593,-6.328883290653066,-15.145651071604778,0.8658976820845437,-0.12026070272402999,-0.9904346237887971,0.01916886197906799,-0.003039993786333444,-0.02176474323296702,0,70,255.0,255.0,255.0
545,27.25,26.7641,-6.3349,-15.1952,0.8668422750059332,-0.1204051555233342,-0.9915223375551392,0.01861485487651038,-0.0027381181858341375,-0.02174380742071591,0,70,255.0,255.0,255.0
546,27.3,26.807465444055165,-6.340923785583306,-15.244803616010067,0.8677767219258999,-0.12054837099703818,-0.9926286903082474,0.018763021922155333,-0.002990500762325347,-0.022510302703612706,0,70,255.0,255.0,255.0
547,27.35,26.850877795665127,-6.346955047418518,-15.294463507776893,0.8687185771981488,-0.12070420559956674,-0.9937733678255005,0.01891118896780029,-0.003242883338816556,-0.0232767979865095,0,70,255.0,255.0,255.0
548,27.400000000000002,26.894337425247517,-6.352994416462076,-15.344181591538689,0.86966784082268,-0.12087265933091984,-0.9949563701068984,0.019059356013445244,-0.0034952659153077653,-0.024043293269406296,0,70,255.0,255.0,255.0
549,27.450000000000003,26.937844703219938,-6.359042523670424,-15.393959783533656,0.8706245127994934,-0.12105373219109751,-0.9961776971524411,0.019207523059090202,-0.003747648491798975,-0.02480978855230309,0,70,255.0,255.0,255.0
550,27.5,26.9814,-6.3651,-15.4438,0.8715885931285889,-0.12124742418009973,-0.9974373489621288,0.019355690104729817,-0.004000031068289944,-0.025576283835202496,0,70,255.0,255.0,255.0
551,27.55,27.02500360816028,-6.371167076391713,-15.493703369034018,0.8725554111068232,-0.12142973436587802,-0.9986880370209053,0.019317029024642097,-0.0032923763628411773,-0.024451238515858426,0,70,255.0,255.0,255.0
552,27.6,27.06865550889312,-6.377242383724333,-15.543667866164327,0.8735202960310532,-0.12157666181638385,-0.9998824728137146,0.019278367944554373,-0.0025847216573924104,-0.023326193196514355,0,70,255.0,255.0,255.0
553,27.650000000000002,27.11235560554582,-6.383324152861097,-15.593690678777623,0.8744832479012786,-0.12168820653161726,-1.0010206563405568,0.019239706864466653,-0.001877066951943643,-0.02220114787717029,0,70,255.0,255.0,255.0
554,27.700000000000003,27.15610380146568,-6.389410614665241,-15.643768994260615,0.8754442667174999,-0.12176436851157822,-1.0021025876014318,0.019201045784378933,-0.001169412246494876,-0.02107610255782622,0,70,255.0,255.0,255.0
555,27.75,27.1999,-6.3955,-15.6939,0.8764033524797166,-0.12180514775626675,-1.0031282665963395,0.019162384704289437,-0.0004617575410466035,-0.019951057238483116,0,70,255.0,255.0,255.0
556,27.8,27.24374412330373,-6.401591108849843,-15.744081307853863,0.8773616336468005,-0.12184469153945135,-1.0041231616081259,0.019168861979067843,-0.0011199937863377234,-0.019844743232969364,0,70,255.0,255.0,255.0
557,27.85,27.28763616876241,-6.407685017684149,-15.79431222756581,0.8783202386776234,-0.12191714713490052,-1.0051127409196363,0.019175339253846246,-0.0017782300316288434,-0.019738429227455608,0,70,255.0,255.0,255.0
558,27.900000000000002,27.331576152569223,-6.413783372093537,-15.844592493350824,0.8792791675721852,-0.12202251454261424,-1.0060970045308713,0.019181816528624652,-0.0024364662769199635,-0.019632115221941856,0,70,255.0,255.0,255.0
559,27.950000000000003,27.375564090917358,-6.419887817668616,-15.894921839423892,0.8802384203304859,-0.12216079376259252,-1.0070759524418307,0.019188293803403058,-0.0030947025222110834,-0.0195258012164281,0,70,255.0,255.0,255.0
560,28.0,27.4196,-6.426,-15.9453,0.8811979969525254,-0.12233198479483536,-1.0080495846525144,0.019194771078179684,-0.0037529387675020454,-0.019419487210912578,0,70,255.0,255.0,255.0
561,28.05,27.4636838986248,-6.43212128820892,-15.995727399550532,0.8821580543059588,-0.12251949947631745,-1.009059316546595,0.019207523059155917,-0.0037476484917816186,-0.020969788552311665,0,70,255.0,255.0,255.0
562,28.1,27.507815816057246,-6.438251945539069,-16.046207223572445,0.8831187492584411,-0.12270674964401353,-1.0101465635077456,0.019220275040132153,-0.0037423582160611923,-0.022520089893710748,0,70,255.0,255.0,255.0
563,28.150000000000002,27.551995784177297,-6.444391958764758,-16.096743347819093,0.8840800818099721,-0.12289373529792356,-1.011311325535966,0.019233027021108386,-0.0037370679403407655,-0.024070391235109834,0,70,255.0,255.0,255.0
564,28.200000000000003,27.596223834864894,-6.450541314660298,-16.147339648043825,0.8850420519605519,-0.12308045643804762,-1.0125536026312567,0.019245779002084618,-0.003731777664620339,-0.025620692576508917,0,70,255.0,255.0,255.0
