idx,t,px,py,pz,vx,vy,vz,ax,ay,az,yaw,mode,ledr,ledg,ledb
0,0.0,10.5,7.5,0.0,-0.00041626235455724525,0.000774962073232321,0.0024431338691921246,0.02419514825469904,-0.013299544878814056,-0.07331760643030551,0,70,255.0,255.0,255.0
1,0.05,10.500009814555238,7.5000222986346365,3.0352819290916458e-05,0.0008165193169041602,0.0001204825536857478,-0.0012321584201716233,0.025116118603757176,-0.012879635903048867,-0.0736940851442444,0,70,255.0,255.0,255.0
2,0.1,10.500082419406981,7.500012398179515,-0.0001235295742787781,0.0020953495058184724,-0.0005130015170725659,-0.004926274645232316,0.026037088952815313,-0.012459726927283678,-0.0740705638581833,0,70,255.0,255.0,255.0
3,0.15000000000000002,10.50022011698111,7.499971348407076,-0.000462588377493931,0.0034202282121856917,-0.0011254901390426201,-0.008639214805989955,0.02695805930187345,-0.012039817951518487,-0.0744470425721222,0,70,255.0,255.0,255.0
4,0.2,10.50042520970349,7.499900199089757,-0.0009877647871393892,0.0047911554360058175,-0.0017169833122244148,-0.012370978902444537,0.027879029650931586,-0.011619908975753298,-0.0748235212860611,0,70,255.0,255.0,255.0
5,0.25,10.5007,7.4998,-0.0017,0.00620813117727885,-0.0022874810366179496,-0.01612156693459606,0.028799999999989723,-0.011199999999988105,-0.0751999999999999,0,70,255.0,255.0,255.0
6,0.30000000000000004,10.50104679029651,7.499671800910241,-0.0026002352128606117,0.007671155436004791,-0.0028369833122232255,-0.019890978902444532,0.02972097034904786,-0.010780091024222917,-0.07557647871393885,0,70,255.0,255.0,255.0
7,0.35000000000000003,10.501467883018892,7.499516651592924,-0.0036894116225060693,0.009180228212183637,-0.0033654901390402416,-0.02367921480598995,0.030641940698105996,-0.01036018204845773,-0.07595295742787782,0,70,255.0,255.0,255.0
8,0.4,10.501965580593017,7.499335601820484,-0.004968470425721222,0.01073534950581539,-0.003873001517068998,-0.027486274645232314,0.03156291104716413,-0.009940273072692542,-0.07632943614181677,0,70,255.0,255.0,255.0
9,0.45,10.502542185444765,7.499129701365364,-0.006438352819290916,0.012336519316900049,-0.004359517446309496,-0.031312158420171626,0.03248388139622227,-0.009520364096927355,-0.07670591485575573,0,70,255.0,255.0,255.0
10,0.5,10.5032,7.4989,-0.0081,0.013983737645437616,-0.004825037926761733,-0.03515686613080788,0.033404851745280406,-0.009100455121162178,-0.07708239356969487,0,70,255.0,255.0,255.0
11,0.55,10.503940624258727,7.4986472977243945,-0.009954211967848476,0.01563485893907,-0.00528454930479103,-0.039011925970050265,0.03264000000001488,-0.009280000000009643,-0.07712000000000016,0,70,255.0,255.0,255.0
12,0.6000000000000001,10.504762848517451,7.498371395448788,-0.01200122393569695,0.017247737645439104,-0.005753037926762698,-0.042868866130807905,0.03187514825474935,-0.009459544878857109,-0.07715760643030543,0,70,255.0,255.0,255.0
13,0.65,10.505664760646814,7.498071844310985,-0.014241129919621186,0.01882237376454493,-0.00623050379267674,-0.0467276866130808,0.031110296509483826,-0.009639089757704573,-0.07719521286061072,0,70,255.0,255.0,255.0
14,0.7000000000000001,10.506644448517452,7.497748195448788,-0.01667402393569695,0.02035876729638749,-0.0067169469025331555,-0.050588387416868975,0.0303454447642183,-0.009818634636552038,-0.077232819290916,0,70,255.0,255.0,255.0
15,0.75,10.5077,7.4974,-0.0193,0.021856918240966767,-0.007212367256331944,-0.0544509685421724,0.029580593018952855,-0.00999817951539951,-0.0772704257212215,0,70,255.0,255.0,255.0
16,0.8,10.508829912668585,7.49702700819218,-0.0221189169157455,0.023341408807713765,-0.007704819468610877,-0.058301317217354466,0.02979902965092713,-0.009699908975757768,-0.07674352128606102,0,70,255.0,255.0,255.0
17,0.8500000000000001,10.510034322911299,7.496629766611922,-0.025129692634706154,0.024836821206059484,-0.008182358153907722,-0.06212532067077851,0.0300174662829014,-0.009401638436116024,-0.07621661685090055,0,70,255.0,255.0,255.0
18,0.9,10.51131377681972,7.496209020935573,-0.02833100989579405,0.026343155436003907,-0.008644983312222479,-0.06592297890244452,0.030235902914875674,-0.009103367896474281,-0.07568971241574006,0,70,255.0,255.0,255.0
19,0.9500000000000001,10.512668820485425,7.495765516839482,-0.031721551437921304,0.02786041149754705,-0.00909269494355515,-0.06969429191235252,0.030454339546849944,-0.008805097356832539,-0.07516280798057959,0,70,255.0,255.0,255.0
20,1.0,10.5141,7.4953,-0.0353,0.0293885893906889,-0.009525493047905733,-0.07343925970050247,0.030672776178824274,-0.008506826817190796,-0.07463590354541938,0,70,255.0,255.0,255.0
21,1.05,10.51560772506693,7.494812669506884,-0.039065320369169536,0.03091950583006518,-0.009976172820758687,-0.07717480516053185,0.03056388139622675,-0.009520364096927357,-0.07478591485575596,0,70,255.0,255.0,255.0
22,1.1,10.517191859837354,7.4943015381035245,-0.04301760552547847,0.03244497753031158,-0.010477529457598469,-0.08091785118607807,0.030454986613629227,-0.010533901376663917,-0.07493592616609254,0,70,255.0,255.0,255.0
23,1.1500000000000001,10.51885213207431,7.493764071946725,-0.047157230497202635,0.03396500449142811,-0.011029562958425079,-0.08466839777714112,0.0303460918310317,-0.011547438656400478,-0.07508593747642914,0,70,255.0,255.0,255.0
24,1.2000000000000002,10.520588269540843,7.493197737193283,-0.05148457031261787,0.03547958671341475,-0.011632273323238518,-0.08842644493372098,0.030237197048434177,-0.012560975936137038,-0.07523594878676572,0,70,255.0,255.0,255.0
25,1.25,10.5224,7.4926,-0.056,0.03698872419627152,-0.012285660552038781,-0.09219199265581766,0.030128302265836793,-0.013574513215873593,-0.07538596009710219,0,70,255.0,255.0,255.0
26,1.3,10.524287187063686,7.491969513780287,-0.06070380160757636,0.03850056787202375,-0.012918489248349737,-0.09595946214051812,0.030345444764252483,-0.011738634636564622,-0.07531281929091607,0,70,255.0,255.0,255.0
27,1.35,10.526250237739283,7.491309680973981,-0.06559588526337999,0.040023268672696774,-0.013459524015695244,-0.09972327458490927,0.030562587262668174,-0.00990275605725565,-0.07523967848472994,0,70,255.0,255.0,255.0
28,1.4000000000000001,10.52828969488304,7.490625091277534,-0.07067606811539548,0.041556826598290575,-0.013908764854075302,-0.10348342998899113,0.030779729761083865,-0.00806687747794668,-0.07516653767854382,0,70,255.0,255.0,255.0
29,1.4500000000000002,10.530406101351195,7.4899203343873895,-0.0759441673116073,0.04310124164880516,-0.014266211763489915,-0.10723992835276366,0.030996872259499552,-0.006230998898637709,-0.07509339687235769,0,70,255.0,255.0,255.0
30,1.5,10.5326,7.4892,-0.0814,0.04465651382424053,-0.014531864743939072,-0.11099276967622689,0.031214014757915298,-0.0043951203193288435,-0.07502025606617135,0,70,255.0,255.0,255.0
31,1.55,10.534871526678323,7.488466875371971,-0.08704347320052506,0.04619822268185881,-0.01481387018584322,-0.11474734627739566,0.030454339546815822,-0.006885097356837063,-0.07516280798057953,0,70,255.0,255.0,255.0
32,1.6,10.537219189205508,7.4877165380005515,-0.09287485342100159,0.047701947778922116,-0.015220374479622779,-0.11850905047428484,0.029694664335716346,-0.009375074394345283,-0.0753053598949877,0,70,255.0,255.0,255.0
33,1.6500000000000001,10.539641088393537,7.486942762943144,-0.09889449704121557,0.04916768911543045,-0.01575137762527775,-0.12227788226689444,0.02893498912461687,-0.011865051431853502,-0.07544791180939588,0,70,255.0,255.0,255.0
34,1.7000000000000002,10.542135325054378,7.486139325257159,-0.10510276044095304,0.05059544669138381,-0.01640687962280813,-0.12605384165522446,0.028175313913517394,-0.014355028469361722,-0.07559046372380404,0,70,255.0,255.0,255.0
35,1.75,10.5447,7.4853,-0.1115,0.05198522050678218,-0.017186880472213922,-0.12983692863927482,0.027415638702417755,-0.01684500550686996,-0.07573301563821122,0,70,255.0,255.0,255.0
36,1.8,10.547333906223027,7.484420584731827,-0.11808630559032342,0.05337854140055274,-0.01797003000828856,-0.13361115274989924,0.028317197048404574,-0.014480975936115479,-0.07523594878676558,0,70,255.0,255.0,255.0
37,1.85,10.550038605438678,7.483504967023813,-0.12486070105261372,0.05481694021162264,-0.018634978065825474,-0.1373605235179514,0.029218755394391394,-0.012116946365360998,-0.07473888193531994,0,70,255.0,255.0,255.0
38,1.9000000000000001,10.552816351542813,7.482559056949887,-0.13182194371974235,0.05630041693999188,-0.01918172464482466,-0.14108504094343124,0.030120313740378216,-0.00975291679460652,-0.07424181508387431,0,70,255.0,255.0,255.0
39,1.9500000000000002,10.555669398431299,7.481588764583973,-0.13896879092458067,0.05782897158566046,-0.019610269745286124,-0.14478470502633883,0.031021872086365036,-0.00738888722385204,-0.07374474823242867,0,70,255.0,255.0,255.0
40,2.0,10.5586,7.4806,-0.1463,0.059402604148628385,-0.019920613367209863,-0.1484595157666741,0.03192343043235213,-0.00502485765309757,-0.07324768138098348,0,70,255.0,255.0,255.0
41,2.0500000000000003,10.561609648429569,7.4795971857007215,-0.15381450443818143,0.06097561171592555,-0.020202009781003248,-0.15212004272300766,0.03099687225953382,-0.006230998898637747,-0.07317339687235754,0,70,255.0,255.0,255.0
42,2.1,10.564696789039784,7.4785787939041946,-0.1615119423685436,0.06250229137458177,-0.02054371325707364,-0.15577685545390985,0.03007031408671552,-0.0074371401441779145,-0.0730991123637316,0,70,255.0,255.0,255.0
43,2.15,10.567859105435213,7.477541809257309,-0.16939212807981513,0.06398264312459707,-0.020945723795421037,-0.15942995395938078,0.02914375591389722,-0.00864328138971808,-0.07302482785510564,0,70,255.0,255.0,255.0
44,2.2,10.571094281220432,7.476483216406948,-0.1774548758607245,0.0654166669659715,-0.021408041396045446,-0.16307933823942042,0.028217197741078913,-0.00984942263525826,-0.0729505433464797,0,70,255.0,255.0,255.0
45,2.25,10.5744,7.4754,-0.1857,0.06680436289870499,-0.021930666058946866,-0.16672500829402878,0.027290639568260944,-0.011055563880798508,-0.07287625883785398,0,70,255.0,255.0,255.0
46,2.3000000000000003,10.577774700058706,7.47428987246529,-0.19412767665695127,0.06819101173574946,-0.022469930867701098,-0.17038867635807023,0.028175313913517314,-0.010515028469370705,-0.07367046372380313,0,70,255.0,255.0,255.0
47,2.35,10.581219838402198,7.473153457359406,-0.202739529473212,0.06962189429005672,-0.022982168905883935,-0.1740920546664091,0.029059988258773675,-0.009974493057942907,-0.07446466860975227,0,70,255.0,255.0,255.0
48,2.4000000000000004,10.584737626716333,7.471992106020877,-0.21153754396099714,0.07109701056162683,-0.02346738017349539,-0.17783514321904548,0.02994466260403004,-0.009433957646515103,-0.07525887349570143,0,70,255.0,255.0,255.0
49,2.45,10.58833027668698,7.470807169788232,-0.22052370563252152,0.07261636055045972,-0.02392556467053545,-0.18161794201597925,0.030829336949286405,-0.008893422235087304,-0.07605307838165057,0,70,255.0,255.0,255.0
50,2.5,10.592,7.4696,-0.2297,0.07417994425655547,-0.02435672239700412,-0.1854404510572105,0.031714011294542876,-0.008352886823659478,-0.0768472832676006,0,70,255.0,255.0,255.0
51,2.5500000000000003,10.595748351335608,7.468371324438119,-0.23906758893401375,0.07574834134107732,-0.0247982667481918,-0.18925325184471126,0.03102187208633098,-0.009308887223847534,-0.07566474823242975,0,70,255.0,255.0,255.0
52,2.6,10.599574257351433,7.4671193766581805,-0.2486243397386085,0.07728213146518856,-0.025287611119388875,-0.19300692588045348,0.030329732878119086,-0.01026488762403558,-0.0744822131972589,0,70,255.0,255.0,255.0
53,2.6500000000000004,10.603475987699456,7.465841766659181,-0.25836729607619646,0.07878131462888924,-0.02582475551059536,-0.19670147316443717,0.029637593669907186,-0.011220888024223637,-0.07329967816208803,0,70,255.0,255.0,255.0
54,2.7,10.60745181203165,7.46453610444012,-0.2682935016091896,0.0802458908321793,-0.02640969992181124,-0.20033689369666227,0.028945454461695296,-0.012176888424411683,-0.0721171431269172,0,70,255.0,255.0,255.0
55,2.75,10.6115,7.4632,-0.2784,0.08167586007505874,-0.027042444353036522,-0.20391318747712883,0.028253315253483513,-0.013132888824599787,-0.07093460809174523,0,70,255.0,255.0,255.0
56,2.8000000000000003,10.615619094598856,7.461832029782229,-0.2886843676069939,0.08308762289992366,-0.027665002139532865,-0.20746231626308448,0.02821719774111331,-0.01176942263525385,-0.07103054334648018,0,70,255.0,255.0,255.0
57,2.85,10.619808732192066,7.460434636007871,-0.29914631157235405,0.08449757984917007,-0.028219386616561908,-0.21101624181177686,0.028181080228743105,-0.010405956445907924,-0.07112647860121513,0,70,255.0,255.0,255.0
58,2.9000000000000004,10.624068822485846,7.459011227342398,-0.3097860717342173,0.08590573092279798,-0.028705597784123658,-0.214574964123206,0.0281449627163729,-0.009042490256561987,-0.07122241385595007,0,70,255.0,255.0,255.0
59,2.95,10.628399275186418,7.457565212451283,-0.3206038879307203,0.08731207612080737,-0.029123635642218107,-0.21813848319737186,0.028108845204002697,-0.007679024067216062,-0.07131834911068502,0,70,255.0,255.0,255.0
60,3.0,10.6328,7.4561,-0.3316,0.08871661544319823,-0.029473500190845266,-0.2217067990342745,0.028072727691632382,-0.006315557877870109,-0.07141428436542063,0,70,255.0,255.0,255.0
61,3.0500000000000003,10.637271270268965,7.454618156432962,-0.3427749406380107,0.09014116705922218,-0.029805724693669315,-0.22529748310295128,0.0289093369493251,-0.006973422235091751,-0.0722130783816501,0,70,255.0,255.0,255.0
62,3.1,10.641814813880302,7.453118879310336,-0.35413041397197537,0.09160754913813074,-0.030170842414354443,-0.2289281068724395,0.029745946207017804,-0.007631286592313387,-0.07301187239787957,0,70,255.0,255.0,255.0
63,3.1500000000000004,10.64643272235716,7.451600523971229,-0.36566841698693486,0.09311576167992396,-0.030568853352900653,-0.23259867034273926,0.03058255546471052,-0.008289150949535029,-0.07381066641410904,0,70,255.0,255.0,255.0
64,3.2,10.651127087222676,7.450061445754748,-0.3773909466679295,0.09466580468460178,-0.030999757509307946,-0.23630917351385045,0.03141916472240323,-0.008947015306756664,-0.07460946043033849,0,70,255.0,255.0,255.0
65,3.25,10.6559,7.4485,-0.3893,0.09625767815216427,-0.031463554883576314,-0.24005961638577308,0.032255773980095936,-0.009604879663978272,-0.0754082544465684,0,70,255.0,255.0,255.0
66,3.3000000000000003,10.660752624325285,7.446914544485924,-0.4013966698409637,0.09783570886320724,-0.031960099085786606,-0.24379575132511025,0.030865454461622602,-0.010256888424433244,-0.07403714312691698,0,70,255.0,255.0,255.0
67,3.35,10.66568241228672,7.445303446750787,-0.4136784325397447,0.09934422359832652,-0.032489243726019634,-0.2474633306984648,0.02947513494314928,-0.010908897184888213,-0.07266603180726557,0,70,255.0,255.0,255.0
68,3.4000000000000004,10.670685888085519,7.443665076772689,-0.42614186031804385,0.10078322235752217,-0.03305098880427543,-0.2510623545058368,0.028084815424675946,-0.011560905945343185,-0.07129492048761413,0,70,255.0,255.0,255.0
69,3.45,10.675759575922877,7.441997804529727,-0.43878352539756194,0.10215270514079414,-0.033645334320553964,-0.2545928227472262,0.026694495906202625,-0.012212914705798153,-0.06992380916796272,0,70,255.0,255.0,255.0
70,3.5,10.6809,7.4403,-0.4516,0.10345267194814244,-0.03427228027485524,-0.258054735422633,0.025304176387729638,-0.01286492346625312,-0.06855269784831197,0,70,255.0,255.0,255.0
71,3.5500000000000003,10.686104632429899,7.4385708656233405,-0.4645887799981348,0.10473999748793586,-0.034881878963191316,-0.26150351159660795,0.026188845204007133,-0.011519024067190069,-0.06939834911068594,0,70,255.0,255.0,255.0
72,3.6,10.691374736972806,7.436812933686514,-0.47775105586904615,0.10607155646854316,-0.03542418268157425,-0.2649945703337016,0.027073514020284618,-0.010173124668127028,-0.07024400037305992,0,70,255.0,255.0,255.0
73,3.6500000000000004,10.696712525300766,7.435029568938015,-0.4910889417408903,0.10744734888996432,-0.03589919143000403,-0.268527911633914,0.027958182836562113,-0.008827225269063977,-0.07108965163543389,0,70,255.0,255.0,255.0
74,3.7,10.702120209085816,7.433224136126345,-0.5046045517418228,0.10886737475219936,-0.03630690520848064,-0.272103535497245,0.028842851652839598,-0.007481325870000938,-0.07193530289780785,0,70,255.0,255.0,255.0
75,3.75,10.7076,7.4314,-0.5183,0.11033163405524826,-0.036647324017004115,-0.27572144192369474,0.029727520469116975,-0.00613542647093801,-0.07278095416018271,0,70,255.0,255.0,255.0
76,3.8000000000000003,10.71315364595512,7.429559593020713,-0.5321770101664975,0.1118123011850381,-0.0369763850614466,-0.2793582022884578,0.029499164722475865,-0.0070270153067611574,-0.07268946043033911,0,70,255.0,255.0,255.0
77,3.85,10.718781039822048,7.427701618503159,-0.5462357439840709,0.11328155052749586,-0.037350025547680236,-0.28299038796672865,0.02927080897583476,-0.007918604142584298,-0.0725979667004955,0,70,255.0,255.0,255.0
78,3.9000000000000004,10.724481610711413,7.4258238474752485,-0.5604759727183956,0.11473938208262156,-0.03776824547570503,-0.28661799895850737,0.029042453229193653,-0.008810192978407445,-0.0725064729706519,0,70,255.0,255.0,255.0
79,3.95,10.730254787733854,7.423924050964892,-0.5748974676351468,0.11618579585041522,-0.03823104484552097,-0.29024103526379386,0.028814097482552547,-0.009701781814230585,-0.07241497924080828,0,70,255.0,255.0,255.0
80,4.0,10.7361,7.422,-0.5895,0.11762079183087683,-0.03873842365712808,-0.29385949688258817,0.028585741735911774,-0.010593370650053946,-0.07232348551096646,0,70,255.0,255.0,255.0
81,4.05,10.742016783749618,7.420049962293807,-0.6042831793358752,0.11905079777192873,-0.0392605807910245,-0.2974636792495614,0.028614495906164338,-0.010292914705802693,-0.07184380916796318,0,70,255.0,255.0,255.0
82,4.1000000000000005,10.748005103739002,7.418074192300851,-0.6192459681946705,0.12048224142149327,-0.03976771512770835,-0.3010438777993845,0.028643250076416903,-0.009992458761551434,-0.0713641328249599,0,70,255.0,255.0,255.0
83,4.15,10.754065031853578,7.416073441160989,-0.634387167385528,0.12191512277957042,-0.04025982666717964,-0.30460009253205744,0.02867200424666947,-0.00969200281730018,-0.07088445648195663,0,70,255.0,255.0,255.0
84,4.2,10.760196639978767,7.414048460014087,-0.6497055777175903,0.12334944184616022,-0.04073691540943838,-0.3081323234475801,0.028700758416922035,-0.009391546873048927,-0.07040478013895335,0,70,255.0,255.0,255.0
85,4.25,10.7664,7.412,-0.6652,0.12478519862126264,-0.041198981354484535,-0.31164057054595273,0.028729512587175154,-0.009091090928797674,-0.06992510379595185,0,70,255.0,255.0,255.0
86,4.3,10.772675219046407,7.409928557804056,-0.6808694724900016,0.12622450772726215,-0.041661291774454386,-0.31513908071329666,0.02884285165280547,-0.009401325869996468,-0.07001530289780664,0,70,255.0,255.0,255.0
87,4.3500000000000005,10.779022545221949,7.4078336122934365,-0.6967139832372481,0.1276694837865432,-0.04213911394148419,-0.3186421008357334,0.028956190718435783,-0.009711560811195266,-0.07010550199966144,0,70,255.0,255.0,255.0
88,4.4,10.785442261874284,7.405714387880789,-0.7127337577394933,0.12912012679910576,-0.042632447855573914,-0.3221496309132629,0.029069529784066097,-0.01002179575239406,-0.07019570110151623,0,70,255.0,255.0,255.0
89,4.45,10.79193465235108,7.403570108978761,-0.7289290214944925,0.1305764367649498,-0.04314129351672359,-0.32566167094588505,0.029182868849696408,-0.010332030693592854,-0.07028590020337103,0,70,255.0,255.0,255.0
90,4.5,10.7985,7.4014,-0.7453,0.13203841368407537,-0.04366565092493321,-0.3291782209336,0.02929620791532761,-0.010642265634791592,-0.07037609930522626,0,70,255.0,255.0,255.0
91,4.55,10.805138340064753,7.399203806489968,-0.7618469307041179,0.13349117131902238,-0.04417425211115876,-0.3326999978972509,0.028814097482552994,-0.009701781814230618,-0.0704949792408109,0,70,255.0,255.0,255.0
92,4.6000000000000005,10.811848715373209,7.396983358525401,-0.7785700988563382,0.1349198234323307,-0.04463582910635627,-0.3362277188576811,0.02833198704977837,-0.008761297993669627,-0.07061385917639554,0,70,255.0,255.0,255.0
93,4.65,10.81862992064929,7.394741007315849,-0.7954698016564992,0.13632437002400025,-0.04505038191052573,-0.3397613838148905,0.027849876617003753,-0.007820814173108651,-0.07073273911198016,0,70,255.0,255.0,255.0
94,4.7,10.825480750616915,7.3924791040708655,-0.8125463363044401,0.13770481109403104,-0.045417910523667136,-0.3433009927688791,0.027367766184229134,-0.006880330352547677,-0.0708516190475648,0,70,255.0,255.0,255.0
95,4.75,10.8324,7.3902,-0.8298,0.13906114664242317,-0.0457384149457805,-0.34684654571964696,0.026885655751455184,-0.005939846531986648,-0.07097049898314767,0,70,255.0,255.0,255.0
96,4.800000000000001,10.839386620694587,7.387905016236071,-0.8472308046935264,0.1404028069966336,-0.0460736997809065,-0.3503809276976995,0.026780758416960856,-0.00747154687305338,-0.07040478013895325,0,70,255.0,255.0,255.0
97,4.8500000000000005,10.846440193285218,7.385591353604959,-0.8648376213373999,0.14173922248411927,-0.04648556963308584,-0.3538870237335423,0.026675861082466532,-0.009003247214120085,-0.06983906129475885,0,70,255.0,255.0,255.0
98,4.9,10.853560455528553,7.383255182855811,-0.8826190356345104,0.14307039310488023,-0.046974024502318516,-0.35736483382717543,0.026570963747972208,-0.010534947555186792,-0.06927334245056445,0,70,255.0,255.0,255.0
99,4.95,10.86074714518126,7.380892674737776,-0.9005736332877472,0.14439631885891646,-0.047539064388604516,-0.36081435797859873,0.026466066413477884,-0.012066647896253495,-0.06870762360637003,0,70,255.0,255.0,255.0
100,5.0,10.868,7.3785,-0.9187,0.145716999746228,-0.04818068929194386,-0.36423559618781237,0.026361169078984004,-0.01359834823732009,-0.06814190476217652,0,70,255.0,255.0,255.0
101,5.050000000000001,10.875319177156898,7.3760745285657485,-0.9369970505217774,0.14705760069444518,-0.04882694876521658,-0.36764829131195115,0.027262868849701295,-0.012252030693588337,-0.0683659002033724,0,70,255.0,255.0,255.0
102,5.1000000000000005,10.882706511485921,7.373618427054765,-0.955465015794063,0.14844328663119816,-0.049405892361302696,-0.37107218620814963,0.02816456862041857,-0.010905713149856607,-0.06858989564456826,0,70,255.0,255.0,255.0
103,5.15,10.890164257236494,7.3711350612609055,-0.9741044558054599,0.149874057556487,-0.049917520080202234,-0.37450728087640794,0.02906626839113585,-0.009559395606124878,-0.06881389108576412,0,70,255.0,255.0,255.0
104,5.2,10.897694668658044,7.36862779697803,-0.9929159305445712,0.15134991347031174,-0.050361831921915186,-0.377953575316726,0.029967968161853122,-0.008213078062393148,-0.06903788652696,0,70,255.0,255.0,255.0
105,5.25,10.9053,7.3661,-1.0119,0.15287085437267228,-0.05073882788644154,-0.381411069529104,0.030869667932569733,-0.006866760518661252,-0.0692618819681563,0,70,255.0,255.0,255.0
106,5.300000000000001,10.912981470677822,7.363554469500933,-1.0310569932193654,0.15437479022559134,-0.05108250515822177,-0.38486590705449697,0.02928776618419071,-0.006880330352547682,-0.0689316190475619,0,70,255.0,255.0,255.0
107,5.3500000000000005,10.920736160771103,7.360991738175984,-1.0503863154863493,0.15579963099109137,-0.05142686092169631,-0.3883042314338602,0.027705864435811717,-0.00689390018643411,-0.06860135612696751,0,70,255.0,255.0,255.0
108,5.4,10.928560115525475,7.358411772100569,-1.0698871411436508,0.15714537666917247,-0.05177189517686518,-0.3917260426671937,0.026123962687432722,-0.006907470020320538,-0.06827109320637312,0,70,255.0,255.0,255.0
109,5.45,10.936449380186561,7.355814537350102,-1.089558644533968,0.1584120272598346,-0.05211760792372836,-0.3951313407544975,0.024542060939053728,-0.006921039854206968,-0.06794083028577873,0,70,255.0,255.0,255.0
110,5.5,10.9444,7.3532,-1.1094,0.15959958276307784,-0.05246399916228587,-0.3985201256957715,0.022960159190675622,-0.006934609688093285,-0.067610567365183,0,70,255.0,255.0,255.0
111,5.550000000000001,10.952409340131819,7.350567593430522,-1.1294109766007623,0.16078723840318182,-0.05284303060189477,-0.4019280804700604,0.024546066413483048,-0.008226647896262403,-0.06870762360637218,0,70,255.0,255.0,255.0
112,5.6000000000000005,10.960480045429671,7.347914620241304,-1.1495937222605406,0.16205418940442617,-0.05328666395191211,-0.40539088805640877,0.026131973636290447,-0.009518686104431498,-0.06980467984756135,0,70,255.0,255.0,255.0
113,5.65,10.968616080661613,7.345237850336825,-1.1699509796199377,0.16340043576681085,-0.05379489921233792,-0.40890854845481656,0.027717880859097842,-0.010810724312600592,-0.07090173608875051,0,70,255.0,255.0,255.0
114,5.7,10.976821410595704,7.342534053621564,-1.1904854913195564,0.16482597749033595,-0.05436773638317217,-0.41248106166528375,0.02930378808190524,-0.012102762520769687,-0.07199879232993966,0,70,255.0,255.0,255.0
115,5.75,10.9851,7.3398,-1.2112,0.16633081457500137,-0.05500517546441487,-0.41610842768781053,0.03088969530471264,-0.013394800728938283,-0.07309584857113105,0,70,255.0,255.0,255.0
116,5.800000000000001,10.993454768794903,7.33703355677698,-1.2320959003775864,0.16785225616166638,-0.055641372434197936,-0.4197097710652628,0.029967968161886637,-0.01205307806238394,-0.07095788652695895,0,70,255.0,255.0,255.0
117,5.8500000000000005,11.001884457510215,7.334236980858803,-1.2531691954714896,0.16932761139119004,-0.05621048327065327,-0.4232042163405065,0.02904624101906065,-0.010711355395829621,-0.06881992448278688,0,70,255.0,255.0,255.0
118,5.9,11.010386761828071,7.331413626552136,-1.2744145403766003,0.17075688026357244,-0.0567125079737809,-0.4265917635135415,0.02812451387623466,-0.009369632729275303,-0.06668196243861482,0,70,255.0,255.0,255.0
119,5.95,11.018959377430619,7.328566848163647,-1.2958265901878072,0.1721400627788135,-0.0571474465435808,-0.4298724125843679,0.027202786733408677,-0.008027910062720984,-0.06454400039444276,0,70,255.0,255.0,255.0
120,6.0,11.0276,7.3257,-1.3174,0.1734771589369133,-0.05751529898005299,-0.43304616355298575,0.026281059590582245,-0.006686187396166332,-0.0624060383502707,0,70,255.0,255.0,255.0
121,6.050000000000001,11.036306784688561,7.322815779461562,-1.3391310218888939,0.1747957369501541,-0.05785547966131275,-0.436208835268887,0.026462060939049438,-0.006921039854223946,-0.06410083028577794,0,70,255.0,255.0,255.0
122,6.1000000000000005,11.045079724529472,7.319914256323488,-1.3610222958535019,0.17612336503081824,-0.058207402965475386,-0.43945624658156357,0.02664306228751663,-0.007155892312281555,-0.06579562222128514,0,70,255.0,255.0,255.0
123,6.15,11.053919272026102,7.316994843454633,-1.3830780588736629,0.17746004317890576,-0.058571068892540906,-0.4427883974910155,0.02682406363598382,-0.007390744770339165,-0.06749041415679234,0,70,255.0,255.0,255.0
124,6.2,11.062825879681819,7.314056953723852,-1.405302547929216,0.1788057713944166,-0.058946477442509304,-0.4462052879972428,0.027005064984451013,-0.007625597228396775,-0.06918520609229956,0,70,255.0,255.0,255.0
125,6.25,11.0718,7.3111,-1.4277,0.18016054967735082,-0.05933362861538058,-0.4497069181002454,0.02718606633291798,-0.007860449686454274,-0.07087999802780365,0,70,255.0,255.0,255.0
126,6.300000000000001,11.080842092450846,7.308123325376775,-1.4502736120668398,0.18152479603772068,-0.05973670892056055,-0.45323088785918914,0.02738378808187574,-0.00826276252074432,-0.07007879232994431,0,70,255.0,255.0,255.0
127,6.3500000000000005,11.089952644371895,7.305125993847248,-1.4730224211145042,0.1828989284855384,-0.06015990486745502,-0.45671479733323983,0.027581509830833496,-0.00866507535503436,-0.06927758663208498,0,70,255.0,255.0,255.0
128,6.4,11.099132150067522,7.302106999629334,-1.495944424128749,0.18428294702080403,-0.06060321645606398,-0.4601586465223976,0.027779231579791255,-0.009067388189324403,-0.06847638093422564,0,70,255.0,255.0,255.0
129,6.45,11.1083811038421,7.299065336940948,-1.519037618095329,0.18567685164351752,-0.06106664368638745,-0.4635624354266624,0.02797695332874901,-0.009469701023614443,-0.06767517523636632,0,70,255.0,255.0,255.0
130,6.5,11.1177,7.296,-1.5423,0.1870806423536789,-0.06155018655842542,-0.46692616404603415,0.028174675077707656,-0.009872013857904094,-0.06687396953850477,0,70,255.0,255.0,255.0
131,6.550000000000001,11.127088845508053,7.292910119031338,-1.5657297298437485,0.1884650788989577,-0.06204568465644093,-0.4702596132943578,0.027202786733442993,-0.009947910062716283,-0.06646400039443828,0,70,255.0,255.0,255.0
132,6.6000000000000005,11.13654569798294,7.2897953682875185,-1.5893256196884826,0.18980092102702323,-0.06254497756469705,-0.47357256408547804,0.02623089838917835,-0.010023806267528468,-0.0660540312503718,0,70,255.0,255.0,255.0
133,6.65,11.146068127703803,7.2866555580280306,-1.6130866446113428,0.1910881687378755,-0.06304806528319379,-0.47686501641939494,0.025259010044913703,-0.010099702472340655,-0.06564406210630533,0,70,255.0,255.0,255.0
134,6.7,11.155653704949776,7.2834904985123625,-1.6370117796894685,0.1923268220315146,-0.0635549478119311,-0.4801369702961085,0.024287121700649058,-0.010175598677152842,-0.06523409296223885,0,70,255.0,255.0,255.0
135,6.75,11.1653,7.2803,-1.6611,0.19351688090794045,-0.06406562515090905,-0.48338842571561874,0.023315233356383747,-0.010251494881964751,-0.06482412381817104,0,70,255.0,255.0,255.0
136,6.800000000000001,11.175005725516938,7.2770841984978745,-1.685350668558168,0.19472688836646057,-0.06456055245366883,-0.48664265896338055,0.025085064984420605,-0.009545597228426352,-0.06534520609229864,0,70,255.0,255.0,255.0
137,6.8500000000000005,11.184774163696336,7.273844533002679,-1.7097647001315668,0.1960253874063825,-0.06502018487375169,-0.4899229463248486,0.02685489661245743,-0.008839699574887963,-0.06586628836642623,0,70,255.0,255.0,255.0
138,6.9,11.194609739117265,7.270582768258545,-1.7343433974258813,0.1974123780277063,-0.06544452241115763,-0.4932292878000231,0.02862472824049426,-0.008133801921349576,-0.06638737064055382,0,70,255.0,255.0,255.0
139,6.95,11.204516876358799,7.2673006690096065,-1.7590880631467976,0.19888786023043195,-0.06583356506588665,-0.496561683388904,0.030394559868531085,-0.007427904267811189,-0.06690845291468142,0,70,255.0,255.0,255.0
140,7.0,11.2145,7.264,-1.784,0.2004518340145594,-0.06618731283793876,-0.4999201330914912,0.032164391496567024,-0.006722006614272691,-0.06742953518880501,0,70,255.0,255.0,255.0
141,7.050000000000001,11.224561852424197,7.2606818869771645,-1.8090803959235808,0.20200336763519222,-0.06654410552888562,-0.5032977508521205,0.029896953328744636,-0.00754970102360163,-0.06767517523636411,0,70,255.0,255.0,255.0
142,7.1000000000000005,11.234698447231711,7.257344899701771,-1.834329979785252,0.2034415293474339,-0.06694228294029893,-0.5066876506151277,0.02762951516092229,-0.008377395432930555,-0.0679208152839232,0,70,255.0,255.0,255.0
143,7.15,11.244904115827133,7.253986968937793,-1.859749365685133,0.20476631915128443,-0.06738184507217868,-0.5100898323805128,0.02536207699309994,-0.009205089842259479,-0.06816645533148229,0,70,255.0,255.0,255.0
144,7.2,11.255173189615034,7.250606025449211,-1.8853391677233426,0.20597773704674388,-0.06786279192452488,-0.5135042961482759,0.023094638825277597,-0.010032784251588402,-0.06841209537904139,0,70,255.0,255.0,255.0
145,7.25,11.2655,7.2472,-1.9111,0.20707578303381222,-0.06838512349733751,-0.5169310419184169,0.020827200657455025,-0.010860478660916884,-0.0686577354265987,0,70,255.0,255.0,255.0
146,7.300000000000001,11.27588046478628,7.243767453593467,-1.937031747747511,0.2081556410927658,-0.06891102543078925,-0.520326337628138,0.022367121700687487,-0.010175598677152533,-0.06715409296224217,0,70,255.0,255.0,255.0
147,7.3500000000000005,11.286316847376813,7.240309468190241,-1.9631313807274273,0.20931249520388095,-0.06940268336505277,-0.5236464512146412,0.023907042743919922,-0.009490718693388193,-0.06565045049788568,0,70,255.0,255.0,255.0
148,7.4,11.296812997574204,7.236827755990282,-1.9893951398335883,0.21054634536715777,-0.06986009730012806,-0.5268913826779266,0.025446963787152353,-0.008805838709623854,-0.06414680803352918,0,70,255.0,255.0,255.0
149,7.45,11.307372765181062,7.233324029193548,-2.0158192659598324,0.2118571915825962,-0.07028326723601516,-0.530061132017994,0.026986884830384788,-0.008120958725859516,-0.06264316556917268,0,70,255.0,255.0,255.0
150,7.5,11.318,7.2298,-2.0424,0.21324503385019625,-0.07067219317271402,-0.5331556992348437,0.028526805873617223,-0.007436078742095176,-0.06113952310481441,0,70,255.0,255.0,255.0
151,7.550000000000001,11.328697888430682,7.226257098648968,-2.0691350130863775,0.21467006799374924,-0.07104379274796167,-0.5362608986353311,0.028474559868501136,-0.007427904267811303,-0.06306845291467539,0,70,255.0,255.0,255.0
152,7.6000000000000005,11.339466963261037,7.222695627537266,-2.096027697305042,0.21609248983704638,-0.07141498359949515,-0.5394625445263114,0.028422313863385052,-0.0074197297935274294,-0.06499738272453633,0,70,255.0,255.0,255.0
153,7.65,11.350307093876049,7.21911560710108,-2.1230828749805175,0.21751229938008773,-0.07178576572731442,-0.5427606369077846,0.028370067858268965,-0.007411555319243557,-0.06692631253439726,0,70,255.0,255.0,255.0
154,7.7,11.361218149660708,7.215517057776596,-2.1503053684373286,0.21892949662287325,-0.07215613913141951,-0.546155175779751,0.02831782185315288,-0.007403380844959684,-0.0688552423442582,0,70,255.0,255.0,255.0
155,7.75,11.3722,7.2119,-2.1777,0.220344081565403,-0.07252610381181039,-0.5496461611422104,0.028265575848036795,-0.007395206370675589,-0.07078417215411914,0,70,255.0,255.0,255.0
156,7.800000000000001,11.383251981490986,7.208264151810662,-2.205269799906981,0.2217240869322365,-0.07291380357736667,-0.5531260678305393,0.026934638825302785,-0.008112784251575566,-0.06841209537903672,0,70,255.0,255.0,255.0
157,7.8500000000000005,11.394371299579037,7.204608021660696,-2.2330106300524086,0.22303754544793328,-0.07333738223696795,-0.5564873706801141,0.0256037018025688,-0.00883036213247553,-0.06604001860395436,0,70,255.0,255.0,255.0
158,7.9,11.405554626921596,7.200929815605399,-2.2609165602443464,0.2242844571124934,-0.07379683979061422,-0.5597300696909348,0.02427276477983481,-0.009547940013375493,-0.06366794182887199,0,70,255.0,255.0,255.0
159,7.95,11.416798636176102,7.197227739700066,-2.2889816602908555,0.22546482192591677,-0.0742921762383055,-0.5628541648630013,0.022941827757100824,-0.010265517894275458,-0.061295865053789624,0,70,255.0,255.0,255.0
160,8.0,11.4281,7.1935,-2.3172,0.22657863988820343,-0.07482339158004175,-0.5658596561963137,0.021610890734366173,-0.010983095775174867,-0.05892378827870548,0,70,255.0,255.0,255.0
161,8.05,11.439456585605368,7.189745494108383,-2.3455673872857026,0.2276975842773216,-0.07534899294256793,-0.5688508300425107,0.023146884830359517,-0.010040958725871971,-0.060723165569171504,0,70,255.0,255.0,255.0
162,8.1,11.450871038422815,7.18596588581995,-2.3740865824853263,0.22889332837123938,-0.07582748745262895,-0.5719319727532308,0.024682878926352802,-0.00909882167656911,-0.06252254285963746,0,70,255.0,255.0,255.0
163,8.15,11.462347198437572,7.182163530477327,-2.4027620840421005,0.23016587216995685,-0.07625887511022483,-0.5751030843284745,0.026218873022346146,-0.008156684627266212,-0.06432192015010349,0,70,255.0,255.0,255.0
164,8.200000000000001,11.473888905634889,7.1783407834231365,-2.43159839039925,0.231515215673474,-0.07664315591535557,-0.5783641647682413,0.027754867118339487,-0.007214547577963317,-0.06612129744056951,0,70,255.0,255.0,255.0
165,8.25,11.4855,7.1745,-2.4606,0.2329413588817908,-0.07698032986802117,-0.5817152140725314,0.02929086121433233,-0.006272410528660011,-0.06792067473103724,0,70,255.0,255.0,255.0
166,8.3,11.49718327608754,7.1706426717558065,-2.489770250950213,0.23438157595847794,-0.07732222465236166,-0.5850866119994139,0.028317821853152823,-0.007403380844959544,-0.06693524234426372,0,70,255.0,255.0,255.0
167,8.35,11.508937346729713,7.166766835059501,-2.519107840006286,0.23577314106710606,-0.07772066795251713,-0.5884087383069577,0.02734478249197335,-0.008534351161259038,-0.06594980995749022,0,70,255.0,255.0,255.0
168,8.4,11.520759779328117,7.162869662485291,-2.5486103035872527,0.23711605420767526,-0.07817565976848756,-0.591681592995163,0.026371743130793837,-0.009665321477558572,-0.06496437757071671,0,70,255.0,255.0,255.0
169,8.450000000000001,11.532648141284348,7.158948326607388,-2.578275178112147,0.23841031538018548,-0.07868720010027298,-0.5949051760640294,0.02539870376961433,-0.010796291793858106,-0.06397894518394318,0,70,255.0,255.0,255.0
170,8.5,11.5446,7.155,-2.6081,0.2396559245846367,-0.07925528894787336,-0.5980794875135572,0.02442566440843441,-0.011927262110157266,-0.06299351279717147,0,70,255.0,255.0,255.0
171,8.55,11.556613510044471,7.1510230188683925,-2.6380828089134485,0.24088811188877496,-0.07981010844798417,-0.6012347219598313,0.02486182775709587,-0.010265517894275166,-0.06321586505379333,0,70,255.0,255.0,255.0
172,8.6,11.568689174658335,7.1470203739420475,-2.6682236574895297,0.24214210736034628,-0.08028184073730088,-0.6044010740189365,0.02529799110575732,-0.008603773678393123,-0.06343821731041518,0,70,255.0,255.0,255.0
173,8.65,11.580828084249962,7.142996219581509,-2.698523101608889,0.2434179109993507,-0.08067048581582348,-0.6075785436908728,0.025734154454418783,-0.006942029462511023,-0.06366056956703706,0,70,255.0,255.0,255.0
174,8.700000000000001,11.593031329227728,7.138954710147313,-2.7289816971521654,0.24471552280578818,-0.08097604368355198,-0.6107671309756404,0.026170317803080243,-0.005280285246628922,-0.06388292182365891,0,70,255.0,255.0,255.0
175,8.75,11.6053,7.1349,-2.7596,0.2460349427796587,-0.08119851434048639,-0.6139668358732386,0.026606481151740802,-0.003618541030746991,-0.06410527408027988,0,70,255.0,255.0,255.0
176,8.8,11.617634683734574,7.130834852770626,-2.790378513395996,0.24734597648641085,-0.08142134155570427,-0.6171745001612599,0.025834867118343475,-0.0052945475779677025,-0.06420129744056595,0,70,255.0,255.0,255.0
177,8.85,11.630033954636945,7.1267564691723075,-2.821317530035593,0.24861842949149304,-0.08172796909828316,-0.6203869656172952,0.025063253084946176,-0.006970554125188355,-0.06429732080085201,0,70,255.0,255.0,255.0
178,8.9,11.64249588367203,7.122660659188675,-2.852417289977192,0.24985230179490542,-0.0821183969682231,-0.623604232241345,0.024291639051548845,-0.008646560672409067,-0.0643933441611381,0,70,255.0,255.0,255.0
179,8.950000000000001,11.655018541804743,7.118543232803362,-2.8836780332791943,0.251047593396648,-0.08259262516552408,-0.6268263000334091,0.02352002501815152,-0.010322567219629777,-0.06448936752142416,0,70,255.0,255.0,255.0
180,9.0,11.6676,7.1144,-2.9151,0.2522043042967206,-0.08315065369018607,-0.6300531689934874,0.022748410984754663,-0.011998573766850429,-0.06458539088171023,0,70,255.0,255.0,255.0
181,9.05,11.680238955017227,7.110227970049104,-2.9466831375025695,0.2533599821655808,-0.08372052532920336,-0.633267277395129,0.02347870376965312,-0.01079629179384079,-0.06397894518395261,0,70,255.0,255.0,255.0
182,9.1,11.692936606793877,7.106028949368723,-2.9784262223680975,0.2545521746736859,-0.08423028286957014,-0.6364510635118826,0.024208996554551547,-0.009594009820831192,-0.06337249948619501,0,70,255.0,255.0,255.0
183,9.15,11.705694781061917,7.101805943663791,-3.0103277384823426,0.2557808818210359,-0.08467992631128646,-0.6396045273437485,0.024939289339450006,-0.008391727847821554,-0.0627660537884374,0,70,255.0,255.0,255.0
184,9.200000000000001,11.718515303553305,7.097561958639239,-3.0423861697310586,0.2570461036076309,-0.08506945565435231,-0.6427276688907265,0.02566958212434846,-0.007189445874811914,-0.06215960809067978,0,70,255.0,255.0,255.0
185,9.25,11.7314,7.0933,-3.0746,0.2583478400334708,-0.08539887089876766,-0.6458204881528163,0.026399874909247778,-0.005987163901802095,-0.06155316239291597,0,70,255.0,255.0,255.0
186,9.3,11.744350296196517,7.089022067032958,-3.1069681365937285,0.25966209485127734,-0.08572855712747876,-0.6489083902582304,0.02617031780301193,-0.007200285246641575,-0.0619629218236435,0,70,255.0,255.0,255.0
187,9.35,11.75736601818754,7.084726133352799,-3.1394911804920156,0.2609648718137719,-0.08611889942343182,-0.6520167803351806,0.02594076069677609,-0.008413406591481012,-0.06237268125437101,0,70,255.0,255.0,255.0
188,9.4,11.770446592080306,7.08040916615616,-3.172170156093439,0.2622561709209549,-0.08656989778662685,-0.6551456583836675,0.025711203590540244,-0.009626527936320493,-0.06278244068509853,0,70,255.0,255.0,255.0
189,9.450000000000001,11.783591443982047,7.076068132639681,-3.205006087796575,0.26353599217282603,-0.08708155221706387,-0.6582950244036906,0.025481646484304395,-0.010839649281159974,-0.06319220011582606,0,70,255.0,255.0,255.0
190,9.5,11.7968,7.0717,-3.238,0.2648043355693854,-0.08765386271474285,-0.6614648783952499,0.025252089378069886,-0.01205277062599941,-0.06360195954654912,0,70,255.0,255.0,255.0
191,9.55,11.810071860196707,7.067302961819067,-3.271152316122519,0.2660716384292917,-0.08821324616088358,-0.6646191615719492,0.025440025018181437,-0.010322567219629762,-0.06256936752142009,0,70,255.0,255.0,255.0
192,9.600000000000001,11.823407320455962,7.062880117220083,-3.304461055663842,0.2673483380712035,-0.08868611943670583,-0.667721815147392,0.025627960658292988,-0.008592363813260112,-0.06153677549629106,0,70,255.0,255.0,255.0
193,9.65,11.836806850616862,7.058435791711568,-3.337923637143904,0.2686344344951209,-0.0890724825422096,-0.6707728391215783,0.025815896298404528,-0.0068621604068905264,-0.06050418347116206,0,70,255.0,255.0,255.0
194,9.700000000000001,11.85027092051851,7.053974310802035,-3.3715374790826447,0.269929927701044,-0.0893723354773949,-0.6737722334945082,0.02600383193851608,-0.005131957000520878,-0.05947159144603302,0,70,255.0,255.0,255.0
195,9.75,11.8638,7.0495,-3.4053,0.2712348176889726,-0.08958567824226168,-0.6767199982661817,0.026191767578628067,-0.003401753594151069,-0.05843899942090314,0,70,255.0,255.0,255.0
196,9.8,11.87739426301665,7.045015685690777,-3.4392097989161985,0.2725313514315479,-0.08980245822898544,-0.6796869634539716,0.025669582124382542,-0.00526944587479921,-0.0602396080906898,0,70,255.0,255.0,255.0
197,9.850000000000001,11.89105269998861,7.040518197766867,-3.473270196852623,0.2738017759014109,-0.09011262282974161,-0.6827439590752508,0.025147396670137018,-0.007137138155447351,-0.06204021676047647,0,70,255.0,255.0,255.0
198,9.9,11.904774005452245,7.03600286699757,-3.5074856953309475,0.2750460910985616,-0.09051617204453018,-0.6858909851300191,0.024625211215891514,-0.009004830436095426,-0.06384082543026307,0,70,255.0,255.0,255.0
199,9.950000000000001,11.918556873943919,7.031465024152181,-3.541860795872849,0.2762642970230001,-0.09101310587335115,-0.689128041618277,0.02410302576164599,-0.010872522716743566,-0.06564143410004974,0,70,255.0,255.0,255.0
200,10.0,11.9324,7.0269,-3.5764,0.27745639367472613,-0.09160342431620451,-0.692455128540024,0.023580840307399153,-0.012740214997391308,-0.06744204276983545,0,70,255.0,255.0,255.0
201,10.05,11.946302287736694,7.022304695417826,-3.6111060882126917,0.278634955844518,-0.09219292092316873,-0.6957689846121654,0.023561646484275212,-0.01083964928117695,-0.06511220011581959,0,70,255.0,255.0,255.0
202,10.100000000000001,11.960263479589598,7.017682291712447,-3.6459749569256723,0.27981255832315366,-0.09268738924432222,-0.698966348551606,0.023542452661151268,-0.008939083564962593,-0.06278235746180372,0,70,255.0,255.0,255.0
203,10.15,11.974283527574157,7.013037540298156,-3.681000781532307,0.28098920111063314,-0.09308682927966498,-0.7020472203583458,0.023523258838027326,-0.007038517848748302,-0.06045251480778793,0,70,255.0,255.0,255.0
204,10.200000000000001,11.98836238370581,7.008375192589244,-3.7161777374259617,0.2821648842069564,-0.09339124102919705,-0.7050116000323848,0.023504065014903385,-0.005137952132533944,-0.058122672153772065,0,70,255.0,255.0,255.0
205,10.25,12.0025,7.0037,-3.7515,0.2833396076121235,-0.0936006244929184,-0.7078594875737231,0.023484871191780776,-0.003237386416319543,-0.05579282949975539,0,70,255.0,255.0,255.0
206,10.3,12.016696586036574,6.999015132637924,-3.786963448233039,0.2845288251903811,-0.0938098580783394,-0.7106930980973677,0.024083831938521535,-0.005131957000520809,-0.057551591446028484,0,70,255.0,255.0,255.0
207,10.350000000000001,12.030953381652994,6.994317435383346,-3.822570775444693,0.28574799080597574,-0.09411382019297049,-0.7136146467183261,0.024682792685262293,-0.007026527584722074,-0.059310353392301576,0,70,255.0,255.0,255.0
208,10.4,12.045271884251127,6.989602171809807,-3.8583263785398265,0.2869971044589073,-0.0945125108368116,-0.7166241334365978,0.025281753432003035,-0.008921098168923272,-0.06106911533857461,0,70,255.0,255.0,255.0
209,10.450000000000001,12.05965359123284,6.984864605490844,-3.894234654423308,0.288276166149176,-0.09500593000986281,-0.7197215582521834,0.025880714178743793,-0.010815668753124537,-0.0628278772848477,0,70,255.0,255.0,255.0
210,10.5,12.0741,6.9801,-3.9303,0.2895851758767817,-0.09559407771212405,-0.7229069211650826,0.026479674925483643,-0.012710239337325957,-0.06458663923111896,0,70,255.0,255.0,255.0
211,10.55,12.08861216811701,6.975305174030481,-3.9665257188551557,0.2908977433939598,-0.0961836467634758,-0.726114622998362,0.0260230257616401,-0.010872522716743412,-0.06372143410006127,0,70,255.0,255.0,255.0
212,10.600000000000001,12.103189393798427,6.970483166754169,-4.002910741295562,0.29218747845294574,-0.09668132998379841,-0.7292790645750888,0.025566376597796557,-0.009034806096160867,-0.06285622896900357,0,70,255.0,255.0,255.0
213,10.65,12.117830535421337,6.965638572462618,-4.039452904308388,0.29345438105373944,-0.09708712737309189,-0.7324002458952624,0.025109727433953028,-0.007197089475578387,-0.06199102383794592,0,70,255.0,255.0,255.0
214,10.700000000000001,12.132534451362831,6.960775985447377,-4.076150044880811,0.294698451196341,-0.09740103893135624,-0.7354781669588835,0.024653078270109485,-0.005359372854995842,-0.06112581870688823,0,70,255.0,255.0,255.0
215,10.75,12.1473,6.9559,-4.113,0.2959196888807503,-0.09762306465859148,-0.7385128277659512,0.02419642910626285,-0.0035216562344132507,-0.06026061357582613,0,70,255.0,255.0,255.0
216,10.8,12.16212594149538,6.951013771240153,-4.1500008763463425,0.2971122012337795,-0.09783955486776474,-0.7415204099091908,0.023504065014903375,-0.005137952132516822,-0.0600426721537584,0,70,255.0,255.0,255.0
217,10.850000000000001,12.177010643153302,6.946114697599975,-4.18715185937307,0.29827009538224064,-0.09813685987184317,-0.744517094981327,0.022811700923543902,-0.0067542480306203925,-0.05982473073169067,0,70,255.0,255.0,255.0
218,10.9,12.19195237406353,6.941198738339721,-4.224452404226622,0.29939337132613386,-0.09851497967082677,-0.7475028829823599,0.02211933683218445,-0.008370543928723906,-0.05960678930962295,0,70,255.0,255.0,255.0
219,10.950000000000001,12.20694940331584,6.936261852719644,-4.261901966053452,0.3004820290654591,-0.09897391426471557,-0.7504777739122894,0.021426972740824973,-0.009986839826827477,-0.059388847887555225,0,70,255.0,255.0,255.0
220,11.0,12.222,6.9313,-4.2995,0.3015360686002163,-0.09951366365350951,-0.7534417677711154,0.020734608649464192,-0.011603135724931213,-0.05917090646548573,0,70,255.0,255.0,255.0
221,11.05,12.23710326590146,6.926310141008907,-4.337245975759481,0.30260545167092173,-0.10007413376546091,-0.7563957373648735,0.022040714178752748,-0.010815668753124685,-0.05898787728483903,0,70,255.0,255.0,255.0
222,11.100000000000001,12.252261633588367,6.92129324284593,-4.375139421212171,0.30374014001809163,-0.100595230528822,-0.7593405554995993,0.023346819708041304,-0.010028201781318158,-0.05880484810419233,0,70,255.0,255.0,255.0
223,11.15,12.267478368324543,6.916251274178501,-4.4131798787851215,0.30494013364172584,-0.10107695394359273,-0.7622762221752928,0.024652925237329815,-0.009240734809511658,-0.05862181892354563,0,70,255.0,255.0,255.0
224,11.200000000000001,12.282756735373814,6.911186203674047,-4.451366890905383,0.3062054325418246,-0.10151930400977316,-0.7652027373919539,0.025959030766618367,-0.008453267837705131,-0.05843878974289893,0,70,255.0,255.0,255.0
225,11.25,12.2981,6.9061,-4.4897,0.3075360367183877,-0.10192228072736326,-0.7681201011495826,0.027265136295908654,-0.007665800865899186,-0.05825576056225579,0,70,255.0,255.0,255.0
226,11.3,12.31351059489878,6.900994464724222,-4.528179220615743,0.308881992082538,-0.10229591007038638,-0.7710566406313117,0.02657307827010448,-0.00727937285502564,-0.059205818706909254,0,70,255.0,255.0,255.0
227,11.350000000000001,12.328987622493232,6.895870731016304,-4.566806455778252,0.3101933445453982,-0.10265021801286583,-0.7740406830202736,0.025881020244300303,-0.0068929448441520935,-0.06015587685156272,0,70,255.0,255.0,255.0
228,11.4,12.344529352638297,6.890729764946276,-4.605584080632891,0.3114700941069681,-0.10298520455480159,-0.777072228316468,0.025188962218496154,-0.006506516833278561,-0.06110593499621616,0,70,255.0,255.0,255.0
229,11.450000000000001,12.360134055188906,6.885572532584167,-4.64451447032502,0.3127122407672478,-0.10330086969619369,-0.7801512765198952,0.024496904192691977,-0.006120088822405015,-0.062055993140869625,0,70,255.0,255.0,255.0
230,11.5,12.3758,6.8804,-4.6836,0.31391978452623726,-0.1035972134370421,-0.783277827630555,0.02380484616688694,-0.0057336608115315935,-0.06300605128552128,0,70,255.0,255.0,255.0
231,11.55,12.391525554503426,6.87521280009421,-4.722841941777553,0.31509857999892993,-0.10389422595300045,-0.7863857001098817,0.023346972740819,-0.006146839826802248,-0.0613088478875486,0,70,255.0,255.0,255.0
232,11.600000000000001,12.407309476438705,6.870010233088854,-4.762237155674824,0.3162544818003192,-0.10421189741972234,-0.78940871241931,0.022889099314751058,-0.006560018842072902,-0.05961164448957592,0,70,255.0,255.0,255.0
233,11.65,12.42315062112227,6.8647912660363914,-4.801781398683319,0.31738748993040505,-0.10455022783720774,-0.7923468645588393,0.022431225888683133,-0.006973197857343541,-0.0579144410916033,0,70,255.0,255.0,255.0
234,11.700000000000001,12.439047843870558,6.8595548659892875,-4.841470427794543,0.3184976043891875,-0.10490921720545668,-0.7952001565284703,0.021973352462615194,-0.007386376872614195,-0.056217237693630615,0,70,255.0,255.0,255.0
235,11.75,12.455,6.8543,-4.8813,0.3195848251766665,-0.10528886552446916,-0.7979685883282023,0.021515479036545937,-0.007799555887884391,-0.05452003429565888,0,70,255.0,255.0,255.0
236,11.8,12.471006387087517,6.849025534898939,-4.921267412274051,0.32067568792174583,-0.1056951861176089,-0.8007445589291661,0.02211903076662792,-0.008453267837705246,-0.05651878974288905,0,70,255.0,255.0,255.0
237,11.850000000000001,12.48706807175195,6.84372993662828,-4.961376121522458,0.3217967282533293,-0.10613419230823969,-0.8036204673024913,0.022722582496709904,-0.009106979787526101,-0.058517545190119216,0,70,255.0,255.0,255.0
238,11.9,12.503186562872623,6.838411570908156,-5.001631124633839,0.3229479461714168,-0.10660588409636151,-0.806596313448178,0.023326134226791865,-0.009760691737346932,-0.06051630063734931,0,70,255.0,255.0,255.0
239,11.950000000000001,12.519363369328866,6.833068803458687,-5.042037418496815,0.3241293416760085,-0.10711026148197438,-0.8096720973662261,0.02392968595687385,-0.010414403687167787,-0.06251505608457948,0,70,255.0,255.0,255.0
240,12.0,12.5356,6.8277,-5.0826,0.32534091476710414,-0.10764732446507828,-0.8128478190566358,0.02453323768695448,-0.011068115636988396,-0.06451381153180957,0,70,255.0,255.0,255.0
241,12.05,12.551897697146508,6.822304260310038,-5.123322009126251,0.3265666683140944,-0.10817302957656333,-0.8160120641734528,0.024496904192657532,-0.009960088822413221,-0.06205599314086868,0,70,255.0,255.0,255.0
242,12.100000000000001,12.5682566365535,6.8168836203980225,-5.164199158235355,0.32779060518636993,-0.10864333334731961,-0.8190534183707228,0.024460570698360582,-0.008852062007838049,-0.05959817474992779,0,70,255.0,255.0,255.0
243,12.15,12.584676727387233,6.811440850330986,-5.20522530278133,0.3290127253839305,-0.10905823577734713,-0.8219718816484456,0.024424237204063635,-0.007744035193262914,-0.05714035635898698,0,70,255.0,255.0,255.0
244,12.200000000000001,12.60115787881398,6.8059787201759665,-5.246394298218206,0.33023302890677625,-0.10941773686664591,-0.8247674540066214,0.02438790370976669,-0.00663600837868774,-0.05468253796804609,0,70,255.0,255.0,255.0
245,12.25,12.6177,6.8005,-5.2877,0.33145151575490717,-0.10972183661521591,-0.8274401354452502,0.024351570215468854,-0.005527981564112827,-0.05222471957710173,0,70,255.0,255.0,255.0
246,12.3,12.63430282432645,6.795007023860906,-5.329138151220949,0.33265763882186,-0.1099966955761342,-0.8301031843770187,0.02389335246264394,-0.005466376872618616,-0.05429723769363356,0,70,255.0,255.0,255.0
247,12.350000000000001,12.650965382034059,6.7895003817796304,-5.370712045536134,0.33384085100117156,-0.11026847430247778,-0.8328698592146135,0.023435134709819026,-0.005404772181124405,-0.05636975581016538,0,70,255.0,255.0,255.0
248,12.4,12.667686527578441,6.783980227767901,-5.4124268642408415,0.3350011522928419,-0.11053717279424664,-0.8357401599580351,0.022976916956994126,-0.005343167489630196,-0.05844227392669713,0,70,255.0,255.0,255.0
249,12.450000000000001,12.684465115415216,6.778446715837448,-5.454287788630367,0.336138542696871,-0.1108027910514408,-0.8387140866072833,0.022518699204169212,-0.0052815627981359844,-0.06051479204322896,0,70,255.0,255.0,255.0
250,12.5,12.7013,6.7729,-5.4963,0.3372530222132588,-0.11106532907406025,-0.841791639162358,0.022060481451345204,-0.0052199581066418865,-0.06258731015975894,0,70,255.0,255.0,255.0
251,12.55,12.718190205547689,6.767339644246339,-5.538466985989953,0.3383547763984653,-0.11136018811890529,-0.8448711983184667,0.02200968595691215,-0.006574403687159533,-0.06059505608458388,0,70,255.0,255.0,255.0
252,12.600000000000001,12.735135435310267,6.761762852483459,-5.5807854596201185,0.33945399080895006,-0.11172276944277622,-0.8478511447708165,0.021958890462479095,-0.007928849267677179,-0.05860280200940883,0,70,255.0,255.0,255.0
253,12.65,12.752135562299005,6.756166238597411,-5.623250440255305,0.34055066544471313,-0.112153073045673,-0.8507314785194074,0.021908094968046042,-0.009283294848194776,-0.05661054793423384,0,70,255.0,255.0,255.0
254,12.700000000000001,12.769190459525161,6.750546416474241,-5.6658569472603295,0.34164480030575467,-0.11265109892759569,-0.8535121995642397,0.02185729947361299,-0.010637740428712423,-0.05461829385905879,0,70,255.0,255.0,255.0
255,12.75,12.7863,6.7449,-5.7086,0.34273639539207446,-0.11321684708854422,-0.8561933079053134,0.021806503979179936,-0.011992186009229688,-0.05262603978388114,0,70,255.0,255.0,255.0
256,12.8,12.803464353482799,6.7392247991537415,-5.751476304819239,0.3438432555842965,-0.11377855194824193,-0.8588760223491121,0.02246790370970243,-0.010476008378678792,-0.05468253796806056,0,70,255.0,255.0,255.0
257,12.850000000000001,12.820684876724874,6.733523408286535,-5.794489315983399,0.34498318576304476,-0.1142644479264121,-0.8616615617021196,0.02312930344022492,-0.008959830748127897,-0.05673903615223998,0,70,255.0,255.0,255.0
258,12.9,12.837963223225547,6.727799617842458,-5.837644174737937,0.34615618592831904,-0.11467453502305473,-0.864549925964336,0.02379070317074739,-0.007443653117577054,-0.05879553433641932,0,70,255.0,255.0,255.0
259,12.950000000000001,12.855301046484147,6.722057218265587,-5.8809460223283185,0.34736225608011945,-0.11500881323816982,-0.8675411151357615,0.02445210290126988,-0.005927475487026158,-0.060852032520598745,0,70,255.0,255.0,255.0
260,13.0,12.8727,6.7163,-5.9244,0.348601396218446,-0.11526728257175736,-0.8706351292163957,0.02511350263179324,-0.004411297856475427,-0.06290853070477898,0,70,255.0,255.0,255.0
261,13.05,12.890161180521117,6.7105307591387,-5.968009394733092,0.349840201264345,-0.11550960408812351,-0.8737207122850955,0.02443869920416545,-0.00528156279817026,-0.06051479204321254,0,70,255.0,255.0,255.0
262,13.100000000000001,12.907683457790245,6.704748314370403,-6.011770076446293,0.35104526613886256,-0.1157954388515744,-0.876686608420717,0.02376389577653766,-0.006151827739865092,-0.0581210533816461,0,70,255.0,255.0,255.0
263,13.15,12.925265144798814,6.6989504900327566,-6.055676060792946,0.3522165908419987,-0.11612478686211002,-0.8795328176232602,0.023089092348909896,-0.007022092681559894,-0.05572731472007975,0,70,255.0,255.0,255.0
264,13.200000000000001,12.942904554538256,6.693135110463407,-6.099721363426401,0.3533541753737535,-0.11649764811973039,-0.8822593398927251,0.022414288921282107,-0.007892357623254728,-0.05333357605851331,0,70,255.0,255.0,255.0
265,13.25,12.9606,6.6873,-6.1439,0.354458019734127,-0.11691402262443548,-0.8848661752291116,0.0217394854936539,-0.00876262256494953,-0.050939837396951404,0,70,255.0,255.0,255.0
266,13.3,12.978350124432732,6.681443364291461,-6.188207716248396,0.3555479393583095,-0.11735103169927628,-0.8874571285105112,0.021857299473646476,-0.00871774042868254,-0.05269829385902976,0,70,255.0,255.0,255.0
267,13.350000000000001,12.996154892114147,6.6755649342318515,-6.232647178231438,0.35664374968149165,-0.11778579666730375,-0.8901360046150146,0.021975113453639054,-0.008672858292415552,-0.05445675032110811,0,70,255.0,255.0,255.0
268,13.4,13.014014597579198,6.669664822026512,-6.2772227820902815,0.3577454507036734,-0.11821831752851784,-0.8929028035426219,0.022092927433631625,-0.008627976156148564,-0.0562152067831864,0,70,255.0,255.0,255.0
269,13.450000000000001,13.031929535362831,6.663743139880781,-6.321938923966084,0.35885304242485483,-0.1186485942829186,-0.8957575252933333,0.022210741413624203,-0.008583094019881575,-0.057973663245264755,0,70,255.0,255.0,255.0
270,13.5,13.0499,6.6578,-6.3668,0.3599665248450358,-0.119076626930506,-0.8987001698671485,0.022328555393616334,-0.008538211883614144,-0.05973211970734571,0,70,255.0,255.0,255.0
271,13.55,13.067926321747954,6.651835783695452,-6.411809340273331,0.36108804130240807,-0.11948626911477189,-0.9016667736728482,0.02253210290127488,-0.00784747548702164,-0.05893203252063674,0,70,255.0,255.0,255.0
272,13.600000000000001,13.086008973753165,6.6458519487021865,-6.456966010627964,0.36221973513516326,-0.11986137447920818,-0.9045933731192123,0.02273565040893342,-0.007156739090429134,-0.05813194533392776,0,70,255.0,255.0,255.0
273,13.65,13.104148464884394,6.639850221861194,-6.502268010845929,0.3633616063433014,-0.1202019430238148,-0.9074799682062409,0.02293919791659196,-0.006466002693836653,-0.05733185814721881,0,70,255.0,255.0,255.0
274,13.700000000000001,13.122345304010416,6.633832330013469,-6.547713340709265,0.3645136549268225,-0.12050797474859185,-0.9103265589339341,0.023142745424250502,-0.005775266297244149,-0.05653177096050983,0,70,255.0,255.0,255.0
275,13.75,13.1406,6.6278,-6.5933,0.36567588088572645,-0.12077946965353921,-0.9131331453022918,0.02334629293190904,-0.005084529900651336,-0.05573168377379556,0,70,255.0,255.0,255.0
276,13.8,13.158912588575445,6.621754300926729,-6.639026122658285,0.36681989543205623,-0.12105589184163697,-0.9159077767980995,0.022414288921282288,-0.005972357623259218,-0.05525357605850853,0,70,255.0,255.0,255.0
277,13.850000000000001,13.177281212873197,6.615693670959401,-6.684890379256716,0.3679173097778547,-0.12137670541586515,-0.9186585029081428,0.02148228491065553,-0.006860185345867101,-0.0547754683432215,0,70,255.0,255.0,255.0
278,13.9,13.195703542883223,6.6096158905287075,-6.7308915745260025,0.3689681239231218,-0.12174191037622369,-0.9213853236324216,0.02055028090002881,-0.007748013068474953,-0.054297360627934485,0,70,255.0,255.0,255.0
279,13.950000000000001,13.214177248595501,6.603518740065343,-6.7770285131968615,0.3699723378678576,-0.12215150672271263,-0.9240882389709362,0.019618276889402056,-0.008635840791082835,-0.053819252912647456,0,70,255.0,255.0,255.0
280,14.0,13.2327,6.5974,-6.8233,0.370929951612062,-0.12260549445533198,-0.9267672489236863,0.018686272878775334,-0.009523668513691241,-0.053341145197358664,0,70,255.0,255.0,255.0
281,14.05,13.251270523950257,6.591258212597631,-6.869705369093534,0.37190437696937206,-0.12305816351867173,-0.9294541191347517,0.020290741413628254,-0.00858309401989866,-0.054133663245258576,0,70,255.0,255.0,255.0
282,14.100000000000001,13.26989177475405,6.585094967460211,-6.916246072345183,0.3729590257534249,-0.12346380385732185,-0.9321806152482123,0.021895209948481178,-0.007642519526106079,-0.054926181293158495,0,70,255.0,255.0,255.0
283,14.15,13.288567763582712,6.578912616023977,-6.962924091050062,0.3740938979642202,-0.12382241547128234,-0.9349467372640676,0.023499678483334042,-0.006701945032313532,-0.05571869934105838,0,70,255.0,255.0,255.0
284,14.200000000000001,13.307302501607582,6.572713509725161,-7.009741406503296,0.37530899360175823,-0.12413399836055321,-0.9377524851823181,0.025104147018186963,-0.005761370538520952,-0.0565112173889583,0,70,255.0,255.0,255.0
285,14.25,13.3261,6.5665,-7.0567,0.3766043126660389,-0.12439855252513445,-0.9405978590029634,0.026708615553039827,-0.004820796044728293,-0.05730373543685818,0,70,255.0,255.0,255.0
286,14.3,13.344962915623524,6.560273648682749,-7.10380120096758,0.3778985966904702,-0.12466345408368375,-0.9434437466628977,0.025062745424211896,-0.005775266297243755,-0.056531770960508064,0,70,255.0,255.0,255.0
287,14.350000000000001,13.363888488110607,6.554032859199754,-7.15104373136256,0.3791105872084601,-0.12497607915485882,-0.9462510360990143,0.023416875295383964,-0.006729736549759218,-0.055759806484157945,0,70,255.0,255.0,255.0
288,14.4,13.382872602785929,6.5477752453753855,-7.198425661273752,0.38024028422000855,-0.1253364277386597,-0.9490197273113135,0.02177100516655609,-0.007684206802274647,-0.05498784200780786,0,70,255.0,255.0,255.0
289,14.450000000000001,13.401911144974168,6.541498421034012,-7.245945060789962,0.38128768772511573,-0.12574449983508632,-0.951749820299795,0.020125135037728156,-0.008638677054790109,-0.05421587753145774,0,70,255.0,255.0,255.0
290,14.5,13.421,6.5352,-7.2936,0.38225279772378146,-0.12620029544413866,-0.9544413150644592,0.01847926490889984,-0.00959314730730454,-0.05344391305510765,0,70,255.0,255.0,255.0
291,14.55,13.440136213555652,6.528878392671373,-7.34138902703615,0.38320523626873987,-0.1266560201465975,-0.9571228942136532,0.019618276889435755,-0.008635840791048675,-0.05381925291264676,0,70,255.0,255.0,255.0
292,14.600000000000001,13.459321472803525,6.52253519574077,-7.389312602204581,0.38421462541272505,-0.12706387952324355,-0.9598232403557239,0.020757288869971666,-0.007678534274792809,-0.054194592770185866,0,70,255.0,255.0,255.0
293,14.65,13.478558625273573,6.51617280247448,-7.437371663854936,0.385280965155737,-0.12742387357407678,-0.9625423534906716,0.02189630085050754,-0.006721227758536978,-0.054569932627724964,0,70,255.0,255.0,255.0
294,14.700000000000001,13.49785051849575,6.509793606138793,-7.485567150336862,0.3864042554977758,-0.12773600229909723,-0.9652802336184964,0.023035312831043455,-0.0057639212422811135,-0.05494527248526407,0,70,255.0,255.0,255.0
295,14.75,13.5172,6.5034,-7.5339,0.3875844964388414,-0.1280002656983049,-0.9680368807391981,0.024174324811577996,-0.004806614726025726,-0.0553206123428005,0,70,255.0,255.0,255.0
296,14.8,13.536609030153878,6.496993580631756,-7.582370690887825,0.38876845823458567,-0.12826446532991942,-0.9707846764824922,0.02318414701819068,-0.00576137053855549,-0.054591217388961145,0,70,255.0,255.0,255.0
297,14.850000000000001,13.556076020675297,6.490572757837165,-7.630977859819122,0.3899029111406605,-0.12857640275216045,-0.9734960024780944,0.02219396922480336,-0.006716126351085255,-0.05386182243512179,0,70,255.0,255.0,255.0
298,14.9,13.575598496119781,6.484135144726696,-7.679719683306505,0.39098785515706597,-0.12893607796502796,-0.9761708587260043,0.02120379143141608,-0.007670882163614985,-0.053132427481282454,0,70,255.0,255.0,255.0
299,14.950000000000001,13.595173981042844,6.477678354410817,-7.728594337862595,0.3920232902838021,-0.12934349096852193,-0.9788092452262226,0.02021361363802876,-0.008625637976144749,-0.0524030325274431,0,70,255.0,255.0,255.0
300,15.0,13.6148,6.4712,-7.7776,0.3930092165208688,-0.1297986417626424,-0.9814111619787488,0.019223435844640147,-0.00958039378867448,-0.051673637573606435,0,70,255.0,255.0,255.0
301,15.05,13.634474865828848,6.464698484801604,-7.826735409412554,0.3939929307929263,-0.1302541185337286,-0.9840103998563752,0.020125135037660082,-0.008638677054772469,-0.05229587753144625,0,70,255.0,255.0,255.0
302,15.100000000000001,13.654200044495289,6.4581753729105715,-7.876001558518937,0.3950217300246348,-0.13066250946811966,-0.9866407497318934,0.021026834230680018,-0.007696960320870456,-0.05291811748928607,0,70,255.0,255.0,255.0
303,15.15,13.673977790247303,6.451633018618736,-7.925400002919041,0.39609561421599426,-0.13102381456581566,-0.9893022116053037,0.021928533423699922,-0.006755243586968478,-0.05354035744712587,0,70,255.0,255.0,255.0
304,15.200000000000001,13.693810357332882,6.445073776217934,-7.974932298212765,0.3972145833670048,-0.13133803382681652,-0.991994785476606,0.022830232616719855,-0.005813526853066466,-0.054162597404965686,0,70,255.0,255.0,255.0
305,15.25,13.7137,6.4385,-8.0246,0.39837863747766633,-0.13160516725112228,-0.9947184713458004,0.023731931809740203,-0.0048718101191636,-0.05478483736280637,0,70,255.0,255.0,255.0
306,15.3,13.733648306530737,6.431913280161828,-8.07440447146196,0.39954781859368765,-0.1318710605351584,-0.997461724092003,0.023035312831111543,-0.005763921242280969,-0.05494527248529693,0,70,255.0,255.0,255.0
307,15.350000000000001,13.753654201343553,6.425312150520548,-8.124346306105135,0.4006821687607775,-0.1321815593753504,-1.0002129985943302,0.022338693852482886,-0.0066560323653983375,-0.055105707607787484,0,70,255.0,255.0,255.0
308,15.4,13.773715942891,6.418694380798357,-8.17442590501733,0.40178168797893593,-0.13253666377169823,-1.0029722948527817,0.02164207487385425,-0.007548143488515674,-0.05526614273027804,0,70,255.0,255.0,255.0
309,15.450000000000001,13.793831789625632,6.412057740717444,-8.224643669286351,0.40284637624816294,-0.13293637372420194,-1.005739612867358,0.02094545589522559,-0.008440254611633044,-0.05542657785276859,0,70,255.0,255.0,255.0
310,15.5,13.814,6.4054,-8.275,0.4038762335684585,-0.13338068923286153,-1.0085149526380586,0.02024883691659518,-0.00933236573475038,-0.055587012975262695,0,70,255.0,255.0,255.0
311,15.55,13.834219108048202,6.398719594551088,-8.325494704739604,0.40488779483232407,-0.13382963932563435,-1.0112627037756259,0.02021361363802718,-0.00862563797616195,-0.05432303252742441,0,70,255.0,255.0,255.0
312,15.600000000000001,13.8544887501305,6.392017625007235,-8.376125217060524,0.40589759493226124,-0.13424325303047774,-1.0139472558908011,0.020178390359459186,-0.007918910217573518,-0.05305905207958613,0,70,255.0,255.0,255.0
313,15.65,13.874808838188697,6.385295858187839,-8.426888377011643,0.40690563386827,-0.13462153034739172,-1.0165686089835844,0.02014316708089119,-0.007212182458985111,-0.051795071631747895,0,70,255.0,255.0,255.0
314,15.700000000000001,13.895179284164596,6.378556060912294,-8.477781024641843,0.40791191164035034,-0.13496447127637626,-1.019126763053976,0.02010794380232319,-0.006505454700396681,-0.05053109118390961,0,70,255.0,255.0,255.0
315,15.75,13.9156,6.3718,-8.5288,0.4089164282485023,-0.1352720758174314,-1.0216217181019756,0.020072720523755194,-0.0057987269418089404,-0.0492671107360696,0,70,255.0,255.0,255.0
316,15.8,13.936071261276451,6.365029141633822,-8.579943109579633,0.4099410020770134,-0.1355623821623033,-1.0241114608055006,0.020910232616691015,-0.005813526853066265,-0.05032259740493893,0,70,255.0,255.0,255.0
317,15.850000000000001,13.956594798134445,6.35824374945051,-8.631212025652776,0.41100745151017143,-0.13585342850273802,-1.0266539778424695,0.02174774470962684,-0.005828326764323589,-0.05137808407380827,0,70,255.0,255.0,255.0
318,15.9,13.977172704354214,6.3514437864502895,-8.682609386936102,0.41211577654797615,-0.13614521483873562,-1.0292492692128816,0.022585256802562632,-0.005843126675580912,-0.05243357074267757,0,70,255.0,255.0,255.0
319,15.950000000000001,13.997807073715988,6.344629215633377,-8.734137832146287,0.4132659771904276,-0.13643774117029614,-1.0318973349167373,0.023422768895498453,-0.005857926586838236,-0.0534890574115469,0,70,255.0,255.0,255.0
320,16.0,14.0185,6.3378,-8.7858,0.414458053437526,-0.13673100749741945,-1.0345981749540363,0.02426028098843558,-0.0058727264980951155,-0.0545445440804162,0,70,255.0,255.0,255.0
321,16.05,14.03925264684599,6.330955838913626,-8.837597656941876,0.4156361968596183,-0.13704083202516235,-1.037299453002366,0.022865455895254773,-0.006520254611620145,-0.05350657785277482,0,70,255.0,255.0,255.0
322,16.1,14.060062457331718,6.324095377190722,-8.889529080328382,0.4167445990270515,-0.13738303295858148,-1.0399488327393138,0.02147063080207397,-0.007167782725145174,-0.05246861162513345,0,70,255.0,255.0,255.0
323,16.150000000000002,14.080925944394451,6.317216996011005,-8.941591675243952,0.4177832599398257,-0.13775761029767686,-1.0425463141648794,0.020075805708893165,-0.007815310838670203,-0.05143064539749207,0,70,255.0,255.0,255.0
324,16.2,14.101839620971456,6.310319076554194,-8.99378284677301,0.41875217959794075,-0.13816456404244848,-1.0450918972790628,0.01868098061571246,-0.008462838952195186,-0.05039267916985077,0,70,255.0,255.0,255.0
325,16.25,14.1228,6.3034,-9.0461,0.41965135800139697,-0.13860389419289634,-1.0475855820818645,0.017286155522534763,-0.009110367065719549,-0.04935471294220939,0,70,255.0,255.0,255.0
326,16.3,14.14380455133959,6.296458702711676,-9.098541462652872,0.42053821048451856,-0.1390422897370487,-1.0500827271850184,0.01818794380232839,-0.008425454700375513,-0.05053109118394412,0,70,255.0,255.0,255.0
327,16.35,14.164854572538685,6.289496341786599,-9.151109253033704,0.4214701523816298,-0.1394464396629339,-1.052638691200259,0.019089732082122016,-0.007740542335031478,-0.051707469425678845,0,70,255.0,255.0,255.0
328,16.400000000000002,14.185952318067987,6.282514629505687,-9.2038063120881,0.42244718369273077,-0.13981634397055187,-1.0552534741275863,0.019991520361915642,-0.007055629969687442,-0.05288384766741357,0,70,255.0,255.0,255.0
329,16.45,14.20710004239819,6.275515278149849,-9.256635580761662,0.4234693044178214,-0.14015200265990266,-1.057927075967,0.020893308641709206,-0.006370717604343455,-0.05406022590914821,0,70,255.0,255.0,255.0
330,16.5,14.2283,6.2685,-9.3096,0.42453651455690167,-0.14045341573098624,-1.0606594967185008,0.02179509692150372,-0.0056858052389987535,-0.05523660415088116,0,70,255.0,255.0,255.0
331,16.55,14.249553947795654,6.261470150239674,-9.362701292446639,0.425618961202326,-0.14074200902663303,-1.0633776382575615,0.021502768895469333,-0.0058579265868719,-0.05348905741154721,0,70,255.0,255.0,255.0
332,16.6,14.270861652513547,6.25442565566288,-9.415936307536807,0.42668679144644867,-0.14103920838967343,-1.0660084024596554,0.021210440869434945,-0.006030047934745047,-0.05174151067221326,0,70,255.0,255.0,255.0
333,16.650000000000002,14.292222383333613,6.2473660859662505,-9.469300676403657,0.42774000528926953,-0.14134501382010753,-1.0685517893247831,0.02091811284340056,-0.006202169282618193,-0.049993963932879304,0,70,255.0,255.0,255.0
334,16.7,14.313635409435783,6.240291010846414,-9.522790030180335,0.42877860273078866,-0.14165942531793524,-1.0710077988529434,0.020625784817366193,-0.006374290630491328,-0.04824641719354548,0,70,255.0,255.0,255.0
335,16.75,14.3351,6.2332,-9.5764,0.42980258377100616,-0.14198244288315665,-1.0733764310441374,0.02033345679133136,-0.006546411978364475,-0.04649887045421153,0,70,255.0,255.0,255.0
336,16.8,14.356615657477802,6.22609269632963,-9.630127767560573,0.43082594470618135,-0.14230967415642076,-1.0757507197847382,0.020600980615674752,-0.006542838952199403,-0.0484726791698215,0,70,255.0,255.0,255.0
337,16.85,14.37818281740714,6.218969035561879,-9.683976716819071,0.43186268183257365,-0.1426367267783766,-1.0782236989611196,0.02086850444001814,-0.006539265926034332,-0.050446487885431476,0,70,255.0,255.0,255.0
338,16.900000000000002,14.39980214859758,6.211829026629315,-9.737951782297284,0.43291279515018316,-0.1429636007490242,-1.0807953685732814,0.021136028264361527,-0.006535692899869261,-0.05242029660104146,0,70,255.0,255.0,255.0
339,16.95,14.421474319858676,6.204672678464499,-9.792057898516994,0.4339762846590098,-0.1432902960683635,-1.0834657286212237,0.021403552088704897,-0.00653211987370419,-0.054394105316651294,0,70,255.0,255.0,255.0
340,17.0,14.4432,6.1975,-9.8463,0.43505315035905356,-0.14361681273639462,-1.0862347791049463,0.021671075913047844,-0.0065285468475397845,-0.056367914032252386,0,70,255.0,255.0,255.0
341,17.05,14.464979422293148,6.190311064441806,-9.900681237311069,0.4361172599729242,-0.14393929434769087,-1.088995482603482,0.020893308641777953,-0.0063707176043093375,-0.05406022590917804,0,70,255.0,255.0,255.0
342,17.1,14.4868110778579,6.183106202089601,-9.955197625186914,0.4371424812232314,-0.14425388449682555,-1.091640801695864,0.020115541370508062,-0.00621288836107889,-0.05175253778610369,0,70,255.0,255.0,255.0
343,17.150000000000002,14.508693022276077,6.175885807516491,-10.009843394407222,0.43812881410997506,-0.14456058318379877,-1.0941707363820925,0.01933777409923817,-0.006055059117848443,-0.049444849663029346,0,70,255.0,255.0,255.0
344,17.2,14.530623311129505,6.16865027529559,-10.064612775751684,0.4390762586331552,-0.14485939040861037,-1.096585286662167,0.018560006827968333,-0.005897229874618006,-0.04713716153995516,0,70,255.0,255.0,255.0
345,17.25,14.5526,6.1614,-10.1195,0.4399848147927718,-0.1451503061712605,-1.098884452536088,0.017782239556700663,-0.005739400631386893,-0.044829473416877264,0,70,255.0,255.0,255.0
346,17.3,14.57462185334961,6.154135045903149,-10.174500883195151,0.4408970154021236,-0.1454531484528079,-1.1011633498013478,0.01870578481737201,-0.006374290630508126,-0.0463264171935162,0,70,255.0,255.0,255.0
347,17.35,14.596690471161264,6.14685415607972,-10.229617582433283,0.441855393274509,-0.14578773523431132,-1.1035170942554398,0.019629330078043353,-0.007009180629629359,-0.04782336097015514,0,70,255.0,255.0,255.0
348,17.400000000000002,14.618808162298112,6.139555743304719,-10.284853840073843,0.442859948409928,-0.14615406651577084,-1.1059456858983634,0.0205528753387147,-0.007644070628750593,-0.04932030474679407,0,70,255.0,255.0,255.0
349,17.45,14.640977235623305,6.132238220353145,-10.340213398476266,0.4439106808083805,-0.14655214229718636,-1.108449124730119,0.021476420599385978,-0.00827896062787178,-0.050817248523432904,0,70,255.0,255.0,255.0
350,17.5,14.6632,6.1249,-10.3957,0.4450075904698666,-0.146981962578558,-1.1110274107507065,0.02239996586005688,-0.008913850626993014,-0.05231419230007184,0,70,255.0,255.0,255.0
351,17.55,14.685477964308413,6.117539951945603,-10.451316829908334,0.44610267841858475,-0.14741611184107575,-1.1136471181911247,0.02140355208866945,-0.008452119873717294,-0.05247410531665189,0,70,255.0,255.0,255.0
352,17.6,14.707809437497051,6.11015877359152,-10.507064845079961,0.44714794567873356,-0.14782717456592975,-1.1162748212823719,0.02040713831728202,-0.007990389120441574,-0.05263401833323194,0,70,255.0,255.0,255.0
353,17.650000000000002,14.730191928531479,6.1027576192646364,-10.56294444529742,0.44814339225031297,-0.14821515075311992,-1.1189105200244478,0.019410724545894587,-0.007528658367165855,-0.052793931349811994,0,70,255.0,255.0,255.0
354,17.7,14.75262294637727,6.095337643291836,-10.61895603034325,0.449089018133323,-0.1485800404026463,-1.121554214417353,0.01841431077450723,-0.0070669276138901685,-0.05295384436639203,0,70,255.0,255.0,255.0
355,17.75,14.7751,6.0879,-10.6751,0.4499848233277637,-0.14892184351450893,-1.124205904461087,0.01741789700311891,-0.0066051968606144484,-0.05311375738297208,0,70,255.0,255.0,255.0
356,17.8,14.797621489416736,6.080445946314443,-10.731375797171516,0.4508842709235409,-0.1492344041828893,-1.1268081774341607,0.018560006827968694,-0.005897229874600542,-0.05097716153997883,0,70,255.0,255.0,255.0
357,17.85,14.820189378850543,6.0729771495542,-10.787779037246882,0.4518408240105606,-0.149511566501969,-1.1293036206150848,0.01970211665281848,-0.005189262888586634,-0.04884056569698559,0,70,255.0,255.0,255.0
358,17.900000000000002,14.84280652357598,6.065495379636735,-10.84430437873649,0.45285448258882277,-0.149753330471748,-1.1316922340038595,0.020844226477668263,-0.004481295902572727,-0.04670396985399234,0,70,255.0,255.0,255.0
359,17.95,14.86547577886761,6.058002406479513,-10.90094648015073,0.45392524665832734,-0.14995969609222626,-1.1339740176004842,0.021986336302517968,-0.0037733289165588703,-0.04456737401099925,0,70,255.0,255.0,255.0
360,18.0,14.8882,6.0505,-10.9577,0.45505311621907446,-0.15013066336340386,-1.1361489714049593,0.023128446127367308,-0.003065361930544963,-0.04243077816800955,0,70,255.0,255.0,255.0
361,18.05,14.910980878024644,6.042989062796626,-11.014561581405609,0.4561682378872433,-0.1503182714273645,-1.1383361720722442,0.021476420599386325,-0.004438960627880758,-0.04505724852337959,0,70,255.0,255.0,255.0
362,18.1,14.933815447100784,6.0354670281916825,-11.071535805932523,0.45720075827901313,-0.15057455942619197,-1.1406546962572972,0.01982439507140534,-0.005812559325216554,-0.047683718878749635,0,70,255.0,255.0,255.0
363,18.150000000000002,14.956699577164605,6.027930462188427,-11.128629239756634,0.45815067739438387,-0.15089952735988618,-1.143104543960119,0.018172369543424355,-0.00718615802255235,-0.05031018923411967,0,70,255.0,255.0,255.0
364,18.2,14.979629138152282,6.020375930790113,-11.185848449053827,0.45901799523335557,-0.15129317522844715,-1.1456857151807092,0.01652034401544349,-0.008559756719888047,-0.052936659589489524,0,70,255.0,255.0,255.0
365,18.25,15.0026,6.0128,-11.2432,0.4598027117959282,-0.15175550303187496,-1.148398209919068,0.014868318487462506,-0.0099333554172234,-0.05556312994485957,0,70,255.0,255.0,255.0
366,18.3,15.025609398484692,6.0052002024990525,-11.30068827720606,0.4605867775274784,-0.15222851010765312,-1.1511111342768503,0.01649431077454555,-0.008986927613902549,-0.05295384436642539,0,70,255.0,255.0,255.0
367,18.35,15.04866003274632,5.997577937679071,-11.358308939023038,0.46145214287338276,-0.15265419579326522,-1.1536935943557105,0.018120303061628595,-0.008040499810581699,-0.05034455878799121,0,70,255.0,255.0,255.0
368,18.400000000000002,15.071755967765604,5.989935571609562,-11.416055462236985,0.4623988078336413,-0.1530325600887113,-1.1561455901556494,0.019746295348711643,-0.007094072007260847,-0.04773527320955704,0,70,255.0,255.0,255.0
369,18.45,15.094901268523255,5.982275470360036,-11.473921323633952,0.46342677240825386,-0.1533636029939913,-1.158467121676666,0.021372287635794573,-0.0061476442039400635,-0.04512598763112305,0,70,255.0,255.0,255.0
370,18.5,15.1181,5.9746,-11.5319,0.46453603659722065,-0.15364732450910526,-1.1606581889187617,0.022998279922878062,-0.005201216400618547,-0.04251670205269065,0,70,255.0,255.0,255.0
371,18.55,15.141355128036588,5.966910927207162,-11.589986909770154,0.46566065200285467,-0.15391968814203416,-1.162835290820354,0.021986336302483863,-0.005693328916537295,-0.04456737401100031,0,70,255.0,255.0,255.0
372,18.6,15.164665221913936,5.959207621092033,-11.648185237975335,0.46673467022746906,-0.154216657400759,-1.1651149263198617,0.020974392682089664,-0.006185441432456043,-0.046618045969309976,0,70,255.0,255.0,255.0
373,18.650000000000002,15.188027751772987,5.951488851373323,-11.70650011129544,0.46775809127106366,-0.15453823228527977,-1.167497095417285,0.019962449061695465,-0.006677553948374791,-0.04866871792761964,0,70,255.0,255.0,255.0
374,18.7,15.211440187754691,5.943753387769743,-11.764936656410361,0.46873091513363857,-0.15488441279559645,-1.1699817981126237,0.01895050544130134,-0.007169666464293505,-0.05071938988592916,0,70,255.0,255.0,255.0
375,18.75,15.2349,5.936,-11.8235,0.4696531418151938,-0.15525519893170914,-1.1725690344058777,0.017938561820909804,-0.007661778980212031,-0.052770061844233496,0,70,255.0,255.0,255.0
376,18.8,15.25840528936895,5.928228088672298,-11.882193683713329,0.4705626144611026,-0.15561273732421133,-1.175163702441721,0.018440344015439977,-0.006639756719875208,-0.05101665958949259,0,70,255.0,255.0,255.0
377,18.85,15.28195667959794,5.920439577952796,-11.941014909075626,0.4714971762167378,-0.15591917460369667,-1.177670700364827,0.01894212620997015,-0.005617734459538386,-0.04926325733475169,0,70,255.0,255.0,255.0
378,18.900000000000002,15.305555425142453,5.912637022897145,-11.999959292581266,0.47245682708209963,-0.15617451077016517,-1.1800900281751963,0.01944390840450032,-0.004595712199201563,-0.04750985508001079,0,70,255.0,255.0,255.0
379,18.95,15.329202780457978,5.904822978560996,-12.0590224507246,0.47344156705718776,-0.15637874582361683,-1.1824216858728278,0.019945690599030456,-0.0035736899388648137,-0.045756452825270015,0,70,255.0,255.0,255.0
380,19.0,15.3529,5.897,-12.1182,0.47445139614200266,-0.15653187976405164,-1.1846656734577228,0.020447472793560184,-0.002551667678526659,-0.04400305057052023,0,70,255.0,255.0,255.0
381,19.05,15.37664771448761,5.889169518103648,-12.17748875537654,0.4754488901527366,-0.1567013625611138,-1.1868938994127647,0.01945228763579799,-0.004227644203960714,-0.04512598763115749,0,70,255.0,255.0,255.0
382,19.1,15.40044405969431,5.881328467096783,-12.236890325722161,0.4763966249055825,-0.1569546441844477,-1.1891782722208386,0.018457102478035798,-0.005903620729394769,-0.04624892469179474,0,70,255.0,255.0,255.0
383,19.150000000000002,15.424286547657204,5.873472657038098,-12.29640751837951,0.4772946004005402,-0.1572917246340533,-1.191518791881944,0.017461917320273603,-0.007579597254828823,-0.047371861752432,0,70,255.0,255.0,255.0
384,19.200000000000003,15.448172690413399,5.865597897986274,-12.35604314069124,0.4781428166376099,-0.1577126039099306,-1.193915458396082,0.01646673216251141,-0.009255573780262878,-0.048494798813069256,0,70,255.0,255.0,255.0
385,19.25,15.4721,5.8577,-12.4158,0.4789412736167913,-0.15821728201207955,-1.196368271763251,0.015471547004747066,-0.010931550305696147,-0.04961773587370111,0,70,255.0,255.0,255.0
386,19.3,15.49606705268061,5.8497762389131145,-12.475680094780511,0.4797538249279426,-0.1587178124313296,-1.1988286999072402,0.017030505441306354,-0.00908966646430624,-0.04879938988586295,0,70,255.0,255.0,255.0
387,19.35,15.520076681624824,5.841829753660068,-12.535682188035738,0.48064432416092195,-0.1591262486585102,-1.2012482107518372,0.018589463877865642,-0.007247782622916335,-0.0479810438980248,0,70,255.0,255.0,255.0
388,19.400000000000002,15.544132784228735,5.833865148950465,-12.595804233900706,0.4816127713157292,-0.15944259069362127,-1.2036268042970426,0.02014842231442493,-0.00540589878152643,-0.047162697910186645,0,70,255.0,255.0,255.0
389,19.450000000000003,15.568239257888429,5.825887029493907,-12.656044186510451,0.48265916639236445,-0.15966683853666283,-1.205964480542856,0.021707380750984218,-0.003564014940136523,-0.04634435192234849,0,70,255.0,255.0,255.0
390,19.5,15.5924,5.8179,-12.7164,0.48378350939082754,-0.15979899218763494,-1.2082612394892773,0.023266339187542062,-0.0017221310987469707,-0.045526005934510394,0,70,255.0,255.0,255.0
391,19.55,15.616617674789946,5.809907126243894,-12.77687006550142,0.4849118101354926,-0.1599313877135748,-1.2105433009582718,0.02186569059906034,-0.0035736899388473286,-0.04575645282526644,0,70,255.0,255.0,255.0
392,19.6,15.640890013806393,5.801905318262942,-12.837454522134905,0.48597007845073364,-0.16015636118151969,-1.212836884771804,0.02046504201057862,-0.0054252487789476864,-0.04598689971602248,0,70,255.0,255.0,255.0
393,19.650000000000002,15.665213515427864,5.793889947160042,-12.898153946017677,0.4869583143365505,-0.16047391259146956,-1.2151419909298742,0.019064393422096898,-0.0072768076190480434,-0.04621734660677853,0,70,255.0,255.0,255.0
394,19.700000000000003,15.68958467803289,5.7858563840380945,-12.95896891326697,0.48787651779294333,-0.16088404194342448,-1.217458619432482,0.01766374483361518,-0.009128366459148402,-0.04644779349753458,0,70,255.0,255.0,255.0
395,19.75,15.714,5.7778,-13.0199,0.48872468881991205,-0.16138674923738439,-1.2197867702796275,0.016263096245133113,-0.01097992529924774,-0.046678240388290604,0,70,255.0,255.0,255.0
396,19.8,15.738456648159602,5.769717656111307,-13.080947643213811,0.4895429345301023,-0.16189263671437212,-1.2221180962596623,0.01646673216247603,-0.009255573780261959,-0.04657479881310458,0,70,255.0,255.0,255.0
397,19.85,15.762954463149608,5.761612173288161,-13.142111723424655,0.49037136203615966,-0.1623123066154106,-1.224444250160938,0.016670368079818948,-0.007531222261276178,-0.04647135723791855,0,70,255.0,255.0,255.0
398,19.900000000000002,15.787493954059817,5.753487862409364,-13.203391982028593,0.4912099713380842,-0.16264575894049976,-1.2267652319834543,0.016874003997161865,-0.005806870742290397,-0.046367915662732524,0,70,255.0,255.0,255.0
399,19.950000000000003,15.812075629980017,5.74534903435371,-13.264788160421691,0.4920587624358759,-0.16289299368963964,-1.2290810417272113,0.017077639914504783,-0.004082519223304617,-0.0462644740875465,0,70,255.0,255.0,255.0
400,20.0,15.8367,5.7372,-13.3263,0.49291773532953465,-0.16305401086283025,-1.2313916793922086,0.0172812758318468,-0.0023581677043196247,-0.0461610325123587,0,70,255.0,255.0,255.0
401,20.05,15.861367732571651,5.729043849310879,-13.387927361643339,0.4937964517441048,-0.16320206542894167,-1.2337043140030763,0.017867380750957916,-0.003564014940137178,-0.0463443519223489,0,70,255.0,255.0,255.0
402,20.1,15.886080133595177,5.720878788584408,-13.449670584166483,0.4947044734046305,-0.16341041235684398,-1.2360261145844436,0.01845348567006903,-0.004769862175954731,-0.046527671332339086,0,70,255.0,255.0,255.0
403,20.150000000000002,15.91083866833288,5.712701803202498,-13.511530125867962,0.4956418003111117,-0.16367905164653715,-1.2383570811363103,0.019039590589180148,-0.005975709411772286,-0.04671099074232928,0,70,255.0,255.0,255.0
404,20.200000000000003,15.935644802047056,5.704509878547058,-13.573506445046291,0.49660843246354847,-0.16400798329802121,-1.2406972136586767,0.019625695508291262,-0.007181556647589839,-0.04689431015231947,0,70,255.0,255.0,255.0
405,20.25,15.9605,5.6963,-13.6356,0.49760436986194073,-0.16439720731129615,-1.2430465121515424,0.020211800427402782,-0.00838740388340753,-0.04707762956231498,0,70,255.0,255.0,255.0
406,20.3,15.9854052215538,5.688070146645174,-13.697810910212837,0.498599258493467,-0.1647871015698597,-1.2453846477280388,0.01958374483364559,-0.007208366459135168,-0.04644779349753597,0,70,255.0,255.0,255.0
407,20.35,16.010359402469685,5.6798222723742,-13.760137939909418,0.49956274434530534,-0.16511804395720966,-1.247691291501296,0.0189556892398884,-0.006029329034862807,-0.04581795743275697,0,70,255.0,255.0,255.0
408,20.400000000000002,16.03536097260867,5.671559324780639,-13.822579514499584,0.5004948274174558,-0.16539003447334602,-1.2499664434713145,0.01832763364613121,-0.004850291610590446,-0.04518812136797796,0,70,255.0,255.0,255.0
409,20.450000000000003,16.06040836183177,5.663284251458052,-13.885134059393165,0.5013955077099185,-0.16560307311826872,-1.252210103638094,0.01769957805237402,-0.0036712541863180848,-0.04455828530319895,0,70,255.0,255.0,255.0
410,20.5,16.0855,5.655,-13.9478,0.5022647852226932,-0.16575715989197778,-1.2544222720016343,0.01707152245861554,-0.0024922167620451408,-0.04392844923842354,0,70,255.0,255.0,255.0
411,20.55,16.110634581213148,5.646708364108424,-14.01057619750532,0.5031185142820221,-0.16592152829161197,-1.256629095084783,0.017077639914537635,-0.0040825192233220125,-0.044344474087515455,0,70,255.0,255.0,255.0
412,20.6,16.135811856526082,5.638406521918788,-14.073463256195856,0.503972549214147,-0.16616541181431,-1.258856719410386,0.01708375737045973,-0.005672821684598884,-0.04476049893660737,0,70,255.0,255.0,255.0
413,20.650000000000002,16.161031841232443,5.630090497674941,-14.136462216133733,0.5048268900190681,-0.16648881046007186,-1.2611051449784436,0.017089874826381822,-0.007263124145875756,-0.045176523785699294,0,70,255.0,255.0,255.0
414,20.700000000000003,16.186294550625867,5.621756315620729,-14.199574117381076,0.5056815366967853,-0.1668917242288976,-1.2633743717889558,0.017095992282303917,-0.008853426607152628,-0.04559254863479121,0,70,255.0,255.0,255.0
415,20.75,16.2116,5.6134,-14.2628,0.5065364892472984,-0.16737415312078707,-1.2656643998419228,0.017102109738226012,-0.010443729068429164,-0.04600857348389198,0,70,255.0,255.0,255.0
416,20.8,16.23694845359361,5.605018796921134,-14.326140299765898,0.5074066843784598,-0.1678627852636879,-1.2679389719328282,0.01770569550822768,-0.00910155664760273,-0.044974310152328896,0,70,255.0,255.0,255.0
417,20.85,16.262341171425987,5.596614839950649,-14.389593035307175,0.5083070587981212,-0.16828430878554734,-1.2701618308571558,0.018309281278229346,-0.007759384226776295,-0.04394004682076581,0,70,255.0,255.0,255.0
418,20.900000000000002,16.287779662461563,5.588191484519596,-14.453155620965505,0.5092376125062829,-0.1686387236863655,-1.272332976614905,0.018912867048231013,-0.0064172118059498615,-0.04290578348920273,0,70,255.0,255.0,255.0
419,20.950000000000003,16.31326543566476,5.579752086059029,-14.516825471082559,0.5101983455029444,-0.16892602996614237,-1.274452409206076,0.01951645281823268,-0.005075039385123427,-0.04187152015763965,0,70,255.0,255.0,255.0
420,21.0,16.3388,5.5713,-14.5806,0.511189257788106,-0.16914622762487788,-1.2765201286306689,0.0201200385882343,-0.003732866964296866,-0.04083725682607664,0,70,255.0,255.0,255.0
421,21.05,16.364384404412416,5.562838048207041,-14.6444778034311,0.512182748204121,-0.1693313306536428,-1.278607017183901,0.019619578052369305,-0.0036712541863005202,-0.04263828530320313,0,70,255.0,255.0,255.0
422,21.1,16.390017857769966,5.5543669182786175,-14.708462202575456,0.513151215593343,-0.16951335304350795,-1.2807839571609891,0.01911911751650431,-0.0036096414083041746,-0.04443931378032962,0,70,255.0,255.0,255.0
423,21.150000000000002,16.415699108921306,5.545886764246672,-14.772557700004265,0.5140946599557715,-0.16969229479447323,-1.283050948561934,0.018618656980639314,-0.0035480286303078284,-0.046240342257456116,0,70,255.0,255.0,255.0
424,21.200000000000003,16.441426906715098,5.537397740143152,-14.836768798288716,0.5150130812914069,-0.16986815590653873,-1.285407991386735,0.01811819644477432,-0.0034864158523114828,-0.0480413707345826,0,70,255.0,255.0,255.0
425,21.25,16.4672,5.5289,-14.9011,0.515906479600249,-0.17004093637970435,-1.287855085635392,0.017617735908910248,-0.0034248030743149194,-0.049842399211708965,0,70,255.0,255.0,255.0
426,21.3,16.49301712875672,5.5203930102507,-14.96555408650971,0.5167743228050311,-0.17025189212174086,-1.2902889593315554,0.017095992282371946,-0.005013426607144322,-0.0475125486348254,0,70,255.0,255.0,255.0
427,21.35,16.518876997494147,5.511873486934882,-15.030126954391008,0.5176160788284863,-0.1705422790404188,-1.2926063404988748,0.01657424865583364,-0.006602050139973726,-0.04518269805794184,0,70,255.0,255.0,255.0
428,21.400000000000002,16.544778301853214,5.503337458493713,-15.094812779017452,0.5184317476706145,-0.17091209713573824,-1.2948072291373498,0.01605250502929534,-0.008190673672803128,-0.042852847481058276,0,70,255.0,255.0,255.0
429,21.450000000000003,16.570719737474853,5.494780953368363,-15.1596057357626,0.5192213293314157,-0.17136134640769912,-1.2968916252469804,0.015530761402757035,-0.009779297205632533,-0.04052299690417471,0,70,255.0,255.0,255.0
430,21.5,16.5967,5.4862,-15.2245,0.5199848238108901,-0.17189002685630148,-1.298859528827767,0.015009017776217881,-0.011367920738461601,-0.03819314632729309,0,70,255.0,255.0,255.0
431,21.55,16.622718280560697,5.477592310790159,-15.28949145053006,0.5207519605757516,-0.17239710085939172,-1.3008131454898895,0.015676452818241603,-0.008915039385148493,-0.03995152015761188,0,70,255.0,255.0,255.0
432,21.6,16.648775752253442,5.468962333981855,-15.354582779860518,0.5215524690927142,-0.17278153079481634,-1.3028546808435282,0.016343887860265322,-0.006462158031835382,-0.041709893987930666,0,70,255.0,255.0,255.0
433,21.650000000000002,16.674874083665838,5.460316201778472,-15.41977838392594,0.5223863493617781,-0.17304331666257528,-1.3049841348886826,0.017011322902289044,-0.004009276678522273,-0.043468267818249445,0,70,255.0,255.0,255.0
434,21.700000000000003,16.701014943385488,5.451660046383391,-15.485082658660913,0.5232536013829432,-0.17318245846266858,-1.3072015076253531,0.017678757944312767,-0.0015563953252091638,-0.04522664164856823,0,70,255.0,255.0,255.0
435,21.75,16.7272,5.443,-15.5505,0.5241542251562094,-0.17319895619509623,-1.3095067990535396,0.01834619298633644,0.000896486028102661,-0.04698501547888867,0,70,255.0,255.0,255.0
436,21.8,16.753430549000484,5.434340146588663,-15.616033711370049,0.5250658348919854,-0.17321570444070072,-1.3118344587088764,0.018118196444707198,-0.0015664158522820234,-0.046121370734586255,0,70,255.0,255.0,255.0
437,21.85,16.779706393492084,5.425676377137696,-15.681682726166935,0.5259660448006801,-0.17335559778032444,-1.3141189361269983,0.01789019990307796,-0.004029317732666708,-0.04525772599028383,0,70,255.0,255.0,255.0
438,21.900000000000002,16.806026963483436,5.417002534392397,-15.7474448852788,0.5268548548822933,-0.1736186362139674,-1.3163602313079048,0.017662203361448716,-0.006492219613051391,-0.04439408124598142,0,70,255.0,255.0,255.0
439,21.950000000000003,16.832391688983193,5.408312461098066,-15.813318029593773,0.5277322651368249,-0.17400481974162957,-1.3185583442515967,0.017434206819819473,-0.008955121493436077,-0.043530436501678996,0,70,255.0,255.0,255.0
440,22.0,16.8588,5.3996,-15.8793,0.5285982755642753,-0.17451414836331097,-1.3207132749580728,0.017206210278191136,-0.011418023373820585,-0.04266679175737664,0,70,255.0,255.0,255.0
441,22.05,16.88525152343736,5.390860702855187,-15.945388903989747,0.5294646998562988,-0.17504408137779773,-1.3228410196746114,0.01745076140275153,-0.009779297205649294,-0.04244299690416966,0,70,255.0,255.0,255.0
442,22.1,16.911746673778236,5.38209695746736,-16.01158391547175,0.5303433517045505,-0.1754920780838759,-1.3249575746484898,0.01769531252731192,-0.008140571037478004,-0.04221920205096267,0,70,255.0,255.0,255.0
443,22.150000000000002,16.938286062400422,5.37331286065194,-16.077884474958886,0.53123423110903,-0.17585813848154555,-1.3270629398797078,0.01793986365187231,-0.006501844869306713,-0.041995407197755685,0,70,255.0,255.0,255.0
444,22.200000000000003,16.964870300681742,5.364512509224346,-16.144290022964018,0.5321373380697377,-0.1761422625708066,-1.3291571153682655,0.018184414776432702,-0.004863118701135423,-0.0417716123445487,0,70,255.0,255.0,255.0
445,22.25,16.9915,5.3557,-16.2108,0.5330526725866732,-0.1763444503516591,-1.3312401011141624,0.018428965900988636,-0.003224392532964915,-0.04154781749134351,0,70,255.0,255.0,255.0
446,22.3,17.01817535725006,5.346878641990587,-16.27741387267097,0.5339553656828074,-0.1765119700481138,-1.3333134625926597,0.01767875794437951,-0.0034763953252225956,-0.041386641648546524,0,70,255.0,255.0,255.0
447,22.35,17.044894911394984,5.338048592992862,-16.344131211946067,0.5348205483811111,-0.17669208988418136,-1.335378765279017,0.01692854998777038,-0.0037283981174802763,-0.041225465805749546,0,70,255.0,255.0,255.0
448,22.400000000000002,17.071656786914875,5.329209222999841,-16.410951614885672,0.5356482206815845,-0.17688480985986182,-1.3374360091732347,0.016178342031161252,-0.003980400909737957,-0.04106428996295256,0,70,255.0,255.0,255.0
449,22.450000000000003,17.09845910828985,5.320359902004547,-16.477874678550187,0.5364383825842274,-0.1770901299751552,-1.3394851942753123,0.015428134074552126,-0.004232403701995638,-0.040903114120155584,0,70,255.0,255.0,255.0
450,22.5,17.1253,5.3115,-16.5449,0.5371910340890397,-0.1773080502300614,-1.3415263205852503,0.014677926117941276,-0.004484406494253523,-0.04074193827736039,0,70,255.0,255.0,255.0
451,22.55,17.15217824756239,5.302628729182462,-16.61202760532637,0.5379458374124838,-0.17754803842975259,-1.3435851299547281,0.015514206819825039,-0.005115121493393557,-0.04161043650175104,0,70,255.0,255.0,255.0
452,22.6,17.179095280641835,5.293744670561191,-16.679259236743995,0.5387424547710222,-0.17781956237940078,-1.3456873642354255,0.0163504875217088,-0.005745836492533592,-0.042478934726141684,0,70,255.0,255.0,255.0
453,22.650000000000002,17.20605318994008,5.28484624734869,-16.746597065498435,0.5395808861646547,-0.17812262207900595,-1.3478330234273423,0.017186768223592566,-0.006376551491673626,-0.04334743295053233,0,70,255.0,255.0,255.0
454,22.700000000000003,17.233054066158886,5.275931882757459,-16.81404326283525,0.5404611315933815,-0.17845721752856814,-1.3500221075304788,0.018023048925476327,-0.00700726649081366,-0.04421593117492298,0,70,255.0,255.0,255.0
455,22.75,17.2601,5.267,-16.8816,0.5413831910572023,-0.17882334872808733,-1.3522546165448346,0.01885932962735648,-0.007637981489954315,-0.045084429399313564,0,70,255.0,255.0,255.0
456,22.8,17.287192452500374,5.2580496412795625,-16.94926850602355,0.5423092846672953,-0.17918387623286536,-1.3544740175884311,0.018184414776361093,-0.006783118701165623,-0.04369161234454351,0,70,255.0,255.0,255.0
457,22.85,17.314330366037687,5.249082324762371,-17.017046241077963,0.5432016325348384,-0.1795016605982039,-1.3566237777792889,0.017509499925365705,-0.005928255912376932,-0.042298795289773455,0,70,255.0,255.0,255.0
458,22.900000000000002,17.341512053324816,5.240100187605399,-17.084929723120602,0.5440602346598319,-0.17977670182410305,-1.3587038971174084,0.016834585074370315,-0.00507339312358824,-0.0409059782350034,0,70,255.0,255.0,255.0
459,22.950000000000003,17.368735827074634,5.231105366965618,-17.15291547010883,0.5448850910422754,-0.18000899991056274,-1.3607143756027895,0.016159670223374927,-0.004218530334799549,-0.03951316118023335,0,70,255.0,255.0,255.0
460,23.0,17.396,5.2221,-17.221,0.5456762016821692,-0.18019855485758302,-1.3626552132354317,0.0154847553723787,-0.0033636675460102516,-0.03812034412545984,0,70,255.0,255.0,255.0
461,23.05,17.423303142436115,5.21308550569929,-17.289180770579428,0.5464490239183425,-0.18038845663878358,-1.3645827996915705,0.015428134074552347,-0.004232403702012379,-0.03898311412009222,0,70,255.0,255.0,255.0
462,23.1,17.450644855207422,5.204060430389324,-17.357458998944153,0.5472190150896246,-0.18062179522778427,-1.366553524647441,0.015371512776725991,-0.005101139858014505,-0.03984588411472461,0,70,255.0,255.0,255.0
463,23.150000000000002,17.478024996760666,5.195022602229714,-17.42583684201917,0.5479861751960152,-0.18089857062458503,-1.3685673881030431,0.015314891478899638,-0.005969876014016632,-0.04070865410935699,0,70,255.0,255.0,255.0
464,23.200000000000003,17.50544342554261,5.185969849380069,-17.494316456729457,0.5487505042375145,-0.1812187828291859,-1.3706243900583768,0.015258270181073282,-0.006838612170018759,-0.041571424103989375,0,70,255.0,255.0,255.0
465,23.25,17.5329,5.1769,-17.5629,0.5495120022141226,-0.1815824318415869,-1.372724530513442,0.015201648883246044,-0.007707348326019936,-0.04243419409861815,0,70,255.0,255.0,255.0
466,23.3,17.560394977755163,5.167811535923278,-17.631589211658746,0.5502946196593407,-0.1819502972120069,-1.3748427836452806,0.016103048925478636,-0.007007266490779686,-0.04229593117492669,0,70,255.0,255.0,255.0
467,23.35,17.58793021313264,5.158705553680329,-17.700384163145426,0.5511223071066704,-0.18228315849066487,-1.3769541236309346,0.017004448967711232,-0.006307184655539436,-0.04215766825123523,0,70,255.0,255.0,255.0
468,23.400000000000002,17.61550795963253,5.14958380347574,-17.769284508802734,0.5519950645561118,-0.18258101567756085,-1.379058550470404,0.017905849009943825,-0.005607102820299185,-0.04201940532754377,0,70,255.0,255.0,255.0
469,23.450000000000003,17.643130470754954,5.140448035514101,-17.83828990297337,0.5529128920076648,-0.18284386877269482,-1.381156064163689,0.018807249052176418,-0.004907020985058934,-0.041881142403852316,0,70,255.0,255.0,255.0
470,23.5,17.6708,5.1313,-17.9074,0.5538757894613293,-0.1830717177760667,-1.3832466647107895,0.01970864909440806,-0.004206939149817623,-0.04174287948016264,0,70,255.0,255.0,255.0
471,23.55,17.69851774654324,5.122141150607599,-17.9766143827856,0.5548204974442738,-0.18328235451318256,-1.385326065727301,0.018079670223369936,-0.004218530334816384,-0.041433161180296094,0,70,255.0,255.0,255.0
472,23.6,17.726280692262037,5.112971754889361,-18.04593234847415,0.5556837564836664,-0.18349357080954834,-1.387389980828819,0.016450691352331813,-0.004230121519815145,-0.041123442880429545,0,70,255.0,255.0,255.0
473,23.650000000000002,17.754084764709216,5.103791783867323,-18.1153531227699,0.556465566579507,-0.18370536666516407,-1.389438410015344,0.01482171248129369,-0.004241712704813905,-0.04081372458056299,0,70,255.0,255.0,255.0
474,23.700000000000003,17.781925891437595,5.094601208563524,-18.184875931377103,0.5571659277317957,-0.18391774208002976,-1.3914713532868754,0.013192733610255566,-0.004253303889812666,-0.04050400628069644,0,70,255.0,255.0,255.0
475,23.75,17.8098,5.0854,-18.2545,0.5577848399405326,-0.18413069705414534,-1.3934888106434136,0.011563754739220222,-0.004264895074811426,-0.04019428798082991,0,70,255.0,255.0,255.0
476,23.8,17.837704436071885,5.076187861646326,-18.324224457198866,0.5584073905635418,-0.1843602847352662,-1.3954849534455325,0.013338270181146885,-0.004918612170023061,-0.039651424103923805,0,70,255.0,255.0,255.0
477,23.85,17.865642217819225,5.066963426762228,-18.394048042957994,0.5591186669586473,-0.18462255827114765,-1.397453953053806,0.01511278562307355,-0.005572329265234695,-0.039108560227017704,0,70,255.0,255.0,255.0
478,23.900000000000002,17.89361778153062,5.057725061054964,-18.463969400117687,0.5599186691258492,-0.18491751766178968,-1.3993958094682344,0.016887301065000214,-0.00622604636044633,-0.038565696350111596,0,70,255.0,255.0,255.0
479,23.950000000000003,17.921635563494675,5.0484711302318015,-18.533987171518252,0.5608073970651474,-0.18524516290719228,-1.4013105226888172,0.018661816506926877,-0.006879763455657965,-0.038022832473205495,0,70,255.0,255.0,255.0
480,24.0,17.9497,5.0392,-18.6041,0.5617848507765417,-0.18560549400735543,-1.4031980927155547,0.020436331948852526,-0.0075334805508693314,-0.03747996859629943,0,70,255.0,255.0,255.0
481,24.05,17.97781410916922,5.029910602807096,-18.674306988418945,0.5627659403015657,-0.18596450654575308,-1.405086120490559,0.018807249052106886,-0.006827020985036903,-0.038041142403863054,0,70,255.0,255.0,255.0
482,24.1,18.00597523646108,5.02060413806173,-18.744609079693895,0.5636655756817525,-0.18628819610585914,-1.407002206955941,0.01717816615536125,-0.006120561419204475,-0.038602316211426686,0,70,255.0,255.0,255.0
483,24.150000000000002,18.03417930916832,5.011282371912815,-18.81500767675938,0.5644837569171018,-0.18657656268767353,-1.4089463521117016,0.015549083258615612,-0.005414101853372048,-0.03916349001899031,0,70,255.0,255.0,255.0
484,24.200000000000003,18.06242225458371,5.001947070509267,-18.88550418254991,0.5652204840076139,-0.18682960629119635,-1.41091855595784,0.013920000361869973,-0.0047076422875396194,-0.03972466382655394,0,70,255.0,255.0,255.0
485,24.25,18.0907,4.9926,-18.9561,0.5658757569532888,-0.18704732691642753,-1.4129188184943569,0.012290917465124451,-0.0040011827217070195,-0.04028583763411042,0,70,255.0,255.0,255.0
486,24.3,18.119009527251222,4.98324252712529,-19.026796389125362,0.5665128482301751,-0.18725368908171597,-1.4149385645922288,0.01319273361032566,-0.004253303889829544,-0.04050400628076183,0,70,255.0,255.0,255.0
487,24.35,18.147352036336468,4.973874420990855,-19.09759403826643,0.5671950303143214,-0.1874726573054105,-1.416969219122433,0.014094549755526868,-0.004505425057952069,-0.04072217492741324,0,70,255.0,255.0,255.0
488,24.400000000000002,18.17572978179611,4.964495051293775,-19.168493492844817,0.5679223032057278,-0.18770423158751118,-1.4190107820849702,0.014996365900728075,-0.004757546226074594,-0.040940343574064654,0,70,255.0,255.0,255.0
489,24.450000000000003,18.2041450181705,4.95510378773113,-19.239495298282133,0.5686946669043943,-0.18794841192801795,-1.4210632534798395,0.015898182045929285,-0.005009667394197118,-0.04115851222071606,0,70,255.0,255.0,255.0
490,24.5,18.2326,4.9457,-19.3106,0.5695121214103206,-0.18820519832693083,-1.4231266333070418,0.016799998191125987,-0.0052617885623180705,-0.041376680867376336,0,70,255.0,255.0,255.0
491,24.55,18.261096581825885,4.936283288691745,-19.381807455079606,0.5703506667777702,-0.18846073712738032,-1.4251596211405546,0.016741816506860907,-0.004959763455661732,-0.03994283247313673,0,70,255.0,255.0,255.0
492,24.6,18.289635018193042,4.9268541779748505,-19.453114767240397,0.5711863030610067,-0.18870117467249703,-1.4271209165543557,0.016683634822595828,-0.004657738349005394,-0.038508984078897114,0,70,255.0,255.0,255.0
493,24.650000000000002,18.31821516364725,4.917413422912084,-19.52451835186138,0.5720190302600299,-0.18892651096228089,-1.4290105195484444,0.016625453138330745,-0.0043557132423490555,-0.037075135684657506,0,70,255.0,255.0,255.0
494,24.700000000000003,18.34683687273431,4.907961778566212,-19.59601462432158,0.5728488483748397,-0.18913674599673191,-1.4308284301228213,0.016567271454065665,-0.004053688135692717,-0.0356412872904179,0,70,255.0,255.0,255.0
495,24.75,18.3755,4.8985,-19.6676,0.5736757574054364,-0.18933187977585014,-1.4325746482774864,0.016509089769798813,-0.0037516630290359565,-0.03420743889618727,0,70,255.0,255.0,255.0
496,24.8,18.404204145445227,4.889028318107729,-19.739272190556214,0.574484484658728,-0.18954336240876452,-1.4343269508455552,0.01584000036186576,-0.004707642287539851,-0.03588466382656075,0,70,255.0,255.0,255.0
497,24.85,18.432947890891366,4.879544867109742,-19.811034092772,0.575259757441623,-0.18980264400460414,-1.4361631146601426,0.015170910953932706,-0.005663621546043745,-0.037561888756934225,0,70,255.0,255.0,255.0
498,24.900000000000002,18.461729563614888,4.8700472570578865,-19.882889899709674,0.5760015757541214,-0.19010972456336891,-1.4380831397212486,0.014501821545999653,-0.006619600804547639,-0.03923911368730771,0,70,255.0,255.0,255.0
499,24.950000000000003,18.490547490892272,4.860533098004023,-19.95484380443157,0.576709939596223,-0.19046460408505891,-1.4400870260288734,0.0138327321380666,-0.007575580063051533,-0.04091633861768119,0,70,255.0,255.0,255.0
500,25.0,18.5194,4.851,-20.0269,0.577384848967928,-0.19086728256967403,-1.4421747735830166,0.013163642730133596,-0.008531559321554694,-0.04259356354806165,0,70,255.0,255.0,255.0
501,25.05,18.548286036393193,4.841446638877334,-20.099061382695535,0.5780633945873314,-0.19125381323756768,-1.4442685754772362,0.013978182045999977,-0.006929667394191806,-0.04115851222072171,0,70,255.0,255.0,255.0
502,25.1,18.5772070182415,4.831875953586183,-20.171325661671624,0.578782667172528,-0.1915602493090932,-1.4462906248050886,0.014792721361866358,-0.00532777546682892,-0.03972346089338177,0,70,255.0,255.0,255.0
503,25.150000000000002,18.606164981893208,4.822291948856364,-20.24368924929994,0.5795426667235181,-0.1917865907842506,-1.4482409215665744,0.01560726067773274,-0.0037258835394660336,-0.038288409566041834,0,70,255.0,255.0,255.0
504,25.200000000000003,18.635161963696614,4.812698629417697,-20.31614855795217,0.5803433932403014,-0.19193283766303984,-1.4501194657616931,0.01642179999359912,-0.0021239916121031464,-0.036853358238701894,0,70,255.0,255.0,255.0
505,25.25,18.6642,4.8031,-20.3887,0.5811848467228778,-0.19199898994546094,-1.4519262573904448,0.017236339309463666,-0.0005220996847405956,-0.03541830691136738,0,70,255.0,255.0,255.0
506,25.3,18.69328050898201,4.793498726382933,-20.461340678661653,0.5820299369919626,-0.19206538464097145,-1.4537027472454898,0.016567271453927813,-0.0021336881356800903,-0.03564128729042224,0,70,255.0,255.0,255.0
507,25.35,18.72240243614265,4.783892118545526,-20.534070460541532,0.5828415738682707,-0.19221235875902895,-1.455490386119487,0.01589820359839196,-0.003745276586619585,-0.03586426766947711,0,70,255.0,255.0,255.0
508,25.400000000000002,18.751564108812293,4.774276147516654,-20.606889903090586,0.5836197573518018,-0.19243991229963342,-1.4572891740124374,0.015229135742856108,-0.00535686503755908,-0.03608724804853197,0,70,255.0,255.0,255.0
509,25.450000000000003,18.780763854321286,4.764646784325187,-20.67979956375976,0.5843644874425562,-0.19274804526278488,-1.4590991109243403,0.014560067887320255,-0.006968453488498574,-0.036310228427586834,0,70,255.0,255.0,255.0
510,25.5,18.81,4.755,-20.7528,0.5850757641405339,-0.19313675764848323,-1.460920196855196,0.013891000031782674,-0.008580041939436844,-0.03653320880664879,0,70,255.0,255.0,255.0
511,25.55,18.839271127678774,4.7453328555909335,-20.825891902657858,0.5857688574447835,-0.19354064819854544,-1.4627604355408046,0.013832732138202707,-0.00757558006305071,-0.03707633861769467,0,70,255.0,255.0,255.0
512,25.6,18.8685768371879,4.735646772231708,-20.89907649616226,0.5864590373543541,-0.19389431565478832,-1.4646278307169653,0.01377446424462274,-0.006571118186664575,-0.037619468428740546,0,70,255.0,255.0,255.0
513,25.650000000000002,18.897916982857634,4.725944261077017,-20.972355138337733,0.5871463038692458,-0.1941977600172119,-1.4665223823836786,0.013716196351042773,-0.0055666563102784415,-0.038162598239786426,0,70,255.0,255.0,255.0
514,25.700000000000003,18.92729141901825,4.716227833281551,-21.045729187008803,0.5878306569894584,-0.19445098128581614,-1.4684440905409442,0.013657928457462805,-0.004562194433892307,-0.038705728050832305,0,70,255.0,255.0,255.0
515,25.75,18.9567,4.7065,-21.1192,0.5885120967149922,-0.19465397946060112,-1.4703929551887618,0.013599660563881955,-0.0035577325575053553,-0.0392488578618746,0,70,255.0,255.0,255.0
516,25.8,18.986142980302887,4.696762651253334,-21.192768510706923,0.5892146332289275,-0.19484402256484165,-1.472343510591276,0.014501799993534105,-0.004043991612115912,-0.03877335823869785,0,70,255.0,255.0,255.0
517,25.85,19.01562221510575,4.687015192527637,-21.266433954809443,0.5899622767143456,-0.19505837862181272,-1.4742702910126317,0.015403939423186255,-0.004530250666726468,-0.038297858615521096,0,70,255.0,255.0,255.0
518,25.900000000000002,19.04513995975718,4.677256408175274,-21.340195143558503,0.5907550271712462,-0.1952970476315143,-1.4761732964528282,0.016306078852838406,-0.0050165097213370246,-0.03782235899234434,0,70,255.0,255.0,255.0
519,25.950000000000003,19.07469846960574,4.667485082548606,-21.414050888205043,0.5915928845996294,-0.19556002959394642,-1.4780525269118663,0.017208218282490556,-0.00550276877594758,-0.03734685936916759,0,70,255.0,255.0,255.0
520,26.0,19.1043,4.6577,-21.488,0.5924758489994952,-0.19584732450910905,-1.479907982389745,0.018110357712142644,-0.005989027830558102,-0.03687135974598377,0,70,255.0,255.0,255.0
521,26.05,19.133945751109685,4.6479005393957324,-21.562041254514455,0.5933406096394817,-0.19612326154208556,-1.481737522094086,0.016480067887315264,-0.0050484534885025445,-0.03631022842765574,0,70,255.0,255.0,255.0
522,26.1,19.16363270238909,4.638088457657743,-21.636173284599977,0.5941238557882268,-0.1963521698579593,-1.4835390052325106,0.014849778062487882,-0.0041078791464469865,-0.03574909710932771,0,70,255.0,255.0,255.0
523,26.150000000000002,19.193356778113657,4.628266106221887,-21.710394687428273,0.5948255874457306,-0.19653404945673028,-1.4853124318050188,0.0132194882376605,-0.0031673048043914286,-0.03518796579099968,0,70,255.0,255.0,255.0
524,26.200000000000003,19.22311390255881,4.6184358365240215,-21.78470406017105,0.5954458046119928,-0.19666890033839846,-1.4870578018116107,0.01158919841283312,-0.0022267304623358707,-0.03462683447267164,0,70,255.0,255.0,255.0
525,26.25,19.2529,4.6086,-21.8591,0.5959845072870138,-0.19675672250296386,-1.488775115252286,0.009958908588004078,-0.0012861561202803795,-0.0340657031543401,0,70,255.0,255.0,255.0
526,26.3,19.282712415258366,4.598759991163737,-21.933581671235267,0.5965269282131522,-0.19685493126681786,-1.490498401032412,0.011737928457534989,-0.0026421944338794493,-0.03486572805070339,0,70,255.0,255.0,255.0
527,26.35,19.312554175337873,4.58891337684139,-22.00815050679066,0.5971583001327674,-0.1970209419463518,-1.4922616880573563,0.013516948327065898,-0.003998232747478519,-0.035665752947066684,0,70,255.0,255.0,255.0
528,26.400000000000002,19.3424297277882,4.579056766937174,-22.08280850672842,0.5978786230458589,-0.1972547545415657,-1.4940649763271188,0.015295968196596808,-0.005354271061077589,-0.03646577784342998,0,70,255.0,255.0,255.0
529,26.450000000000003,19.372343520159017,4.569186771355305,-22.157557671110784,0.598687896952427,-0.19755636905245957,-1.4959082658416993,0.017074988066127717,-0.006710309374676659,-0.037265802739793276,0,70,255.0,255.0,255.0
530,26.5,19.4023,4.5593,-22.2324,0.5995861218524716,-0.19792578547903333,-1.497791556601098,0.018854007935656725,-0.008066347688274966,-0.03806582763615651,0,70,255.0,255.0,255.0
531,26.55,19.432302187856855,4.5493938959493185,-22.30733686054449,0.6004876775079236,-0.19831301339063923,-1.4996768737762327,0.017208218282421917,-0.007422768775959989,-0.03734685936923369,0,70,255.0,255.0,255.0
532,26.6,19.462347396259418,4.539469234976696,-22.3823670882374,0.6013069436807138,-0.19866806235662934,-1.5015262425380216,0.015562428629187107,-0.006779189863645011,-0.036627891102310864,0,70,255.0,255.0,255.0
533,26.650000000000002,19.49243151073355,4.529527626029416,-22.457488885658073,0.6020439203708424,-0.19899093237700372,-1.503339662886464,0.013916638975952297,-0.006135610951330034,-0.03590892283538804,0,70,255.0,255.0,255.0
534,26.700000000000003,19.522550416805124,4.519570678054756,-22.532700455385825,0.6026986075783091,-0.19928162345176234,-1.5051171348215602,0.012270849322717488,-0.005492032039015057,-0.035189954568465215,0,70,255.0,255.0,255.0
535,26.75,19.5527,4.5096,-22.608,0.6032710053031141,-0.19954013558090522,-1.5068586583433103,0.010625059669484571,-0.004848453126699681,-0.03447098630154244,0,70,255.0,255.0,255.0
536,26.8,19.582877233314225,4.49961722503899,-22.683386086586783,0.603826361755172,-0.199765015170631,-1.5085861038626673,0.011589198412833582,-0.004146730462331395,-0.03462683447273847,0,70,255.0,255.0,255.0
537,26.85,19.61308343962447,4.489624083251823,-22.758858740259747,0.6044299251443974,-0.19995480862713838,-1.510321341790584,0.012553337156182592,-0.0034450077979631087,-0.0347826826439345,0,70,255.0,255.0,255.0
538,26.900000000000002,19.643321029277615,4.479622328945163,-22.834418350639318,0.6050816954707903,-0.2001095159504273,-1.5120643721270608,0.013517475899531603,-0.002743285133594823,-0.03493853081513053,0,70,255.0,255.0,255.0
539,26.950000000000003,19.673592412620504,4.469613716425667,-22.910065307345928,0.6057816727343506,-0.20022913714049784,-1.5138151948720973,0.014481614642880614,-0.0020415624692265368,-0.03509437898632656,0,70,255.0,255.0,255.0
540,27.0,19.7039,4.4596,-22.9858,0.6065298569350784,-0.20031367219735,-1.5155738100256935,0.01544575338623222,-0.0013398398048580784,-0.03525022715751902,0,70,255.0,255.0,255.0
541,27.05,19.73424567888627,4.449582003894722,-23.06162279310839,0.6072948754713875,-0.20041892592683816,-1.517338710773123,0.015154988066131555,-0.0028703093746679674,-0.035345802739659864,0,70,255.0,255.0,255.0
542,27.1,19.764629245242705,4.439556832016009,-23.137533950723636,0.6080453557416916,-0.2006007031348168,-1.5191083902996596,0.01486422274603089,-0.004400778944477856,-0.0354413783218007,0,70,255.0,255.0,255.0
543,27.150000000000002,19.795049972156008,4.429520658189932,-23.213533711784677,0.6087812977459907,-0.20085900382128594,-1.5208828486053032,0.014573457425930223,-0.005931248514287744,-0.03553695390394154,0,70,255.0,255.0,255.0
544,27.200000000000003,19.825507132712872,4.419469656242571,-23.289622315230485,0.6095027014842846,-0.20119382798624558,-1.5226620856900537,0.014282692105829558,-0.007461718084097633,-0.03563252948608238,0,70,255.0,255.0,255.0
545,27.25,19.856,4.4094,-23.3658,0.6102095669565736,-0.20160517562969565,-1.524446101553911,0.01399192678573069,-0.008992187653906303,-0.035728105068217886,0,70,255.0,255.0,255.0
546,27.3,19.886528051140704,4.3993091593821205,-23.442066740979655,0.6109141363592847,-0.202015281122019,-1.5262190530448299,0.014190849322713996,-0.007412032039027205,-0.035189954568533105,0,70,255.0,255.0,255.0
547,27.35,19.917091579404712,4.389199788684143,-23.518421456845733,0.6116286518888451,-0.20234637883359838,-1.5279650970107643,0.014389771859697304,-0.005831876424148107,-0.03465180406884832,0,70,255.0,255.0,255.0
548,27.400000000000002,19.94769108209837,4.379075838295106,-23.594862802221986,0.6123531135452545,-0.2025984687644338,-1.5296842334517147,0.01458869439668061,-0.00425172080926901,-0.034113653569163536,0,70,255.0,255.0,255.0
549,27.450000000000003,19.97832705652802,4.368941258604045,-23.671389431732162,0.6130875213285131,-0.2027715509145253,-1.5313764623676807,0.014787616933663917,-0.002671565194389912,-0.033575503069478756,0,70,255.0,255.0,255.0
550,27.5,20.009,4.3588,-23.748,0.6138318752386209,-0.20286562528387278,-1.5330417837586625,0.014986539470649873,-0.0010914095795098167,-0.03303735256979756,0,70,255.0,255.0,255.0
551,27.55,20.03971011655093,4.348654958576795,-23.824693442972986,0.6145685790914592,-0.20294394958509077,-1.5346970770475659,0.014481614642882328,-0.0020415624692094927,-0.03317437898633209,0,70,255.0,255.0,255.0
552,27.6,20.070456437138457,4.3385048132474155,-23.901469821893443,0.6152800367029092,-0.20306978153079372,-1.5363592216572957,0.013976689815114782,-0.0029917153589091687,-0.03331140540286662,0,70,255.0,255.0,255.0
553,27.650000000000002,20.101237699450525,4.32834718862964,-23.9783294793274,0.6159662480729707,-0.2032431211209817,-1.5380282175878526,0.013471764987347236,-0.003941868248608845,-0.033448431819401145,0,70,255.0,255.0,255.0
554,27.700000000000003,20.13205264117506,4.318179709341242,-24.055272757840907,0.6166272132016439,-0.20346396835565464,-1.539704064839236,0.01296684015957969,-0.004892021138308521,-0.03358545823593567,0,70,255.0,255.0,255.0
555,27.75,20.1629,4.308,-24.1323,0.6172629320889287,-0.20373232323481252,-1.5413867634114462,0.012461915331812179,-0.005842174028008129,-0.03372248465247196,0,70,255.0,255.0,255.0
556,27.8,20.1937786826556,4.2978062063107005,-24.209411487128406,0.6178835472748698,-0.20401692053761528,-1.5430726387649083,0.012362692105834227,-0.0055417180841016616,-0.03371252948601437,0,70,255.0,255.0,255.0
557,27.85,20.224688272041465,4.2875985583261915,-24.286607255580524,0.6184992012995122,-0.2042864950432227,-1.5447580163600476,0.012263468879856274,-0.005241262140195193,-0.03370257431955679,0,70,255.0,255.0,255.0
558,27.900000000000002,20.255628520099535,4.2773778071863315,-24.36388728046844,0.6191098941628556,-0.20454104675163481,-1.5464428961968641,0.01216424565387832,-0.004940806196288726,-0.0336926191530992,0,70,255.0,255.0,255.0
559,27.950000000000003,20.28659917877173,4.26714470403098,-24.44125153690424,0.6197156258648999,-0.20478057566285157,-1.5481272782753575,0.012065022427900368,-0.004640350252382258,-0.03368266398664162,0,70,255.0,255.0,255.0
560,28.0,20.3176,4.2569,-24.5187,0.6203163964056455,-0.20500508177687304,-1.5498111625955282,0.011965799201920646,-0.004339894308476033,-0.03367270882018758,0,70,255.0,255.0,255.0
561,28.05,20.348631152826673,4.246644216180401,-24.596232608513407,0.6209372318090353,-0.205228368264445,-1.5514923678927717,0.012867616933669281,-0.004591565194401962,-0.033575503069549484,0,70,255.0,255.0,255.0
562,28.1,20.37969447469568,4.236376953447817,-24.673849155784488,0.6216031580990125,-0.20546423829631325,-1.5531687129024832,0.013769434665417916,-0.004843236080327891,-0.03347829731891139,0,70,255.0,255.0,255.0
563,28.150000000000002,20.41079222015135,4.226097582625032,-24.751549398798865,0.6223141752755771,-0.2057126918724778,-1.5548401976246629,0.01467125239716655,-0.00509490696625382,-0.033381091568273284,0,70,255.0,255.0,255.0
564,28.200000000000003,20.441926643738014,4.215805474534831,-24.82933309454216,0.623070283338729,-0.20597372899293862,-1.5565068220593106,0.015573070128915185,-0.005346577852179749,-0.03328388581763519,0,70,255.0,255.0,255.0
565,28.25,20.4731,4.2055,-24.9072,0.6238714822884687,-0.20624734965769578,-1.5581685862064263,0.01647488786066642,-0.005598248738105438,-0.03318668006700065,0,70,255.0,255.0,255.0
566,28.3,20.504313506037708,4.195180928967692,-24.985150078817977,0.6246555254889765,-0.20650960640460572,-1.559837889664,0.01488684015964432,-0.004892021138291137,-0.033585458235938156,0,70,255.0,255.0,255.0
567,28.35,20.53556422917581,4.184849627882539,-25.063184121281544,0.6253601663044331,-0.2067365517715249,-1.5615271320300201,0.01329879245862222,-0.004185793538476836,-0.033984236404875655,0,70,255.0,255.0,255.0
568,28.400000000000002,20.566848199295066,4.174507862313539,-25.14130312433612,0.6259854047348388,-0.2069281857584534,-1.5632363133044875,0.01171074475760012,-0.0034795659386625353,-0.03438301457381316,0,70,255.0,255.0,255.0
