idx,t,px,py,pz,vx,vy,vz,ax,ay,az,yaw,mode,ledr,ledg,ledb
0,0.0,4.5,4.5,0.0,-0.0006705774365768054,0.0008305070723454338,0.0011515753877670912,-0.0015530707610914886,-0.01396608486817141,-0.04821890465320508,0,70,255.0,255.0,255.0
1,0.05,4.499963859212283,4.500024298254604,-3.3432860403847092e-06,-0.0007884656208258816,0.00014603325327777977,-0.0012982753216271377,-0.0031624566088715583,-0.01341286789453475,-0.04977512372256407,0,70,255.0,255.0,255.0
2,0.1,4.499919812283045,4.500015064339473,-0.0001311243813871796,-0.0009868230974639613,-0.0005107797171080412,-0.003825936984489316,-0.004771842456651628,-0.012859650920898089,-0.05133134279192306,0,70,255.0,255.0,255.0
3,0.15000000000000002,4.4998638357476635,4.499973681297039,-0.0003872338337137822,-0.0012656498664910445,-0.0011399318388120297,-0.0064314096008194445,-0.006381228304431699,-0.01230643394726143,-0.052887561861282045,0,70,255.0,255.0,255.0
4,0.2,4.499791906141521,4.499901532169735,-0.0007755621906935899,-0.0016249459279071312,-0.001741423111834184,-0.00911469317061752,-0.007990614152211768,-0.011753216973624768,-0.054443780930641034,0,70,255.0,255.0,255.0
5,0.25,4.4997,4.4998,-0.0013,-0.002064711281712221,-0.002315253536174506,-0.011875787693883547,-0.00959999999999184,-0.011199999999988105,-0.05600000000000005,0,70,255.0,255.0,255.0
6,0.30000000000000004,4.499584093858478,4.499670467830263,-0.001964437809306411,-0.002584945927906315,-0.002861423111832995,-0.014714693170617526,-0.01120938584777191,-0.010646783026351445,-0.057556219069359,0,70,255.0,255.0,255.0
7,0.35000000000000003,4.499440164252336,4.4995143187029605,-0.0027727661662862186,-0.0031856498664894124,-0.0033799318388096507,-0.01763140960081945,-0.012818771695551977,-0.010093566052714787,-0.059112438138717964,0,70,255.0,255.0,255.0
8,0.4,4.499264187716955,4.499332935660528,-0.0037288756186128215,-0.0038668230974615125,-0.0038707797171044734,-0.02062593698448932,-0.014428157543332045,-0.00954034907907813,-0.06066865720807692,0,70,255.0,255.0,255.0
9,0.45,4.499052140787716,4.499127701745396,-0.004836656713959616,-0.004628465620822616,-0.004333966746717464,-0.023698275321627136,-0.016037543391112113,-0.008987132105441472,-0.06222487627743587,0,70,255.0,255.0,255.0
10,0.5,4.4988,4.4989,-0.0061,-0.005470577436572724,-0.00476949292764862,-0.026848424612232906,-0.017646929238892183,-0.008433915131804824,-0.06378109534679482,0,70,255.0,255.0,255.0
11,0.55,4.498505365353805,4.498650630424341,-0.007521305476733976,-0.006295750667545343,-0.005212340805943983,-0.029986951995902778,-0.015360000000012516,-0.009280000000009643,-0.06175999999999998,0,70,255.0,255.0,255.0
12,0.6000000000000001,4.498172330707611,4.498378060848681,-0.009097010953467951,-0.007006577436573977,-0.005697492927649586,-0.03302442461223291,-0.01307307076113285,-0.010126084868214463,-0.05973890465320514,0,70,255.0,255.0,255.0
13,0.65,4.497806613384514,4.498080176060852,-0.010822063691834938,-0.007603057743658628,-0.006224949292765429,-0.03596084246122329,-0.010786141522253188,-0.01097216973641928,-0.057717809306410295,0,70,255.0,255.0,255.0
14,0.7000000000000001,4.49741393070761,4.497754860848683,-0.012691410953467952,-0.008085191588799296,-0.006794709901291513,-0.03879620554287394,-0.00849921228337352,-0.011818254604624101,-0.05569671395961545,0,70,255.0,255.0,255.0
15,0.75,4.497,4.4974,-0.0147,-0.00845297897199598,-0.007406774753227838,-0.041530513857184835,-0.006212283044493866,-0.012664339472828946,-0.05367561861282044,0,70,255.0,255.0,255.0
16,0.8,4.4965688447262995,4.497014210472372,-0.016843940283757693,-0.008808051401913621,-0.008017213664389608,-0.04423349884577137,-0.007990614152211768,-0.011753216973641829,-0.05444378093064099,0,70,255.0,255.0,255.0
17,0.8500000000000001,4.496117712917219,4.496599037902311,-0.01912399001984199,-0.009252040387217157,-0.008582096450592023,-0.04697489195024893,-0.009768945259929671,-0.010842094474454712,-0.05521194324846155,0,70,255.0,255.0,255.0
18,0.9,4.495642158744988,4.496156760096062,-0.02154206961404744,-0.009784945927906586,-0.009101423111835079,-0.04975469317061752,-0.01154727636764757,-0.009930971975267594,-0.0559801055662821,0,70,255.0,255.0,255.0
19,0.9500000000000001,4.495137736381838,4.495689654859875,-0.024100099472168592,-0.010406768023981916,-0.009575193648118782,-0.05257290250687715,-0.013325607475365472,-0.009019849476080477,-0.05674826788410266,0,70,255.0,255.0,255.0
20,1.0,4.4946,4.4952,-0.0268,-0.011117506675443133,-0.010003408059443128,-0.055429519959027784,-0.015103938583083273,-0.008108726976893368,-0.057516430201922764,0,70,255.0,255.0,255.0
21,1.05,4.494025655740995,4.494689327686169,-0.02964373338823526,-0.01184804372479813,-0.010430804536501073,-0.058327052621011746,-0.014117543391116557,-0.008987132105424414,-0.058384876277435785,0,70,255.0,255.0,255.0
22,1.1,4.493416017623514,4.4941561875420755,-0.03263342896716411,-0.012529261014554791,-0.01090212126998557,-0.06126800758677137,-0.013131148199149841,-0.009865537233955462,-0.0592533223529488,0,70,255.0,255.0,255.0
23,1.1500000000000001,4.492773551635533,4.493598383554898,-0.03577125785197533,-0.013161158544713114,-0.011417358259896619,-0.06425238485630665,-0.012144753007183123,-0.010743942362486507,-0.06012176842846182,0,70,255.0,255.0,255.0
24,1.2000000000000002,4.492100723765035,4.493013719711812,-0.039059391157857705,-0.013743736315273102,-0.011976515506234221,-0.06728018442961756,-0.011158357815216407,-0.011622347491017555,-0.06099021450397484,0,70,255.0,255.0,255.0
25,1.25,4.4914,4.4924,-0.0425,-0.014276994326234752,-0.012579593008998372,-0.07035140630670411,-0.01017196262324957,-0.012500752619548583,-0.06185866057948819,0,70,255.0,255.0,255.0
26,1.3,4.490673332309718,4.491755678782949,-0.04609392616330129,-0.014791773698900218,-0.01318756818960269,-0.07338629067018171,-0.010419212283369034,-0.011818254604624111,-0.05953671395961541,0,70,255.0,255.0,255.0
27,1.35,4.4899206165887255,4.491081811929385,-0.04983669411150162,-0.015318915554571657,-0.013761418469460785,-0.07630507770266566,-0.010666461943488498,-0.01113575658969964,-0.05721476733974264,0,70,255.0,255.0,255.0
28,1.4000000000000001,4.489141234712876,4.490380105684349,-0.05372249897805131,-0.01585841989324907,-0.014301143848572654,-0.07910776740415597,-0.010913711603607962,-0.010453258574775168,-0.05489282071986987,0,70,255.0,255.0,255.0
29,1.4500000000000002,4.4883345685580185,4.489652266292874,-0.05774553589640066,-0.016410286714932453,-0.014806744326938301,-0.08179435977465264,-0.011160961263727426,-0.009770760559850697,-0.05257087409999709,0,70,255.0,255.0,255.0
30,1.5,4.4875,4.4889,-0.0619,-0.016974516019621806,-0.015278219904557725,-0.08436485481415569,-0.011408210923846751,-0.009088262544926326,-0.05024892748012422,0,70,255.0,255.0,255.0
31,1.55,4.486637015020134,4.488124757182036,-0.0661821619585596,-0.017544861479601798,-0.015730922705083323,-0.08694378469826136,-0.01140560747535283,-0.009019849476097571,-0.05290826788410239,0,70,255.0,255.0,255.0
32,1.6,4.48574551602158,4.487326964740383,-0.07059659458682946,-0.018115076767157092,-0.016180204852167486,-0.08965568160256593,-0.011403004026858909,-0.008951436407268818,-0.055567608288080564,0,70,255.0,255.0,255.0
33,1.6500000000000001,4.484825509512958,4.4865067937077105,-0.07514994623581951,-0.01868516188228769,-0.016626066345810205,-0.09250054552706942,-0.01140040057836499,-0.008883023338440063,-0.058226948692058744,0,70,255.0,255.0,255.0
34,1.7000000000000002,4.483877002002892,4.485664415116692,-0.07984886525653972,-0.01925511682499359,-0.01706850718601149,-0.09547837647177182,-0.011397797129871068,-0.008814610269611308,-0.06088628909603691,0,70,255.0,255.0,255.0
35,1.75,4.4829,4.4848,-0.0847,-0.01982494159527479,-0.017507527372771333,-0.0985891744366731,-0.01139519368137712,-0.00874619720078254,-0.06354562950001552,0,70,255.0,255.0,255.0
36,1.8,4.481894607609746,4.483913292488906,-0.08970782600246033,-0.020388780382690055,-0.01796874099006602,-0.10170257053677287,-0.011158357815233439,-0.009702347491004943,-0.06099021450397524,0,70,255.0,255.0,255.0
37,1.85,4.480861319324952,4.483002329109085,-0.0948681275411806,-0.020940777376798135,-0.018477762121871827,-0.10468819588707064,-0.010921521949089756,-0.010658497781227346,-0.05843479950793495,0,70,255.0,255.0,255.0
38,1.9000000000000001,4.479800727235287,4.482064719484811,-0.1001745160786707,-0.021480932577599032,-0.019034590768188756,-0.10754605048756638,-0.010684686082946076,-0.011614648071449749,-0.05587938451189466,0,70,255.0,255.0,255.0
39,1.9500000000000002,4.478713423430415,4.481098073240357,-0.10562060307744055,-0.022009245985092744,-0.019639226929016804,-0.1102761343382601,-0.010447850216802395,-0.012570798361672152,-0.05332396951585438,0,70,255.0,255.0,255.0
40,2.0,4.4776,4.4801,-0.1112,-0.02252571759927927,-0.020291670604355966,-0.11287844743915182,-0.01021101435065877,-0.013526948651894521,-0.05076855451981466,0,70,255.0,255.0,255.0
41,2.0500000000000003,4.476460554540883,4.479069272862339,-0.11690813403159914,-0.023060016989638926,-0.020922113334649488,-0.11546193315464713,-0.011160961263727386,-0.011690760559846271,-0.05257087409999733,0,70,255.0,255.0,255.0
42,2.1,4.475293206678608,4.478009318823278,-0.12274769524844821,-0.02364181372565201,-0.021460746660340594,-0.11813553484915156,-0.012110908176795995,-0.009854572467798035,-0.05437319368017999,0,70,255.0,255.0,255.0
43,2.15,4.474095581545892,4.476924728353048,-0.12872318944949773,-0.02427110780731852,-0.021907570581429288,-0.1208992525226651,-0.013060855089864602,-0.008018384375749803,-0.05617551326036265,0,70,255.0,255.0,255.0
44,2.2,4.472865304275449,4.475820091921879,-0.1348391224336982,-0.024947899234638467,-0.022262585097915573,-0.12375308617518783,-0.014010802002933219,-0.006182196283701551,-0.05797783284054532,0,70,255.0,255.0,255.0
45,2.25,4.4716,4.4747,-0.1411,-0.025672188007611844,-0.022525790209799442,-0.12669703580671965,-0.014960748916001826,-0.004346008191653344,-0.05978015242072754,0,70,255.0,255.0,255.0
46,2.3000000000000003,4.470298374226718,4.473567216061738,-0.1475092378711433,-0.02637915165875813,-0.0228068056713316,-0.12966569684463877,-0.013317797129849492,-0.00689461026963287,-0.05896628909603673,0,70,255.0,255.0,255.0
47,2.35,4.468963453960612,4.472417195597802,-0.15406589146502667,-0.027003967720596794,-0.02321525123676273,-0.13259366471632333,-0.011674845343697175,-0.009443212347612372,-0.05815242577134594,0,70,255.0,255.0,255.0
48,2.4000000000000004,4.467599346581147,4.471243567102998,-0.1607679261233384,-0.027546636193127846,-0.023751126906092837,-0.1354809394217734,-0.01003189355754484,-0.011991814425591897,-0.05733856244665513,0,70,255.0,255.0,255.0
49,2.45,4.4662101594677885,4.470039959072128,-0.16761330718776674,-0.02800715707635128,-0.024414432679321918,-0.13832752096098883,-0.008388941771392521,-0.0145404165035714,-0.05652469912196434,0,70,255.0,255.0,255.0
50,2.5,4.4648,4.4688,-0.1746,-0.0283855303702671,-0.02520516855644997,-0.1411334093339698,-0.006745989985240286,-0.01708901858155082,-0.055710835797274205,0,70,255.0,255.0,255.0
51,2.5500000000000003,4.463371548552242,4.467519462890709,-0.18172611448382786,-0.02876737637531871,-0.025994663980030006,-0.14390727946679804,-0.008527850216823972,-0.014490798361650556,-0.05524396951585468,0,70,255.0,255.0,255.0
52,2.6,4.461921777478942,4.466202698785513,-0.18899033889144531,-0.029238315391949498,-0.02665424839261503,-0.1466578062855553,-0.01030971044840764,-0.011892578141750317,-0.054777103234435166,0,70,255.0,255.0,255.0
53,2.6500000000000004,4.460446232129522,4.464856203234964,-0.1963915060571489,-0.029798347420159476,-0.02718392179420504,-0.14938498979024156,-0.012091570679991327,-0.009294357921850054,-0.05431023695301564,0,70,255.0,255.0,255.0
54,2.7,4.4589404578534,4.46348647178961,-0.20392844881523495,-0.03044747245994863,-0.027583684184800037,-0.15208882998085685,-0.013873430911574997,-0.006696137701949814,-0.05384337067159612,0,70,255.0,255.0,255.0
55,2.75,4.4574,4.4621,-0.2116,-0.03118569051131697,-0.02785353556440002,-0.1547693268574012,-0.015655291143158723,-0.004097917482049518,-0.05337650439017683,0,70,255.0,255.0,255.0
56,2.8000000000000003,4.455821831564313,4.460701332375427,-0.21940550419354546,-0.03192734283996927,-0.028110538408543797,-0.15745718528816927,-0.014010802002933212,-0.006182196283701558,-0.05413783284054486,0,70,255.0,255.0,255.0
57,2.85,4.454208636123621,4.459287209260145,-0.22734635296919226,-0.03258677071161029,-0.028471755192770173,-0.16018311014145567,-0.012366312862707715,-0.008266475085353579,-0.05489916129091288,0,70,255.0,255.0,255.0
58,2.9000000000000004,4.45256452490077,4.457852419957149,-0.2354244496480664,-0.033163974126240045,-0.028937185917079156,-0.16294710141726054,-0.010721823722482204,-0.010350753887005619,-0.05566048974128091,0,70,255.0,255.0,255.0
59,2.95,4.450893609118612,4.456391753769435,-0.2436416975512936,-0.033658953083858516,-0.029506830581470737,-0.16574915911558377,-0.009077334582256708,-0.01243503268865764,-0.05642181819164893,0,70,255.0,255.0,255.0
60,3.0,4.4492,4.4549,-0.252,-0.03407170758446572,-0.030180689185944916,-0.16858928323642544,-0.007432845442031044,-0.01451931149030955,-0.057183146642017624,0,70,255.0,255.0,255.0
61,3.0500000000000003,4.447486725190505,4.453373607607585,-0.26050066874199046,-0.034467252264800886,-0.03085918238579248,-0.171431979380525,-0.008388941771375419,-0.012620416503592824,-0.056524699121964825,0,70,255.0,255.0,255.0
62,3.1,4.445752478026579,4.4518156641739095,-0.26914264923178577,-0.03491060176160326,-0.0314427308363042,-0.17424175314862195,-0.009345038100719785,-0.010721521516876116,-0.05586625160191203,0,70,255.0,255.0,255.0
63,3.1500000000000004,4.443994868267402,4.450230916936443,-0.277924295350586,-0.03540175607487286,-0.03193133453748009,-0.17701860454071622,-0.010301134430064158,-0.008822626530159392,-0.05520780408185923,0,70,255.0,255.0,255.0
64,3.2,4.442211505672151,4.448624113132651,-0.2868439609795907,-0.03594071520460968,-0.03232499348932014,-0.17976253355680785,-0.011257230759408524,-0.006923731543442684,-0.054549356561806435,0,70,255.0,255.0,255.0
65,3.25,4.4404,4.447,-0.2959,-0.0365274791508137,-0.03262370769182436,-0.18247354019689682,-0.012213327088752723,-0.005024836556725976,-0.05389090904175298,0,70,255.0,255.0,255.0
66,3.3000000000000003,4.438558467673673,4.445361837194236,-0.3050910208384928,-0.037131648100822444,-0.03291673204829083,-0.1851668971897306,-0.011953430911596539,-0.006696137701932779,-0.05384337067159661,0,70,255.0,255.0,255.0
67,3.35,4.436687051770066,4.443706934044216,-0.3144166501036646,-0.03772282224197336,-0.03329332146201763,-0.18785787726405648,-0.011693534734440358,-0.008367438847139566,-0.05379583230144025,0,70,255.0,255.0,255.0
68,3.4000000000000004,4.434786402029623,4.442031112297079,-0.32387676894959005,-0.038301001574266476,-0.03375347593300478,-0.1905464804198746,-0.011433638557284175,-0.01003873999234637,-0.053748293931283886,0,70,255.0,255.0,255.0
69,3.45,4.432857168192787,4.440330193699962,-0.3334712585303436,-0.038866186097701774,-0.03429719546125227,-0.1932327066571849,-0.011173742380127992,-0.011710041137553157,-0.05370075556112752,0,70,255.0,255.0,255.0
70,3.5,4.4309,4.4386,-0.3432,-0.03941837581227926,-0.03492448004676009,-0.19591655597598734,-0.010913846202971533,-0.013381342282760111,-0.0536532171909716,0,70,255.0,255.0,255.0
71,3.5500000000000003,4.428915404114807,4.436837443615473,-0.35306324790403837,-0.03996615533190986,-0.03556988942104554,-0.19862043186055287,-0.01099733458225216,-0.012435032688657683,-0.054501818191648795,0,70,255.0,255.0,255.0
72,3.6,4.42690331489316,4.4350437996492245,-0.36306275035355584,-0.04051810927050448,-0.03616798331562586,-0.20136673779515224,-0.011080822961532788,-0.011488723094555262,-0.05535041919232597,0,70,255.0,255.0,255.0
73,3.6500000000000004,4.424863523614108,4.4332214338752385,-0.37320062885105426,-0.04107423762806314,-0.036718761730501065,-0.20415547377978546,-0.011164311340813415,-0.010542413500452834,-0.056199020193003164,0,70,255.0,255.0,255.0
74,3.7,4.422795821556704,4.431372712067502,-0.383479004899035,-0.04163454040458582,-0.03722222466567115,-0.20698663981445253,-0.011247799720094043,-0.009596103906350413,-0.05704762119368034,0,70,255.0,255.0,255.0
75,3.75,4.4207,4.4295,-0.3939,-0.04219901760007253,-0.03767837212113611,-0.20986023589915348,-0.011331288099374504,-0.00864979431224816,-0.05789622219435664,0,70,255.0,255.0,255.0
76,3.8000000000000003,4.418575915867097,4.427605188343874,-0.4044647875453537,-0.04276373057154211,-0.038115710267528274,-0.21271937536805757,-0.011257230759408442,-0.008843731543438217,-0.05646935656180644,0,70,255.0,255.0,255.0
77,3.85,4.4164236886572965,4.425688267358888,-0.41517074848211194,-0.04332474067601338,-0.03856274527547993,-0.2155071715553341,-0.011183173419442383,-0.009037668774628272,-0.055042490929256255,0,70,255.0,255.0,255.0
78,3.9000000000000004,4.414243503513946,4.423748752201966,-0.4260143156461934,-0.04388204791348635,-0.0390194771449911,-0.21822362446098323,-0.011109116079476322,-0.009231606005818328,-0.05361562529670606,0,70,255.0,255.0,255.0
79,3.95,4.412035545580397,4.42178615803003,-0.4369919218735165,-0.04443565228396101,-0.039485905876061766,-0.22086873408500474,-0.01103505873951026,-0.009425543237008383,-0.05218875966415588,0,70,255.0,255.0,255.0
80,4.0,4.4098,4.4198,-0.4481,-0.04498555378743737,-0.03996203146869194,-0.22344250042739874,-0.01096100139954409,-0.009619480468198494,-0.05076189403160414,0,70,255.0,255.0,255.0
81,4.05,4.407536932416804,4.417789803009035,-0.4593360019145467,-0.04553892238192874,-0.04044726950883584,-0.22600606666721706,-0.011173742380110784,-0.009790041137557614,-0.05178075556112866,0,70,255.0,255.0,255.0
82,4.1000000000000005,4.405245930477657,4.415755130915226,-0.47070145571799643,-0.04610292802544845,-0.04094103558244771,-0.22862057598351163,-0.011386483360677482,-0.009960601806916738,-0.05279961709065321,0,70,255.0,255.0,255.0
83,4.15,4.402926462330107,4.413695557316899,-0.4821989085641726,-0.0466775707179965,-0.041443329689527526,-0.2312860283762824,-0.011599224341244175,-0.010131162476275858,-0.05381847862017773,0,70,255.0,255.0,255.0
84,4.2,4.400577996121706,4.411610655812383,-0.4938309076068992,-0.04726285045957287,-0.04195415183007529,-0.23400242384552938,-0.01181196532181087,-0.010301723145634979,-0.054837340149702256,0,70,255.0,255.0,255.0
85,4.25,4.3982,4.4095,-0.5056,-0.04785876725017757,-0.04247350200409102,-0.2367697623912526,-0.012024706302377619,-0.010472283814994154,-0.055856201679226336,0,70,255.0,255.0,255.0
86,4.3,4.395792354465689,4.407363599619989,-0.5175080047964593,-0.04844057990073936,-0.042975211697125065,-0.2395443579630752,-0.011247799720094024,-0.00959610390636755,-0.05512762119367714,0,70,255.0,255.0,255.0
87,4.3500000000000005,4.393356589432078,4.405203208980211,-0.5295538286459031,-0.04898354722218698,-0.04343311239472778,-0.24228252451062035,-0.010470893137810414,-0.008719923997740932,-0.05439904070812793,0,70,255.0,255.0,255.0
88,4.4,4.390894647165622,4.40302101853044,-0.5417356500971169,-0.049487669214520406,-0.04384720409689916,-0.244984262033888,-0.009693986555526817,-0.007843744089114328,-0.05367046022257872,0,70,255.0,255.0,255.0
89,4.45,4.388408469932777,4.400819218720446,-0.5540516476988872,-0.04995294587773965,-0.04421748680363921,-0.2476495705328782,-0.008917079973243222,-0.006967564180487725,-0.052941879737029525,0,70,255.0,255.0,255.0
90,4.5,4.3859,4.3986,-0.5665,-0.050379377211844725,-0.04454396051494793,-0.25027845000759097,-0.008140173390959626,-0.006091384271861344,-0.05221329925148055,0,70,255.0,255.0,255.0
91,4.55,4.3833704497204415,4.396364598511011,-0.5790791788996158,-0.05081075801510701,-0.04488388370266936,-0.25288850148048186,-0.00911505873953173,-0.007505543236995932,-0.05218875966415624,0,70,255.0,255.0,255.0
92,4.6000000000000005,4.380818111794032,4.394110433163929,-0.5917888296983923,-0.051290883085797906,-0.04529451483864753,-0.2554973259740066,-0.010089944088103852,-0.008919702202130547,-0.05216422007683193,0,70,255.0,255.0,255.0
93,4.65,4.378240549007404,4.3918339685613415,-0.6046288910473605,-0.0518197524239174,-0.04577585392288242,-0.2581049234881651,-0.011064829436675956,-0.010333861167265134,-0.05213968048950761,0,70,255.0,255.0,255.0
94,4.7,4.375635324147184,4.389531669305836,-0.6175993015975525,-0.05239736602946549,-0.04632790095537404,-0.2607112940229574,-0.012039714785248061,-0.011748020132399721,-0.0521151409021833,0,70,255.0,255.0,255.0
95,4.75,4.373,4.3872,-0.6307,-0.0530237239024422,-0.046950655936122396,-0.26331643757838347,-0.013014600133819831,-0.013162179097534588,-0.05209060131486032,0,70,255.0,255.0,255.0
96,4.800000000000001,4.37033304665255,4.384836406335968,-0.6439312796050775,-0.05364438803883297,-0.04758525349220153,-0.2659416361149976,-0.011811965321810707,-0.012221723145630579,-0.05291734014970358,0,70,255.0,255.0,255.0
97,4.8500000000000005,4.367636563391794,4.3824422583640725,-0.657294852560529,-0.05420492043462327,-0.048172828250685466,-0.2686081715933539,-0.010609330509801604,-0.011281267193726586,-0.053744078984546834,0,70,255.0,255.0,255.0
98,4.9,4.364913556804765,4.380019907224193,-0.6707927857134418,-0.05470532108981312,-0.04871338021157419,-0.2713160440134523,-0.009406695697792502,-0.010340811241822593,-0.05457081781939009,0,70,255.0,255.0,255.0
99,4.95,4.362167033478489,4.377571704056209,-0.684427145910903,-0.05514559000440252,-0.04920690937486772,-0.2740652533752928,-0.0082040608857834,-0.009400355289918602,-0.05539755665423334,0,70,255.0,255.0,255.0
100,5.0,4.3594,4.3751,-0.6982,-0.055525727178391465,-0.04965341574056605,-0.2768557996788756,-0.007001426073774297,-0.008459899338014554,-0.05622429548907926,0,70,255.0,255.0,255.0
101,5.050000000000001,4.356614163669364,4.372606576145114,-0.7121125026800753,-0.055923689829566484,-0.050087102328528504,-0.2796329540595283,-0.008917079973226265,-0.008887564180483238,-0.05486187973702819,0,70,255.0,255.0,255.0
102,5.1000000000000005,4.353806034638794,4.370090933379778,-0.726162160059493,-0.0564174351757141,-0.05054217215861438,-0.28234198765257845,-0.0108327338726782,-0.009315229022951914,-0.053499463984977146,0,70,255.0,255.0,255.0
103,5.15,4.350970823773542,4.367552002541885,-0.740345566098873,-0.0570069632168343,-0.05101862523082369,-0.284982900458026,-0.012748387772130134,-0.00974289386542059,-0.0521370482329261,0,70,255.0,255.0,255.0
104,5.2,4.348103741938861,4.364988714469328,-0.7546593147588353,-0.0576922739529271,-0.05151646154515643,-0.28755569247587104,-0.014664041671582069,-0.010170558707889268,-0.050774632480875055,0,70,255.0,255.0,255.0
105,5.25,4.3452,4.3624,-0.7691,-0.058473367383992496,-0.052035681101612614,-0.29006036370611354,-0.016579695571033837,-0.010598223550357944,-0.04941221672882534,0,70,255.0,255.0,255.0
106,5.300000000000001,4.342256698669996,4.359785289083573,-0.7836651096746224,-0.059236852642899865,-0.05254633719368168,-0.2925505476468888,-0.013959714785260431,-0.009828020132404336,-0.050195140902184056,0,70,255.0,255.0,255.0
107,5.3500000000000005,4.339278498053031,4.357146008116813,-0.7983557072015002,-0.05986933886251855,-0.053018483114853056,-0.295079877796332,-0.011339733999487072,-0.009057816714450741,-0.050978065075542756,0,70,255.0,255.0,255.0
108,5.4,4.336271948101067,4.354484082608268,-0.8131737498910667,-0.06037082604284857,-0.053452118865126755,-0.2976483541544431,-0.008719753213713714,-0.008287613296497149,-0.05176098924890145,0,70,255.0,255.0,255.0
109,5.45,4.333243598766069,4.351801438066482,-0.8281211950537556,-0.06074131418388992,-0.05384724444450276,-0.3002559767212221,-0.006099772427940355,-0.007517409878543555,-0.05254391342226015,0,70,255.0,255.0,255.0
110,5.5,4.3302,4.3491,-0.8432,-0.0609808032856426,-0.0542038598529811,-0.30290274549666907,-0.003479791642166663,-0.006747206460589628,-0.05332683759561796,0,70,255.0,255.0,255.0
111,5.550000000000001,4.3271454416506465,4.346381067520596,-0.8584118586214359,-0.06122489959884104,-0.05455954889674392,-0.30557285535291545,-0.006284060885770765,-0.007480355289922968,-0.053477556654236126,0,70,255.0,255.0,255.0
112,5.6000000000000005,4.32407517314908,4.343643434152968,-0.8737574111345072,-0.061609209374219674,-0.054951895381973405,-0.3082505011620927,-0.009088330129374819,-0.008213504119256296,-0.05362827571285429,0,70,255.0,255.0,255.0
113,5.65,4.320982183822188,4.340885267025041,-0.8892370343368606,-0.062133732611778514,-0.05538089930866955,-0.3109356829242009,-0.011892599372978872,-0.008946652948589623,-0.05377899477147246,0,70,255.0,255.0,255.0
114,5.7,4.317859462996864,4.338104733264743,-0.9048511050261426,-0.06279846931151756,-0.055846560676832364,-0.31362840063923997,-0.014696868616582924,-0.00967980177792295,-0.05392971383009062,0,70,255.0,255.0,255.0
115,5.75,4.3147,4.3353,-0.9206,-0.06360341947343681,-0.05634887948646184,-0.3163286543072099,-0.017501137860187033,-0.010412950607256277,-0.05408043288870701,0,70,255.0,255.0,255.0
116,5.800000000000001,4.3114991347274145,4.332469640834042,-0.936483455839635,-0.06440754896173105,-0.05686346721934049,-0.3189980309414496,-0.014664041671581977,-0.010170558707889328,-0.052694632480877225,0,70,255.0,255.0,255.0
117,5.8500000000000005,4.308261609350651,4.329613855271316,-0.9524986482604719,-0.06506982364059502,-0.05736593535725078,-0.32159811755529766,-0.011826945482976973,-0.009928166808522385,-0.05130883207304747,0,70,255.0,255.0,255.0
118,5.9,4.30499451661018,4.326733249291567,-0.9686421127614914,-0.06559024351002875,-0.05785628390019272,-0.3241289141487543,-0.008989849294371967,-0.009685774909155441,-0.049923031665217714,0,70,255.0,255.0,255.0
119,5.95,4.3017049492464725,4.323828428874545,-0.984910384841674,-0.06596880857003222,-0.05833451284816631,-0.32659042072181943,-0.006152753105766963,-0.009443383009788496,-0.04853723125738795,0,70,255.0,255.0,255.0
120,6.0,4.2984,4.3209,-1.0013,-0.06620551882060544,-0.058800622201171576,-0.3289826372744931,-0.0033156569171615136,-0.00920099111042183,-0.04715143084955775,0,70,255.0,255.0,255.0
121,6.050000000000001,4.295084419439694,4.317948369143234,-1.0178087180200257,-0.0664409045542334,-0.059266582225895606,-0.3313790208812884,-0.006099772427957135,-0.00943740987853903,-0.048703913422253754,0,70,255.0,255.0,255.0
122,6.1000000000000005,4.291753589448318,4.314973144761771,-1.0344391958236063,-0.06681549606340115,-0.059744363189025484,-0.3338530286167185,-0.008883887938752708,-0.009673828646656226,-0.05025639599494973,0,70,255.0,255.0,255.0
123,6.15,4.288400549737095,4.311973735808691,-1.0511953146171746,-0.06732929334810868,-0.06023396509056122,-0.33640466048078344,-0.011668003449548279,-0.009910247414773423,-0.0518088785676457,0,70,255.0,255.0,255.0
124,6.2,4.285018340017248,4.308949551237074,-1.0680809556071618,-0.06798229640835597,-0.06073538793050282,-0.339033916473483,-0.014452118960343851,-0.010146666182890618,-0.05336136114034167,0,70,255.0,255.0,255.0
125,6.25,4.2816,4.3059,-1.0851,-0.06877450524414305,-0.061248631708850275,-0.34174079659481754,-0.0172362344711392,-0.01038308495100787,-0.05491384371303765,0,70,255.0,255.0,255.0
126,6.300000000000001,4.27814078751381,4.302824882593024,-1.1022552720802643,-0.06957283282133568,-0.06175020387707355,-0.34446188553339574,-0.01469686861656588,-0.009679801777922938,-0.05392971383008999,0,70,255.0,255.0,255.0
127,6.3500000000000005,4.274644832856079,4.299725565681604,-1.1195453684451042,-0.07024419210579964,-0.06221661188664258,-0.3471337679778266,-0.012157502761992607,-0.008976518604838016,-0.05294558394714234,0,70,255.0,255.0,255.0
128,6.4,4.271118484441443,4.29660380747367,-1.1369678287698113,-0.07078858309753495,-0.06264785573755735,-0.34975644392811,-0.009618136907419332,-0.008273235431753095,-0.051961454064194695,0,70,255.0,255.0,255.0
129,6.45,4.267568090684537,4.293461366177159,-1.154520192729679,-0.07120600579654159,-0.06304393542981787,-0.352329913384246,-0.0070787710528460585,-0.007569952258668175,-0.05097732418124705,0,70,255.0,255.0,255.0
130,6.5,4.264,4.2903,-1.1722,-0.07149646020281954,-0.06340485096342417,-0.3548541763462347,-0.00453940519827245,-0.00686666908558331,-0.04999319429829763,0,70,255.0,255.0,255.0
131,6.550000000000001,4.260418830505067,4.28712090048467,-1.1900053936589177,-0.07176376416042095,-0.06376460226580859,-0.35736543698512696,-0.006152753105783849,-0.007523383009793104,-0.05045723125739353,0,70,255.0,255.0,255.0
132,6.6000000000000005,4.256822279127369,4.283922992511815,-1.2079369303959788,-0.07211173551339793,-0.06415718926440347,-0.35989989947197404,-0.007766101013295218,-0.008180096934002885,-0.050921268216489415,0,70,255.0,255.0,255.0
133,6.65,4.253206312497137,4.280704634296627,-1.225995770303581,-0.07254037426175047,-0.06458261195920888,-0.3624575638067759,-0.00937944892080659,-0.008836810858212668,-0.05138530517558531,0,70,255.0,255.0,255.0
134,6.7,4.249566897244605,4.277464184054291,-1.2441830734741222,-0.07304968040547857,-0.06504087035022474,-0.36503842998953256,-0.010992796828317958,-0.00949352478242245,-0.051849342134681196,0,70,255.0,255.0,255.0
135,6.75,4.2459,4.2742,-1.2625,-0.07363965394458227,-0.06553196443745112,-0.367642498020244,-0.012606144735829439,-0.01015023870663223,-0.0523133790937762,0,70,255.0,255.0,255.0
136,6.800000000000001,4.242202290465924,4.270910715468296,-1.280947153284066,-0.0742681105369863,-0.06603938705968919,-0.370236366526097,-0.012532118960331217,-0.010146666182890595,-0.05144136114034187,0,70,255.0,255.0,255.0
137,6.8500000000000005,4.2384732506344465,4.267596064271134,-1.299522909970982,-0.0748928658406154,-0.06654663105574017,-0.3727866341342782,-0.012458093184832996,-0.01014309365914896,-0.05056934318690755,0,70,255.0,255.0,255.0
138,6.9,4.234713065570009,4.264256055339826,-1.3182250900158656,-0.07551391985546958,-0.06705369642560408,-0.3752933008447878,-0.012384067409334775,-0.010139521135407326,-0.04969732523347323,0,70,255.0,255.0,255.0
139,6.95,4.230921920337047,4.260890697605677,-1.3370515133738325,-0.07613127258154888,-0.06756058316928092,-0.3777563666576255,-0.012310041633836555,-0.01013594861166569,-0.04882530728003891,0,70,255.0,255.0,255.0
140,7.0,4.2271,4.2575,-1.356,-0.07674492401885323,-0.06806729128677064,-0.38017583157279167,-0.012236015858338223,-0.010132376087923944,-0.04795328932660414,0,70,255.0,255.0,255.0
141,7.050000000000001,4.223248007631236,4.2540842376421475,-1.375069193204821,-0.07732379369163261,-0.06855784949543577,-0.3826010969104877,-0.010918771052836899,-0.009489952258680824,-0.049057324181237774,0,70,255.0,255.0,255.0
142,7.1000000000000005,4.219368718334842,4.250644750403648,-1.3942610297200944,-0.07783680112413693,-0.06901628651263873,-0.3850815639909155,-0.009601526247335599,-0.008847528429437717,-0.05016135903587139,0,70,255.0,255.0,255.0
143,7.15,4.215465425222828,4.247183144344074,-1.413578269632958,-0.07828394631636618,-0.06944260233837952,-0.3876172328140749,-0.008284281441834298,-0.008205104600194609,-0.051265393890505,0,70,255.0,255.0,255.0
144,7.2,4.211541421407209,4.243701025523,-1.4330236730305477,-0.07866522926832036,-0.06983679697265818,-0.3902081033799659,-0.006967036636332997,-0.007562680770951499,-0.05236942874513862,0,70,255.0,255.0,255.0
145,7.25,4.2076,4.2402,-1.4526,-0.07898064997999947,-0.07019887041547469,-0.3928541756885887,-0.005649791830831696,-0.0069202569417085025,-0.05347346359977134,0,70,255.0,255.0,255.0
146,7.300000000000001,4.203643279009129,4.236681133963116,-1.4723088738966523,-0.07930071469647887,-0.07056121495857724,-0.39548724583195016,-0.00715279682834411,-0.007573524782392825,-0.05184934213468482,0,70,255.0,255.0,255.0
147,7.3500000000000005,4.199668676026188,4.233143334114275,-1.4921473711486408,-0.07969592966283388,-0.07095622289371398,-0.39803910990205726,-0.008655801825856495,-0.008226792623077135,-0.05022522066959832,0,70,255.0,255.0,255.0
148,7.4,4.1956724335386815,4.229584967283877,-1.5121114314523034,-0.08016629487906451,-0.07138389422088494,-0.40050976789890996,-0.010158806823368883,-0.008880060463761446,-0.04860109920451182,0,70,255.0,255.0,255.0
149,7.45,4.191650794034117,4.226004400302319,-1.5321969945039777,-0.08071181034517076,-0.07184422894009013,-0.40289921982250837,-0.011661811820881267,-0.009533328304445756,-0.04697697773942532,0,70,255.0,255.0,255.0
150,7.5,4.1876,4.2224,-1.5524,-0.08133247606115263,-0.07233722705132951,-0.40520746567285254,-0.0131648168183931,-0.010186596145129623,-0.04535285627433927,0,70,255.0,255.0,255.0
151,7.550000000000001,4.183517276332245,4.218770426505391,-1.5727177112085715,-0.08196934752245794,-0.07284529067024982,-0.40751391976171214,-0.012310041633819224,-0.010135948611682433,-0.046905307280043586,0,70,255.0,255.0,255.0
152,7.6000000000000005,4.179403777560408,4.215115513139253,-1.5931526856853429,-0.08256348022453455,-0.07335082191249777,-0.4098979964008569,-0.011455266449245362,-0.010085301078235243,-0.04845775828574787,0,70,255.0,255.0,255.0
153,7.65,4.1752616406224465,4.211435386520419,-1.6137088045578287,-0.08311487416738247,-0.07385382077807334,-0.4123596955902869,-0.010600491264671502,-0.010034653544788052,-0.050010209291452154,0,70,255.0,255.0,255.0
154,7.7,4.171093002456323,4.2077301732677235,-1.634389948953543,-0.0836235293510017,-0.07435428726697657,-0.4148990173300021,-0.009745716080097642,-0.009984006011340862,-0.05156266029715644,0,70,255.0,255.0,255.0
155,7.75,4.1669,4.204,-1.6552,-0.08408944577539224,-0.07485222137920741,-0.41751596162000254,-0.00889094089552378,-0.009933358477893117,-0.05311511130286073,0,70,255.0,255.0,255.0
156,7.800000000000001,4.162684415661885,4.20024516001532,-1.6761418812690632,-0.08453389521368855,-0.07533762236042885,-0.4201530751212024,-0.008887036636328638,-0.00948268077096412,-0.052369428745133895,0,70,255.0,255.0,255.0
157,7.8500000000000005,4.158446613732181,4.196466613328713,-1.6972146861099893,-0.08497814943902511,-0.07580048945630384,-0.42275290449451597,-0.008883132377133496,-0.009032003064035128,-0.051623746187407074,0,70,255.0,255.0,255.0
158,7.9,4.1541866039715325,4.1926654866344455,-1.718416550316383,-0.0854222084514019,-0.07624082266683235,-0.4253154497399431,-0.008879228117938353,-0.008581325357106137,-0.050878063629680254,0,70,255.0,255.0,255.0
159,7.95,4.14990439614059,4.1888429066267845,-1.7397456096818518,-0.08586607225081894,-0.07665862199201445,-0.427840710857484,-0.008875323858743211,-0.008130647650177146,-0.05013238107195343,0,70,255.0,255.0,255.0
160,8.0,4.1456,4.185,-1.7612,-0.0863097408372762,-0.07705388743185007,-0.4303286878471384,-0.008871419599547736,-0.007679969943248155,-0.04938669851422528,0,70,255.0,255.0,255.0
161,8.05,4.141273061020211,4.181137733433327,-1.7827779637151773,-0.08677507162278704,-0.07743621988804168,-0.4327857797534797,-0.009741811820885394,-0.007613328304416055,-0.048896977739425286,0,70,255.0,255.0,255.0
162,8.1,4.136921767510871,4.177256433545895,-1.8044781698747023,-0.08728392201936475,-0.07781522026229166,-0.4352183856210809,-0.010612204042223022,-0.007546686665583957,-0.04840725696462531,0,70,255.0,255.0,255.0
163,8.15,4.132543943491424,4.173356266941798,-1.8262993941766394,-0.08783629202700934,-0.07819088855460007,-0.43762650544994225,-0.01148259626356068,-0.007480045026751858,-0.047917536189825326,0,70,255.0,255.0,255.0
164,8.200000000000001,4.128137412981318,4.169437400225134,-1.8482404123190515,-0.08843218164572082,-0.07856322476496687,-0.4400101392400635,-0.012352988484898339,-0.007413403387919758,-0.04742781541502533,0,70,255.0,255.0,255.0
165,8.25,4.1237,4.1655,-1.8703,-0.08907159087549918,-0.07893222889339203,-0.44236928699144473,-0.013223380706236076,-0.007346761749086883,-0.046938094640222694,0,70,255.0,255.0,255.0
166,8.3,4.119230540257269,4.161543906251367,-1.89247746387023,-0.08969381829515785,-0.07931749808740282,-0.4447358058648791,-0.011665716080110244,-0.008064006011344814,-0.04772266029715181,0,70,255.0,255.0,255.0
167,8.35,4.11473191622434,4.157567652487708,-1.914774234391202,-0.0902381624835102,-0.07973862949452651,-0.4471415530211599,-0.010108051453984468,-0.008781250273602721,-0.0485072259540809,0,70,255.0,255.0,255.0
168,8.4,4.110208022062774,4.153569445598363,-1.9371922729770599,-0.0907046234405563,-0.0801956231147631,-0.4495865284602872,-0.008550386827858636,-0.00949849453586065,-0.04929179161101001,0,70,255.0,255.0,255.0
169,8.450000000000001,4.105662751934139,4.14954749247268,-1.9597335410419454,-0.09109320116629609,-0.0806884789481126,-0.45207073218226096,-0.006992722201732804,-0.010215738798118584,-0.050076357267939124,0,70,255.0,255.0,255.0
170,8.5,4.1011,4.1455,-1.9824,-0.09140389566072955,-0.08121719699457494,-0.4545941641870811,-0.005435057575607138,-0.010932983060376378,-0.050860922924866436,0,70,255.0,255.0,255.0
171,8.55,4.096522377950709,4.1414258415612,-2.0051929808039053,-0.09171365519658799,-0.0817417877623391,-0.4571189967870017,-0.0069553238587305435,-0.010050647650189891,-0.050132381071956715,0,70,255.0,255.0,255.0
172,8.6,4.091927367591772,4.137326556503274,-2.028111292560489,-0.0920994280466026,-0.08222226175959392,-0.45960740229427677,-0.008475590141853895,-0.009168312240003435,-0.049403839219047015,0,70,255.0,255.0,255.0
173,8.65,4.08731116825748,4.133204350664749,-2.0511531139151216,-0.09256121421077339,-0.08265861898633944,-0.4620593807089064,-0.0099958564249773,-0.008285976829816948,-0.048675297366137286,0,70,255.0,255.0,255.0
174,8.700000000000001,4.082669979282125,4.12906142988415,-2.07431662351317,-0.09309901368910034,-0.08305085944257563,-0.4644749320308905,-0.011516122708100707,-0.007403641419630461,-0.047946755513227565,0,70,255.0,255.0,255.0
175,8.75,4.078,4.1249,-2.0976,-0.09371282648158347,-0.0833989831283025,-0.4668540562602292,-0.01303638899122439,-0.006521306009443895,-0.0472182136603192,0,70,255.0,255.0,255.0
176,8.8,4.073298347939893,4.120721527503832,-2.1210018129141517,-0.09434756091848655,-0.08374735086323702,-0.46922020698711303,-0.012352988484898466,-0.007413403387936358,-0.04742781541503343,0,70,255.0,255.0,255.0
177,8.85,4.068565813408574,4.116524521499194,-2.14452219536684,-0.09494812533007331,-0.08414032346709614,-0.4715968378017325,-0.011669587978572565,-0.00830550076642879,-0.047637417169747655,0,70,255.0,255.0,255.0
178,8.9,4.063804104907308,4.11230675174264,-2.168161671362453,-0.0955145197163438,-0.0845779009398799,-0.4739839487040878,-0.010986187472246639,-0.009197598144921255,-0.04784701892446188,0,70,255.0,255.0,255.0
179,8.950000000000001,4.05901493093736,4.108065987990724,-2.1919207649053782,-0.09604674407729799,-0.08506008328158828,-0.4763815396941788,-0.010302786965920714,-0.010089695523413718,-0.04805662067917611,0,70,255.0,255.0,255.0
180,9.0,4.0542,4.1038,-2.2158,-0.09654479841293587,-0.08558687049222127,-0.47878961077200544,-0.009619386459594592,-0.010981792901906706,-0.048266222433889894,0,70,255.0,255.0,255.0
181,9.05,4.04936103028972,4.099507248423471,-2.2397997675394907,-0.09700810112946937,-0.08611680878472149,-0.48120017526455094,-0.008912722201745228,-0.01021573879810157,-0.04815635726792937,0,70,255.0,255.0,255.0
182,9.1,4.044499778773934,4.095188957499948,-2.2639199259721505,-0.0974360706331104,-0.08660844437203143,-0.4836052464987984,-0.008206057943895888,-0.009449684694296462,-0.04804649210196885,0,70,255.0,255.0,255.0
183,9.15,4.039618012113289,4.090847042364687,-2.2881602006350654,-0.09782870692385895,-0.08706177725415112,-0.4860048244747478,-0.007499393686046524,-0.008683630590491325,-0.04793662693600833,0,70,255.0,255.0,255.0
184,9.200000000000001,4.03471749696843,4.086483418152953,-2.312520316865321,-0.09818601000171505,-0.08747680743108056,-0.48839890919239926,-0.00679272942819716,-0.00791757648668619,-0.047826761770047806,0,70,255.0,255.0,255.0
185,9.25,4.0298,4.0821,-2.337,-0.09850797986667868,-0.08785353490281975,-0.4907875006517526,-0.006086065170347932,-0.0071515223828810814,-0.0477168966040864,0,70,255.0,255.0,255.0
186,9.3,4.0248663309012285,4.0776982788022815,-2.3615991169278887,-0.0988520345636393,-0.0882174139978821,-0.4931790919546852,-0.007676122708075762,-0.007403641419613341,-0.047946755513215325,0,70,255.0,255.0,255.0
187,9.35,4.019913471495688,4.073278048501014,-2.3863181007445595,-0.09927559213748625,-0.08859389904478109,-0.4955821762030741,-0.009266180245803534,-0.007655760456345593,-0.04817661442234424,0,70,255.0,255.0,255.0
188,9.4,4.014937446639532,4.068838678798605,-2.411157526097287,-0.09977865258821964,-0.08898299004351666,-0.49799675339691957,-0.010856237783531364,-0.007907879493077854,-0.04840647333147317,0,70,255.0,255.0,255.0
189,9.450000000000001,4.009934281188917,4.064379539397465,-2.4361179676333427,-0.10036121591583941,-0.08938468699408889,-0.5004228235362215,-0.012446295321259192,-0.008159998529810114,-0.04863633224060209,0,70,255.0,255.0,255.0
190,9.5,4.0049,4.0599,-2.4612,-0.10102328212034554,-0.08979898989649766,-0.5028603866209798,-0.014036352858986523,-0.008412117566542032,-0.048866191149727456,0,70,255.0,255.0,255.0
191,9.55,3.9998320461053645,4.055399636367402,-2.486403764748957,-0.10167976061596876,-0.09021353522374669,-0.5052834569167027,-0.01222278696594152,-0.008169695523418393,-0.048056620679191996,0,70,255.0,255.0,255.0
192,9.600000000000001,3.994733535243314,4.050878848495994,-2.511727671049612,-0.10224556081693971,-0.09061595944883952,-0.507666048688899,-0.010409221072896517,-0.007927273480294754,-0.047247050208656535,0,70,255.0,255.0,255.0
193,9.65,3.9896090013285814,4.0463382424408865,-2.5371696949757876,-0.1027206827232584,-0.09100626257177614,-0.5100081619375685,-0.008595655179851579,-0.0076848514371711234,-0.04643747973812111,0,70,255.0,255.0,255.0
194,9.700000000000001,3.9844629782758987,4.041778424257187,-2.56272781260131,-0.10310512633492487,-0.09138444459255662,-0.5123097966627111,-0.006782089286806576,-0.007442429394047484,-0.04562790926758565,0,70,255.0,255.0,255.0
195,9.75,3.9793,4.0372,-2.5884,-0.10339889165193906,-0.09175050551118091,-0.5145709528643271,-0.004968523393761415,-0.007200007350923965,-0.04481833879704933,0,70,255.0,255.0,255.0
196,9.8,3.9741230846773132,4.032603175728113,-2.614185024076285,-0.10369292297248804,-0.09212844510712159,-0.5168390803785047,-0.006792729428197312,-0.007917576486703314,-0.04590676177005177,0,70,255.0,255.0,255.0
197,9.850000000000001,3.9689291875310553,4.027986557515009,-2.640084815056995,-0.1040781645947588,-0.09254226315985126,-0.5191616290413323,-0.008616935462633209,-0.008635145622482663,-0.046995184743054204,0,70,255.0,255.0,255.0
198,9.9,3.9637137480461417,4.023348351437848,-2.6661020939995623,-0.10455461651875135,-0.09299195966936986,-0.5215385988528101,-0.010441141497069041,-0.009352714758261986,-0.0480836077160566,0,70,255.0,255.0,255.0
199,9.950000000000001,3.9584722057074853,4.0186867635737915,-2.6922395819614207,-0.10512227874446571,-0.09347753463567746,-0.523969989812938,-0.012265347531504938,-0.010070283894041337,-0.049172030689059044,0,70,255.0,255.0,255.0
200,10.0,3.9532,4.014,-2.7185,-0.10578115127190185,-0.09399898805877398,-0.526455801921716,-0.014089553565940438,-0.010787853029820771,-0.050260453662060556,0,70,255.0,255.0,255.0
201,10.05,3.947894015185383,4.009286860720149,-2.744884938945905,-0.10644454749408143,-0.09452068434776485,-0.5289282215692821,-0.01244629532124175,-0.01007999852981404,-0.04863633224058288,0,70,255.0,255.0,255.0
202,10.100000000000001,3.9425569146324624,4.004548521443973,-2.771391468722411,-0.10702578080402604,-0.0950069879117554,-0.5313194351457744,-0.010803037076543063,-0.009372144029807308,-0.047012210819105206,0,70,255.0,255.0,255.0
203,10.15,3.9371928064868507,3.999786751807724,-2.7980155290259643,-0.10752485120173573,-0.09545789875074559,-0.5336294426511927,-0.009159778831844434,-0.008664289529800601,-0.04538808939762758,0,70,255.0,255.0,255.0
204,10.200000000000001,3.931805798894159,3.9950033214476495,-2.824753059553012,-0.10794175868721048,-0.09587341686473545,-0.5358582440855372,-0.007516520587145746,-0.00795643502979387,-0.043763967976149905,0,70,255.0,255.0,255.0
205,10.25,3.9264,3.9902,-2.8516,-0.10827650326045031,-0.09625354225372498,-0.5380058394488076,-0.0058732623424474495,-0.00724858052978683,-0.042139846554674065,0,70,255.0,255.0,255.0
206,10.3,3.9209784545811557,3.9853781813912916,-2.878553620140098,-0.1085928870511821,-0.09662081750182064,-0.5401520333443642,-0.006782089286823724,-0.007442429394038855,-0.04370790926759123,0,70,255.0,255.0,255.0
207,10.350000000000001,3.9155399539390947,3.9805377567090976,-2.9056165100533646,-0.10895471218913269,-0.09699778519312889,-0.5423766303755668,-0.007690916231199999,-0.00763627825829088,-0.04527597198050839,0,70,255.0,255.0,255.0
208,10.4,3.910082226006456,3.975678241331258,-2.932792589896582,-0.10936197867430208,-0.09738444532764971,-0.5446796305424151,-0.008599743175576241,-0.007830127122542897,-0.0468440346934255,0,70,255.0,255.0,255.0
209,10.450000000000001,3.9046029987158777,3.970799150635613,-2.960085779826533,-0.10981468650669031,-0.09778079790538316,-0.5470610338449093,-0.009508570119952518,-0.008023975986794923,-0.048412097406342655,0,70,255.0,255.0,255.0
210,10.5,3.8991,3.9659,-2.9875,-0.11031283568629735,-0.0981868429263292,-0.5495208402830494,-0.01041739706432887,-0.008217824851046496,-0.04998016011926332,0,70,255.0,255.0,255.0
211,10.55,3.893571366489993,3.960980413714685,-3.015038180493706,-0.1108319043011931,-0.0985960456449563,-0.5519996450532577,-0.010345347531500692,-0.008150283894037135,-0.04917203068906878,0,70,255.0,255.0,255.0
212,10.600000000000001,3.8880168696111577,3.9560404517196353,-3.042699291064135,-0.11134737043944742,-0.09900187131573293,-0.5544380433519563,-0.010273297998672513,-0.008082742937027773,-0.04836390125887424,0,70,255.0,255.0,255.0
213,10.65,3.882436689487326,3.9510802828672427,-3.0704813113877094,-0.11185923410106034,-0.09940431993865907,-0.5568360351791452,-0.010201248465844337,-0.008015201980018415,-0.04755577182867973,0,70,255.0,255.0,255.0
214,10.700000000000001,3.876831006242329,3.9461000760099,-3.098382221140857,-0.11236749528603186,-0.09980339151373477,-0.5591936205348242,-0.010129198933016158,-0.007947661023009055,-0.046747642398485195,0,70,255.0,255.0,255.0
215,10.75,3.8712,3.9411,-3.1264,-0.11287215399436194,-0.10019908604095996,-0.5615107994189937,-0.010057149400187204,-0.007880120065999363,-0.045939512968295126,0,70,255.0,255.0,255.0
216,10.8,3.8655440794588705,3.936080163749968,-3.1545328578850804,-0.11335949574404516,-0.1005949999183548,-0.563801386442605,-0.00943652058714123,-0.00795643502979384,-0.04568396797615523,0,70,255.0,255.0,255.0
217,10.850000000000001,3.8598645676162726,3.9310404364123612,-3.182779925690101,-0.11381580605307608,-0.10099472954393936,-0.5660791962166093,-0.008815891774095258,-0.00803274999358832,-0.045428422984015344,0,70,255.0,255.0,255.0
218,10.9,3.8541630160442404,3.925980627199771,-3.2111405645525806,-0.11424108492145468,-0.10139827491771362,-0.5683442287410065,-0.008195262961049306,-0.008109064957382795,-0.04517287799187546,0,70,255.0,255.0,255.0
219,10.950000000000001,3.8484409763148046,3.9209005453247867,-3.2396141356100414,-0.11463533234918101,-0.10180563603967764,-0.5705964840157969,-0.007574634148003332,-0.008185379921177273,-0.04491733299973556,0,70,255.0,255.0,255.0
220,11.0,3.8427,3.9158,-3.2682,-0.11499854833625503,-0.10221681290983135,-0.5728359620409801,-0.006954005334957047,-0.008261694884971749,-0.04466178800759746,0,70,255.0,255.0,255.0
221,11.05,3.8369411156745246,3.9106789312854433,-3.296897587965975,-0.11536211272262788,-0.10262395468162552,-0.5750668091763282,-0.007588570119957048,-0.008023975986794803,-0.044572097406327234,0,70,255.0,255.0,255.0
222,11.100000000000001,3.8311632599237493,3.905537802630919,-3.3257066061754665,-0.11575740534825076,-0.10301921050851084,-0.5772931717816129,-0.008223134904957049,-0.007786257088617858,-0.044482406805057016,0,70,255.0,255.0,255.0
223,11.15,3.825364846335712,3.900377208333674,-3.354626830401969,-0.11618442621312358,-0.1034025803904873,-0.5795150498568339,-0.008857699689957026,-0.007548538190440921,-0.0443927162037868,0,70,255.0,255.0,255.0
224,11.200000000000001,3.8195442884984496,3.8951977426909523,-3.3836580364189817,-0.11664317531724645,-0.10377406432755494,-0.5817324434019916,-0.009492264474957025,-0.0073108192922639766,-0.044303025602516574,0,70,255.0,255.0,255.0
225,11.25,3.8137,3.89,-3.4128,-0.11713365266061929,-0.1041336623197137,-0.5839453524170856,-0.01012682925995656,-0.0070731003940865955,-0.044213335001242804,0,70,255.0,255.0,255.0
226,11.3,3.80783065784303,3.8847841111082597,-3.442052790251022,-0.11764005336544339,-0.10450918135514109,-0.586171376852079,-0.010129198933007144,-0.00794766102300869,-0.04482764239849023,0,70,255.0,255.0,255.0
227,11.350000000000001,3.801935992688728,3.8795483530639614,-3.4714176496080396,-0.11814657255392001,-0.10492842842201458,-0.5884281166569346,-0.010131568606057729,-0.008822221651930787,-0.04544194979573765,0,70,255.0,255.0,255.0
228,11.4,3.7960159986129107,3.8742905394655343,-3.500896113839546,-0.11865321022604915,-0.10539140352033416,-0.5907155718316526,-0.010133938279108311,-0.00969678228085285,-0.046056257192985055,0,70,255.0,255.0,255.0
229,11.450000000000001,3.7900706696913953,3.8690084839114043,-3.5304897187140356,-0.11915996638183085,-0.10589810665009987,-0.5930337423762332,-0.010136307952158896,-0.010571342909774947,-0.04667056459023248,0,70,255.0,255.0,255.0
230,11.5,3.7841,3.8637,-3.5602,-0.11966684102126506,-0.10644853781131167,-0.5953826282906758,-0.010138677625208925,-0.011445903538696678,-0.04728487198747544,0,70,255.0,255.0,255.0
231,11.55,3.7781042529533537,3.8583638242815184,-3.5900280510299405,-0.12015767381559568,-0.10698731989780862,-0.5977356834153564,-0.009494634148015648,-0.010105379921181193,-0.04683733299974832,0,70,255.0,255.0,255.0
232,11.600000000000001,3.772084769321338,3.8530023851132342,-3.6199731953923804,-0.12061630443606663,-0.1074590758034298,-0.6000663615906507,-0.008850590670822372,-0.008764856303665709,-0.0463897940120212,0,70,255.0,255.0,255.0
233,11.65,3.766043159212645,3.84761903380419,-3.650034314239849,-0.1210427328826779,-0.10786380552817519,-0.6023746628165585,-0.008206547193629116,-0.007424332686150272,-0.045942255024294096,0,70,255.0,255.0,255.0
234,11.700000000000001,3.759981032735968,3.8422171216634307,-3.6802102887248798,-0.12143695915542954,-0.10820150907204482,-0.6046605870930801,-0.007562503716435839,-0.006083809068634787,-0.045494716036566976,0,70,255.0,255.0,255.0
235,11.75,3.7539,3.8368,-3.7105,-0.12179898325432151,-0.10847218643503868,-0.6069241344202152,-0.006918460239242474,-0.004743285451119683,-0.04504717704883987,0,70,255.0,255.0,255.0
236,11.8,3.747801130343553,3.831370191765667,-3.7409022056292196,-0.12216125137217639,-0.1087255390536234,-0.6091578894864987,-0.007572264474952793,-0.005390819292268421,-0.04430302560249898,0,70,255.0,255.0,255.0
237,11.850000000000001,3.7416833300259187,3.825926906483103,-3.7714151688224455,-0.1225562097018168,-0.10901126836426554,-0.6113544369804651,-0.008226068710663111,-0.006038353133417159,-0.04355887415615809,0,70,255.0,255.0,255.0
238,11.9,3.7355449645365084,3.820468525317706,-3.8020370292010606,-0.1229838582432427,-0.1093293743669651,-0.6135137769021145,-0.008879872946373407,-0.006685886974565874,-0.042814722709817225,0,70,255.0,255.0,255.0
239,11.950000000000001,3.7293843993647315,3.8149934294348724,-3.8327659263864517,-0.12344419699645415,-0.10967985706172212,-0.615635909251447,-0.009533677182083724,-0.007333420815714611,-0.04207057126347634,0,70,255.0,255.0,255.0
240,12.0,3.7232,3.8095,-3.8636,-0.12393722596145107,-0.11006271644853655,-0.617720834028462,-0.010187481417793354,-0.007980954656862993,-0.041326419817134585,0,70,255.0,255.0,255.0
241,12.05,3.7169904256724324,3.803986608655813,-3.894538326453184,-0.12444532069569966,-0.11047852388770239,-0.6198247586386464,-0.010136307952149969,-0.008651342909770685,-0.0428305645902393,0,70,255.0,255.0,255.0
242,12.100000000000001,3.710755510574984,3.798451588954352,-3.9255837293178435,-0.12495085675666609,-0.11092785073951363,-0.6220038904874859,-0.010085134486506584,-0.00932173116267838,-0.04433470936334403,0,70,255.0,255.0,255.0
243,12.15,3.704495382641321,3.7928932649249845,-3.9567399689559095,-0.12545383414435032,-0.11141069700397023,-0.6242582295749808,-0.010033961020863203,-0.009992119415586047,-0.04583885413644869,0,70,255.0,255.0,255.0
244,12.200000000000001,3.698210169805104,3.7873099605970775,-3.9880108057293184,-0.1259542528587524,-0.11192706268107222,-0.6265877759011309,-0.009982787555219818,-0.010662507668493741,-0.04734299890955341,0,70,255.0,255.0,255.0
245,12.25,3.6919,3.7817,-4.0194,-0.1264521128998723,-0.1124769477708196,-0.6289925294659361,-0.00993161408957599,-0.011332895921400743,-0.04884714368265808,0,70,255.0,255.0,255.0
246,12.3,3.6855651669667164,3.776062573611079,-4.050910088558048,-0.1269374658450227,-0.11300836539557027,-0.6313990759589166,-0.009482503716439876,-0.009923809068625847,-0.047414716036562665,0,70,255.0,255.0,255.0
247,12.350000000000001,3.6792066276741417,3.7704003376994866,-4.082538713906187,-0.1274003632715163,-0.1134693286776822,-0.6337340010695924,-0.009033393343303763,-0.008514722215850949,-0.04598228839046726,0,70,255.0,255.0,255.0
248,12.4,3.672825504898209,3.7647168149823544,-4.114282294975302,-0.1278408051793531,-0.11385983761715536,-0.6359973047979633,-0.008584282970167664,-0.007105635363076103,-0.044549860744371894,0,70,255.0,255.0,255.0
249,12.450000000000001,3.666422921414851,3.7590155281768154,-4.146137250696279,-0.12825879156853306,-0.1141798922139898,-0.6381889871440296,-0.008135172597031549,-0.005696548510301206,-0.04311743309827648,0,70,255.0,255.0,255.0
250,12.5,3.66,3.7533,-4.1781,-0.12865432243905622,-0.11442949246818547,-0.6403090481077909,-0.007686062223894563,-0.004287461657525582,-0.04168500545217668,0,70,255.0,255.0,255.0
251,12.55,3.653557706460701,3.7475726968998693,-4.210167719314626,-0.12903681592420577,-0.11467201453001657,-0.6424029375256823,-0.0076136771820876515,-0.005413420815718778,-0.04207057126348275,0,70,255.0,255.0,255.0
252,12.600000000000001,3.6470963787284476,3.7418318602476996,-4.242340615057412,-0.129415690157265,-0.11497083454975734,-0.6445161052341393,-0.00754129214028074,-0.006539379973911973,-0.042456137074788826,0,70,255.0,255.0,255.0
253,12.65,3.6406161977658433,3.736074675145595,-4.274619651142883,-0.12979094513823386,-0.11532595252740778,-0.6466485512331612,-0.007468907098473831,-0.007665339132105128,-0.04284170288609488,0,70,255.0,255.0,255.0
254,12.700000000000001,3.6341173445354924,3.73029832669566,-4.307005791485571,-0.13016258086711238,-0.11573736846296787,-0.6488002755227487,-0.007396522056666919,-0.008791298290298323,-0.043227268697400956,0,70,255.0,255.0,255.0
255,12.75,3.6276,3.7245,-4.3395,-0.13053059734390052,-0.1162050823564376,-0.6509712781029013,-0.0073241370148589,-0.009917257448490813,-0.04361283450870701,0,70,255.0,255.0,255.0
256,12.8,3.621064007190478,3.718677838789443,-4.372103034183449,-0.1309152704581526,-0.11667157648436233,-0.6531491739383577,-0.008062787555223994,-0.008742507668497806,-0.04350299890954616,0,70,255.0,255.0,255.0
257,12.850000000000001,3.614507857412068,3.7128338213097134,-4.40481482586417,-0.13133687609942293,-0.1170793331232874,-0.6553215779938559,-0.008801438095589085,-0.007567757888504801,-0.04339316331038531,0,70,255.0,255.0,255.0
258,12.9,3.607929704038419,3.706970884435264,-4.437635100453168,-0.1317954142677115,-0.1174283522732128,-0.6574884902693962,-0.009540088635954153,-0.006393008108511835,-0.04328332771122447,0,70,255.0,255.0,255.0
259,12.950000000000001,3.60132770044318,3.701091965040542,-4.470563583361445,-0.13229088496301836,-0.11771863393413858,-0.6596499107649785,-0.010278739176319246,-0.005218258328518829,-0.04317349211206362,0,70,255.0,255.0,255.0
260,13.0,3.5947,3.6952,-4.5036,-0.13282328818534342,-0.11795017810606467,-0.6618058394806026,-0.011017389716683423,-0.00404350854852531,-0.04306365651290278,0,70,255.0,255.0,255.0
261,13.05,3.588045464777387,3.68929674794236,-4.536744143951582,-0.1333501022431862,-0.11819367953253512,-0.663960366720882,-0.010055172597026582,-0.005696548510292334,-0.043117433098274205,0,70,255.0,255.0,255.0
262,13.100000000000001,3.581365791623281,3.683379254513445,-4.56999608148591,-0.13382880544504608,-0.11851983295709391,-0.6661175827904301,-0.00909295547736974,-0.007349588472059357,-0.04317120968364563,0,70,255.0,255.0,255.0
263,13.15,3.574663386080482,3.677443387113349,-4.603355947044446,-0.13425939779092314,-0.11892863837974105,-0.6682774876892466,-0.008130738357712934,-0.00900262843382632,-0.04322498626901705,0,70,255.0,255.0,255.0
264,13.200000000000001,3.567940653691788,3.6714850131421692,-4.636823875068656,-0.1346418792808174,-0.11942009580047655,-0.6704400814173317,-0.007168521238056093,-0.010655668395593345,-0.043278762854388475,0,70,255.0,255.0,255.0
265,13.25,3.5612,3.6655,-4.6704,-0.13497624991472879,-0.11999420521930039,-0.6726053639746855,-0.006206304118399508,-0.012308708357359976,-0.04333253943975901,0,70,255.0,255.0,255.0
266,13.3,3.5544429336999745,3.659485569441116,-4.704084390010225,-0.13531632056910523,-0.12056970538549194,-0.674769359178115,-0.007396522056657967,-0.010711298290301973,-0.04322726869741711,0,70,255.0,255.0,255.0
267,13.350000000000001,3.547667376094808,3.653444360636507,-4.737876848192194,-0.13571590212039458,-0.1210653350483306,-0.6769280908444273,-0.008586739994916427,-0.00911388822324397,-0.04312199795507521,0,70,255.0,255.0,255.0
268,13.4,3.540870351639653,3.647380367111339,-4.771777111369048,-0.13617499456859686,-0.12148109420781635,-0.6790815589736224,-0.009776957933174842,-0.007516478156186023,-0.04301672721273331,0,70,255.0,255.0,255.0
269,13.450000000000001,3.534048884789666,3.641297582390781,-4.805784916363937,-0.13669359791371205,-0.1218169828639492,-0.6812297635657006,-0.010967175871433303,-0.0059190680891280205,-0.04291145647039141,0,70,255.0,255.0,255.0
270,13.5,3.5272,3.6352,-4.8399,-0.13727171215574016,-0.12207300101672915,-0.6833727046206615,-0.012157393809690609,-0.004321658022070296,-0.042806185728045065,0,70,255.0,255.0,255.0
271,13.55,3.520322000422715,3.629090574293175,-4.87412229600752,-0.1378326154803906,-0.1223114989254943,-0.6855221965666638,-0.01027873917632702,-0.005218258328535787,-0.04317349211204551,0,70,255.0,255.0,255.0
272,13.600000000000001,3.5134183039974882,3.6229681029405287,-4.908452525745321,-0.1382995860733729,-0.12259482684958273,-0.6876900538318661,-0.008400084542963428,-0.006114858635001278,-0.04354079849604596,0,70,255.0,255.0,255.0
273,13.65,3.5064936073609054,3.616830344441295,-4.94289160747936,-0.13867262393468696,-0.12292298478899444,-0.6898762764162684,-0.006521429909599905,-0.007011458941466737,-0.0439081048800464,0,70,255.0,255.0,255.0
274,13.700000000000001,3.499552607149548,3.6106750572947073,-4.977440459475601,-0.13895172906433287,-0.12329597274372942,-0.6920808643198707,-0.004642775276236315,-0.007908059247932229,-0.04427541126404685,0,70,255.0,255.0,255.0
275,13.75,3.4926,3.6045,-5.0121,-0.13913690146231059,-0.12371379071378764,-0.6943038175426731,-0.0027641206428727916,-0.008804659554397687,-0.04464271764804639,0,70,255.0,255.0,255.0
276,13.8,3.4856386646091657,3.5983033333861836,-5.046870425959696,-0.13933721750933395,-0.12415229891253689,-0.6965018545552341,-0.005248521238061068,-0.008735668395572093,-0.043278762854388635,0,70,255.0,255.0,255.0
277,13.850000000000001,3.478664207915237,3.592084827601378,-5.08174904882653,-0.13966175358611668,-0.12458735755334487,-0.6986316938281121,-0.007732921833249344,-0.008666677236746499,-0.041914808060730877,0,70,255.0,255.0,255.0
278,13.9,3.4716704189167253,3.585844655123481,-5.116732458713513,-0.14011050969265887,-0.12501896663621154,-0.7006933353613072,-0.010217322428437533,-0.008597686077920908,-0.04055085326707316,0,70,255.0,255.0,255.0
279,13.950000000000001,3.4646510866121423,3.5795829884303894,-5.151817245733667,-0.14068348582896048,-0.12544712616113696,-0.7026867791548194,-0.012701723023625808,-0.008528694919095314,-0.0391868984734154,0,70,255.0,255.0,255.0
280,14.0,3.4576,3.5733,-5.187,-0.14138068199502143,-0.12587183612812108,-0.7046120252086486,-0.015186123618813552,-0.008459703760269832,-0.03782294367975769,0,70,255.0,255.0,255.0
281,14.05,3.4505129411406203,3.56699609216209,-5.222278400153695,-0.14208251448227727,-0.12627930542435614,-0.7065343852124021,-0.012887175871419488,-0.007839068089132165,-0.03907145647038119,0,70,255.0,255.0,255.0
282,14.100000000000001,3.4433936643415612,3.560672586653957,-5.2576544789485675,-0.1426693995821634,-0.1266557429370343,-0.7085191708556868,-0.010588228124025423,-0.007218432417994496,-0.04031996926100469,0,70,255.0,255.0,255.0
283,14.15,3.4362479169721927,3.554331035064779,-5.2931313576665895,-0.14314133729467982,-0.12700114866615558,-0.7105663821385027,-0.008289280376631441,-0.00659779674685685,-0.041568482051628136,0,70,255.0,255.0,255.0
284,14.200000000000001,3.4290814464018826,3.547972988983734,-5.3287121575897425,-0.14349832761982653,-0.12731552261172,-0.7126760190608495,-0.0059903326292373785,-0.005977161075719182,-0.042816994842251634,0,70,255.0,255.0,255.0
285,14.25,3.4219,3.5416,-5.3644,-0.14374037055760355,-0.1275988647737275,-0.7148480816227277,-0.003691384881843396,-0.005356525404581092,-0.04406550763287509,0,70,255.0,255.0,255.0
286,14.3,3.414707970828353,3.535213097965456,-5.400197573425524,-0.14394872456155555,-0.12788247939004044,-0.7170566045951512,-0.004642775276236457,-0.005988059247936493,-0.04427541126406407,0,70,255.0,255.0,255.0
287,14.350000000000001,3.407504334718516,3.528811225782793,-5.436105835379209,-0.1442046480852272,-0.12819767069852117,-0.7192756227491341,-0.005594165670629519,-0.006619593091291893,-0.04448531489525305,0,70,255.0,255.0,255.0
288,14.4,3.400286713194502,3.5223928046174016,-5.472125310620131,-0.14450814112861848,-0.12854443869916962,-0.7215051360846766,-0.0065455560650225465,-0.007251126934647272,-0.04469521852644203,0,70,255.0,255.0,255.0
289,14.450000000000001,3.393052727780325,3.515956255634673,-5.508256523907368,-0.14485920369172947,-0.12892278339198587,-0.7237451446017784,-0.007496946459415608,-0.007882660778002672,-0.04490512215763101,0,70,255.0,255.0,255.0
290,14.5,3.3858,3.5095,-5.5445,-0.14525783577456006,-0.12933270477696987,-0.7259956483004397,-0.008448336853807747,-0.008514194621357385,-0.04511502578882265,0,70,255.0,255.0,255.0
291,14.55,3.378526375545967,3.503022715976084,-5.58085530614421,-0.1456905872714961,-0.12975877701548097,-0.7281991964069955,-0.008861723023634178,-0.008528694919086855,-0.04302689847340699,0,70,255.0,255.0,255.0
292,14.600000000000001,3.3712305967843754,3.4965241102148705,-5.617318179534605,-0.1461440080769235,-0.13018557426887856,-0.7302983381477804,-0.009275109193460607,-0.008543195216816324,-0.04093877115799133,0,70,255.0,255.0,255.0
293,14.65,3.3639116302498,3.4900041464656146,-5.653883399852893,-0.14661809819084218,-0.1306130965371626,-0.7322930735227946,-0.009688495363287022,-0.008557695514545794,-0.038850643842575736,0,70,255.0,255.0,255.0
294,14.700000000000001,3.3565684424768163,3.483462788477573,-5.690545746780788,-0.14711285761325218,-0.13104134382033314,-0.7341834025320381,-0.010101881533113453,-0.008572195812275264,-0.036762516527160075,0,70,255.0,255.0,255.0
295,14.75,3.3492,3.4769,-5.7273,-0.14762828634415348,-0.13147031611839013,-0.7359693251755106,-0.010515267702938758,-0.008586696110004732,-0.03467438921174448,0,70,255.0,255.0,255.0
296,14.8,3.341805726987778,3.470316038130207,-5.764142801997636,-0.1481369263524581,-0.13188241254803357,-0.7377626097768604,-0.009830332629245387,-0.00789716107573172,-0.03705699484224748,0,70,255.0,255.0,255.0
297,14.850000000000001,3.3343868781439823,3.463712333357725,-5.801078246482379,-0.14861131960707802,-0.1322600322259633,-0.7396750246597354,-0.009145397555552017,-0.007207626041458706,-0.03943960047275048,0,70,255.0,255.0,255.0
298,14.9,3.326945165806298,3.4570906095201392,-5.838112289968302,-0.1490514661080133,-0.13260317515217943,-0.7417065698241355,-0.008460462481858673,-0.0065180910071857175,-0.04182220610325339,0,70,255.0,255.0,255.0
299,14.950000000000001,3.3194823023124087,3.4504525904550354,-5.875250888969484,-0.1494573658552639,-0.13291184132668188,-0.7438572452700607,-0.007775527408165303,-0.005828555972912704,-0.04420481173375639,0,70,255.0,255.0,255.0
300,15.0,3.312,3.4438,-5.9125,-0.14982901884882982,-0.1331860307494707,-0.7461270509975111,-0.007090592334471069,-0.005139020938639716,-0.04658741736425753,0,70,255.0,255.0,255.0
301,15.05,3.3044995165029216,3.437133931503087,-5.949863885865245,-0.15019370731867654,-0.13346357279238666,-0.7484143644855589,-0.007496946459398052,-0.0059626607779982195,-0.04490512215764892,0,70,255.0,255.0,255.0
302,15.100000000000001,3.296980290639695,3.430452956354228,-5.987340034535884,-0.15057871349476962,-0.13378229682727052,-0.750617563213276,-0.007903300584325035,-0.006786300617356723,-0.043222826951040315,0,70,255.0,255.0,255.0
303,15.15,3.2894413065250068,3.423755015453827,-6.0249242402739,-0.15098403737710905,-0.1341422028541223,-0.7527366471806628,-0.008309654709252004,-0.007609940456715198,-0.041540531744431765,0,70,255.0,255.0,255.0
304,15.200000000000001,3.281881548273546,3.4170380497022834,-6.062612297341278,-0.15140967896569482,-0.13454329087294203,-0.7547716163877192,-0.008716008834178987,-0.008433580296073702,-0.03985823653782315,0,70,255.0,255.0,255.0
305,15.25,3.2743,3.4103,-6.1004,-0.15185563826052695,-0.13498556088372965,-0.756722470834445,-0.009122362959105956,-0.009257220135431066,-0.038175941331208385,0,70,255.0,255.0,255.0
306,15.3,3.2666962070005354,3.4035394358574456,-6.138284054541385,-0.15228824437283253,-0.1354312962824221,-0.7586439322809041,-0.008181881533117505,-0.008572195812266415,-0.03868251652715405,0,70,255.0,255.0,255.0
307,15.350000000000001,3.2590719592972386,3.39675744122536,-6.176264815374087,-0.15267382641383873,-0.13584278046495632,-0.7605907224871604,-0.007241400107129054,-0.007887171489101766,-0.039189091723099714,0,70,255.0,255.0,255.0
308,15.4,3.251429608093674,3.3899557286645527,-6.214343548936098,-0.15301238438354545,-0.13622001343133228,-0.7625628414532141,-0.006300918681140637,-0.00720214716593714,-0.039695666919045365,0,70,255.0,255.0,255.0
309,15.450000000000001,3.2437715045934055,3.3831360107358295,-6.252521521665406,-0.15330391828195278,-0.13656299518155002,-0.764560289179065,-0.005360437255152187,-0.00651712284277249,-0.04020224211499103,0,70,255.0,255.0,255.0
310,15.5,3.2361,3.3763,-6.2908,-0.1535484281090607,-0.13687172571560952,-0.7665830656647131,-0.004419955829164435,-0.005832098519606976,-0.040708817310936674,0,70,255.0,255.0,255.0
311,15.55,3.2284164554949353,3.369449125067131,-6.329179895969218,-0.15380531518999427,-0.13716324207792271,-0.7686099063908303,-0.0058555274081781164,-0.005828555972921113,-0.04036481173374877,0,70,255.0,255.0,255.0
312,15.600000000000001,3.220718272171351,3.36258367874433,-6.36766070396777,-0.1541339808498785,-0.1374545813129016,-0.7706195468380881,-0.007291098987191798,-0.005825013426235248,-0.04002080615656086,0,70,255.0,255.0,255.0
313,15.65,3.213001861100299,3.3557036698879634,-6.406241563981712,-0.15453442508871343,-0.13774574342054624,-0.7726119870064864,-0.008726670566205429,-0.005821470879549384,-0.03967680057937297,0,70,255.0,255.0,255.0
314,15.700000000000001,3.205263633352831,3.3488091073543975,-6.444921615997104,-0.15500664790649907,-0.13803672840085657,-0.7745872268960254,-0.010162242145219111,-0.00581792833286352,-0.03933279500218507,0,70,255.0,255.0,255.0
315,15.75,3.1975,3.3419,-6.4837,-0.15555064930323537,-0.13832753625383257,-0.7765452665067049,-0.011597813724233852,-0.00581438578617699,-0.03898878942499717,0,70,255.0,255.0,255.0
316,15.8,3.1897083710197203,3.3349760638740293,-6.522576361581748,-0.15610649486719516,-0.13863573540588872,-0.7785164421557753,-0.010636008834157615,-0.006513580296069109,-0.03985823653782018,0,70,255.0,255.0,255.0
317,15.850000000000001,3.1818901520173553,3.3280358437973194,-6.561552368754839,-0.15661425018665115,-0.13897889428343949,-0.7805310901604869,-0.009674203944081378,-0.007212774805961228,-0.04072768365064319,0,70,255.0,255.0,255.0
318,15.9,3.17404774750513,3.321077591783594,-6.600630195137056,-0.1570739152616033,-0.13935701288648483,-0.7825892105208396,-0.008712399054005174,-0.007911969315853322,-0.04159713076346617,0,70,255.0,255.0,255.0
319,15.950000000000001,3.16618356199527,3.3140995598465794,-6.639812014346184,-0.15748549009205168,-0.13977009121502482,-0.7846908032368335,-0.0077505941639289385,-0.008611163825745442,-0.04246657787628918,0,70,255.0,255.0,255.0
320,16.0,3.1583,3.3071,-6.6791,-0.1578489746779962,-0.14021812926905936,-0.7868358683084685,-0.006788789273851847,-0.009310358335637314,-0.04333602498911038,0,70,255.0,255.0,255.0
321,16.05,3.1503988604261823,3.3000778194367495,-6.7184954577037965,-0.15820070534122163,-0.1406618162985197,-0.7889723249860714,-0.007280437255164614,-0.008437122842776366,-0.042122242115002866,0,70,255.0,255.0,255.0
322,16.1,3.142479519759227,3.2930345460663917,-6.7579962210128794,-0.15857701840351265,-0.141061841553337,-0.7910480925199689,-0.00777208523647738,-0.007563887349915419,-0.04090845924089535,0,70,255.0,255.0,255.0
323,16.150000000000002,3.1345407488791794,3.2859723629776596,-6.7975992554700655,-0.15897791386486937,-0.14141820503351124,-0.793063170910161,-0.008263733217790146,-0.006690651857054471,-0.03969467636678784,0,70,255.0,255.0,255.0
324,16.2,3.126581318666089,3.2788934532592853,-6.837301526618165,-0.15940339172529164,-0.14173090673904243,-0.7950175601566476,-0.008755381199102878,-0.005817416364193586,-0.03848089349268042,0,70,255.0,255.0,255.0
325,16.25,3.1186,3.2718,-6.8771,-0.15985345198477965,-0.14199994666993063,-0.7969112602594289,-0.00924702918041631,-0.0049441808713328594,-0.03726711061857113,0,70,255.0,255.0,255.0
326,16.3,3.11059618727555,3.264693458378972,-6.916992207603072,-0.1602906837679207,-0.14226899940003554,-0.798778257899947,-0.008242242145224428,-0.005817928332863133,-0.03741279500215509,0,70,255.0,255.0,255.0
327,16.35,3.1025717689457366,3.2575723719371115,-6.956977947193649,-0.1606776761993021,-0.14258173950321695,-0.8006525397596445,-0.007237455110032548,-0.006691675794393406,-0.037558479385739044,0,70,255.0,255.0,255.0
328,16.400000000000002,3.094529256978149,3.2504345563057653,-6.99705758298269,-0.16101442927892395,-0.1429381669794749,-0.802534105838521,-0.006232668074840665,-0.00756542325592368,-0.037704163769323,0,70,255.0,255.0,255.0
329,16.45,3.086471163340374,3.2432778271162794,-7.037231479181153,-0.16130094300678616,-0.14333828182880928,-0.8044229561365768,-0.005227881039648855,-0.00843917071745389,-0.03784984815290695,0,70,255.0,255.0,255.0
330,16.5,3.0784,3.2361,-7.0775,-0.16153721738288881,-0.14378208405122025,-0.8063190906538118,-0.004223094004456529,-0.009312918178984164,-0.037995532536491794,0,70,255.0,255.0,255.0
331,16.55,3.0703171904716164,3.2288995470473623,-7.11786371188392,-0.16178855958709815,-0.14423018610133828,-0.808234643414132,-0.0058305941639157375,-0.008611163825736625,-0.038626577876314634,0,70,255.0,255.0,255.0
332,16.6,3.0622198044578233,3.22167756618516,-7.15832399021253,-0.1621202767992804,-0.14464320043379392,-0.8101817484414433,-0.007438094323374946,-0.007909409472489084,-0.03925762321613748,0,70,255.0,255.0,255.0
333,16.650000000000002,3.054103823208222,3.214435811799277,-7.198882412599182,-0.16253236901943563,-0.14502112704858722,-0.8121604057357458,-0.009045594482834153,-0.007207655119241544,-0.03988866855596032,0,70,255.0,255.0,255.0
334,16.7,3.045965227972414,3.207176038275596,-7.23954055665722,-0.16302483624756378,-0.14536396594571807,-0.8141706152970393,-0.010653094642293248,-0.006505900765994053,-0.04051971389578312,0,70,255.0,255.0,255.0
335,16.75,3.0378,3.1999,-7.2803,-0.1635976784836649,-0.14567171712518656,-0.8162123771253241,-0.012260594801752234,-0.005804146412746292,-0.04115075923560152,0,70,255.0,255.0,255.0
336,16.8,3.029605450837982,3.192609153431578,-7.321161744861252,-0.1641710778836864,-0.14596225619461028,-0.818251168443531,-0.010675381199107447,-0.005817416364202366,-0.040400893492672715,0,70,255.0,255.0,255.0
337,16.85,3.0213842132229667,3.185303763322246,-7.362124491956235,-0.16466521660357566,-0.1462534587616068,-0.8202524664745915,-0.00909016759646266,-0.00583068631565844,-0.03965102774974392,0,70,255.0,255.0,255.0
338,16.900000000000002,3.01314025018896,3.1779837964971245,-7.403186366620593,-0.16508009464333268,-0.14654532482617613,-0.8222162712185055,-0.007504953993817874,-0.0058439562671145145,-0.038901162006815114,0,70,255.0,255.0,255.0
339,16.95,3.0048775247699693,3.170649219781336,-7.444345494189965,-0.16541571200295746,-0.14683785438831826,-0.8241425826752729,-0.005919740391173201,-0.005857226218570588,-0.03815129626388637,0,70,255.0,255.0,255.0
340,17.0,2.9966,3.1633,-7.4856,-0.16567206868245002,-0.14713104744803318,-0.8260314008448939,-0.004334526788528192,-0.005870496170026662,-0.03740143052095313,0,70,255.0,255.0,255.0
341,17.05,2.9883106061764533,3.1559358392263244,-7.526948508671076,-0.16591112887815443,-0.1474407891202201,-0.82791268281174,-0.005227881039648498,-0.006519170717449905,-0.037849848152890435,0,70,255.0,255.0,255.0
342,17.1,2.9800081426503082,3.148555380525855,-7.568391641962535,-0.16619485678641488,-0.14778296451977818,-0.829816385660183,-0.006121235290768804,-0.007167845264873148,-0.03829826578482775,0,70,255.0,255.0,255.0
343,17.150000000000002,2.971690376035936,3.1411570022122235,-7.609930520918455,-0.16652325240723134,-0.14815757364670742,-0.8317425093902229,-0.00701458954188911,-0.00781651981229639,-0.03874668341676506,0,70,255.0,255.0,255.0
344,17.2,2.9633550729477096,3.1337390825990616,-7.651566266582915,-0.1668963157406038,-0.1485646165010078,-0.8336910540018594,-0.007907943793009352,-0.008465194359719588,-0.03919510104870234,0,70,255.0,255.0,255.0
345,17.25,2.955,3.1263,-7.6933,-0.16731404678653222,-0.14900409308267934,-0.8356620194950929,-0.008801298044128547,-0.009113868907142608,-0.03964351868063698,0,70,255.0,255.0,255.0
346,17.3,2.946623324456202,3.118838689663124,-7.735132220454446,-0.16775240660369287,-0.14944258732450788,-0.8376181003095043,-0.008733094642297256,-0.008425900765997908,-0.03859971389582081,0,70,255.0,255.0,255.0
347,17.35,2.938224816175799,3.1113563145743335,-7.777060940193631,-0.16818735625076198,-0.14984668315927913,-0.839521990884675,-0.008664891240465964,-0.0077379326248532086,-0.03755590911100463,0,70,255.0,255.0,255.0
348,17.400000000000002,2.9298046456672937,3.103854594653981,-7.819083549705594,-0.16861889572773947,-0.1502163805869932,-0.8413736912206048,-0.008596687838634673,-0.007049964483708508,-0.036512104326188455,0,70,255.0,255.0,255.0
349,17.45,2.9213629834391934,3.0963352498224186,-7.861197439478369,-0.1690470250346254,-0.15055167960764998,-0.8431732013172939,-0.008528484436803386,-0.0063619963425638575,-0.03546829954137235,0,70,255.0,255.0,255.0
350,17.5,2.9129,3.0888,-7.9034,-0.1694717441714198,-0.15085258022124956,-0.8449205211747421,-0.008460281034972539,-0.005674028201418269,-0.03442449475655884,0,70,255.0,255.0,255.0
351,17.55,2.904416095998737,3.0812502021211787,-7.945689809511145,-0.16987924470707355,-0.15114086158174928,-0.8466869159502526,-0.007839740391177664,-0.00585722621857028,-0.03623129626385551,0,70,255.0,255.0,255.0
352,17.6,2.895912592646496,3.0736857611768107,-7.98807019726295,-0.1702557182105376,-0.1514383028431066,-0.8485436508011278,-0.007219199747382792,-0.0060404242357222915,-0.03803809777115218,0,70,255.0,255.0,255.0
353,17.650000000000002,2.8873910412948858,3.0661062191718536,-8.03054568025918,-0.17060116468181186,-0.1517449040053215,-0.8504907257273677,-0.006598659103587918,-0.006223622252874302,-0.03984489927844884,0,70,255.0,255.0,255.0
354,17.7,2.878852993295518,3.058511118111264,-8.073120775503607,-0.17091558412089636,-0.15206066506839402,-0.8525281407289725,-0.005978118459793089,-0.0064068202700263005,-0.04165170078574538,0,70,255.0,255.0,255.0
355,17.75,2.8703,3.0509,-8.1158,-0.17119897652779115,-0.1523855860323241,-0.8546558958059423,-0.00535757781599866,-0.006590018287177646,-0.04345850229304382,0,70,255.0,255.0,255.0
356,17.8,2.8617330915488495,3.043272501852161,-8.15858614150098,-0.17148261456801603,-0.15271396634849643,-0.8567702358894858,-0.0059879437929963066,-0.006545194359715367,-0.04111510104869641,0,70,255.0,255.0,255.0
357,17.85,2.8531512132382173,3.035628640718423,-8.20147507075458,-0.17179777090709078,-0.15304010546829566,-0.8587674059108119,-0.006618309769993953,-0.006500370432253088,-0.038771699804349004,0,70,255.0,255.0,255.0
358,17.900000000000002,2.844552789153159,3.027968528658604,-8.244460929257691,-0.17214444554501543,-0.15336400339172174,-0.8606474058699207,-0.0072486757469916,-0.0064555465047908085,-0.03642829856000159,0,70,255.0,255.0,255.0
359,17.95,2.835936243378735,3.020292277732524,-8.287537858507202,-0.17252263848178992,-0.15368566011877474,-0.8624102357668121,-0.007879041723989202,-0.006410722577328532,-0.03408489731565435,0,70,255.0,255.0,255.0
360,18.0,2.8273,3.0126,-8.3307,-0.17293234971741436,-0.1540050756494546,-0.8640558956014862,-0.008509407700986626,-0.006365898649865809,-0.031741496071304276,0,70,255.0,255.0,255.0
361,18.05,2.8186427378058627,3.0048917904701766,-8.373943224484945,-0.17335829702085934,-0.15432327302426532,-0.8656881404918036,-0.008528484436811779,-0.006361996342563447,-0.03354829954139354,0,70,255.0,255.0,255.0
362,18.1,2.8099641544006344,2.9971676759494956,-8.417270319718739,-0.17378519816109556,-0.15464127528371097,-0.8674107255556256,-0.008547561172636931,-0.006358094035261086,-0.0353551030114828,0,70,255.0,255.0,255.0
363,18.150000000000002,2.8012642020924736,2.989427666193728,-8.460685802710065,-0.17421305313812302,-0.15495908242779144,-0.869223650792952,-0.008566637908462084,-0.006354191727958724,-0.03716190648157206,0,70,255.0,255.0,255.0
364,18.2,2.7925428331895423,2.98167177095864,-8.504194190467592,-0.17464186195194176,-0.1552766944565068,-0.8711269162037827,-0.008585714644287234,-0.006350289420656363,-0.03896870995166119,0,70,255.0,255.0,255.0
365,18.25,2.7838,2.9739,-8.5478,-0.1750716246025517,-0.15559411136985707,-0.873120521788118,-0.008604791380112164,-0.006346387113353558,-0.04077551342175045,0,70,255.0,255.0,255.0
366,18.3,2.7750359572276975,2.966112336267133,-8.591506560559253,-0.17548419734854948,-0.15591294155444155,-0.8751332021433053,-0.007898118459797389,-0.006406820270025816,-0.039731700785734056,0,70,255.0,255.0,255.0
367,18.35,2.7662521691592445,2.958308655483592,-8.63531245037047,-0.17586143644853147,-0.15623479339685967,-0.8770936918666915,-0.0071914455394826125,-0.006467253426698074,-0.03868788814971766,0,70,255.0,255.0,255.0
368,18.400000000000002,2.7574504024769437,2.950488806566483,-8.67921505990206,-0.17620334190249773,-0.15655966689711137,-0.879001990958277,-0.0064847726191678366,-0.006527686583370332,-0.03764407551370126,0,70,255.0,255.0,255.0
369,18.45,2.7486324238630955,2.942652638432917,-8.723211779622432,-0.17650991371044822,-0.1568875620551967,-0.8808580994180616,-0.005778099698853111,-0.006588119740042585,-0.03660026287768493,0,70,255.0,255.0,255.0
370,18.5,2.7398,2.9348,-8.7673,-0.17678115187238305,-0.15721847887111562,-0.8826620172460455,-0.005071426778539001,-0.006648552896714843,-0.035556450241669424,0,70,255.0,255.0,255.0
371,18.55,2.7309542332833465,2.9269308644612897,-8.811477733278052,-0.17705691358494596,-0.1575449607579667,-0.8844510509349786,-0.005959041723976867,-0.006410722577328439,-0.03600489731564914,0,70,255.0,255.0,255.0
372,18.6,2.722093568962384,2.9190457021161365,-8.855745478799395,-0.17737705604478074,-0.15785955112884847,-0.8862625069776104,-0.006846656669414733,-0.006172892257942035,-0.03645334438962885,0,70,255.0,255.0,255.0
373,18.650000000000002,2.713215787999747,2.9111451075403374,-8.900104357681709,-0.17774157925188744,-0.1581622499837609,-0.8880963853739415,-0.007734271614852599,-0.005935061938555631,-0.036901791463608564,0,70,255.0,255.0,255.0
374,18.7,2.704318671358074,2.903229675309693,-8.944555491042681,-0.178150483206266,-0.15845305732270404,-0.8899526861239713,-0.008621886560290403,-0.005697231619169244,-0.037350238537588246,0,70,255.0,255.0,255.0
375,18.75,2.6954,2.8953,-8.9891,-0.17860376790791643,-0.15873197314567783,-0.8918314092277002,-0.009509501505727158,-0.005459401299782396,-0.037798685611571514,0,70,255.0,255.0,255.0
376,18.8,2.6864583096389136,2.887356205887708,-9.033738506328543,-0.17905614831166677,-0.15902721541368903,-0.8937025941167812,-0.008585714644286556,-0.006350289420664547,-0.037048709951666925,0,70,255.0,255.0,255.0
377,18.85,2.677495154991217,2.879396536051864,-9.078469634431963,-0.1794623393723451,-0.1593670020877443,-0.8955362802228669,-0.007661927782845952,-0.007241177541546698,-0.036298734291762336,0,70,255.0,255.0,255.0
378,18.900000000000002,2.668512845524064,2.8714187632721657,-9.123291509371114,-0.17982234108995138,-0.1597513331678437,-0.8973324675459575,-0.00673814092140535,-0.008132065662428849,-0.035548758631857746,0,70,255.0,255.0,255.0
379,18.95,2.659513690704607,2.863420660328312,-9.16820225620684,-0.18013615346448564,-0.16018020865398713,-0.8990911560860526,-0.005814354059964812,-0.009022953783310937,-0.03479878297195321,0,70,255.0,255.0,255.0
380,19.0,2.6505,2.8554,-9.2132,-0.18040377649594788,-0.16065362854617474,-0.9008123458431528,-0.0048905671985248755,-0.009913841904192422,-0.034048807312047735,0,70,255.0,255.0,255.0
381,19.05,2.6414733281609957,2.847355511987879,-9.258283441407785,-0.18067049316838257,-0.16111417758728053,-0.9025305725978963,-0.005778099698862395,-0.008508119740038046,-0.03468026287768869,0,70,255.0,255.0,255.0
382,19.1,2.6324322110727447,2.8392897536764083,-9.303453583472763,-0.18098158646583412,-0.16150444052017854,-0.9042803721309217,-0.006665632199199915,-0.007102397575883672,-0.03531171844332965,0,70,255.0,255.0,255.0
383,19.150000000000002,2.623374429903995,2.831206239370998,-9.34871200483385,-0.18133705638830258,-0.16182441734486888,-0.9060617444422293,-0.007553164699537433,-0.005696675411729297,-0.0359431740089706,0,70,255.0,255.0,255.0
384,19.200000000000003,2.614297765823497,2.8231084833770583,-9.394060284129958,-0.1817369029357879,-0.1620741080613515,-0.9078746895318188,-0.008440697199874954,-0.0042909532475749225,-0.036574629574611564,0,70,255.0,255.0,255.0
385,19.25,2.6052,2.815,-9.4395,-0.18218112610829007,-0.1622535126696264,-0.9097192073996904,-0.009328229700212631,-0.0028852310834208694,-0.037206085140252476,0,70,255.0,255.0,255.0
386,19.3,2.5960795777171017,2.8068833461607747,-9.485032528040326,-0.18262987901480263,-0.16242007423719085,-0.9115831154916365,-0.00862188656028965,-0.003777231619156586,-0.037350238537589855,0,70,255.0,255.0,255.0
387,19.35,2.586937600717803,2.798757249242501,-9.530658431676997,-0.18304331476431907,-0.16263123583154207,-0.9134542312534495,-0.00791554342036667,-0.004669232154892303,-0.037494391934927235,0,70,255.0,255.0,255.0
388,19.400000000000002,2.5777758348599527,2.79061947924384,-9.576378071293504,-0.18342143335683933,-0.1628869974526801,-0.9153325546851293,-0.007209200280443687,-0.005561232690628019,-0.037638545332264614,0,70,255.0,255.0,255.0
389,19.450000000000003,2.568596046001402,2.782467806163453,-9.622191807273342,-0.18376423479236342,-0.16318735910060486,-0.9172180857866759,-0.006502857140520705,-0.006453233226363737,-0.03778269872960199,0,70,255.0,255.0,255.0
390,19.5,2.5594,2.7743,-9.6681,-0.1840717190708914,-0.1635323207753164,-0.9191108245580893,-0.005796514000598441,-0.007345233762099168,-0.037926852126935806,0,70,255.0,255.0,255.0
391,19.55,2.550189160970597,2.7661143033690228,-9.714102446430916,-0.18436199077240548,-0.16389352546395197,-0.9209769654355606,-0.005814354059965288,-0.007102953783323548,-0.03671878297191336,0,70,255.0,255.0,255.0
392,19.6,2.540963786056043,2.757910849353587,-9.760196689819262,-0.18465315447688793,-0.16424261615364877,-0.9227827028552807,-0.005832194119332135,-0.006860673804547928,-0.035510713816890915,0,70,255.0,255.0,255.0
393,19.650000000000002,2.5317238306561913,2.7496902436536397,-9.80637970999215,-0.1849452101843387,-0.16457959284440676,-0.9245280368172497,-0.005850034178698982,-0.006618393825772307,-0.03430264466186847,0,70,255.0,255.0,255.0
394,19.700000000000003,2.5224692501708934,2.7414530919691287,-9.852648486776692,-0.18523815789475784,-0.164904455536226,-0.9262129673214676,-0.0058678742380658296,-0.006376113846996686,-0.033094575506846025,0,70,255.0,255.0,255.0
395,19.75,2.5132,2.7332,-9.899,-0.1855319976081453,-0.16521720422910643,-0.9278374943679343,-0.005885714297432232,-0.0061338338682210836,-0.03188650635181833,0,70,255.0,255.0,255.0
396,19.8,2.5039157784005113,2.7249314403631346,-9.945432086236012,-0.18584215789557787,-0.16552582390700143,-0.9294530227660961,-0.006520697199870771,-0.006210953247579322,-0.03273462957465317,0,70,255.0,255.0,255.0
397,19.85,2.494615255058023,2.7166473533431503,-9.991946009045963,-0.18618406732813236,-0.1658382995538644,-0.9311109573253997,-0.00715568010230931,-0.00628807262693756,-0.033582752797488014,0,70,255.0,255.0,255.0
398,19.900000000000002,2.485296842515279,2.7083475461415984,-10.038543888737905,-0.1865577259058088,-0.1661546311696952,-0.9328112980458448,-0.0077906630047478494,-0.006365192006295798,-0.034430876020322854,0,70,255.0,255.0,255.0
399,19.950000000000003,2.4759589533150232,2.7000318259600307,-10.085227845619903,-0.18696313362860717,-0.16647481875449396,-0.934554044927432,-0.008425645907186387,-0.006442311385654036,-0.0352789992431577,0,70,255.0,255.0,255.0
400,20.0,2.4666,2.6917,-10.132,-0.1874002904965274,-0.16679886230826058,-0.9363391979701607,-0.009060628809625104,-0.0065194307650120464,-0.03612712246599159,0,70,255.0,255.0,255.0
401,20.05,2.457218925427357,2.6833519351784387,-10.178862008625034,-0.18783737764528094,-0.16712317890804476,-0.9381389435000516,-0.008422857140516972,-0.006453233226354981,-0.03586269872963931,0,70,255.0,255.0,255.0
402,20.1,2.4478167937118624,2.6749877372738107,-10.225813673996893,-0.1882425762105791,-0.16744418563089608,-0.9399254678431247,-0.007785085471408841,-0.006387035687697915,-0.03559827499328704,0,70,255.0,255.0,255.0
403,20.150000000000002,2.4383951992826898,2.666607571779964,-10.272854335056236,-0.18861588619242187,-0.16776188247681456,-0.9416987709993803,-0.007147313802300709,-0.00632083814904085,-0.035333851256934765,0,70,255.0,255.0,255.0
404,20.200000000000003,2.428955736569011,2.658211604190744,-10.31998333074372,-0.1889573075908092,-0.16807626944580017,-0.9434588529688183,-0.006509542133192578,-0.006254640610383784,-0.035069427520582494,0,70,255.0,255.0,255.0
405,20.25,2.4195,2.6498,-10.3672,-0.1892668404057411,-0.16838734653785295,-0.9452057137514385,-0.0058717704640844914,-0.0061884430717265015,-0.03480500378422491,0,70,255.0,255.0,255.0
406,20.3,2.410029319890061,2.641372818923111,-10.414503879263854,-0.1895603315232953,-0.16870146046082105,-0.9469512032337134,-0.00586787423808266,-0.006376113846996525,-0.03501457550676932,0,70,255.0,255.0,255.0
407,20.35,2.4005439700945255,2.6329296975616043,-10.461895294966476,-0.18985362782954937,-0.16902495792255262,-0.9487071713021155,-0.005863978012080828,-0.0065637846222665495,-0.03522414722931373,0,70,255.0,255.0,255.0
408,20.400000000000002,2.39104396035396,2.624470166738543,-10.509374771037171,-0.19014672932450338,-0.1693578389230477,-0.9504736179566448,-0.005860081786078997,-0.006751455397536573,-0.03543371895185815,0,70,255.0,255.0,255.0
409,20.450000000000003,2.3815293004089297,2.6159937572769874,-10.556942831405244,-0.19043963600815728,-0.16970010346230627,-0.9522505431973013,-0.005856185560077165,-0.0069391261728065975,-0.03564329067440256,0,70,255.0,255.0,255.0
410,20.5,2.372,2.6075,-10.6046,-0.19073234788051108,-0.1700517515403283,-0.954037947024085,-0.005852289334074889,-0.007126796948075498,-0.03585286239694696,0,70,255.0,255.0,255.0
411,20.55,2.362455795012401,2.598988789129116,-10.652346474319552,-0.1910412962615423,-0.17039097924867153,-0.9558162435650885,-0.006505645907173561,-0.0064423113856535335,-0.03527899924319299,0,70,255.0,255.0,255.0
412,20.6,2.3528953259100343,2.5904614724797677,-10.700181146137215,-0.19138291247122846,-0.1706959826788937,-0.9575658469484043,-0.007159002480272233,-0.005757825823231569,-0.03470513608943902,0,70,255.0,255.0,255.0
413,20.650000000000002,2.343316959301467,2.581919761265862,-10.7481025807951,-0.19175719650956952,-0.1709667618309947,-0.9592867571740323,-0.0078123590533709045,-0.005073340260809604,-0.03413127293568505,0,70,255.0,255.0,255.0
414,20.700000000000003,2.3337190617952666,2.573365366701304,-10.796109343635326,-0.19216414837656554,-0.17120331670497466,-0.9609789742419729,-0.008465715626469576,-0.00438885469838764,-0.03355740978193108,0,70,255.0,255.0,255.0
415,20.75,2.3241,2.5648,-10.8442,-0.1926037680722165,-0.17140564730083344,-0.9626424981522254,-0.009119072199568423,-0.0037043691359646136,-0.03298354662817449,0,70,255.0,255.0,255.0
416,20.8,2.314458700060334,2.5562248245604238,-10.892373423457938,-0.19304248343053543,-0.17160662254449224,-0.9642958225059444,-0.008429542133188174,-0.004334640610388228,-0.03314942752058432,0,70,255.0,255.0,255.0
417,20.85,2.304796326265335,2.5476388125193217,-10.940629720484674,-0.1934467222855353,-0.17183911136187227,-0.9659574409042838,-0.007740012066807925,-0.004964912084811842,-0.033315308412994155,0,70,255.0,255.0,255.0
418,20.900000000000002,2.2951146024401687,2.5390403881980075,-10.988969305782444,-0.1938164846372162,-0.17210311375297346,-0.9676273533472438,-0.0070504820004276755,-0.005595183559235455,-0.03348118930540399,0,70,255.0,255.0,255.0
419,20.950000000000003,2.2854152524100018,2.5304279759177954,-11.037392594053477,-0.1941517704855781,-0.17239862971779582,-0.9693055598348242,-0.006360951934047426,-0.006225455033659069,-0.03364707019781382,0,70,255.0,255.0,255.0
420,21.0,2.2757,2.5218,-11.0859,-0.19445257983062095,-0.17272565925633934,-0.9709920603670252,-0.005671421867665893,-0.00685572650808175,-0.03381295109022098,0,70,255.0,255.0,255.0
421,21.05,2.2659702047462624,2.513155112629187,-11.134491831848708,-0.19474077001631473,-0.17307053057336133,-0.9726804664111401,-0.005856185560084939,-0.0069391261727973505,-0.03372329067437185,0,70,255.0,255.0,255.0
422,21.1,2.2562257690286245,2.5044928774429427,-11.183167971924103,-0.19503819838662945,-0.1734195718736191,-0.9743643894344625,-0.006040949252503985,-0.007022525837512952,-0.03363363025852273,0,70,255.0,255.0,255.0
423,21.150000000000002,2.2464662309378554,2.495813085942104,-11.231928196075142,-0.19534486494156514,-0.17377278315711264,-0.9760438294369923,-0.006225712944923031,-0.007105925502228553,-0.0335439698426736,0,70,255.0,255.0,255.0
424,21.200000000000003,2.236691128564724,2.487115529627511,-11.280772280150792,-0.19566076968112175,-0.17413016442384194,-0.9777187864187299,-0.006410476637342077,-0.007189325166944154,-0.03345430942682447,0,70,255.0,255.0,255.0
425,21.25,2.2269,2.4784,-11.3297,-0.19598591260529932,-0.174491715673807,-0.9793892603796747,-0.0065952403297611095,-0.007272724831658639,-0.033364649010976244,0,70,255.0,255.0,255.0
426,21.3,2.2170924809546158,2.469666724922826,-11.378711249147237,-0.19631443650420502,-0.17483125516205825,-0.9810623118494973,-0.006545715626465975,-0.0063088546983910065,-0.03355740978193094,0,70,255.0,255.0,255.0
427,21.35,2.2072685976201654,2.4609176777089052,-11.427806391818928,-0.19664048416794594,-0.1751226011436461,-0.9827450013578678,-0.00649619092317084,-0.005344984565123373,-0.033750170552885636,0,70,255.0,255.0,255.0
428,21.400000000000002,2.197428473808407,2.4521552680335716,-11.476985909917001,-0.1969640555965221,-0.1753657536185706,-0.984437328904786,-0.0064466662198757055,-0.004381114431855741,-0.033942931323840325,0,70,255.0,255.0,255.0
429,21.450000000000003,2.1875722333310987,2.443381905572159,-11.526250285343384,-0.1972851507899335,-0.17556071258683167,-0.986139294490252,-0.00639714151658057,-0.0034172442985881076,-0.03413569209479502,0,70,255.0,255.0,255.0
430,21.5,2.1777,2.4346,-11.5756,-0.19760376974818014,-0.17570747804842937,-0.9878508981142654,-0.006347616813285439,-0.0024533741653207652,-0.034328452865753256,0,70,255.0,255.0,255.0
431,21.55,2.167811871435274,2.4258107876795103,-11.62503517156235,-0.19792148396686365,-0.1758764487784042,-0.9895502861908554,-0.006360951934055459,-0.00430545503367215,-0.03364707019784862,0,70,255.0,255.0,255.0
432,21.6,2.157907840490713,2.4170108117214357,-11.674554460800195,-0.19823986494158571,-0.17613802355179659,-0.9912156051340504,-0.0063742870548254785,-0.0061575359020235336,-0.03296568752994398,0,70,255.0,255.0,255.0
433,21.650000000000002,2.1479878738285145,2.4081954419236062,-11.724156164256867,-0.1985589126723462,-0.17649220236860655,-0.9928468549438499,-0.006387622175595498,-0.008009616770374917,-0.03228430486203934,0,70,255.0,255.0,255.0
434,21.700000000000003,2.1380519381108773,2.3993600480838513,-11.773838578475694,-0.19887862715914525,-0.1769389852288341,-0.9944440356202543,-0.006400957296365518,-0.009861697638726302,-0.0316029221941347,0,70,255.0,255.0,255.0
435,21.75,2.1281,2.3905,-11.8236,-0.19919900840198276,-0.1774783721324792,-0.9960071471632633,-0.0064142924171355364,-0.011713778507077777,-0.030921539526233666,0,70,255.0,255.0,255.0
436,21.8,2.1181320333042875,2.3816125243591335,-11.873439264603364,-0.1995196276283445,-0.17799894972432942,-0.9975685433870899,-0.00641047663733354,-0.009109325166930445,-0.0315343094268295,0,70,255.0,255.0,255.0
437,21.85,2.1081480404169817,2.3727022754053504,-11.923357364980294,-0.19984005606571612,-0.17838930464917224,-0.9991605781059463,-0.006406660857531543,-0.006504871826783113,-0.032147079327425325,0,70,255.0,255.0,255.0
438,21.900000000000002,2.0981480308775318,2.3637757642719994,-11.973355833055544,-0.20016029371409766,-0.1786494369070077,-1.0007832513198325,-0.006402845077729547,-0.0039004184866357813,-0.03275984922802116,0,70,255.0,255.0,255.0
439,21.950000000000003,2.0881320142253883,2.354839502092432,-12.023436200753864,-0.2004803405734891,-0.17877934649783583,-1.0024365630287484,-0.0063990292979275495,-0.0012959651464884495,-0.03337261912861699,0,70,255.0,255.0,255.0
440,22.0,2.0781,2.3459,-12.0736,-0.20080019664389043,-0.17877903342165655,-1.0041205132326942,-0.006395213518125775,0.0013084881936589188,-0.03398538902921011,0,70,255.0,255.0,255.0
441,22.05,2.068051995347575,2.3369615148839538,-12.123848570024201,-0.2011200055197581,-0.17878375232427968,-1.0058235402607927,-0.006397141516580529,-0.0014972442985841062,-0.03413569209472592,0,70,255.0,255.0,255.0
442,22.1,2.0579879978413587,2.3280192866571614,-12.174182479278636,-0.2014399107955485,-0.17892875785151496,-1.0075340824421668,-0.006399069515035283,-0.004302976790827131,-0.034285995160241715,0,70,255.0,255.0,255.0
443,22.150000000000002,2.0479080026613543,2.319066300988392,-12.224602103520974,-0.20175991247126163,-0.1792140500033624,-1.0092521397768168,-0.006400997513490036,-0.007108709283070155,-0.03443629822575752,0,70,255.0,255.0,255.0
444,22.200000000000003,2.0378120049875665,2.310095543546415,-12.275107818508873,-0.2020800105468975,-0.17963962877982198,-1.0109777122647428,-0.006402925511944791,-0.009914441775313181,-0.03458660129127332,0,70,255.0,255.0,255.0
445,22.25,2.0277,2.3011,-12.3257,-0.20240020502245612,-0.18020549418089368,-1.012710799905944,-0.00640485351040021,-0.012720174267555118,-0.03473690435678023,0,70,255.0,255.0,255.0
446,22.3,2.0175719853054117,2.2920750161050494,-12.376378455299843,-0.20272035029262528,-0.18077004097855093,-1.0144172955697184,-0.006400957296365606,-0.009861697638734594,-0.03352292219419793,0,70,255.0,255.0,255.0
447,22.35,2.007427968217582,2.283025377966002,-12.42714071790517,-0.20304030075209267,-0.18119166394476716,-1.0160630921253637,-0.006397061082331001,-0.00700322100991407,-0.03230894003161563,0,70,255.0,255.0,255.0
448,22.400000000000002,1.9972679584770467,2.27395823177443,-12.47798375286058,-0.20336005640085839,-0.18147036307954237,-1.01764818957288,-0.006393164868296397,-0.004144744381093546,-0.031094957869033327,0,70,255.0,255.0,255.0
449,22.450000000000003,1.9870919658243409,2.2648807237219044,-12.528904525210658,-0.20367961723892233,-0.18160613838287654,-1.019172587912267,-0.006389268654261792,-0.0012862677522730223,-0.029880975706451027,0,70,255.0,255.0,255.0
450,22.5,1.9769,2.2558,-12.5799,-0.20399898326628452,-0.18159898985476966,-1.0206362871435248,-0.006385372440226078,0.0015722088765477427,-0.028666993543863484,0,70,255.0,255.0,255.0
451,22.55,1.966692063430778,2.2467208206958476,-12.630968008776433,-0.20431859330973837,-0.18159208376151795,-1.022091277460337,-0.006399029297927328,-0.0012959651464798903,-0.029532619128626092,0,70,255.0,255.0,255.0
452,22.6,1.9564681292883113,2.237638401478828,-12.682109849100689,-0.20463888619607729,-0.18172858636941766,-1.0235895490563875,-0.006412686155628578,-0.004164139169507523,-0.030398244713388704,0,70,255.0,255.0,255.0
453,22.650000000000002,1.9462281634304552,2.228545571913886,-12.733327685036729,-0.20495986192530122,-0.18200849767846872,-1.025131101931676,-0.006426343013329828,-0.007032313192535156,-0.03126387029815131,0,70,255.0,255.0,255.0
454,22.700000000000003,1.9359721317150662,2.219435161565962,-12.784623680648512,-0.20528152049741025,-0.18243181768867117,-1.0267159360862028,-0.006439999871031077,-0.00990048721556279,-0.032129495882913923,0,70,255.0,255.0,255.0
455,22.75,1.9257,2.2103,-12.836,-0.2056038619124043,-0.18299854640002497,-1.0283440515199676,-0.006453656728731216,-0.012768661238589774,-0.03299512146767469,0,70,255.0,255.0,255.0
456,22.8,1.9154117609714756,2.20113530111156,-12.887458309594427,-0.20592527646842132,-0.18356562397537277,-1.0299855945889396,-0.006402925511949363,-0.009914441775321064,-0.03266660129120424,0,70,255.0,255.0,255.0
457,22.85,1.9051075146291716,2.1919458161186824,-12.938998285692083,-0.20624415446359923,-0.18398999057755708,-1.031610711649088,-0.006352194295167511,-0.007060222312052352,-0.03233808111473379,0,70,255.0,255.0,255.0
458,22.900000000000002,1.8947873878011294,2.182738680570024,-12.990619106992524,-0.20656049589793807,-0.18427164620657802,-1.033219402700413,-0.006301463078385658,-0.004206002848783641,-0.032009560938263334,0,70,255.0,255.0,255.0
459,22.950000000000003,1.8844515073153916,2.173521030014243,-13.04231995219531,-0.2068743007714378,-0.18441059086243547,-1.0348116677429144,-0.0062507318616038055,-0.0013517833855149312,-0.03168104076179288,0,70,255.0,255.0,255.0
460,23.0,1.8741,2.1643,-13.0941,-0.20718556908409844,-0.18440682454512947,-1.0363875067765922,-0.006200000644821957,0.0015024360777546875,-0.03135252058532245,0,70,255.0,255.0,255.0
461,23.05,1.8637328926833185,2.1550803748579113,-13.145958752845862,-0.20750030081657542,-0.18440142033699242,-1.037966344183888,-0.006389268654257177,-0.0012862677522728246,-0.031800975706512,0,70,255.0,255.0,255.0
462,23.1,1.853349812195001,2.145857534046442,-13.19789700813099,-0.20782449594952415,-0.18453545132035676,-1.0395676043472435,-0.0065785366636923965,-0.004074971582300337,-0.03224943082770154,0,70,255.0,255.0,255.0
463,23.150000000000002,1.8429502853650246,2.1366245058060174,-13.249915886993188,-0.20815815448294467,-0.18480891749522246,-1.0411912872666582,-0.006767804673127617,-0.006863675412327849,-0.03269788594889109,0,70,255.0,255.0,255.0
464,23.200000000000003,1.8325338390233652,2.1273743183770613,-13.302016510570258,-0.20850127641683694,-0.18522181886158953,-1.0428373929421326,-0.006957072682562837,-0.00965237924235536,-0.03314634107008063,0,70,255.0,255.0,255.0
465,23.25,1.8221,2.1181,-13.3542,-0.20885386175120094,-0.18577415541945796,-1.0445059213736663,-0.007146340691996711,-0.012441083072383119,-0.0335947961912737,0,70,255.0,255.0,255.0
466,23.3,1.8116486682952502,2.108796799456793,-13.40646667902213,-0.2091935202652767,-0.1863326946766564,-1.046149028675521,-0.00643999987103422,-0.009900487215554286,-0.03212949588291563,0,70,255.0,255.0,255.0
467,23.35,1.8011812365908229,2.0994688476955483,-13.458813681783964,-0.20949786173830437,-0.1867642041410134,-1.0477188709619578,-0.005733659050071728,-0.007359891358725451,-0.030664195574557553,0,70,255.0,255.0,255.0
468,23.400000000000002,1.7906994707387702,2.090122496205906,-13.511237345034736,-0.20976688617028388,-0.18706868381252897,-1.049215448232977,-0.005027318229109238,-0.0048192955018966175,-0.02919889526619948,0,70,255.0,255.0,255.0
469,23.450000000000003,1.780205136591145,2.080764096477509,-13.563734005523674,-0.21000059356121528,-0.18724613369120308,-1.0506387604885778,-0.004320977408146747,-0.0022786996450677825,-0.027733594957841407,0,70,255.0,255.0,255.0
470,23.5,1.7697,2.0714,-13.6163,-0.21019898391109854,-0.18729655377703575,-1.0519888077287607,-0.0036146365871831954,0.0002618962117604262,-0.026268294649478108,0,70,255.0,255.0,255.0
471,23.55,1.75918523413568,2.062034827314914,-13.668932931065632,-0.2103976181223181,-0.1873238009563798,-1.0533415411140408,-0.004330731861599723,-0.0013517833855231538,-0.027841040761731883,0,70,255.0,255.0,255.0
472,23.6,1.748659641441706,2.0526662751713642,-13.721635464733167,-0.21063205709725852,-0.18743173211558806,-1.0547729118049338,-0.005046827136016251,-0.002965462982806734,-0.02941378687398566,0,70,255.0,255.0,255.0
473,23.650000000000002,1.7381214316798919,2.043290309370357,-13.774411532867887,-0.21090230083591974,-0.18762034725466048,-1.0562829198014394,-0.005762922410432777,-0.004579142580090314,-0.030986532986239435,0,70,255.0,255.0,255.0
474,23.700000000000003,1.7275688146120516,2.0339028957129,-13.827265067335073,-0.2112083493383018,-0.18788964637359712,-1.057871565103558,-0.006479017684849305,-0.006192822177373894,-0.03255927909849321,0,70,255.0,255.0,255.0
475,23.75,1.717,2.0245,-13.8802,-0.21155020260440469,-0.1882396294723979,-1.059538847711289,-0.0071951129592664476,-0.0078065017746571375,-0.03413202521074865,0,70,255.0,255.0,255.0
476,23.8,1.7064135951620292,2.01507829128355,-13.933219196715353,-0.21190400724545053,-0.1886281014978232,-1.0612208068683109,-0.006957072682566908,-0.007732379242355279,-0.03314634107011683,0,70,255.0,255.0,255.0
477,23.85,1.695809797642352,2.005637251618994,-13.986321259283383,-0.21224590987266137,-0.18901286739663342,-1.0628534818183009,-0.006719032405867369,-0.007658256710053422,-0.03216065692948501,0,70,255.0,255.0,255.0
478,23.900000000000002,1.6851892025416602,1.9961770663126637,-14.039503723493734,-0.21257591048603727,-0.18939392716882855,-1.0644368725612594,-0.00648099212916783,-0.007584134177751564,-0.031174972788853197,0,70,255.0,255.0,255.0
479,23.950000000000003,1.674552404960645,1.9866979206708884,-14.092764125136059,-0.21289400908557818,-0.1897712808144086,-1.065970979097186,-0.0062429518524682905,-0.007510011645449706,-0.03018928864822138,0,70,255.0,255.0,255.0
480,24.0,1.6639,1.9772,-14.1461,-0.2132002056712841,-0.19014492833337354,-1.0674558014260815,-0.006004911575768324,-0.007435889113147187,-0.029203604507591407,0,70,255.0,255.0,255.0
481,24.05,1.6532323852162023,1.9676840075508848,-14.199509482072962,-0.21350635289588182,-0.1904837930523289,-1.0689272314127172,-0.006240977408141427,-0.006118699645067309,-0.029653594957833113,0,70,255.0,255.0,255.0
482,24.1,1.6425491679888846,1.958152718352657,-14.252993098133315,-0.21382430341209824,-0.19075679829788028,-1.070421160921865,-0.006477043240514531,-0.004801510176987429,-0.03010358540807482,0,70,255.0,255.0,255.0
483,24.150000000000002,1.6318497581534654,1.9486094253789867,-14.306551973157191,-0.2141540572199333,-0.19096394407002765,-1.0719375899535246,-0.006713109072887634,-0.0034843207089075507,-0.030553575858316525,0,70,255.0,255.0,255.0
484,24.200000000000003,1.621133565545364,1.9390574216035439,-14.360187232120712,-0.214495614319387,-0.19110523036877106,-1.0734765185076967,-0.006949174905260738,-0.0021671312408276713,-0.03100356630855823,0,70,255.0,255.0,255.0
485,24.25,1.6104,1.9295,-14.4139,-0.21484897471045938,-0.19118065719411043,-1.0750379465843805,-0.007185240737634047,-0.0008499417727469982,-0.031453556758799905,0,70,255.0,255.0,255.0
486,24.3,1.59964886397316,1.9199392785129097,-14.467690874992808,-0.2151905811710215,-0.19126072629286334,-1.076590267480813,-0.006479017684849698,-0.0023528221773698055,-0.030639279098499006,0,70,255.0,255.0,255.0
487,24.35,1.5888815304021082,1.9103726749703764,-14.521558348183367,-0.21549687647894436,-0.1914159394118474,-1.0781018744942303,-0.00577279463206535,-0.0038557025819926133,-0.029825001438198107,0,70,255.0,255.0,255.0
488,24.400000000000002,1.5780997648444761,1.9007964321713877,-14.575500383877516,-0.21576786063422804,-0.1916462965510626,-1.079572767624633,-0.005066571579281002,-0.005358582986615421,-0.029010723777897207,0,70,255.0,255.0,255.0
489,24.450000000000003,1.5673053328578959,1.8912067929149323,-14.629514946381114,-0.21600353363687247,-0.19195179771050896,-1.0810029468720201,-0.004360348526496654,-0.006861463391238228,-0.028196446117596308,0,70,255.0,255.0,255.0
490,24.5,1.5565,1.8816,-14.6836,-0.21620389548687768,-0.1923324428901864,-1.0823924122363922,-0.0036541254737132434,-0.008364343795860263,-0.027382168457286582,0,70,255.0,255.0,255.0
491,24.55,1.545684958891156,1.871973278397475,-14.737754217955805,-0.21640332242003235,-0.19272930177621914,-1.0837836986640301,-0.004322951852472921,-0.007510011645449609,-0.028269288648225213,0,70,255.0,255.0,255.0
492,24.6,1.5348591104026807,1.8623277817658366,-14.791979109133232,-0.21663619067212497,-0.19308344405473135,-1.0852193411012145,-0.004991778231232599,-0.006655679495038955,-0.02915640883916384,0,70,255.0,255.0,255.0
493,24.650000000000002,1.5240207824686276,1.8526656459354602,-14.846276891332753,-0.2169025002431556,-0.19339486972572306,-1.0866993395479463,-0.005660604609992277,-0.005801347344628302,-0.030043529030102472,0,70,255.0,255.0,255.0
494,24.700000000000003,1.5131683030230492,1.8429890067367223,-14.90064978235485,-0.21720225113312422,-0.1936635787891942,-1.0882236940042251,-0.006329430988751954,-0.004947015194217648,-0.0309306492210411,0,70,255.0,255.0,255.0
495,24.75,1.5023,1.8333,-14.9551,-0.21753544334203076,-0.19388957124514483,-1.0897924044700502,-0.0069982573675118065,-0.004092683043807277,-0.03181776941197434,0,70,255.0,255.0,255.0
496,24.8,1.4914145004622148,1.8236004078971888,-15.009629053183975,-0.21788412914885,-0.19409406660226072,-1.0913629378630636,-0.006949174905256727,-0.004087131240827269,-0.031003566308558904,0,70,255.0,255.0,255.0
497,24.85,1.4805116279871664,1.813890597966276,-15.064235615283721,-0.21823036083255645,-0.19429828436922755,-1.092892761100906,-0.0069000924430016475,-0.00408157943784726,-0.03018936320514347,0,70,255.0,255.0,255.0
498,24.900000000000002,1.469591505281011,1.8041705840867686,-15.11891765079148,-0.21857413839315015,-0.19450222454604543,-1.094381874183578,-0.006851009980746567,-0.004076027634867252,-0.029375160101728037,0,70,255.0,255.0,255.0
499,24.950000000000003,1.458654255049903,1.7944403801381739,-15.173673124199496,-0.2189154618306311,-0.1947058871327143,-1.095830277111079,-0.006801927518491488,-0.004070475831887244,-0.0285609569983126,0,70,255.0,255.0,255.0
500,25.0,1.4477,1.7847,-15.2285,-0.21925433114499926,-0.19490927212923417,-1.097237969883409,-0.006752845056236634,-0.004064924028907901,-0.027746753894888343,0,70,255.0,255.0,255.0
501,25.05,1.4367290392599836,1.7749490900137679,-15.283396769308299,-0.2195801609845676,-0.19513443181473783,-1.098636549883721,-0.006280348526497008,-0.004941463391238056,-0.02819644611759032,0,70,255.0,255.0,255.0
502,25.1,1.425742377648651,1.7651858263690572,-15.338364029731894,-0.219882365997649,-0.195403418468358,-1.100057614495168,-0.0058078519967573825,-0.0058180027535682105,-0.028646138340292296,0,70,255.0,255.0,255.0
503,25.150000000000002,1.4147411964073267,1.755408017717463,-15.393402905501336,-0.22016094618424334,-0.19571623209009464,-1.10150116371775,-0.005335355467017757,-0.006694542115898365,-0.029095830562994272,0,70,255.0,255.0,255.0
504,25.200000000000003,1.4037266767773346,1.745613472710579,-15.448514520847189,-0.22041590154435073,-0.19607287267994783,-1.1029671975514674,-0.004862858937278131,-0.00757108147822852,-0.029545522785696245,0,70,255.0,255.0,255.0
505,25.25,1.3927,1.7358,-15.5037,-0.22064723207797116,-0.19647334023791752,-1.1044557159963195,-0.0043903624075385395,-0.008447620840560166,-0.02999521500838931,0,70,255.0,255.0,255.0
506,25.3,1.3816621424978497,1.7259664320477393,-15.558959869582834,-0.22086722691287852,-0.196856206138787,-1.1059308626020545,-0.004409430988756302,-0.00686701519421804,-0.029010649221007496,0,70,255.0,255.0,255.0
507,25.35,1.3706132614182274,1.716115696557493,-15.614292265788718,-0.22108817517684679,-0.19716004175733934,-1.1073567809184204,-0.004428499569974065,-0.005286409547875914,-0.028026083433625688,0,70,255.0,255.0,255.0
508,25.400000000000002,1.3595533090896805,1.7062517450433772,-15.669694727203186,-0.22131007686987594,-0.19738484709357457,-1.108733470945417,-0.004447568151191828,-0.0037058039015337874,-0.027041517646243875,0,70,255.0,255.0,255.0
509,25.450000000000003,1.3484822378407555,1.6963785290195073,-15.725164792411773,-0.221532931991966,-0.1975306221474927,-1.1100609326830446,-0.004466636732409591,-0.0021251982551916612,-0.026056951858862067,0,70,255.0,255.0,255.0
510,25.5,1.3374,1.6865,-15.7807,-0.2217567405431169,-0.19759736691909374,-1.1113391661313032,-0.004485705313626909,-0.0005445926088500919,-0.02507238607147322,0,70,255.0,255.0,255.0
511,25.55,1.3263063907486163,1.6766187817952745,-15.836298952360375,-0.22199093136391976,-0.19766474363011227,-1.1126319997080487,-0.004881927518487222,-0.0021504758318920073,-0.026640956998345566,0,70,255.0,255.0,255.0
512,25.6,1.315200576678437,1.6667321874009695,-15.891964507113245,-0.2222449332949656,-0.19781241450228296,-1.114003261831138,-0.005278149723347537,-0.003756359054933923,-0.028209527925217914,0,70,255.0,255.0,255.0
513,25.650000000000002,1.304081567233949,1.6568362021090268,-15.94770058568593,-0.2225187463362545,-0.1980403795356057,-1.1154529525005705,-0.00567437192820785,-0.005362242277975839,-0.029778098852090262,0,70,255.0,255.0,255.0
514,25.700000000000003,1.2929483718596404,1.6469268112113893,-16.003511109505745,-0.22281237048778643,-0.19834863873008055,-1.116981071716347,-0.006070594133068164,-0.0069681255010177546,-0.03134666977896261,0,70,255.0,255.0,255.0
515,25.75,1.2818,1.637,-16.0594,-0.22312580574956134,-0.19873719208570748,-1.1185876194784665,-0.006466816337930004,-0.008574008724059778,-0.03291524070583307,0,70,255.0,255.0,255.0
516,25.8,1.270635494507683,1.627052840771162,-16.115369920975674,-0.22345704763144156,-0.1991408193407647,-1.1201971385657545,-0.006782858937278528,-0.007571081478229077,-0.031465522785688885,0,70,255.0,255.0,255.0
517,25.85,1.2594540318680227,1.6170867538386282,-16.17141850575831,-0.22380409164328918,-0.1994943002335304,-1.1217341717570355,-0.007098901536627054,-0.006568154232398376,-0.030015804865544695,0,70,255.0,255.0,255.0
518,25.900000000000002,1.248254821974521,1.6071042465205132,-16.227542130053113,-0.22416693778510427,-0.19979763476400456,-1.123198719052309,-0.007414944135975579,-0.005565226986567674,-0.02856608694540051,0,70,255.0,255.0,255.0
519,25.950000000000003,1.2370370747206791,1.597107826134932,-16.283737169565278,-0.2245455860568868,-0.20005082293218718,-1.1245907804515753,-0.007730986735324104,-0.004562299740736973,-0.027116369025256323,0,70,255.0,255.0,255.0
520,26.0,1.2258,1.5871,-16.34,-0.22494003645863667,-0.20025386473807824,-1.1259103559548347,-0.00804702933467305,-0.0035593724949063432,-0.025666651105112237,0,70,255.0,255.0,255.0
521,26.05,1.2145436312206506,1.5770826551200772,-16.396327763736938,-0.22530087811031382,-0.20044397900683059,-1.1272034460289333,-0.006386636732413307,-0.004045198255187417,-0.026056951858825533,0,70,255.0,255.0,255.0
522,26.1,1.2032712958494702,1.5670551972445164,-16.452720669853523,-0.225578700131878,-0.200658384563597,-1.1285160511407173,-0.004726244130153564,-0.004531024015468491,-0.02644725261253883,0,70,255.0,255.0,255.0
523,26.150000000000002,1.1919871448679644,1.5570164118089167,-16.50917969410164,-0.2257735025233292,-0.20089708140837745,-1.129848171290187,-0.003065851527893822,-0.005016849775749564,-0.026837553366252126,0,70,255.0,255.0,255.0
524,26.200000000000003,1.180695329257639,1.546965084248878,-16.565705812233173,-0.2258852852846674,-0.20116006954117194,-1.1311998064773425,-0.001405458925634079,-0.005502675536030638,-0.027227854119965422,0,70,255.0,255.0,255.0
525,26.25,1.1694,1.5369,-16.6223,-0.2259140484158926,-0.20144734896198047,-1.1325709567021833,0.0002549336766259902,-0.005988501296310567,-0.027618154873680467,0,70,255.0,255.0,255.0
526,26.3,1.1581035806097137,1.5268205387485285,-16.67896302407658,-0.22596343992730358,-0.20172326463191367,-1.1339490773185013,-0.0022305941330648246,-0.005048125501017773,-0.02750666977903968,0,70,255.0,255.0,255.0
527,26.35,1.1468015847340944,1.5167284571833044,-16.735694814827607,-0.22613710782919907,-0.20195216151208226,-1.1353216236800874,-0.004716121942755639,-0.004107749705724979,-0.027395184684398895,0,70,255.0,255.0,255.0
528,26.400000000000002,1.1354877985536187,1.506626106243816,-16.792495093540342,-0.22643505212157916,-0.2021340396024862,-1.1366885957869413,-0.007201649752446454,-0.003167373910432185,-0.02728369958975811,0,70,255.0,255.0,255.0
529,26.450000000000003,1.1241560082487616,1.4965158368695517,-16.849363581502054,-0.22685727280444376,-0.20226889890312547,-1.1380499936390631,-0.009687177562137269,-0.002226998115139391,-0.027172214495117326,0,70,255.0,255.0,255.0
530,26.5,1.1128,1.4864,-16.9063,-0.22740376987779284,-0.2023567394140001,-1.1394058172364532,-0.012172705371827464,-0.0012866223198464422,-0.027060729400478323,0,70,255.0,255.0,255.0
531,26.55,1.101415646340494,1.4762799898858079,-16.96330413995675,-0.22794936218047165,-0.2024549624655147,-1.1407602446970948,-0.009650986735323927,-0.0026422997407375276,-0.027116369025187482,0,70,255.0,255.0,255.0
532,26.6,1.0900071652141496,1.466153374022264,-17.02037607083607,-0.22836886855132524,-0.20262096938807386,-1.142117454138972,-0.007129268098820391,-0.003997977161628613,-0.02717200864989664,0,70,255.0,255.0,255.0
533,26.650000000000002,1.0785808609175584,1.456016763215816,-17.077515931737004,-0.2286622889903537,-0.20285476018167756,-1.1434774455620844,-0.004607549462316855,-0.005353654582519698,-0.0272276482746058,0,70,255.0,255.0,255.0
534,26.700000000000003,1.067143037747311,1.445866768272912,-17.13472386175863,-0.22882962349755695,-0.2031563348463258,-1.1448402189664326,-0.002085830825813319,-0.006709332003410783,-0.02728328789931496,0,70,255.0,255.0,255.0
535,26.75,1.0557,1.4357,-17.192,-0.22887087207293505,-0.20352569338201862,-1.146205774352016,0.00043588781068937266,-0.008065009424300884,-0.02733892752401701,0,70,255.0,255.0,255.0
536,26.8,1.0442562340283097,1.4255139017082386,-17.24934441609642,-0.22889511135080878,-0.2039128855060269,-1.1475699438931137,-0.001405458925638507,-0.007422675536029501,-0.027227854119893632,0,70,255.0,255.0,255.0
537,26.85,1.032808954409305,1.4153092467276374,-17.306756901828145,-0.2290114179654989,-0.20426796093562158,-1.1489285597640053,-0.003246805661966387,-0.0067803416477581185,-0.02711678071577026,0,70,255.0,255.0,255.0
538,26.900000000000002,1.021353557776146,1.4050876408929163,-17.364237179511655,-0.22921979191700542,-0.2045909196708027,-1.1502816219646907,-0.005088152398294267,-0.006138007759486736,-0.027005707311646882,0,70,255.0,255.0,255.0
539,26.950000000000003,1.0098854407619908,1.394850690038797,-17.421784971463445,-0.22952023320532833,-0.20488176171157024,-1.1516291304951702,-0.006929499134622146,-0.005495673871215353,-0.026894633907523505,0,70,255.0,255.0,255.0
540,27.0,0.9984,1.3846,-17.4794,-0.22991274183046762,-0.2051404870579242,-1.152971085355443,-0.008770845870950339,-0.004853339982942906,-0.026783560503401915,0,70,255.0,255.0,255.0
541,27.05,0.9868938175462664,1.3743372032812367,-17.53708219565756,-0.23032619241629476,-0.20536549551037636,-1.1543199797304096,-0.007767177562135061,-0.004146998115143131,-0.027172214495258733,0,70,255.0,255.0,255.0
542,27.1,0.9753682171486275,1.3640640390671854,-17.59483232185137,-0.23068945958668113,-0.20555518686943852,-1.1556883068049688,-0.006763509253319782,-0.0034406562473433566,-0.02756086848711555,0,70,255.0,255.0,255.0
543,27.150000000000002,0.9638257079778554,1.3537822732125158,-17.652651350216388,-0.23100254334162676,-0.20570956113511069,-1.157076066579121,-0.005759840944504503,-0.0027343143795435817,-0.027949522478972373,0,70,255.0,255.0,255.0
544,27.200000000000003,0.9522687992047218,1.343493671571897,-17.71054025238761,-0.23126544368113158,-0.20582861830739288,-1.1584832590528662,-0.004756172635689225,-0.0020279725117438073,-0.02833817647082919,0,70,255.0,255.0,255.0
545,27.25,0.9407,1.3332,-17.7685,-0.23147816060519563,-0.20591235838628508,-1.1599098842262037,-0.0037525043268733516,-0.0013216306439436387,-0.0287268304626771,0,70,255.0,255.0,255.0
546,27.3,0.9291212957866235,1.3229020851668143,-17.82653080127332,-0.2316721189840127,-0.20601713245246883,-1.1613101371852532,-0.004005830825809169,-0.0028693320034065767,-0.027283287899309252,0,70,255.0,255.0,255.0
547,27.35,0.9175325769961826,1.3125969970036198,-17.884629810766388,-0.23187874368777656,-0.20619929158662575,-1.1626382130161346,-0.004259157324744985,-0.004417033362869515,-0.025839745335941404,0,70,255.0,255.0,255.0
548,27.400000000000002,0.9059332103124297,1.3022808662570184,-17.9427934196228,-0.2320980347164872,-0.2064588357887558,-1.1638941117188475,-0.004512483823680802,-0.005964734722332454,-0.024396202772573556,0,70,255.0,255.0,255.0
549,27.450000000000003,0.8943225624191177,1.291949823673611,-18.00101801898614,-0.23232999207014463,-0.206795765058859,-1.165077833293392,-0.004765810322616618,-0.007512436081795392,-0.022952660209205708,0,70,255.0,255.0,255.0
550,27.5,0.8827,1.2816,-18.0593,-0.23257461574874885,-0.2072100793969353,-1.1661893777397678,-0.005019136821551973,-0.00906013744125822,-0.02150911764583263,0,70,255.0,255.0,255.0
551,27.55,0.8710649993072384,1.271228856051506,-18.117636999249157,-0.23282533164765332,-0.20762197467974713,-1.1673034715286004,-0.005009499134626649,-0.007415673871214667,-0.02305463390746463,0,70,255.0,255.0,255.0
552,27.6,0.8594174748666401,1.2608391729183335,-18.176031635083078,-0.23307556566221155,-0.20795164678405678,-1.1684948411305143,-0.004999861447701325,-0.005771210301171113,-0.024600150169096623,0,70,255.0,255.0,255.0
553,27.650000000000002,0.8477574507724227,1.2504350617594082,-18.23448777129243,-0.23332531779242346,-0.20819909570986425,-1.16976348654551,-0.004990223760776002,-0.004126746731127558,-0.026145666430728617,0,70,255.0,255.0,255.0
554,27.700000000000003,0.8360849511188031,1.240020633733655,-18.293009271667852,-0.23357458803828912,-0.20836432145716957,-1.171109407773587,-0.0049805860738506786,-0.0024822831610840047,-0.027691182692360615,0,70,255.0,255.0,255.0
555,27.75,0.8244,1.2296,-18.3516,-0.23382337639980855,-0.20844732402597266,-1.1725326048147457,-0.004970948386925578,-0.0008378195910410113,-0.029236698953990725,0,70,255.0,255.0,255.0
556,27.8,0.8127027069844222,1.219176090627162,-18.410262801730063,-0.2340665544253739,-0.20851896882854237,-1.1739719767003662,-0.004756172635688924,-0.0020279725117481277,-0.028338176470825958,0,70,255.0,255.0,255.0
557,27.85,0.8009935235372551,1.208747111323045,-18.468996448901304,-0.23429899366337745,-0.20865012127714747,-1.1753664224618285,-0.00454139688445227,-0.003218125432455244,-0.02743965398766119,0,70,255.0,255.0,255.0
558,27.900000000000002,0.7892729865978768,1.1983100867053464,-18.52779869520751,-0.23452069411381915,-0.2088407813717879,-1.1767159420991324,-0.004326621133215616,-0.00440827835316236,-0.026541131504496423,0,70,255.0,255.0,255.0
559,27.950000000000003,0.7775416331056655,1.1878620413917653,-18.58666729434248,-0.23473165577669902,-0.20909094911246373,-1.1780205356122782,-0.004111845381978962,-0.005598431273869477,-0.025642609021331655,0,70,255.0,255.0,255.0
560,28.0,0.7658,1.1774,-18.6456,-0.23493187865201703,-0.20940062449917488,-1.1792802030012655,-0.0038970696307427666,-0.006788584194576286,-0.024744086538166954,0,70,255.0,255.0,255.0
