idx,t,px,py,pz,vx,vy,vz,ax,ay,az,yaw,mode,ledr,ledg,ledb
0,0.0,10.5,1.5,0.0,-0.0012883758785946966,-0.0006702115530474399,0.0008472294254119311,0.030660510543157778,-0.001557461363427888,-0.028566753104943176,0,70,255.0,255.0,255.0
1,0.05,10.499973618468372,1.4999638723840902,6.500259314829511e-06,0.00022734709584737065,-0.0007882973144017073,-0.0005902744643105118,0.02996840843452491,-0.0031659690907428093,-0.02893340248395454,0,70,255.0,255.0,255.0
2,0.1,10.50002215795783,1.4999198298454537,-5.933298758022735e-05,0.0017084649648577946,-0.000986808462121721,-0.0020461108229835228,0.029276306325892048,-0.004774476818057731,-0.029300051862965904,0,70,255.0,255.0,255.0
3,0.15000000000000002,10.500143888213099,1.499863851114772,-0.00019841636413269896,0.003154977728436576,-0.0012657449962074805,-0.0035202796506071023,0.02858420421725918,-0.006382984545372653,-0.029666701241977265,0,70,255.0,255.0,255.0
4,0.2,10.500337078978914,1.4997919149227268,-0.0004116664937901138,0.004566885386583713,-0.0016251069166589864,-0.00501278094718125,0.027892102108626318,-0.007991492272687573,-0.03003335062098863,0,70,255.0,255.0,255.0
5,0.25,10.5006,1.4997,-0.0007,0.005944187939299207,-0.002064894223476238,-0.006523614712705965,0.02719999999999346,-0.009600000000002495,-0.030400000000000003,0,70,255.0,255.0,255.0
6,0.30000000000000004,10.500930921021087,1.4995840850772733,-0.0010643335062098867,0.007286885386583059,-0.002585106916659236,-0.00805278094718125,0.02650789789136059,-0.011208507727317418,-0.030766649379011368,0,70,255.0,255.0,255.0
7,0.35000000000000003,10.501328111786902,1.4994401488852278,-0.0015055836358673013,0.008594977728435267,-0.0031857449962079797,-0.009600279650607103,0.02581579578272772,-0.01281701545463234,-0.03113329875802273,0,70,255.0,255.0,255.0
8,0.4,10.501789842042173,1.4992641701545464,-0.002024667012419773,0.009868464964855831,-0.00386680846212247,-0.011166110822983523,0.025123693674094852,-0.01442552318194726,-0.03149994813703409,0,70,255.0,255.0,255.0
9,0.45,10.50231438153163,1.49905212761591,-0.0026225002593148294,0.011107347095844752,-0.004628297314402706,-0.01275027446431051,0.024431591565461982,-0.01603403090926218,-0.03186659751604546,0,70,255.0,255.0,255.0
10,0.5,10.5029,1.4988,-0.0033,0.01231162412140203,-0.005470211553048688,-0.014352770574588067,0.023739489456829063,-0.01764253863657711,-0.032233246895056814,0,70,255.0,255.0,255.0
11,0.55,10.503545897447284,1.498505387306817,-0.004057966234475284,0.013537111357822705,-0.006295275018962949,-0.01596660174696449,0.0252799999999979,-0.015359999999993336,-0.032320000000000015,0,70,255.0,255.0,255.0
12,0.6000000000000001,10.504254994894568,1.498172374613634,-0.00489673246895057,0.014839624121401824,-0.007006211553048022,-0.01758477057458807,0.026820510543166743,-0.013077461363409561,-0.032406753104943224,0,70,255.0,255.0,255.0
13,0.65,10.505031143618211,1.4978066682670426,-0.00581651558618821,0.016219162412139377,-0.007603021155303907,-0.01920727705745881,0.028361021086335578,-0.010794922726825792,-0.032493506209886426,0,70,255.0,255.0,255.0
14,0.7000000000000001,10.505878194894569,1.4974139746136341,-0.00681753246895057,0.01767572623003538,-0.008085703825730602,-0.020834121195576715,0.029901531629504416,-0.008512384090242017,-0.032580259314829635,0,70,255.0,255.0,255.0
15,0.75,10.5068,1.497,-0.0079,0.019209315575089817,-0.008454259564328107,-0.02246530298894177,0.031442042172673296,-0.006229845453658206,-0.032667012419772684,0,70,255.0,255.0,255.0
16,0.8,10.507799089189778,1.4965687656954587,-0.009063801555888979,0.0207406691821222,-0.008809793007486858,-0.024080812064960804,0.02981210210862188,-0.00799149227269182,-0.03195335062098857,0,70,255.0,255.0,255.0
17,0.8500000000000001,10.508872708634826,1.4961175526602357,-0.01030748648833043,0.022190525785952007,-0.00925340879159729,-0.025660638051040633,0.028182162044570462,-0.009753139091725435,-0.031239688822204452,0,70,255.0,255.0,255.0
18,0.9,10.510016783484986,1.4956419567772832,-0.011629270642827387,0.023558885386579242,-0.009785106916659401,-0.027204780947181248,0.02655222198051905,-0.011514785910759048,-0.03052602702342034,0,70,255.0,255.0,255.0
19,0.9500000000000001,10.511227238890097,1.4951375739295538,-0.013027369864882902,0.02484574798400391,-0.010404887382673195,-0.028713240753382666,0.02492228191646763,-0.013276432729792662,-0.02981236522463622,0,70,255.0,255.0,255.0
20,1.0,10.5125,1.4946,-0.0145,0.02605111357822601,-0.011112750189638665,-0.03018601746964487,0.0232923418524163,-0.01503807954882623,-0.029098703425852163,0,70,255.0,255.0,255.0
21,1.05,10.513832145793607,1.4940259499113484,-0.01604602754196881,0.02724421191367382,-0.011841552951090881,-0.031662149993192314,0.024431591565496083,-0.014114030909262394,-0.029946597516045465,0,70,255.0,255.0,255.0
22,1.1,10.515225370566128,1.4934166147454238,-0.01766692157772773,0.02849427273477562,-0.012524153280564906,-0.03318067722124942,0.025570841278575864,-0.01318998226969856,-0.030794491606238768,0,70,255.0,255.0,255.0
23,1.1500000000000001,10.516682522441844,1.4927743046238249,-0.019364801842502246,0.029801296041531408,-0.013160551178060738,-0.034741599153816194,0.026710090991655645,-0.012265933630134724,-0.031642385696432074,0,70,255.0,255.0,255.0
24,1.2000000000000002,10.518206449545042,1.4921013296681507,-0.02114178807151785,0.031165281833941186,-0.01375074664357838,-0.036344915790892635,0.02784934070473543,-0.011341884990570887,-0.03249027978662537,0,70,255.0,255.0,255.0
25,1.25,10.5198,1.4914,-0.023,0.03258623011200495,-0.014294739677117826,-0.03799062713247873,0.028988590417815374,-0.010417836351007084,-0.033338173876818755,0,70,255.0,255.0,255.0
26,1.3,10.521465127635794,1.4906722346591474,-0.0249408882762358,0.034010483163188054,-0.014815995188148943,-0.03963858796226994,0.02798153162950895,-0.010432384090237548,-0.03258025931482965,0,70,255.0,255.0,255.0
27,1.35,10.523200209100661,1.4899183883580691,-0.026963227200758673,0.03538438327495585,-0.015337978086141582,-0.04124865306396169,0.026974472841202524,-0.010446931829468011,-0.03182234475284055,0,70,255.0,255.0,255.0
28,1.4000000000000001,10.525002726747632,1.489138424727417,-0.02906512198716365,0.036707930447308315,-0.015860688371095746,-0.042820822437554,0.025967414052896095,-0.010461479568698476,-0.031064430190851443,0,70,255.0,255.0,255.0
29,1.4500000000000002,10.526870162929736,1.4883323073978436,-0.031244677849045756,0.037981124680245455,-0.01638412604301143,-0.044355096083046844,0.02496035526458967,-0.01047602730792894,-0.030306515628862336,0,70,255.0,255.0,255.0
30,1.5,10.5288,1.4875,-0.0335,0.03920396597376728,-0.01690829110188864,-0.045851474000440234,0.023953296476283303,-0.010490575047159417,-0.029548601066873292,0,70,255.0,255.0,255.0
31,1.55,10.530790543663217,1.4866411114520621,-0.03582961935308801,0.0404258554335852,-0.017454466296312553,-0.04733549815772797,0.02492228191643353,-0.0113564327297971,-0.029812365224636216,0,70,255.0,255.0,255.0
32,1.6,10.532843393031225,1.4857538318223,-0.038233769619237606,0.04169619416541064,-0.01804393437486835,-0.048832710522903854,0.025891267356583758,-0.012222290412434784,-0.030076129382399144,0,70,255.0,255.0,255.0
33,1.6500000000000001,10.534960970567624,1.4848359964665063,-0.040713110208843196,0.043014982169243585,-0.018676695337556032,-0.050343111095967896,0.02686025279673399,-0.013088148095072468,-0.030339893540162068,0,70,255.0,255.0,255.0
34,1.7000000000000002,10.537145698736017,1.4838854407404753,-0.0432683005322992,0.04438221944508404,-0.0193527491843756,-0.05186669987692007,0.027829238236884216,-0.013954005777710152,-0.03060365769792499,0,70,255.0,255.0,255.0
35,1.75,10.5394,1.4829,-0.0459,0.04579790599293199,-0.020072095915327045,-0.05340347686576038,0.028798223677034274,-0.014819863460347832,-0.030867421855688193,0,70,255.0,255.0,255.0
36,1.8,10.541725497711338,1.481878519532604,-0.04860863431141219,0.04721409510247623,-0.02077413962660001,-0.05493941940681822,0.027849340704735447,-0.013261884990570686,-0.030570279786625333,0,70,255.0,255.0,255.0
37,1.85,10.544120618774437,1.4808238843527315,-0.05139369432229094,0.04858284006340554,-0.021398284414384114,-0.056460504844422915,0.02690045773243662,-0.011703906520793542,-0.03027313771756247,0,70,255.0,255.0,255.0
38,1.9000000000000001,10.546582990981868,1.479739989406557,-0.0542544371774636,0.049904140875719906,-0.021944530278679365,-0.05796673317857447,0.025951574760137795,-0.010145928051016396,-0.02997599564849961,0,70,255.0,255.0,255.0
39,1.9500000000000002,10.549110242126199,1.4786307296402552,-0.05719012002175751,0.051177997539419325,-0.022412877219485754,-0.05945810440927288,0.025002691787838968,-0.008587949581239252,-0.029678853579436747,0,70,255.0,255.0,255.0
40,2.0,10.5517,1.4775,-0.0602,0.0524044100545038,-0.022803325236803288,-0.06093461853651813,0.024053808815540423,-0.007029971111462169,-0.02938171151037361,0,70,255.0,255.0,255.0
41,2.0500000000000003,10.554350665491432,1.4763504104175218,-0.06328384340126327,0.05362976415650706,-0.023192975197288076,-0.06242682421499904,0.024960355264589843,-0.008556027307929195,-0.030306515628862402,0,70,255.0,255.0,255.0
42,2.1,10.557063731871025,1.475179430766774,-0.06644345309159864,0.05490044558096279,-0.023658927967596208,-0.06396527009940438,0.025866901713639256,-0.010082083504396207,-0.031231319747351185,0,70,255.0,255.0,255.0
43,2.15,10.559841465504903,1.4739832459072653,-0.06968114108130241,0.056216454327870986,-0.02420118354772769,-0.06554995618973414,0.026773448162688673,-0.011608139700863222,-0.03215612386583997,0,70,255.0,255.0,255.0
44,2.2,10.562686132759186,1.4727580406985044,-0.0729992193806708,0.057577790397231654,-0.02481974193768253,-0.06718088248598839,0.027679994611738094,-0.013134195897330246,-0.03308092798432876,0,70,255.0,255.0,255.0
45,2.25,10.5656,1.4715,-0.0764,0.058984453789044794,-0.02551460313746072,-0.06885804898816701,0.028586541060787618,-0.014660252093797288,-0.034005732102817876,0,70,255.0,255.0,255.0
46,2.3000000000000003,10.568584640322934,1.470206238797308,-0.07988479208353484,0.060394848271487445,-0.02622995958424841,-0.07052128373318561,0.027829238236918203,-0.01395400577771013,-0.03252365769792564,0,70,255.0,255.0,255.0
47,2.35,10.571638853741462,1.468877592580172,-0.08345089331131449,0.06176737761273662,-0.026910003715231737,-0.07211041475795958,0.027071935413048795,-0.013247759461622976,-0.03104158329303341,0,70,255.0,255.0,255.0
48,2.4000000000000004,10.574760746998523,1.4675158269643818,-0.08709459849732674,0.06310204181279233,-0.027554735530410705,-0.07362544206248896,0.026314632589179383,-0.012541513145535817,-0.029559508888141173,0,70,255.0,255.0,255.0
49,2.45,10.577948426837056,1.4661227075657275,-0.09081220245555932,0.06439884087165457,-0.028164155029785316,-0.0750663656467737,0.025557329765309975,-0.011835266829448663,-0.028077434483248946,0,70,255.0,255.0,255.0
50,2.5,10.5812,1.4647,-0.0946,0.06565777478932332,-0.028738262213355573,-0.07643318551081384,0.024800026941440456,-0.011129020513361704,-0.026595360078356722,0,70,255.0,255.0,255.0
51,2.5500000000000003,10.58451397321683,1.4632494343932456,-0.09845538826459743,0.06690284275755445,-0.029279186465720492,-0.07779204085225867,0.025002691787804943,-0.010507949581234856,-0.02775885357943609,0,70,255.0,255.0,255.0
52,2.6,10.58789045316313,1.461772598912538,-0.10238017366314343,0.06815804396810381,-0.02978905717147906,-0.07920907086875745,0.02520535663416943,-0.009886878649108016,-0.028922347080515446,0,70,255.0,255.0,255.0
53,2.6500000000000004,10.591329946501011,1.4602710462352075,-0.10637726492939077,0.0694233784209714,-0.030267874330631293,-0.0806842755603102,0.025408021480533918,-0.009265807716981168,-0.03008584058159481,0,70,255.0,255.0,255.0
54,2.7,10.594832959892598,1.458746329038585,-0.11044957079709204,0.0706988461161572,-0.03071563794317718,-0.08221765492691693,0.0256106863268984,-0.008644736784854327,-0.031249334082674166,0,70,255.0,255.0,255.0
55,2.75,10.5984,1.4572,-0.1146,0.07198444705366124,-0.031132348009116725,-0.08380920896857762,0.025813351173262444,-0.008023665852727402,-0.03241282758375308,0,70,255.0,255.0,255.0
56,2.8000000000000003,10.60203146680975,1.4556328236297098,-0.11883045485807549,0.07327378069828636,-0.031565294552868176,-0.08539855285777967,0.025759994611742453,-0.00929419589733061,-0.031160927984328984,0,70,255.0,255.0,255.0
57,2.85,10.605727333606028,1.4540424117696762,-0.12313881203611178,0.07456044651483548,-0.03206176759884979,-0.08692530176701051,0.025706638050222462,-0.010564725941933807,-0.029909028384904897,0,70,255.0,255.0,255.0
58,2.9000000000000004,10.60948746699743,1.4524255880947876,-0.12752194178511037,0.07584444450330861,-0.03262176714706156,-0.08838945569627017,0.02565328148870247,-0.011835255986537016,-0.028657128785480802,0,70,255.0,255.0,255.0
59,2.95,10.613311733592559,1.4507791762799327,-0.13197671435607258,0.07712577466370572,-0.033245293197503495,-0.08979101464555861,0.025599924927182483,-0.013105786031140213,-0.02740522918605672,0,70,255.0,255.0,255.0
60,3.0,10.6172,1.4491,-0.1365,0.07840443699602687,-0.03393234575017557,-0.09112997861487582,0.025546568365662603,-0.014376316075743245,-0.026153329586632967,0,70,255.0,255.0,255.0
61,3.0500000000000003,10.621152159544176,1.4473856710879158,-0.1410899923031007,0.07968203444930204,-0.03463563532280558,-0.09248574771662288,0.025557329765344104,-0.013755266829457054,-0.02807743448324925,0,70,255.0,255.0,255.0
62,3.1,10.625168212412765,1.4456369540087581,-0.14575017819240949,0.08096016997256128,-0.03530787243312128,-0.09393772206320075,0.02556809116502561,-0.01313421758317087,-0.030001539379865518,0,70,255.0,255.0,255.0
63,3.1500000000000004,10.629248185509265,1.4438554013856422,-0.15048536793016795,0.0822388435658046,-0.03594905708112267,-0.09548590165460943,0.02557885256470711,-0.01251316833688468,-0.031925644276481806,0,70,255.0,255.0,255.0
64,3.2,10.633392105737178,1.4420425658416842,-0.1553003717786176,0.083518055229032,-0.03655918926680975,-0.09713028649084893,0.025589613964388615,-0.011892119090598494,-0.03384974917309807,0,70,255.0,255.0,255.0
65,3.25,10.6376,1.4402,-0.1602,0.08479780496224347,-0.037138268990182514,-0.09887087657191922,0.025600375364070227,-0.011271069844312198,-0.035773854069714006,0,70,255.0,255.0,255.0
66,3.3000000000000003,10.641871895013551,1.4383292920186266,-0.1651871759295219,0.08607808150451599,-0.037684164155911457,-0.10059445627572891,0.025610686326829966,-0.01056473678484556,-0.03316933408267336,0,70,255.0,255.0,255.0
67,3.35,10.64620781674292,1.4364321721952915,-0.17025727519425038,0.08735887359492647,-0.03819474266866707,-0.10218780998018656,0.02562099728958971,-0.009858403725378927,-0.030564814095632737,0,70,255.0,255.0,255.0
68,3.4000000000000004,10.650607790965514,1.4345104063626428,-0.175403786494218,0.08864018123347495,-0.038670004528449355,-0.10365093768529218,0.02563130825234945,-0.009152070665912289,-0.02796029410859209,0,70,255.0,255.0,255.0
69,3.45,10.655071843458737,1.4325657603533297,-0.18062019852945704,0.08992200442016142,-0.0391099497352583,-0.10498383939104577,0.025641619215109192,-0.008445737606445656,-0.025355774121551468,0,70,255.0,255.0,255.0
70,3.5,10.6596,1.4306,-0.1859,0.09120434315498586,-0.03951457828909392,-0.10618651509744731,0.025651930177869375,-0.007739404546978912,-0.02275125413451118,0,70,255.0,255.0,255.0
71,3.5500000000000003,10.664192260401615,1.4286139608375767,-0.19123890397881202,0.09248563953261303,-0.0399397080535469,-0.10739242718046152,0.025599924927216855,-0.009265786031140519,-0.025485229186057015,0,70,255.0,255.0,255.0
72,3.6,10.668848520615551,1.4266047572100753,-0.19664152103058916,0.09376433564770756,-0.040441156892207966,-0.10873503801605301,0.025547919676564335,-0.010792167515302112,-0.02821920423760283,0,70,255.0,255.0,255.0
73,3.6500000000000004,10.673568650628678,1.4245685731637856,-0.2021146860929603,0.09504043150026946,-0.041018924805077114,-0.1102143476042218,0.025495914425911814,-0.012318548999463719,-0.030953179289148668,0,70,255.0,255.0,255.0
74,3.7,10.67835252042787,1.4225015927449973,-0.20766523410355425,0.09631392709029873,-0.04167301179215434,-0.11183035594496789,0.025443909175259294,-0.013844930483625312,-0.03368715434069448,0,70,255.0,255.0,255.0
75,3.75,10.6832,1.4204,-0.2133,0.0975848224177954,-0.04240341785343965,-0.11358306303829126,0.025391903924606662,-0.01537131196778685,-0.036421129392240625,0,70,255.0,255.0,255.0
76,3.8000000000000003,10.688111063379978,1.4182612646310673,-0.21902360815523023,0.09885936036502113,-0.04313300362989949,-0.11533983500242474,0.025589613964422633,-0.013812119090606725,-0.03384974917309838,0,70,255.0,255.0,255.0
77,3.85,10.693086100794867,1.4160879989644077,-0.22483184068339318,0.10014378381423766,-0.043784629762500325,-0.1169680379556011,0.0257873240042386,-0.012252926213426616,-0.031278368953956165,0,70,255.0,255.0,255.0
78,3.9000000000000004,10.698125606519769,1.413884100982215,-0.23071826913394108,0.10143809276544499,-0.04435829625124216,-0.11846767189782036,0.02598503404405457,-0.010693733336246491,-0.028706988734813924,0,70,255.0,255.0,255.0
79,3.95,10.70323007482978,1.4116534686666813,-0.23667646505632595,0.10274228721864313,-0.04485400309612498,-0.11983873682908248,0.026182744083870536,-0.009134540459066382,-0.026135608515671704,0,70,255.0,255.0,255.0
80,4.0,10.7084,1.4094,-0.2427,0.10405636717383204,-0.04527175029714879,-0.12108123274938752,0.026380454123686725,-0.0075753475818863825,-0.023564228296529266,0,70,255.0,255.0,255.0
81,4.05,10.713635486078466,1.407126580638155,-0.2487842634002671,0.10535691900730194,-0.045672277426856984,-0.12230423280983954,0.025641619215109483,-0.008445737606441402,-0.02535577412155138,0,70,255.0,255.0,255.0
82,4.1000000000000005,10.718935076204973,1.4048320469322937,-0.25493191623583816,0.106620529095343,-0.04611632405779294,-0.12361681016154268,0.024902784306532224,-0.009316127630996438,-0.02714731994657353,0,70,255.0,255.0,255.0
83,4.15,10.724296923292245,1.4025142229073553,-0.2611474373712756,0.10784719743795518,-0.046603890189956636,-0.1250189648044969,0.024163949397954982,-0.01018651765555146,-0.028938865771595646,0,70,255.0,255.0,255.0
84,4.2,10.72971918025301,1.4001709325882776,-0.26743530567114204,0.10903692403513848,-0.04713497582334807,-0.12651069673870224,0.023425114489377737,-0.01105690768010648,-0.030730411596617765,0,70,255.0,255.0,255.0
85,4.25,10.7352,1.3978,-0.2738,0.11018970888689295,-0.047709580957967276,-0.12809200596415865,0.022686279580800495,-0.0119272977046615,-0.03252195742163888,0,70,255.0,255.0,255.0
86,4.3,10.740738192306152,1.3953996128163129,-0.28024493824370117,0.1113449636057937,-0.04830588666267434,-0.129699233758217,0.02352390917522964,-0.011924930483621244,-0.031767154340694596,0,70,255.0,255.0,255.0
87,4.3500000000000005,10.746335194385242,1.3929694133064165,-0.2867692943732543,0.11254209980441592,-0.04890207400632941,-0.13126872139822812,0.024361538769658794,-0.011922563262580987,-0.031012351259750295,0,70,255.0,255.0,255.0
88,4.4,10.751993100311257,1.3905094073883641,-0.2933711813809566,0.11378111748275958,-0.049498142988932445,-0.13280046888419203,0.025199168364087938,-0.011920196041540732,-0.03025754817880601,0,70,255.0,255.0,255.0
89,4.45,10.75771400415818,1.3880196009802077,-0.300048712259106,0.11506201664082472,-0.05009409361048348,-0.1342944762161087,0.02603679795851708,-0.011917828820500475,-0.029502745097861723,0,70,255.0,255.0,255.0
90,4.5,10.7635,1.3855,-0.3068,0.11638479727861128,-0.050689925870982484,-0.1357507433939782,0.026874427552946223,-0.011915461599460053,-0.028747942016916994,0,70,255.0,255.0,255.0
91,4.55,10.769352544696927,1.3829509680965932,-0.31362318362492786,0.11771122656953086,-0.051264175922445636,-0.1371708321572929,0.026182744083836522,-0.01105454045906619,-0.02805560851567144,0,70,255.0,255.0,255.0
92,4.6000000000000005,10.775270546254063,1.380374299842039,-0.32051650627114503,0.11900307168699495,-0.05179537991688911,-0.13855630424554533,0.025491060614726807,-0.010193619318672312,-0.027363275014425873,0,70,255.0,255.0,255.0
93,4.65,10.781252275462736,1.3777721475391882,-0.32747823710489815,0.12026033263100354,-0.052283537854312875,-0.1399071596587355,0.024799377145617103,-0.009332698178278448,-0.026670941513180318,0,70,255.0,255.0,255.0
94,4.7,10.787296003114273,1.3751466634908913,-0.3345066452924341,0.12148300940155665,-0.05272864973471695,-0.14122339839686338,0.024107693676507398,-0.008471777037884584,-0.025978608011934766,0,70,255.0,255.0,255.0
95,4.75,10.7934,1.3725,-0.3416,0.12267110199865426,-0.05313071555810133,-0.142505020459929,0.023416010207397808,-0.007610855897490609,-0.025286274510689877,0,70,255.0,255.0,255.0
96,4.800000000000001,10.799562828906142,1.3698333147973136,-0.34875752725658743,0.12384213011607453,-0.05354940964754138,-0.14380943761261167,0.02342511448941196,-0.00913690768011096,-0.02689041159661636,0,70,255.0,255.0,255.0
97,4.8500000000000005,10.80578422059851,1.367143787325427,-0.35598228054216624,0.12501361344759546,-0.05404440632611243,-0.14519406161959064,0.023434218771426107,-0.010662959462731287,-0.028494548682542815,0,70,255.0,255.0,255.0
98,4.9,10.812064197837804,1.3644276024548836,-0.36327827019945136,0.12618555199321713,-0.054615705593814505,-0.14665889248086594,0.023443323053440258,-0.01218901124535161,-0.030098685768469267,0,70,255.0,255.0,255.0
99,4.95,10.818402783384732,1.3616809450562266,-0.37064950657115764,0.12735794575293946,-0.055263307450647586,-0.14820393019643757,0.023452427335454405,-0.013715063027971935,-0.031702822854395726,0,70,255.0,255.0,255.0
100,5.0,10.8248,1.3589,-0.3781,0.12853079472676257,-0.05598721189661169,-0.14982917476630553,0.02346153161746911,-0.015241114810591927,-0.0333069599403224,0,70,255.0,255.0,255.0
101,5.050000000000001,10.831256139678501,1.356082172714152,-0.38563230734872306,0.12972025296616238,-0.056714185487389,-0.15144741739226017,0.024116797958521695,-0.013837828820500032,-0.0314227450978622,0,70,255.0,255.0,255.0
102,5.1000000000000005,10.8377725713519,1.353229750856253,-0.3932431715601907,0.13094247452261473,-0.0573709947786617,-0.15297144927609177,0.024772064299574265,-0.012434542830408166,-0.02953853025540203,0,70,255.0,255.0,255.0
103,5.15,10.844350933186048,1.3503462426412776,-0.4009278820972968,0.13219745939611977,-0.05795763977042981,-0.15440127041780036,0.025427330640626838,-0.011031256840316295,-0.027654315412941863,0,70,255.0,255.0,255.0
104,5.2,10.850992863346796,1.3474351562842015,-0.40868172842293526,0.13348520758667742,-0.058474120462693326,-0.15573688081738593,0.02608259698167941,-0.009627970850224427,-0.025770100570481694,0,70,255.0,255.0,255.0
105,5.25,10.8577,1.3445,-0.4165,0.13480571909428773,-0.05892043685545224,-0.1569782804748485,0.02673786332273176,-0.00822468486013228,-0.02388588572802086,0,70,255.0,255.0,255.0
106,5.300000000000001,10.864473412379848,1.3415435943460783,-0.42437964334852085,0.13612485801926946,-0.05933784840290267,-0.15822489281834742,0.026027693676536668,-0.008471777037884536,-0.025978608011936084,0,70,255.0,255.0,255.0
107,5.3500000000000005,10.871311893993889,1.3385660092495615,-0.4323242332170714,0.13740848846194142,-0.0597676145592407,-0.1595761412760421,0.02531752403034159,-0.008718869215636785,-0.028071330295851273,0,70,255.0,255.0,255.0
108,5.4,10.878213669418002,1.3355666269800062,-0.44033900141136156,0.13865661042230362,-0.06020973532446635,-0.16103202584793255,0.02460735438414651,-0.008965961393389035,-0.030164052579766457,0,70,255.0,255.0,255.0
109,5.45,10.885176963228078,1.3325448298069669,-0.4484291797371012,0.13986922390035605,-0.0606642106985796,-0.16259254653401875,0.023897184737951434,-0.009213053571141284,-0.03225677486368164,0,70,255.0,255.0,255.0
110,5.5,10.8922,1.3295,-0.4566,0.14104632889609875,-0.06113104068158048,-0.16425770333430068,0.023187015091756358,-0.009460145748893478,-0.03434949714759572,0,70,255.0,255.0,255.0
111,5.550000000000001,10.899281410802104,1.326431449901535,-0.4648547192571941,0.1422123149567782,-0.061614420901002026,-0.16590901133435046,0.023452427335420637,-0.009875063027967963,-0.03170282285439466,0,70,255.0,255.0,255.0
112,5.6000000000000005,10.906421452672548,1.3233382121455004,-0.4731886955715242,0.14339157162964083,-0.06211854698437728,-0.16742798561974015,0.023717839579084913,-0.010289980307042439,-0.029056148561193644,0,70,255.0,255.0,255.0
113,5.65,10.91362078914194,1.320219249438698,-0.4815953122572571,0.14458409891468668,-0.06264341893170626,-0.16881462619046983,0.02398325182274919,-0.010704897586116915,-0.02640947426799263,0,70,255.0,255.0,255.0
114,5.7,10.920880083740887,1.3170735244879306,-0.49006795262866004,0.14578989681191573,-0.06318903674298897,-0.17006893304653942,0.02424866406641346,-0.011119814865191393,-0.023762799974791617,0,70,255.0,255.0,255.0
115,5.75,10.9282,1.3139,-0.4986,0.147008965321328,-0.06375540041822539,-0.17119090618794894,0.024514076310077737,-0.011534732144265591,-0.02111612568159038,0,70,255.0,255.0,255.0
116,5.800000000000001,10.935580944411734,1.310697806047781,-0.5071870796227033,0.14822588215362123,-0.06433246799308763,-0.17231506184425074,0.024162596981649815,-0.01154797085022401,-0.02385010057048182,0,70,255.0,255.0,255.0
117,5.8500000000000005,10.943022295315924,1.3074667421684363,-0.5158337844968325,0.149425225019493,-0.0649101975032478,-0.17357591624499713,0.0238111176532219,-0.011561209556182428,-0.02658407545937321,0,70,255.0,255.0,255.0
118,5.9,10.950523174014243,1.3042067752652011,-0.5245469495596102,0.1506069939189434,-0.06548858894870588,-0.17497346939018807,0.02345963832479398,-0.011574448262140847,-0.0293180503482646,0,70,255.0,255.0,255.0
119,5.95,10.958082701808374,1.3009178722413108,-0.5333334097482587,0.1517711888519724,-0.06606764232946188,-0.1765077212798236,0.023108158996366066,-0.011587686968099264,-0.03205202523715599,0,70,255.0,255.0,255.0
120,6.0,10.9657,1.2976,-0.5422,0.15291780981858,-0.06664735764551578,-0.17817867191390366,0.022756679667937263,-0.011600925674057794,-0.034786000126048267,0,70,255.0,255.0,255.0
121,6.050000000000001,10.97337481155096,1.294253325907341,-0.5511513622519936,0.15408415642872805,-0.06721570712664598,-0.17985474128864692,0.023897184737985206,-0.011133053571149768,-0.03225677486368142,0,70,255.0,255.0,255.0
122,6.1000000000000005,10.981109366063764,1.2908788191807548,-0.5601833664411462,0.15530752829237854,-0.06776066300263077,-0.1814043494002718,0.02503768980803313,-0.010665181468241754,-0.029727549601314626,0,70,255.0,255.0,255.0
123,6.15,10.98890651480109,1.2874776495004974,-0.569289689504302,0.1565879254095314,-0.06828222527347015,-0.1828274962487784,0.026178194878081047,-0.010197309365333737,-0.027198324338947824,0,70,255.0,255.0,255.0
124,6.2,10.99676910902561,1.2840509865468266,-0.5784640083783052,0.1579253477801866,-0.06878039393916414,-0.1841241818341666,0.02731869994812897,-0.00972943726242572,-0.024669099076581026,0,70,255.0,255.0,255.0
125,6.25,11.0047,1.2806,-0.5877,0.15931979540434427,-0.06925516899971272,-0.1852944061564365,0.028459205018176448,-0.009261565159518148,-0.02213987381421534,0,70,255.0,255.0,255.0
126,6.300000000000001,11.012700609384424,1.277125690322854,-0.5969930713693233,0.16068549213145894,-0.06971670350033037,-0.1864419730011617,0.026168664066408952,-0.00919981486518735,-0.02376279997479156,0,70,255.0,255.0,255.0
127,6.3500000000000005,11.02076664042902,1.2736283811085456,-0.6063455497385833,0.16193666181098518,-0.07017515048623146,-0.18767068615391566,0.0238781231146415,-0.00913806457085655,-0.025385726135367753,0,70,255.0,255.0,255.0
128,6.4,11.028892366781397,1.2701082267328099,-0.6157614924231819,0.16307330444292306,-0.07063050995741602,-0.18898054561469846,0.02158758216287405,-0.009076314276525754,-0.027008652295943947,0,70,255.0,255.0,255.0
129,6.45,11.037072062089186,1.2665653815713827,-0.6252449567385203,0.16409542002727256,-0.07108278191388404,-0.19037155138351006,0.019297041211106595,-0.009014563982194955,-0.02863157845652014,0,70,255.0,255.0,255.0
130,6.5,11.0453,1.263,-0.6348,0.16500300856403374,-0.07153196635563551,-0.19184370346035048,0.017006500259338475,-0.008952813687864603,-0.030254504617097,0,70,255.0,255.0,255.0
131,6.550000000000001,11.053572350911333,1.2594119128012415,-0.6444299522707141,0.1659098750454266,-0.07199747887203452,-0.19335336670670683,0.019268158996374383,-0.00966768696809529,-0.03013202523715539,0,70,255.0,255.0,255.0
132,6.6000000000000005,11.061892872220156,1.2557996563850629,-0.6541352346045208,0.1669298244636712,-0.07249873505244504,-0.19485690598406605,0.021529817733410252,-0.010382560248325963,-0.03000954585721378,0,70,255.0,255.0,255.0
133,6.65,11.070267218073315,1.2521614435682633,-0.6639155408029707,0.1680628568187676,-0.0730357348968671,-0.1963543212924282,0.023791476470446122,-0.011097433528556638,-0.029887066477272173,0,70,255.0,255.0,255.0
134,6.7,11.078701042617647,1.2484954871676426,-0.6737705646676135,0.1693089721107158,-0.07360847840530071,-0.19784561263179323,0.026053135207481988,-0.011812306808787313,-0.029764587097330562,0,70,255.0,255.0,255.0
135,6.75,11.0872,1.2448,-0.6837,0.17066817033951578,-0.07421696557774585,-0.19933078000216126,0.028314793944517858,-0.012527180089018097,-0.029642107717389177,0,70,255.0,255.0,255.0
136,6.800000000000001,11.09576838697024,1.2410738584721792,-0.6937031195478213,0.17205900768683197,-0.07482138101153195,-0.2007845601720106,0.027318699948128907,-0.011649437262425564,-0.02850909907658313,0,70,255.0,255.0,255.0
137,6.8500000000000005,11.104405070690351,1.237318593351202,-0.7037775118433338,0.17340004033432868,-0.0753819093039884,-0.2021816899098196,0.026322605951739974,-0.010771694435833047,-0.0273760904357771,0,70,255.0,255.0,255.0
138,6.9,11.113107560925343,1.2335363989941357,-0.7139203443649358,0.17469126828200596,-0.07589855045511525,-0.20352216921558827,0.025326511955351044,-0.009893951609240531,-0.02624308179497107,0,70,255.0,255.0,255.0
139,6.95,11.121873367440221,1.2297294697580463,-0.7241287845910251,0.1759326915298638,-0.07637130446491246,-0.20480599808931668,0.02433041795896211,-0.009016208782648014,-0.025110073154165042,0,70,255.0,255.0,255.0
140,7.0,11.1307,1.2259,-0.7344,0.1771243100779022,-0.07680017133338003,-0.20603317653100475,0.0233343239625734,-0.008138465956055163,-0.023977064513358348,0,70,255.0,255.0,255.0
141,7.050000000000001,11.1395853012077,1.2220494533100417,-0.7447319695380019,0.17828609420724484,-0.07722899708183639,-0.2072523926052517,0.023137041211131578,-0.009014563982199322,-0.02479157845651866,0,70,255.0,255.0,255.0
142,7.1000000000000005,11.148528445018432,1.218176370210128,-0.7551259180221446,0.17943801419901537,-0.07770162773159997,-0.20851233437665664,0.02293975845968976,-0.009890662008343463,-0.025606092399678957,0,70,255.0,255.0,255.0
143,7.15,11.15752893822531,1.2142785604551933,-0.7655838817372865,0.1805800700532138,-0.07821806328267074,-0.2098130018452196,0.022742475708247945,-0.010766760034487606,-0.026420606342839253,0,70,255.0,255.0,255.0
144,7.2,11.166586287621458,1.2103538338001725,-0.7761078969682857,0.18171226176984015,-0.07877830373504872,-0.21115439501094055,0.022545192956806126,-0.011642858060631749,-0.027235120285999552,0,70,255.0,255.0,255.0
145,7.25,11.1757,1.2064,-0.7867,0.1828345893488944,-0.07938234908873391,-0.2125365138738195,0.022347910205364308,-0.012518956086775668,-0.028049634229158293,0,70,255.0,255.0,255.0
146,7.300000000000001,11.184869608198952,1.2024155282876539,-0.7973618023001726,0.1839486154842141,-0.079990630661123,-0.21393386940698175,0.02221313520742267,-0.011812306808787388,-0.02784458709733064,0,70,255.0,255.0,255.0
147,7.3500000000000005,11.194094749235925,1.1984015258082859,-0.8080932160680884,0.1850559028696367,-0.08056357976961266,-0.21532097258355257,0.02207836020948104,-0.011105657530799121,-0.027639539965502988,0,70,255.0,255.0,255.0
148,7.4,11.203375086173418,1.194359759185091,-0.8188937286859179,0.1861564515051622,-0.08110119641420291,-0.21669782340353205,0.021943585211539406,-0.010399008252810855,-0.02743449283367534,0,70,255.0,255.0,255.0
149,7.45,11.21271028207394,1.190291995041264,-0.8297628275358316,0.18725026139079062,-0.08160348059489375,-0.2180644218669201,0.021808810213597773,-0.009692358974822587,-0.027229445701847686,0,70,255.0,255.0,255.0
150,7.5,11.2221,1.1862,-0.8407,0.18833733252652196,-0.08207043231168516,-0.2194207679737168,0.021674035215655696,-0.008985709696834543,-0.027024398570019592,0,70,255.0,255.0,255.0
151,7.550000000000001,11.231544265996488,1.1820852335393421,-0.8517048212613086,0.1894394438558875,-0.08252048027367212,-0.22077212976682145,0.022410417958966644,-0.009016208782643687,-0.027030073154166702,0,70,255.0,255.0,255.0
152,7.6000000000000005,11.241044558037874,1.1779479265567279,-0.8627772177055024,0.19057837432241864,-0.08297205318994953,-0.22212377528913346,0.02314680070227758,-0.00904670786845283,-0.027035747738313808,0,70,255.0,255.0,255.0
153,7.65,11.250602717081016,1.1737880028044425,-0.873917203519042,0.1917541239261153,-0.08342515106051741,-0.22347570454065285,0.023883183445588513,-0.009077206954261974,-0.027041422322460918,0,70,255.0,255.0,255.0
154,7.7,11.260220584082772,1.1696053860347715,-0.8851247928883877,0.19296669266697747,-0.08387977388537572,-0.22482791752137954,0.024619566188899447,-0.009107706040071117,-0.027047096906608024,0,70,255.0,255.0,255.0
155,7.75,11.2699,1.1654,-0.8964,0.19421608054500522,-0.08433592166452453,-0.22618041423131366,0.025355948932210826,-0.009138205125880372,-0.027052771490754912,0,70,255.0,255.0,255.0
156,7.800000000000001,11.279642127815093,1.161171537554977,-0.907742912654594,0.19546160909223226,-0.08480744824418744,-0.22753761152573246,0.024465192956870118,-0.009722858060636072,-0.02723512028599653,0,70,255.0,255.0,255.0
157,7.8500000000000005,11.289445418612578,1.1569187679648023,-0.9191539131099027,0.19666259984069223,-0.08530820747058813,-0.22890392625991332,0.023574436981529424,-0.010307510995391761,-0.027417469081238145,0,70,255.0,255.0,255.0
158,7.9,11.299307645502514,1.1526402295971392,-0.9306334572379146,0.1978190527903852,-0.08583819934372662,-0.23027935843385627,0.02268368100618873,-0.010892163930147452,-0.027599817876479762,0,70,255.0,255.0,255.0
159,7.95,11.30922658159497,1.1483344608196506,-0.9421820009106177,0.1989309679413111,-0.08639742386360288,-0.2316639080475613,0.02179292503084804,-0.011476816864903141,-0.027782166671721377,0,70,255.0,255.0,255.0
160,8.0,11.3192,1.144,-0.9538,0.19999834529347002,-0.08698588103021691,-0.2330575751010284,0.020902169055508457,-0.012061469799658053,-0.02796451546696388,0,70,255.0,255.0,255.0
161,8.05,11.329226422743142,1.1396358162407498,-0.9654875281203166,0.201066119775196,-0.08757772674957892,-0.2344374241302487,0.02180881021352962,-0.011612358974822195,-0.0272294457018479,0,70,255.0,255.0,255.0
162,8.1,11.339307367511818,1.1352426015840629,-0.9772431298548871,0.20217922631482296,-0.08814711692769912,-0.2357805196712132,0.02271545137155075,-0.011163248149986352,-0.026494375936731946,0,70,255.0,255.0,255.0
163,8.15,11.349445100908923,1.1308214788070006,-0.9890649675293002,0.20333766491235106,-0.08869405156457756,-0.23708686172392188,0.02362209252957191,-0.010714137325150494,-0.025759306171615964,0,70,255.0,255.0,255.0
164,8.200000000000001,11.359641889537352,1.1263735706866256,-1.0009512034691421,0.2045414355677802,-0.08921853066021421,-0.23835645028837482,0.02452873368759307,-0.010265026500314635,-0.025024236406499985,0,70,255.0,255.0,255.0
165,8.25,11.3699,1.1219,-1.0129,0.20579053828111035,-0.08972055421460903,-0.23958928536457189,0.025435374845613312,-0.009815915675478903,-0.02428916664138403,0,70,255.0,255.0,255.0
166,8.3,11.38022098121234,1.117401997482023,-1.024910174864141,0.20704191180697404,-0.09019364475749769,-0.2408246919532718,0.02461956618893314,-0.009107706040067089,-0.02512709690661238,0,70,255.0,255.0,255.0
167,8.35,11.39060351134015,1.1128812256989462,-1.036983167470548,0.20825249490000367,-0.09063132481861574,-0.2421019950552331,0.023803757532252993,-0.008399496404655298,-0.0259650271718407,0,70,255.0,255.0,255.0
168,8.4,11.401045550861793,1.1083394551748578,-1.0491210726448852,0.20942228756019932,-0.09103359439796321,-0.2434211946704559,0.022987948875572824,-0.0076912867692434835,-0.026802957437069046,0,70,255.0,255.0,255.0
169,8.450000000000001,11.411545060255623,1.103778456433846,-1.0613259852128152,0.210551289787561,-0.0914004534955401,-0.24478229079894004,0.02217214021889265,-0.006983077133831669,-0.027640887702297397,0,70,255.0,255.0,255.0
170,8.5,11.4221,1.0992,-1.0736,0.21163950158208855,-0.0917319021113464,-0.24618528344068558,0.021356331562212283,-0.006274867498420433,-0.028478817967524606,0,70,255.0,255.0,255.0
171,8.55,11.432708852407503,1.0946049938311566,-1.0859445724231207,0.2127182329969151,-0.0920796942204295,-0.24759180805666658,0.02179292503084885,-0.007636816864903337,-0.027782166671715014,0,70,255.0,255.0,255.0
172,8.6,11.443372187127583,1.0899908956201516,-1.0983586002629202,0.21381879408517343,-0.09249558379783673,-0.24896350010785706,0.022229518499485398,-0.008998766231386192,-0.02708551537590545,0,70,255.0,255.0,255.0
173,8.65,11.45409109564391,1.085354300493568,-1.1108403418911599,0.21494118484686361,-0.0929795708435681,-0.2503003595942571,0.022666111968121964,-0.010360715597869096,-0.02638886408009586,0,70,255.0,255.0,255.0
174,8.700000000000001,11.464866669440159,1.080691803577989,-1.1233880556795997,0.21608540528198567,-0.09353165535762364,-0.2516023865158667,0.02310270543675853,-0.011722664964351998,-0.025692212784286267,0,70,255.0,255.0,255.0
175,8.75,11.4757,1.076,-1.136,0.2172514553905395,-0.0941518373400033,-0.25286958087268574,0.0235392989053953,-0.013084614330834854,-0.024995561488476703,0,70,255.0,255.0,255.0
176,8.8,11.486591609157651,1.0712764271933488,-1.1486747354433775,0.21840515620536347,-0.09478357836078215,-0.2541200758200602,0.02260873368756305,-0.012185026500318684,-0.025024236406500224,0,70,255.0,255.0,255.0
177,8.85,11.497539740149522,1.0665223918204474,-1.161412031477771,0.2195123287592958,-0.09537033999003518,-0.25537200451333575,0.021678168469730835,-0.011285438669802545,-0.025052911324523742,0,70,255.0,255.0,255.0
178,8.9,11.508542066562567,1.061740142850871,-1.174211959790476,0.22057297305233653,-0.0959121222277624,-0.25662536695251253,0.02074760325189859,-0.010385850839286375,-0.02508158624254726,0,70,255.0,255.0,255.0
179,8.950000000000001,11.51959626198374,1.0569319292541963,-1.1870745920687873,0.2215870890844857,-0.09640892507396381,-0.2578801631375905,0.01981703803406634,-0.009486263008770205,-0.02511026116057078,0,70,255.0,255.0,255.0
180,9.0,11.5307,1.0521,-1.2,0.22255467685574318,-0.0968607485286394,-0.2591363930685696,0.018886472816234123,-0.008586675178253733,-0.025138936078592522,0,70,255.0,255.0,255.0
181,9.05,11.541851910961892,1.047246097395447,-1.2129884858033702,0.22353314218162232,-0.09729799233644154,-0.26040788866309206,0.020252140218931,-0.008903077133831698,-0.025720887702304837,0,70,255.0,255.0,255.0
182,9.1,11.553054452274331,1.0423699370980595,-1.2260412738259954,0.22457989087763627,-0.09775105624202257,-0.2617084818388001,0.02161780762162783,-0.009219479089409652,-0.02630283932601713,0,70,255.0,255.0,255.0
183,9.15,11.564311038105823,1.0374707281029485,-1.2391598189469364,0.2256949229437851,-0.09821994024538251,-0.2630381725956938,0.022983475024324705,-0.009535881044987617,-0.026884790949729447,0,70,255.0,255.0,255.0
184,9.200000000000001,11.575625082624878,1.0325476794052248,-1.2523455760452518,0.2268782383800688,-0.09870464434652135,-0.264396960933773,0.024349142427021582,-0.009852283000565582,-0.02746674257344176,0,70,255.0,255.0,255.0
185,9.25,11.587,1.0276,-1.2656,0.22812983718648722,-0.09920516854543907,-0.26578484685303794,0.025714809829718188,-0.010168684956143759,-0.028048694197153168,0,70,255.0,255.0,255.0
186,9.3,11.598438346994781,1.0226271832248628,-1.2789241213431433,0.22939827506814903,-0.09970445229345147,-0.26717636952757373,0.025022705436754302,-0.009802664964352331,-0.02761221278427754,0,70,255.0,255.0,255.0
187,9.35,11.609939250753152,1.0176298597873148,-1.2923172732182466,0.23063210773016263,-0.1001854350418743,-0.2685460681314657,0.02433060104379044,-0.009436644972560918,-0.027175731371401925,0,70,255.0,255.0,255.0
188,9.4,11.621500981014137,1.0126089447373352,-1.3057783644217789,0.23183133517252807,-0.10064811679070756,-0.2698939426647139,0.02363849665082655,-0.00907062498076949,-0.0267392499585263,0,70,255.0,255.0,255.0
189,9.450000000000001,11.633121807516746,1.0075653531249036,-1.3193063037502077,0.2329959573952453,-0.10109249753995125,-0.27121999312731837,0.022946392257862665,-0.008704604988978064,-0.026302768545650668,0,70,255.0,255.0,255.0
190,9.5,11.6448,1.0025,-1.3329,0.23412597439831434,-0.10151857728960538,-0.2725242195192789,0.022254287864899247,-0.008338584997186538,-0.025866287132773724,0,70,255.0,255.0,255.0
191,9.55,11.656533901058985,0.9974131697051016,-1.3465582288240585,0.2352257575457884,-0.10196419848975424,-0.2737986332266125,0.021737038034062097,-0.009486263008767754,-0.02511026116056997,0,70,255.0,255.0,255.0
192,9.600000000000001,11.668322144713054,0.9923026237526814,-1.360279233301018,0.23629967820172057,-0.10246720359048217,-0.27503524563533593,0.02121978820322495,-0.010633941020348968,-0.024354235188366213,0,70,255.0,255.0,255.0
193,9.65,11.680163437837631,0.9871654929477105,-1.3740611233659483,0.23734773636611087,-0.10302759259178913,-0.27623405674544915,0.02070253837238782,-0.011781619031930143,-0.023598209216162486,0,70,255.0,255.0,255.0
194,9.700000000000001,11.692056487308138,0.9819989080951596,-1.3879020089539194,0.23836993203895934,-0.10364536549367517,-0.2773950665569522,0.02018528854155067,-0.012929297043511359,-0.02284218324395873,0,70,255.0,255.0,255.0
195,9.75,11.704,0.9768,-1.4018,0.23936626522026594,-0.10432052229614028,-0.27851827506984506,0.0196680387107131,-0.0140769750550922,-0.02208615727175456,0,70,255.0,255.0,255.0
196,9.8,11.715993248769283,0.97156733795473,-1.4157541633606243,0.24037069474870867,-0.10496675374753167,-0.27966109756597507,0.02050914242699592,-0.011772283000563112,-0.023626742573445925,0,70,255.0,255.0,255.0
197,9.850000000000001,11.728037770394634,0.9663052452019588,-1.4297673935776827,0.24141717946296556,-0.10549775059619661,-0.2808809493271897,0.02135024614327874,-0.009467590946034023,-0.02516732787513729,0,70,255.0,255.0,255.0
198,9.9,11.740135667635343,0.9610194834718226,-1.4438435421144282,0.24250571936303653,-0.10591351284213507,-0.2821778303534888,0.022191349859561532,-0.007162898891505016,-0.0267079131768286,0,70,255.0,255.0,255.0
199,9.950000000000001,11.752289043250704,0.9557158144944574,-1.457986460434116,0.2436363144489217,-0.10621404048534709,-0.2835517406448725,0.023032453575844353,-0.004858206836975926,-0.028248498478519967,0,70,255.0,255.0,255.0
200,10.0,11.7645,0.9504,-1.4722,0.244808964720621,-0.10639933352583267,-0.2850026802013408,0.02387355729212781,-0.0025535147824471416,-0.02978908378021128,0,70,255.0,255.0,255.0
201,10.05,11.776769903863883,0.9450758784759775,-1.4864867177334447,0.2459794634593708,-0.10658478652011842,-0.2864529765094873,0.022946392257863067,-0.004864604988982967,-0.028222768545649736,0,70,255.0,255.0,255.0
202,10.100000000000001,11.78909717370841,0.9397395954394826,-1.5008439923882535,0.24710360394640732,-0.10688579402473097,-0.28782495705590583,0.022019227223598323,-0.007175695195518793,-0.02665645331108819,0,70,255.0,255.0,255.0
203,10.15,11.801479491620993,0.934385373164999,-1.5152679081763396,0.2481813861817306,-0.1073023560396703,-0.28911862184059617,0.02109206218933361,-0.009486785402054537,-0.025090138076526703,0,70,255.0,255.0,255.0
204,10.200000000000001,11.813914539689053,0.92900743392701,-1.5297545493096176,0.2492128101653407,-0.10783447256493643,-0.29033397086355844,0.020164897155068865,-0.011797875608590363,-0.023523822841965157,0,70,255.0,255.0,255.0
205,10.25,11.8264,0.9236,-1.5443,0.2501978758972375,-0.10848214360052932,-0.29147100412479265,0.019237732120804374,-0.014108965815126107,-0.02195750760740456,0,70,255.0,255.0,255.0
206,10.3,11.838934335775189,0.9181587481413594,-1.5589013657055977,0.2511834514137973,-0.10915810017199522,-0.29259099639607666,0.020185288541584447,-0.012929297043509074,-0.02284218324395494,0,70,255.0,255.0,255.0
207,10.350000000000001,11.85151913477173,0.91268517304011,-1.5735598368693051,0.252216404751396,-0.10977507330488025,-0.29375522244918817,0.021132844962364523,-0.011749628271892043,-0.02372685888050532,0,70,255.0,255.0,255.0
208,10.4,11.864156765880677,0.907182223868181,-1.5882776251802135,0.2532967359100337,-0.11033306299918441,-0.29496368228412717,0.02208040138314456,-0.010569959500275053,-0.024611534517055673,0,70,255.0,255.0,255.0
209,10.450000000000001,11.876849597993084,0.9016528497975013,-1.6030569423274148,0.25442444488971044,-0.11083206925490775,-0.2962163759008937,0.023027957803924633,-0.009390290728658022,-0.025496210153606053,0,70,255.0,255.0,255.0
210,10.5,11.8896,0.8961,-1.6179,0.25559953169042615,-0.11127209207205022,-0.2975133032994878,0.023975514224703787,-0.008210621957041253,-0.026380885790156405,0,70,255.0,255.0,255.0
211,10.55,11.902409553035366,0.8905259289585844,-1.6328086194441658,0.2567747308854399,-0.11169481279190065,-0.2988310379062048,0.02303245357584432,-0.008698206836975737,-0.02632849847852423,0,70,255.0,255.0,255.0
212,10.600000000000001,11.91527668720467,0.8849301124000765,-1.6477830601345278,0.25790277704801057,-0.1121419127557478,-0.3001461531473402,0.02208939292698486,-0.00918579171691022,-0.026276111166892057,0,70,255.0,255.0,255.0
213,10.65,11.928199044856292,0.8793113313622763,-1.6628231911028064,0.25898367017813834,-0.11261339196359167,-0.301458649022894,0.02114633227812543,-0.00967337659684469,-0.026223723855259885,0,70,255.0,255.0,255.0
214,10.700000000000001,11.94117426833861,0.8736683668829842,-1.677928881380724,0.26001741027582315,-0.11310925041543227,-0.3027685255328662,0.020203271629265964,-0.010160961476779173,-0.02617133654362771,0,70,255.0,255.0,255.0
215,10.75,11.9542,0.868,-1.6931,0.26100399734106494,-0.11362948811126958,-0.3040757826772568,0.019260210980407422,-0.01064854635671364,-0.026118949231995092,0,70,255.0,255.0,255.0
216,10.8,11.967274652083352,0.8623055360243023,-1.7083361565177406,0.261989625044451,-0.11414264866040219,-0.30536485197910584,0.020164897155035545,-0.00987787560859047,-0.02544382284196488,0,70,255.0,255.0,255.0
217,10.850000000000001,11.980399716409591,0.8565863773595831,-1.7236359225925861,0.2630204870565685,-0.11461727567212864,-0.30662016496145333,0.02106958332966367,-0.0091072048604673,-0.02476869645193467,0,70,255.0,255.0,255.0
218,10.9,11.993577454694154,0.8508444506827129,-1.7389976104085607,0.26409658337741737,-0.11505336914644891,-0.3078417216242993,0.021974269504291762,-0.008336534112344158,-0.024093570061904487,0,70,255.0,255.0,255.0
219,10.950000000000001,12.006810128652479,0.8450816826705616,-1.754419532149691,0.2652179140069977,-0.11545092908336305,-0.30902952196764377,0.022878955678919885,-0.0075658633642209875,-0.023418443671874276,0,70,255.0,255.0,255.0
220,11.0,12.0201,0.8393,-1.7699,0.26638447894530937,-0.115809955482871,-0.3101835659914867,0.0237836418535462,-0.006795192616097956,-0.022743317281841424,0,70,255.0,255.0,255.0
221,11.05,12.033448638631228,0.8335007269442061,-1.7854379544848737,0.26755476893674696,-0.11616659256648991,-0.3113415541773728,0.023027957803957465,-0.007470290728658467,-0.023576210153601018,0,70,255.0,255.0,255.0
222,11.100000000000001,12.046854847156965,0.8276827781615904,-1.8010348494951307,0.26868727472570514,-0.11655698455573686,-0.31254118700684685,0.022272273754368733,-0.008145388841218978,-0.024409103025360614,0,70,255.0,255.0,255.0
223,11.15,12.060316736367088,0.8218444659068719,-1.8166927672629511,0.26978199631218386,-0.11698113145061181,-0.3137824644799088,0.021516589704780025,-0.008820486953779466,-0.02524199589712018,0,70,255.0,255.0,255.0
224,11.200000000000001,12.073832417051477,0.8159841024347687,-1.8324137900205149,0.27083893369618317,-0.11743903325111481,-0.31506538659655886,0.020760905655191293,-0.009495585066339976,-0.026074888768879773,0,70,255.0,255.0,255.0
225,11.25,12.0874,0.8101,-1.8482,0.2718580868777029,-0.1179306899572458,-0.31638995335679676,0.02000522160560214,-0.01017068317890002,-0.02690778164063712,0,70,255.0,255.0,255.0
226,11.3,12.101017993391737,0.8041907561988733,-1.8640528255427673,0.27286329920857466,-0.11843898107363784,-0.3177169313114034,0.020203271629266786,-0.010160961476781093,-0.0261713365436277,0,70,255.0,255.0,255.0
227,11.350000000000001,12.114686494962545,0.7982561099940545,-1.8799710794268933,0.2738784140406296,-0.11894678610492393,-0.3190070870111596,0.02040132165293143,-0.010151239774662169,-0.02543489144661828,0,70,255.0,255.0,255.0
228,11.4,12.128405999837485,0.7922960856897994,-1.8959529205396355,0.2749034313738678,-0.11945410505110404,-0.32026042045606523,0.02059937167659607,-0.010141518072543243,-0.02469844634960889,0,70,255.0,255.0,255.0
229,11.450000000000001,12.142177003141617,0.7863107075903626,-1.9119965077682521,0.27593835120828925,-0.11996093791217825,-0.32147693164612046,0.020797421700260714,-0.010131796370424316,-0.02396200125259947,0,70,255.0,255.0,255.0
230,11.5,12.156,0.7803,-1.9281,0.27698317354389385,-0.12046728468814648,-0.3226566205813251,0.020995471723927128,-0.010122074668305392,-0.023225556155587856,0,70,255.0,255.0,255.0
231,11.55,12.16987538780183,0.7742642482603006,-1.9442619433440593,0.27803203422896344,-0.1209574831389596,-0.3238227205770118,0.020958955678856216,-0.009485863364218718,-0.02341844367187731,0,70,255.0,255.0,255.0
232,11.600000000000001,12.183803172992858,0.7682047818621905,-1.9604824327972985,0.2790790691117795,-0.12141587102456836,-0.32499846494851287,0.020922439633785303,-0.008849652060132045,-0.023611331188166766,0,70,255.0,255.0,255.0
233,11.65,12.197783264282972,0.7621231913339305,-1.9767619505785075,0.280124278192342,-0.12184244834497279,-0.3261838536958284,0.020885923588714394,-0.008213440756045394,-0.023804218704456218,0,70,255.0,255.0,255.0
234,11.700000000000001,12.211815570382058,0.75602106720378,-1.9931009789064782,0.2811676614706509,-0.12223721510017291,-0.3273788868189585,0.02084940754364348,-0.00757722945195872,-0.023997106220745672,0,70,255.0,255.0,255.0
235,11.75,12.2259,0.7499,-2.0095,0.28220921894670636,-0.12260017129016865,-0.328583564317903,0.020812891498572128,-0.006941018147871514,-0.024189993737034232,0,70,255.0,255.0,255.0
236,11.8,12.240036455400942,0.7437610507599239,-2.0259594010809967,0.28324856387555214,-0.12296308637052393,-0.32979218638055086,0.020760905655258278,-0.0075755850663398495,-0.0241548887688789,0,70,255.0,255.0,255.0
237,11.850000000000001,12.254224813066019,0.7376031625571821,-2.042479189383916,0.2842853095122322,-0.12335772979680264,-0.3309990531947909,0.020708919811944424,-0.008210151984808185,-0.02411978380072357,0,70,255.0,255.0,255.0
238,11.9,12.268464943030626,0.7314247489744784,-2.059059277146336,0.28531945585674656,-0.12378410156900475,-0.33220416476062314,0.020656933968630574,-0.008844718903276498,-0.024084678832568242,0,70,255.0,255.0,255.0
239,11.950000000000001,12.282756715330159,0.7252242235945162,-2.0756995766058375,0.28635100290909526,-0.1242422016871303,-0.3334075210780477,0.020604948125316724,-0.009479285821744834,-0.02404957386441291,0,70,255.0,255.0,255.0
240,12.0,12.2971,0.719,-2.0924,0.28737995066927824,-0.12473203015117922,-0.33460912214706445,0.020552962282001985,-0.010113852740212814,-0.024014468896255803,0,70,255.0,255.0,255.0
241,12.05,12.31149479059441,0.7127507487000031,-2.1091604523319556,0.28841371026883483,-0.12523817137894516,-0.3358085339007857,0.020797421700261158,-0.010131796370424362,-0.023962001252593533,0,70,255.0,255.0,255.0
242,12.100000000000001,12.325941574743066,0.7064761679090801,-2.1259808096670425,0.2894596928393044,-0.12574520978822168,-0.3370053222723238,0.02104188111852033,-0.01014974000063591,-0.023909533608931263,0,70,255.0,255.0,255.0
243,12.15,12.340440963594519,0.7001762127681558,-2.1428609408361514,0.29051789838068687,-0.12625314537900875,-0.3381994872616788,0.021286340536779493,-0.010167683630847458,-0.023857065965268997,0,70,255.0,255.0,255.0
244,12.200000000000001,12.354993568297315,0.6938508384181541,-2.1598007146701743,0.29158832689298236,-0.1267619781513064,-0.33939102886885075,0.021530799955038666,-0.010185627261059005,-0.023804598321606727,0,70,255.0,255.0,255.0
245,12.25,12.3696,0.6875,-2.1768,0.29267097837619066,-0.12727170810511462,-0.34057994709383943,0.02177525937329472,-0.010203570891270441,-0.02375213067794224,0,70,255.0,255.0,255.0
246,12.3,12.384260382221429,0.6811239544400631,-2.1938587895911827,0.29373659504911326,-0.12776422811369537,-0.34177367801630676,0.020849407543608655,-0.009497229451958312,-0.023997106220749312,0,70,255.0,255.0,255.0
247,12.350000000000001,12.39897288796172,0.6747241658064963,-2.2109775719479168,0.29475591913055155,-0.12822143105031047,-0.3429796577159144,0.019923555713922587,-0.008790888012646183,-0.024242081763556383,0,70,255.0,255.0,255.0
248,12.4,12.413735202591296,0.6683023999528982,-2.2281569595090596,0.2957289506205055,-0.12864331691495998,-0.3441978861926624,0.018997703884236553,-0.00808454657333408,-0.024487057306363448,0,70,255.0,255.0,255.0
249,12.450000000000001,12.42854501148058,0.6618604227328665,-2.2453975647134685,0.2966556895189752,-0.12902988570764387,-0.3454283634465507,0.01807185205455049,-0.0073782051340219494,-0.02473203284917052,0,70,255.0,255.0,255.0
250,12.5,12.4434,0.6554,-2.2627,0.29753613582596056,-0.12938113742836216,-0.34667108947757935,0.01714600022486268,-0.006671863694710289,-0.024977008391975364,0,70,255.0,255.0,255.0
251,12.55,12.458298880519871,0.6489222335397439,-2.280064389303316,0.29843190953471516,-0.12973691616627356,-0.34789675403398884,0.018684948125320778,-0.007559285821745044,-0.02404957386440348,0,70,255.0,255.0,255.0
252,12.600000000000001,12.473244473410055,0.6424255688649332,-2.2974889025412932,0.29940463063849265,-0.13013706601053668,-0.3490760468640198,0.020223896025778874,-0.008446707948779799,-0.0231221393368316,0,70,255.0,255.0,255.0
253,12.65,12.488240626040303,0.635907787420251,-2.314971221127612,0.30045429913729305,-0.13058158696115152,-0.350208967967672,0.021762843926236917,-0.009334130075814524,-0.022194704809259752,0,70,255.0,255.0,255.0
254,12.700000000000001,12.50329118578037,0.629366670650379,-2.332509026475954,0.30158091503111634,-0.13107047901811814,-0.3512955173449457,0.023301791826695017,-0.010221552202849279,-0.02126727028168787,0,70,255.0,255.0,255.0
255,12.75,12.5184,0.6228,-2.3501,0.3027844783199625,-0.13160374218143644,-0.3523356949958408,0.02484073972715306,-0.011108974329883559,-0.02033983575411602,0,70,255.0,255.0,255.0
256,12.8,12.533569695699084,0.6162063114009612,-2.3677428531955544,0.3039917668120172,-0.13213610722121,-0.3533913058477339,0.023450799955033012,-0.010185627261058615,-0.021884598321610514,0,70,255.0,255.0,255.0
257,12.850000000000001,12.548798018398058,0.6095871587337696,-2.3854404178869135,0.30512955831546584,-0.13262230490754232,-0.35452415482800187,0.02206086018291296,-0.00926228019223367,-0.02342936088910501,0,70,255.0,255.0,255.0
258,12.9,12.564081493247489,0.6029448503660977,-2.4031965559804944,0.3061978528303085,-0.13306233524043337,-0.3557342419366445,0.02067092041079296,-0.008338933123408759,-0.02497412345659945,0,70,255.0,255.0,255.0
259,12.950000000000001,12.579416645397945,0.596281694665617,-2.421015129382717,0.30719665035654514,-0.1334561982198832,-0.35702156717366185,0.01928098063867291,-0.007415586054583814,-0.026518886024093948,0,70,255.0,255.0,255.0
260,13.0,12.5948,0.5896,-2.4389,0.3081259508941758,-0.13380389384589178,-0.3583861305390538,0.017891040866553354,-0.006492238985758236,-0.028063648591587498,0,70,255.0,255.0,255.0
261,13.05,12.610228736683787,0.5829013208564113,-2.456853797914466,0.30902502321720426,-0.13415065494888637,-0.35975402257507305,0.018071852054583816,-0.007378205134023976,-0.026652032849181564,0,70,255.0,255.0,255.0
262,13.100000000000001,12.62570265299771,0.5761841961999875,-2.4748742259110554,0.3099331360996342,-0.13454171435929418,-0.36105133382397203,0.01825266324261428,-0.008264171282289715,-0.02524041710677563,0,70,255.0,255.0,255.0
263,13.15,12.64122220096974,0.5694464111153584,-2.492957754950411,0.3108502895414657,-0.1349770720771153,-0.3622780642857506,0.018433474430644737,-0.009150137430555422,-0.023828801364369746,0,70,255.0,255.0,255.0
264,13.200000000000001,12.656787832627847,0.5626857506871527,-2.5111008559931784,0.31177648354269866,-0.13545672810234974,-0.36343421396040904,0.018614285618675203,-0.010036103578821162,-0.022417185621963813,0,70,255.0,255.0,255.0
265,13.25,12.6724,0.5559,-2.5293,0.31271171810333326,-0.13598068243499742,-0.36451978284794706,0.018795096806706102,-0.01092206972708687,-0.021005569879556596,0,70,255.0,255.0,255.0
266,13.3,12.688059357565768,0.5490876051733928,-2.547552355146581,0.3136681403191685,-0.13650927298324575,-0.36557660385197793,0.019461791826703767,-0.010221552202847074,-0.021267270281678744,0,70,255.0,255.0,255.0
267,13.350000000000001,12.7037673696111,0.5422496564662788,-2.5658578784688673,0.3146578972860037,-0.13700283765528215,-0.36664650987611497,0.02012848684670143,-0.00952103467860728,-0.021528970683800892,0,70,255.0,255.0,255.0
268,13.4,12.719525702873552,0.5353879051724683,-2.584217224217861,0.3156809890038387,-0.1374613764511065,-0.36772950092035805,0.02079518186669907,-0.008820517154367508,-0.021790671085923034,0,70,255.0,255.0,255.0
269,13.450000000000001,12.735336024090667,0.5285041025857716,-2.602631046644571,0.3167374154726736,-0.13788488937071888,-0.36882557698470725,0.02146187688669673,-0.008119999630127713,-0.022052371488045182,0,70,255.0,255.0,255.0
270,13.5,12.7512,0.5216,-2.6211,0.3178271766925083,-0.1382733764141193,-0.3699347380691625,0.022128571906694372,-0.007419482105888164,-0.022314071890167764,0,70,255.0,255.0,255.0
271,13.55,12.767118633053148,0.5146770584500162,-2.6396247814992106,0.3189104155061415,-0.13864425311813103,-0.37105956201701884,0.021200980638634702,-0.007415586054581524,-0.02267888602408617,0,70,255.0,255.0,255.0
272,13.600000000000001,12.783090268557894,0.5077355779348961,-2.658206260213481,0.31994727475637186,-0.13901493501957746,-0.37220262667157117,0.020273389370575032,-0.007411690003274884,-0.023043700158004575,0,70,255.0,255.0,255.0
273,13.65,12.799112587536062,0.5007755681947679,-2.676845348178145,0.32093775444319905,-0.13938542211845853,-0.3733639320328193,0.019345798102515393,-0.007407793951968245,-0.02340851429192297,0,70,255.0,255.0,255.0
274,13.700000000000001,12.815183271009488,0.4937970389697597,-2.695542957428541,0.3218818545666233,-0.13975571441477427,-0.37454347810076344,0.018418206834455723,-0.007403897900661605,-0.023773328425841376,0,70,255.0,255.0,255.0
275,13.75,12.8313,0.4868,-2.7143,0.3227795751266447,-0.14012581190852472,-0.3757412648754034,0.017490615566396528,-0.007400001849355187,-0.024138142559758435,0,70,255.0,255.0,255.0
276,13.8,12.847461310221647,0.47978416102654137,-2.7331173188565794,0.32368219765627065,-0.14051371454422917,-0.3769531480799465,0.018614285618641462,-0.008116103578823407,-0.024337185621967274,0,70,255.0,255.0,255.0
277,13.850000000000001,12.86366915615734,0.47274803179413566,-2.7519954806772136,0.32464100368850884,-0.14093742226640707,-0.37817498343760014,0.019737955670886397,-0.008832205308291628,-0.024536228684176115,0,70,255.0,255.0,255.0
278,13.9,12.879926346982206,0.4656898220484595,-2.7709349830695578,0.3256559932233593,-0.14139693507505832,-0.37940677094836417,0.020861625723131293,-0.009548307037759822,-0.024735271746384947,0,70,255.0,255.0,255.0
279,13.950000000000001,12.896235691871384,0.45860774153518863,-2.7899363236412684,0.326727166260822,-0.14189225297018304,-0.38064851061223864,0.021985295775376223,-0.010264408767228044,-0.024934314808593788,0,70,255.0,255.0,255.0
280,14.0,12.9126,0.4515,-2.809,0.32785452280089694,-0.14242337595178114,-0.3819002024292235,0.0231089658276189,-0.010980510496695794,-0.02513335787080173,0,70,255.0,255.0,255.0
281,14.05,12.92902092606027,0.4443654974438177,-2.828125943074474,0.32896879386875655,-0.14294888870495176,-0.3831278456631946,0.021461876886763664,-0.010039999630128568,-0.023972371488040507,0,70,255.0,255.0,255.0
282,14.100000000000001,12.945495506812756,0.4372058948885601,-2.847311817077668,0.3300007104895733,-0.14342737591479401,-0.3842974395780276,0.01981478794590843,-0.009099488763561344,-0.022811385105279282,0,70,255.0,255.0,255.0
283,14.15,12.96201962453511,0.4300235436113938,-2.8665547195436245,0.33095027266334737,-0.1438588375813079,-0.3854089841737225,0.018167699005053252,-0.00815897789699415,-0.021650398722518095,0,70,255.0,255.0,255.0
284,14.200000000000001,12.978589161504974,0.4228207948894848,-2.8858517480063877,0.33181748039007863,-0.14424327370449344,-0.3864624794502794,0.016520610064198013,-0.007218467030426925,-0.02048941233975687,0,70,255.0,255.0,255.0
285,14.25,12.9952,0.4156,-2.9052,0.3326023336697671,-0.14458068428435059,-0.38745792540769813,0.014873521123340616,-0.0062779561638592885,-0.019328425956994355,0,70,255.0,255.0,255.0
286,14.3,13.011849385537273,0.40836264919818727,-2.9245973088455264,0.3333866268687121,-0.14492273063596361,-0.38843946926726924,0.016498206834460506,-0.007403897900661754,-0.019933328425849436,0,70,255.0,255.0,255.0
287,14.350000000000001,13.028540016591633,0.4011067886516228,-2.944044451012118,0.3342521543532132,-0.14532107407441677,-0.38945125825028315,0.018122892545580395,-0.00852983963746422,-0.02053823089470452,0,70,255.0,255.0,255.0
288,14.4,13.045275954877352,0.3938296035059649,-2.9635429387559453,0.33519891612327013,-0.14577571459971003,-0.3904932923567397,0.019747578256700225,-0.009655781374266644,-0.02114313336355958,0,70,255.0,255.0,255.0
289,14.450000000000001,13.062061262108717,0.3865282789068712,-2.9830942843331822,0.3362269121788832,-0.14628665221184342,-0.39156557158663907,0.021372263967820118,-0.010781723111069109,-0.02174803583241466,0,70,255.0,255.0,255.0
290,14.5,13.0789,0.3792,-3.0027,0.33733614252005223,-0.14685388691081694,-0.39266809593998114,0.022996949678939504,-0.011907664847871535,-0.022352938301268832,0,70,255.0,255.0,255.0
291,14.55,13.095795131790643,0.37184310576343277,-3.022361621543421,0.3384606986564084,-0.1474081887511944,-0.3938022772677278,0.02198529577530735,-0.01026440876722685,-0.02301431480859782,0,70,255.0,255.0,255.0
292,14.600000000000001,13.112745226820723,0.3644605505049475,-3.0420807788738626,0.33953467209758303,-0.14788032778753962,-0.39496952742084096,0.020973641871675202,-0.008621152686582166,-0.023675691315926815,0,70,255.0,255.0,255.0
293,14.65,13.12974775595548,0.3570564423647461,-3.061859125432594,0.3405580628435759,-0.14827030401985264,-0.3961698463993205,0.019961987968043087,-0.006977896605937539,-0.02433706782325578,0,70,255.0,255.0,255.0
294,14.700000000000001,13.14680019006016,0.34963488948302957,-3.081698314660884,0.3415308708943873,-0.1485781174481334,-0.3974032342031665,0.018950334064410934,-0.005334640525292853,-0.02499844433058477,0,70,255.0,255.0,255.0
295,14.75,13.1639,0.3422,-3.1016,0.3424530962500171,-0.14880376807238194,-0.3986696908323789,0.017938680160779263,-0.003691384444648449,-0.025659820837911518,0,70,255.0,255.0,255.0
296,14.8,13.181045287300162,0.3347545277480809,-3.1215650049807926,0.3433625785056422,-0.1490285143592588,-0.3999194216618204,0.018440610064226533,-0.005298467030425891,-0.024329412339746684,0,70,255.0,255.0,255.0
297,14.850000000000001,13.198236676125484,0.32729580932858576,-3.141590833492434,0.3442971572564398,-0.14933361477542453,-0.4011026320663536,0.018942539967673803,-0.0069055496162033336,-0.02299900384158185,0,70,255.0,255.0,255.0
298,14.9,13.215475421300726,0.31981982703505035,-3.1616741595136792,0.3452568325024096,-0.14971906932087914,-0.40221932204597854,0.019444469871121053,-0.00851263220198072,-0.021668595343417064,0,70,255.0,255.0,255.0
299,14.950000000000001,13.232762777650644,0.31232256316100976,-3.181811657023283,0.3462416042435519,-0.1501848779956226,-0.4032694916006953,0.019946399774568323,-0.010119714787758163,-0.02033818684525223,0,70,255.0,255.0,255.0
300,15.0,13.2501,0.3048,-3.202,0.3472514724798664,-0.15073104079965494,-0.4042531407305037,0.02044832967801513,-0.011726797373534659,-0.019007778347086113,0,70,255.0,255.0,255.0
301,15.05,13.267487719008711,0.2972491832442429,-3.2222367585334117,0.3482489873210132,-0.15129375381177007,-0.40522403608499136,0.01945226396785874,-0.010781723111070804,-0.019828035832418957,0,70,255.0,255.0,255.0
302,15.100000000000001,13.284924068677345,0.2896714121807082,-3.242523087156404,0.3491966988766523,-0.15180921311076204,-0.40623594431374566,0.018456198257702346,-0.00983664884860695,-0.0206482933177518,0,70,255.0,255.0,255.0
303,15.15,13.302406558841618,0.2820690494950521,-3.26286103651269,0.3500946071467835,-0.15227741869663078,-0.40728886541676657,0.017460132547545984,-0.00889157458614313,-0.021468550803084612,0,70,255.0,255.0,255.0
304,15.200000000000001,13.319932699337263,0.27444445787293054,-3.2832526572459853,0.3509427121314069,-0.15269837056937632,-0.40838279939405414,0.01646406683738959,-0.007946500323679275,-0.022288808288417457,0,70,255.0,255.0,255.0
305,15.25,13.3375,0.2668,-3.3037,0.3517410138305224,-0.1530720687289987,-0.4095177462456083,0.015468001127233233,-0.00700142606121501,-0.023109065773751603,0,70,255.0,255.0,255.0
306,15.3,13.355107036664993,0.2591375392749467,-3.3242047608855634,0.3525534722103128,-0.15342847039366136,-0.4106724339982166,0.01703033406438188,-0.007254640525291837,-0.023078444330580084,0,70,255.0,255.0,255.0
307,15.350000000000001,13.372756649165146,0.2514569419485802,-3.3447672178819534,0.35344404723696066,-0.15379753278152788,-0.41182559067866636,0.018592667001530526,-0.007507854989368664,-0.023047822887408562,0,70,255.0,255.0,255.0
308,15.4,13.390452743332805,0.24375757498474057,-3.3653872944355605,0.3544127389104659,-0.15417925589259823,-0.4129772162869575,0.02015499993867912,-0.0077610694534454815,-0.023017201444237044,0,70,255.0,255.0,255.0
309,15.450000000000001,13.408199225000308,0.23603880534726707,-3.3860649139927794,0.3554595472308285,-0.15457363972687244,-0.41412731082309007,0.021717332875827767,-0.008014283917522309,-0.022986580001065526,0,70,255.0,255.0,255.0
310,15.5,13.426,0.2283,-3.4068,0.3565844721980486,-0.15498068428435047,-0.41527587428706403,0.02327966581297547,-0.00826749838159957,-0.022955958557894895,0,70,255.0,255.0,255.0
311,15.55,13.443857734331319,0.22054065965596947,-3.4275921979243376,0.35771312383773707,-0.15539236461358438,-0.4164062279221426,0.02186639977456302,-0.008199714787757715,-0.022258186845247066,0,70,255.0,255.0,255.0
312,15.600000000000001,13.461770134662075,0.21276082002496954,-3.4484400413157874,0.35877111217550495,-0.15580065576312627,-0.4175016929715888,0.02045313373615057,-0.008131931193915863,-0.021560415132599233,0,70,255.0,255.0,255.0
313,15.65,13.47973366782717,0.20496065056598511,-3.469341785745069,0.35975843721135214,-0.156205557732976,-0.41856226943540253,0.019039867697738168,-0.008064147600074012,-0.020862643419951428,0,70,255.0,255.0,255.0
314,15.700000000000001,13.497744800661513,0.19714032073800022,-3.490295686782901,0.36067509894527877,-0.15660707052313363,-0.4195879573135839,0.017626601659325718,-0.007996364006232158,-0.020164871707303595,0,70,255.0,255.0,255.0
315,15.75,13.5158,0.1893,-3.5113,0.3615210973772848,-0.1570051941335992,-0.42057875660613286,0.016213335620911984,-0.007928580412389863,-0.019467099994654014,0,70,255.0,255.0,255.0
316,15.8,13.533896426009731,0.18143982210117474,-3.5323536474170893,0.36233803243874235,-0.15740207115200097,-0.42157465431321,0.016464066837388994,-0.007946500323679917,-0.020368808288430365,0,70,255.0,255.0,255.0
317,15.850000000000001,13.552034012186557,0.17355977795154026,-3.5534582168549,0.36316750406102366,-0.1577998441659672,-0.42261563743497593,0.016714798053866005,-0.007964420234969972,-0.021270516582206713,0,70,255.0,255.0,255.0
318,15.9,13.570213385358516,0.16565982275131866,-3.574615962584165,0.36400951224412886,-0.15819851317549793,-0.42370170597143064,0.016965529270343005,-0.007982340146260026,-0.022172224875983033,0,70,255.0,255.0,255.0
319,15.950000000000001,13.588435172353648,0.1577399117007311,-3.595829138875621,0.364864056988058,-0.1585980781805932,-0.42483285992257425,0.01721626048682002,-0.00800026005755008,-0.023073933169759385,0,70,255.0,255.0,255.0
320,16.0,13.6067,0.1498,-3.6171,0.36573113829281084,-0.15899853918125295,-0.4260090992884065,0.01746699170329391,-0.008018179968840133,-0.02397564146353348,0,70,255.0,255.0,255.0
321,16.05,13.625008561629757,0.14184005193933089,-3.6384300124073077,0.3666147464072891,-0.159399350778412,-0.4271831548250213,0.017877332875835622,-0.00801428391752177,-0.022986580001057074,0,70,255.0,255.0,255.0
322,16.1,13.643361816591707,0.133860068168868,-3.6598174912646178,0.3675188715803944,-0.15979996757300516,-0.4283077572885123,0.018287674048377334,-0.008010387866203405,-0.021997518538580667,0,70,255.0,255.0,255.0
323,16.150000000000002,13.661760790738777,0.1258600584287396,-3.681259963918274,0.3684435138121268,-0.16020038956503235,-0.4293829066788794,0.018698015220919045,-0.008006491814885042,-0.021008457076104263,0,70,255.0,255.0,255.0
324,16.2,13.680206509923897,0.11784003245907455,-3.702754957714619,0.3693886731024863,-0.16060061675449364,-0.43040860299612266,0.01910835639346073,-0.008002595763566678,-0.020019395613627925,0,70,255.0,255.0,255.0
325,16.25,13.6987,0.1098,-3.7243,0.37035434945147283,-0.16100064914138898,-0.43138484624024215,0.01951869756600022,-0.007998699712248092,-0.019030334151151518,0,70,255.0,255.0,255.0
326,16.3,13.717242127471236,0.10173997014150096,-3.7458935029536833,0.37133098193210584,-0.16140052573435099,-0.43236472638670354,0.019546601659321008,-0.007996364006232026,-0.02016487170730336,0,70,255.0,255.0,255.0
327,16.35,13.735833121446623,0.09365994937298636,-3.7675374180866346,0.372309009617405,-0.1618002855420122,-0.4334013334109725,0.01957450575264179,-0.00799402830021596,-0.021299409263455204,0,70,255.0,255.0,255.0
328,16.400000000000002,13.754473051686388,0.08555994353372119,-3.7892345817427446,0.37328843250737004,-0.1621999285643726,-0.4344946673130491,0.01960240984596258,-0.007991692594199896,-0.022433946819607045,0,70,255.0,255.0,255.0
329,16.45,13.773161987950768,0.07743995846297112,-3.810987830265902,0.3742692506020012,-0.16259945480143215,-0.43564472809293314,0.01963031393928336,-0.00798935688818383,-0.023568484375758807,0,70,255.0,255.0,255.0
330,16.5,13.7919,0.0693,-3.8328,0.3752514639012983,-0.16299886425319096,-0.4368515157506249,0.019658218032601926,-0.007987021182168874,-0.024703021931909763,0,70,255.0,255.0,255.0
331,16.55,13.810686928485294,0.06114006749466455,-3.854672775777962,0.37622132586428375,-0.163398546284184,-0.4380459396281666,0.01913626048681384,-0.008000260057550968,-0.02307393316975783,0,70,255.0,255.0,255.0
332,16.6,13.829521697621807,0.05296013433918522,-3.876603236388849,0.3771650899499797,-0.16379889025894606,-0.43915890906760074,0.018614302941025757,-0.008013498932933062,-0.021444844407605898,0,70,255.0,255.0,255.0
333,16.650000000000002,13.848403002515672,0.04476016743637355,-3.8985873091107544,0.3780827561583863,-0.1641998961774773,-0.4401904240689272,0.018092345395237675,-0.008026737808315155,-0.019815755645453965,0,70,255.0,255.0,255.0
334,16.7,13.867329538273024,0.03654013368904169,-3.920620921221772,0.37897432448950347,-0.16460156403977755,-0.4411404846321461,0.01757038784944963,-0.008039976683697247,-0.01818666688330215,0,70,255.0,255.0,255.0
335,16.75,13.8863,0.0283,-3.9427,0.37983979494333125,-0.165003893845847,-0.4420090907572574,0.017048430303659767,-0.008053215559080007,-0.016557578121151106,0,70,255.0,255.0,255.0
336,16.8,13.905313358587586,0.020039759879840142,-3.96482179393447,0.38069571461075935,-0.16540528912891314,-0.44287551510062684,0.01718835639346379,-0.008002595763566366,-0.018099395613624412,0,70,255.0,255.0,255.0
337,16.85,13.924369688066152,0.011759513270271376,-3.9869888363579733,0.38155863058267764,-0.16580415342220364,-0.44381903031861986,0.017328282483267815,-0.007951975968052725,-0.019641213106097722,0,70,255.0,255.0,255.0
338,16.900000000000002,13.943469338250928,0.0034593867207824754,-4.009204981814243,0.3824285428590862,-0.16620048672571844,-0.44483963641123664,0.017468208573071835,-0.007901356172539085,-0.021183030598571028,0,70,255.0,255.0,255.0
339,16.95,13.962612658957134,-0.004860493219137182,-4.031474084847007,0.3833054514399848,-0.16659428903945753,-0.44593733337847696,0.01760813466287585,-0.007850736377025448,-0.022724848091044227,0,70,255.0,255.0,255.0
340,17.0,13.9818,-0.0132,-4.0538,0.38418935632537365,-0.16698556036342094,-0.44711212122034094,0.017748060752677652,-0.007800116581511141,-0.024266665583515312,0,70,255.0,255.0,255.0
341,17.05,14.001031637164372,-0.021559107014025834,-4.07618564848416,0.3850758156926728,-0.1673802972001633,-0.44830799996932297,0.017710313939286414,-0.007989356888183877,-0.023568484375766186,0,70,255.0,255.0,255.0
342,17.1,14.020307550113591,-0.02993818742027213,-4.0986302181792595,0.38596038771930236,-0.16778449605223933,-0.4494689696579176,0.017672567125895176,-0.008178597194856613,-0.02287030316801706,0,70,255.0,255.0,255.0
343,17.150000000000002,14.039627644480623,-0.03833771431950557,-4.121131963632279,0.3868430724052623,-0.168198156919649,-0.45059503028612474,0.01763482031250394,-0.008367837501529349,-0.022172121960267934,0,70,255.0,255.0,255.0
344,17.2,14.058991825898437,-0.04675816081249222,-4.143689139390198,0.3877238697505527,-0.16862127980239225,-0.4516861818539443,0.017597073499112704,-0.008557077808202071,-0.02147394075251886,0,70,255.0,255.0,255.0
345,17.25,14.0784,-0.0552,-4.1663,0.38860277975517354,-0.16905386470046918,-0.4527424243613766,0.017559326685721466,-0.008746318114875251,-0.02077575954476929,0,70,255.0,255.0,255.0
346,17.3,14.097852092754936,-0.06366333182373751,-4.18896281212889,0.38948102261855283,-0.16947352207043354,-0.45376448502207856,0.017570387849449354,-0.008039976683697948,-0.020106666883306524,0,70,255.0,255.0,255.0
347,17.35,14.117348111479492,-0.07214676358918427,-4.211675890924989,0.3903598185401185,-0.16985786236883899,-0.4547530910497073,0.017581449013177243,-0.007333635252520645,-0.019437574221843758,0,70,255.0,255.0,255.0
348,17.400000000000002,14.136888083826584,-0.08064852944276234,-4.234437563656644,0.3912391675198706,-0.1702068855956856,-0.45570824244426295,0.01759251017690513,-0.006627293821343342,-0.018768481560380995,0,70,255.0,255.0,255.0
349,17.45,14.156472037449115,-0.08916686353089316,-4.257246157592197,0.39211906955780895,-0.1705205917509733,-0.45662993920574535,0.017603571340633017,-0.005920952390166089,-0.018099388898918278,0,70,255.0,255.0,255.0
350,17.5,14.1761,-0.0977,-4.2801,0.39299952465393384,-0.1707989808347022,-0.45751818133415467,0.017614632504360905,-0.005214610958989452,-0.017430296237455067,0,70,255.0,255.0,255.0
351,17.55,14.195771991815894,-0.10624676569102481,-4.302998303000277,0.39388009383311473,-0.17107761451810258,-0.4584260599423671,0.017608134662874697,-0.005930736377025313,-0.018884848091043713,0,70,255.0,255.0,255.0
352,17.6,14.215488003968442,-0.1148083582229922,-4.325943818120782,0.3947603381202214,-0.17139205447240477,-0.45940666614325903,0.01760163682138849,-0.0066468617950611745,-0.02033939994463236,0,70,255.0,255.0,255.0
353,17.650000000000002,14.235248020213048,-0.12338656790944723,-4.348940181741148,0.3956402575152536,-0.1717423006976087,-0.46045999993683046,0.01759513897990228,-0.007362987213097036,-0.02179395179822101,0,70,255.0,255.0,255.0
354,17.7,14.255052024305101,-0.13198318506393442,-4.371991030241009,0.3965198520182115,-0.17212835319371445,-0.4615860613230811,0.017588641138416072,-0.008079112631132847,-0.02324850365180955,0,70,255.0,255.0,255.0
355,17.75,14.2749,-0.1406,-4.3951,0.3973991216290952,-0.17255021196072198,-0.4627848503020114,0.017582143296929864,-0.008795238049167375,-0.024703055505397753,0,70,255.0,255.0,255.0
356,17.8,14.294791939981495,-0.14923840541216393,-4.418269575870002,0.3982786020489963,-0.1729840198571562,-0.4639872752084588,0.017597073499112704,-0.008557077808201315,-0.023393940752497035,0,70,255.0,255.0,255.0
357,17.85,14.314727872646735,-0.1578982035188484,-4.441497636591886,0.3991588289790065,-0.17340591974154212,-0.4651242443772611,0.017612003701295544,-0.008318917567235256,-0.02208482599959632,0,70,255.0,255.0,255.0
358,17.900000000000002,14.33470783532123,-0.16657879891945093,-4.464780909378769,0.4000398024191258,-0.17381591161387974,-0.46619575780841843,0.017626933903478383,-0.008080757326269195,-0.020775711246695604,0,70,255.0,255.0,255.0
359,17.95,14.354731865330484,-0.17527959621336853,-4.488116121443766,0.4009215223693543,-0.17421399547416905,-0.46720181550193063,0.01764186410566122,-0.007842597085303153,-0.01946659649379498,0,70,255.0,255.0,255.0
360,18.0,14.3748,-0.184,-4.5115,0.4018039888296919,-0.17460017132241004,-0.46814241745779783,0.01765679430784317,-0.007604436844337981,-0.01815748174089382,0,70,255.0,255.0,255.0
361,18.05,14.394912248258134,-0.19273961266032014,-4.534929793519716,0.402685497970903,-0.17498630605327264,-0.46904883922379353,0.017603571340598555,-0.007840952390166892,-0.018099388898935052,0,70,255.0,255.0,255.0
362,18.1,14.41506850544462,-0.20149882770161573,-4.558404835511678,0.4035643459637518,-0.17538426656142675,-0.4699523563476914,0.01755034837335394,-0.008077467935995803,-0.018041296056976283,0,70,255.0,255.0,255.0
363,18.150000000000002,14.435268638502036,-0.21027823641275126,-4.581924980743783,0.40444053280823844,-0.17579405284687225,-0.4708529688294912,0.017497125406109326,-0.008313983481824714,-0.017983203215017514,0,70,255.0,255.0,255.0
364,18.2,14.455512514372968,-0.21907843008259073,-4.605490083983924,0.4053140585043627,-0.17621566490960922,-0.4717506766691931,0.017443902438864713,-0.00855049902765361,-0.01792511037305875,0,70,255.0,255.0,255.0
365,18.25,14.4758,-0.2279,-4.6291,0.40618492305212484,-0.1766491027496376,-0.4726454798667971,0.01739067947161832,-0.008787014573482077,-0.017867017531100426,0,70,255.0,255.0,255.0
366,18.3,14.496131066985974,-0.2367431439465562,-4.652755250051138,0.40705940606737656,-0.17707075592975297,-0.47357736789636967,0.01758864113844965,-0.008079112631132224,-0.01940850365180158,0,70,255.0,255.0,255.0
367,18.35,14.516506105574795,-0.24560648567469023,-4.676459021361405,0.4079437871659698,-0.17745701401275085,-0.4745863302319773,0.017786602805280976,-0.007371210688782373,-0.02094998977250273,0,70,255.0,255.0,255.0
368,18.400000000000002,14.536925610670625,-0.2544882554295463,-4.700215167646103,0.4088380663479047,-0.1778078769986312,-0.47567236687361997,0.017984564472112306,-0.00666330874643252,-0.022491475893203883,0,70,255.0,255.0,255.0
369,18.45,14.557390077177638,-0.2633866834562677,-4.724027542620533,0.409742243613181,-0.1781233448873941,-0.47683547782129765,0.018182526138943618,-0.005955406804082718,-0.024032962013904924,0,70,255.0,255.0,255.0
370,18.5,14.5779,-0.2723,-4.7479,0.410656318961799,-0.17840341767903947,-0.4780756630750104,0.018380487805774948,-0.0052475048617319775,-0.0255744481346043,0,70,255.0,255.0,255.0
371,18.55,14.598455483797974,-0.28122701155345575,-4.771834806275734,0.4115568777595857,-0.17868267022771536,-0.4792976891907206,0.017641864105695317,-0.005922597085303459,-0.02330659649380179,0,70,255.0,255.0,255.0
372,18.6,14.61905507225621,-0.29016882959962476,-4.795827879042705,0.4124205053723686,-0.17899567738756983,-0.48040632272439066,0.016903240405615683,-0.00659768930887494,-0.02103874485299928,0,70,255.0,255.0,255.0
373,18.650000000000002,14.639696918815458,-0.2991271418690659,-4.819873548671807,0.41324720180014735,-0.17934243915860287,-0.48140156367602055,0.016164616705536053,-0.007272781532446422,-0.018770893212196774,0,70,255.0,255.0,255.0
374,18.7,14.660379176916472,-0.30810363609233765,-4.843966145533939,0.41403696704292214,-0.17972295554081444,-0.4822834120456103,0.015425993005456473,-0.007947873756017855,-0.016503041571394428,0,70,255.0,255.0,255.0
375,18.75,14.6811,-0.3171,-4.8681,0.41478980110069297,-0.18013722653420464,-0.4830518678331599,0.014687369305375952,-0.008622965979589337,-0.014235189930589698,0,70,255.0,255.0,255.0
376,18.8,14.70185819782214,-0.32611760983962157,-4.892271124845923,0.41554508289429737,-0.1805665631593857,-0.48380787534075126,0.01552390243879992,-0.008550499027653612,-0.016005110373063427,0,70,255.0,255.0,255.0
377,18.85,14.722655205400375,-0.3351565959268122,-4.916482262467778,0.416342191344573,-0.18099227643697,-0.48465237887046625,0.016360435572223886,-0.008478032075717887,-0.017775030815537156,0,70,255.0,255.0,255.0
378,18.900000000000002,14.743493114067542,-0.3442167770941922,-4.940737837666672,0.4171811264515198,-0.1814143663669575,-0.485585378422305,0.017196968705647856,-0.008405565123782164,-0.01954495125801089,0,70,255.0,255.0,255.0
379,18.95,14.764374015156472,-0.353297972174381,-4.96504227524371,0.41806188821513773,-0.1818328329493482,-0.4866068739962673,0.018033501839071764,-0.008333098171846444,-0.021314871700484492,0,70,255.0,255.0,255.0
380,19.0,14.7853,-0.3624,-4.9894,0.41898447663542693,-0.18224767618414217,-0.48771686559235344,0.01887003497249573,-0.008260631219910941,-0.023084792142957777,0,70,255.0,255.0,255.0
381,19.05,14.806272524913473,-0.3715225490880589,-5.013814294340576,0.4199107906632129,-0.18265107713474202,-0.4888468094462747,0.01818252613894379,-0.00787540680408209,-0.022112962013891645,0,70,255.0,255.0,255.0
382,19.1,14.827290506142294,-0.3806647866931279,-5.038283871086187,0.42080272924932133,-0.18303521686455038,-0.48992816179374266,0.01749501730539185,-0.007490182388253242,-0.02114113188482551,0,70,255.0,255.0,255.0
383,19.150000000000002,14.848352224914375,-0.38982574975416767,-5.062806300661509,0.42166029239375213,-0.18340009537356733,-0.49096092263475727,0.01680750847183991,-0.007104957972424392,-0.020169301755759376,0,70,255.0,255.0,255.0
384,19.200000000000003,14.869455962457643,-0.39900447521013843,-5.087379153491223,0.4224834800965053,-0.18374571266179282,-0.49194509196931857,0.016119999638287967,-0.0067197335565955425,-0.01919747162669324,0,70,255.0,255.0,255.0
385,19.25,14.8906,-0.4082,-5.112,0.4232722923575809,-0.18407206872922688,-0.4928806697974265,0.015432490804737853,-0.006334509140765832,-0.01822564149762318,0,70,255.0,255.0,255.0
386,19.3,14.911782902523969,-0.41741139380814385,-5.136666897791774,0.4240437544528375,-0.18438112830164646,-0.4937968868741522,0.015425993005525029,-0.0060278737560176725,-0.018423041571404578,0,70,255.0,255.0,255.0
387,19.35,14.933004370030453,-0.42663785730067766,-5.161379853187478,0.42481489165813346,-0.18467485610482867,-0.494722973954567,0.015419495206312205,-0.0057212383712695125,-0.018620441645185976,0,70,255.0,255.0,255.0
388,19.400000000000002,14.95426438627495,-0.43587862388913967,-5.186139359687294,0.42558570397346873,-0.18495325213877342,-0.4956589310386708,0.015412997407099381,-0.0054146029865213535,-0.018817841718967374,0,70,255.0,255.0,255.0
389,19.450000000000003,14.975562935012965,-0.4451329269850679,-5.2109459107914065,0.4263561913988434,-0.1852163164034808,-0.49660475812646376,0.01540649960788656,-0.0051079676017731935,-0.01901524179274877,0,70,255.0,255.0,255.0
390,19.5,14.9969,-0.4544,-5.2358,0.4271263539342573,-0.18546404889895074,-0.4975604552179457,0.015400001808670627,-0.004801332217024612,-0.019212641866530156,0,70,255.0,255.0,255.0
391,19.55,15.018275864990652,-0.4636798756793668,-5.260702114492329,0.42791419152545007,-0.1857444096586725,-0.49852564305712077,0.016113501839040822,-0.0064130981718458335,-0.01939487170047283,0,70,255.0,255.0,255.0
392,19.6,15.039692013735904,-0.4729757841041632,-5.285652716163908,0.4287377041181614,-0.18610535871613532,-0.499499942387993,0.016827001869411017,-0.008024864126667055,-0.019577101534415504,0,70,255.0,255.0,255.0
393,19.650000000000002,15.061150229985829,-0.48229175468927626,-5.310652260589324,0.42959689171239124,-0.18654689607133923,-0.5004833532105624,0.01754050189978121,-0.009636630081488275,-0.019759331368358175,0,70,255.0,255.0,255.0
394,19.700000000000003,15.082652297490505,-0.4916318168495931,-5.33570120334316,0.4304917543081396,-0.1870690217242842,-0.5014758755248289,0.018254001930151406,-0.011248396036309496,-0.01994156120230085,0,70,255.0,255.0,255.0
395,19.75,15.1042,-0.501,-5.3608,0.4314222919054063,-0.18767173567497014,-0.5024775093307924,0.01896750196052066,-0.012860161991130603,-0.020123791036245287,0,70,255.0,255.0,255.0
396,19.8,15.12579443751342,-0.5103987034743899,-5.385948644238915,0.4323474794453756,-0.1882572330636633,-0.5034605408973659,0.01803999963825039,-0.010559733556595908,-0.01919747162669213,0,70,255.0,255.0,255.0
397,19.85,15.147433975025937,-0.5198238062826711,-5.411145282156896,0.43322629186923134,-0.18872770903062977,-0.5043972564934616,0.01711249731598012,-0.008259305122061213,-0.018271152217138972,0,70,255.0,255.0,255.0
398,19.900000000000002,15.169116293781741,-0.5292695573537577,-5.436387597955421,0.43405872917697363,-0.18908316357586943,-0.5052876561190798,0.016184994993709848,-0.005958876687526518,-0.01734483280758581,0,70,255.0,255.0,255.0
399,19.950000000000003,15.190839075025034,-0.5387302056165629,-5.461673275835964,0.4348447913686024,-0.1893235966993824,-0.5061317397742202,0.015257492671439579,-0.003658448252991822,-0.016418513398032655,0,70,255.0,255.0,255.0
400,20.0,15.2126,-0.5482,-5.487,0.43558447844411763,-0.18944900840116863,-0.506929507458883,0.014329990349168042,-0.001358019818456846,-0.015492193988477787,0,70,255.0,255.0,255.0
401,20.05,15.234397584955666,-0.5576749104230748,-5.512366508552016,0.43632789069304395,-0.18956265808667438,-0.5077441933534137,0.015406499607884443,-0.0031879676017730935,-0.01709524179275219,0,70,255.0,255.0,255.0
402,20.1,15.256233686160355,-0.5671577907651538,-5.5377757552085125,0.4371251284049061,-0.18976780516134595,-0.5086390316381582,0.016483008866600844,-0.005017915385089341,-0.018698289597026598,0,70,255.0,255.0,255.0
403,20.150000000000002,15.278110994887207,-0.5766532158956957,-5.563231747589002,0.4379761915797041,-0.19006444962518332,-0.5096140223131164,0.017559518125317242,-0.006847863168405588,-0.020301337401301002,0,70,255.0,255.0,255.0
404,20.200000000000003,15.300032202409374,-0.5861657606841586,-5.588738493312994,0.4388810802174379,-0.19045259147818652,-0.5106691653782883,0.018636027384033645,-0.008677810951721836,-0.02190438520557541,0,70,255.0,255.0,255.0
405,20.25,15.322,-0.5957,-5.6143,0.4398397943181074,-0.1909322307203555,-0.511804460833674,0.01971253664274819,-0.010507758735038175,-0.023507433009850587,0,70,255.0,255.0,255.0
406,20.3,15.344016022663912,-0.6052592548333122,-5.6399189215530265,0.4407889577824307,-0.1914281345896392,-0.5129386856889777,0.01825400193018465,-0.009328396036309644,-0.02186156120229723,0,70,255.0,255.0,255.0
407,20.35,15.366077680332648,-0.6148418306567153,-5.665592497009059,0.4416651945111259,-0.19186507032398648,-0.5139906169539038,0.01679546721762111,-0.008149033337581112,-0.02021568939474387,0,70,255.0,255.0,255.0
408,20.400000000000002,15.38818132666943,-0.6244447790634622,-5.6913166116885785,0.4424685045041929,-0.19224303792339734,-0.5149602546284521,0.01533693250505757,-0.006969670638852582,-0.018569817587190514,0,70,255.0,255.0,255.0
409,20.450000000000003,15.410323315337475,-0.6340651516468063,-5.717087150912065,0.44319888776163163,-0.19256203738787175,-0.5158475987126229,0.01387839779249403,-0.00579030794012405,-0.016923945779637156,0,70,255.0,255.0,255.0
410,20.5,15.4325,-0.6437,-5.7429,0.44385634428344223,-0.19282206871740973,-0.5166526492064157,0.012419863079930593,-0.004610945241395159,-0.015278073972081252,0,70,255.0,255.0,255.0
411,20.55,15.454708724388684,-0.6533472702436772,-5.768752205235879,0.4445002781772275,-0.1930768035547694,-0.5174450638906689,0.013337492671478315,-0.005578448252991355,-0.016418513398048357,0,70,255.0,255.0,255.0
412,20.6,15.476950792509049,-0.663008486607987,-5.794645456755257,0.4451900935505901,-0.1933799135427089,-0.5182945005462206,0.014255122263026035,-0.006545951264587551,-0.01755895282401546,0,70,255.0,255.0,255.0
413,20.650000000000002,15.49922849843507,-0.672686067850458,-5.820582605656691,0.4459257904035301,-0.19373139868122816,-0.5192009591730705,0.015172751854573757,-0.007513454276183748,-0.018699392249982565,0,70,255.0,255.0,255.0
414,20.700000000000003,15.52154413624073,-0.6823824327286198,-5.846566503038751,0.4467073687360475,-0.19413125897032724,-0.5201644397712188,0.016090381446121477,-0.008480957287779943,-0.01983983167594967,0,70,255.0,255.0,255.0
415,20.75,15.5439,-0.6921,-5.8726,0.4475348285481422,-0.19457949441000613,-0.5211849423406655,0.01700801103767091,-0.009448460299375183,-0.02098027110191847,0,70,255.0,255.0,255.0
416,20.8,15.56629787978135,-0.70184046419198,-5.898685057503455,0.4483779295086832,-0.19503265119128352,-0.5222090587483526,0.01671602738396984,-0.008677810951719545,-0.019984385205564857,0,70,255.0,255.0,255.0
417,20.85,15.588737549631158,-0.7116026229113389,-5.924820075969922,0.4492064312865392,-0.1954472755051781,-0.5231833808612221,0.01642404373026877,-0.007907161604063906,-0.018988499309211242,0,70,255.0,255.0,255.0
418,20.900000000000002,15.611218279590291,-0.7213845495347083,-5.9510025656846635,0.4500203338817101,-0.1958233673516899,-0.5241079086792737,0.0161320600765677,-0.007136512256408267,-0.01799261341285763,0,70,255.0,255.0,255.0
419,20.950000000000003,15.633739339699618,-0.7311843174387185,-5.977230036932937,0.450819637294196,-0.19616092673081895,-0.5249826422025078,0.01584007642286663,-0.006365862908752629,-0.016996727516504016,0,70,255.0,255.0,255.0
420,21.0,15.6563,-0.741,-6.0035,0.4516043415239967,-0.19645995364256513,-0.5258075814309241,0.015548092769163357,-0.005595213561095935,-0.016000841620150474,0,70,255.0,255.0,255.0
421,21.05,15.67889975648592,-0.7508300729884043,-6.029810764750305,0.452388003788038,-0.19674459168009567,-0.5266307011159188,0.015798397792488664,-0.005790307940125941,-0.01692394577963531,0,70,255.0,255.0,255.0
422,21.1,15.701539008966323,-0.760674621746659,-6.056163839365059,0.4531841813032456,-0.19703898443657772,-0.5274999760088876,0.01604870281581397,-0.005985402319155947,-0.017847049939120146,0,70,255.0,255.0,255.0
423,21.150000000000002,15.724218383203766,-0.7705341340107116,-6.082561531604661,0.4539928740696194,-0.19734313191201128,-0.5284154061098308,0.01629900783913928,-0.006180496698185952,-0.01877015409860498,0,70,255.0,255.0,255.0
424,21.200000000000003,15.746938504960806,-0.7804090975165096,-6.109006149229509,0.45481408208715957,-0.19765703410639635,-0.5293769914187482,0.016549312862464586,-0.006375591077215958,-0.019693258258089815,0,70,255.0,255.0,255.0
425,21.25,15.7697,-0.7903,-6.1355,0.45564780535586585,-0.19798069101973284,-0.5303847319356397,0.0167996178857881,-0.006570685456245284,-0.020616362417574585,0,70,255.0,255.0,255.0
426,21.3,15.792503094274968,-0.8002072438544036,-6.1620446834953295,0.4564700553391645,-0.19830898208833347,-0.5313961367879779,0.016090381446155967,-0.006560957287779834,-0.019839831675950305,0,70,255.0,255.0,255.0
427,21.35,15.815346414503551,-0.8101308901020265,-6.188638966569848,0.45725684350048146,-0.19863678674851082,-0.5323687151032348,0.015381145006523836,-0.0065512291193143835,-0.01906330093432602,0,70,255.0,255.0,255.0
428,21.400000000000002,15.838228187594652,-0.8200709144224478,-6.215280907896702,0.4580081698398169,-0.19896410500026493,-0.5333024668814106,0.014671908566891703,-0.006541500950848933,-0.01828677019270174,0,70,255.0,255.0,255.0
429,21.450000000000003,15.861146640457166,-0.8300272924952463,-6.241968566149039,0.45872403435717063,-0.19929093684359575,-0.5341973921225049,0.013962672127259572,-0.006531772782383482,-0.017510239451077457,0,70,255.0,255.0,255.0
430,21.5,15.8841,-0.84,-6.2687,0.45940443705254286,-0.19961728227850326,-0.5350534908265182,0.013253435687626158,-0.006522044613917588,-0.016733708709451456,0,70,255.0,255.0,255.0
431,21.55,15.907087066414212,-0.8499889515939821,-6.295473701268382,0.46008377485530444,-0.19993947996657,-0.5358967517321667,0.013920076422835425,-0.006365862908752049,-0.01699672751648631,0,70,255.0,255.0,255.0
432,21.6,15.930108933019477,-0.8599938178452362,-6.322289894355557,0.4607964446948264,-0.2002538685693785,-0.5367531635781669,0.01458671715804469,-0.00620968120358651,-0.01725974632352117,0,70,255.0,255.0,255.0
433,21.650000000000002,15.95316726641764,-0.8700142082994993,-6.349149236808539,0.46154244657110893,-0.20056044808692866,-0.5376227263645188,0.015253357893253956,-0.0060534994984209715,-0.017522765130556027,0,70,255.0,255.0,255.0
434,21.700000000000003,15.976263733210534,-0.8800497325025084,-6.376052386174348,0.46232178048415185,-0.20085921851922056,-0.5385054400912225,0.01591999862846322,-0.005897317793255432,-0.017785783937590886,0,70,255.0,255.0,255.0
435,21.75,15.9994,-0.8901,-6.403,0.4631344464339551,-0.20115017986625422,-0.5394013047582777,0.016586639363671107,-0.0057411360880910145,-0.018048802744624837,0,70,255.0,255.0,255.0
436,21.8,16.022577440068197,-0.9001649497696684,-6.429992511431141,0.4639628452396094,-0.20145309804538689,-0.5402968562833467,0.016549312862497965,-0.006375591077215957,-0.017773258258128873,0,70,255.0,255.0,255.0
437,21.85,16.045796253418544,-0.9102458385170299,-6.4570294560079295,0.46478937772020495,-0.2017877389739758,-0.5411786305840907,0.016511986361324824,-0.007010046066340899,-0.01749771377163291,0,70,255.0,255.0,255.0
438,21.900000000000002,16.069056346734797,-0.9203442523795573,-6.484110144869146,0.46561404387574185,-0.202154102652021,-0.5420466276605099,0.016474659860151685,-0.00764450105546584,-0.017222169285136944,0,70,255.0,255.0,255.0
439,21.950000000000003,16.0923576267007,-0.9304617774947231,-6.511233889153576,0.46643684370622013,-0.20255218907952244,-0.5429008475126044,0.016437333358978543,-0.008278956044590783,-0.01694662479864098,0,70,255.0,255.0,255.0
440,22.0,16.1157,-0.9406,-6.5384,0.46725777721163964,-0.20298199825648006,-0.5437412901403739,0.016400006857801408,-0.008913411033714791,-0.016671080312142372,0,70,255.0,255.0,255.0
441,22.05,16.139083173313015,-0.9507600493273449,-6.56560825300705,0.46806484418626604,-0.20341612785188248,-0.544595823134454,0.015882672127253798,-0.00845177278238251,-0.017510239451059395,0,70,255.0,255.0,255.0
442,22.1,16.162506053306352,-0.9609412280866457,-6.592860281612729,0.46884604442436506,-0.20382717553471832,-0.5454923140854798,0.015365337396706188,-0.007990134531050228,-0.018349398589976418,0,70,255.0,255.0,255.0
443,22.150000000000002,16.185967346643178,-0.9711423821822743,-6.620158183714882,0.46960137792593665,-0.20421514130498752,-0.5464307629934516,0.014848002666158577,-0.007528496279717947,-0.019188557728893444,0,70,255.0,255.0,255.0
444,22.200000000000003,16.20946575998667,-0.981362357518602,-6.647504057211357,0.4703308446909809,-0.20458002516269014,-0.5474111698583692,0.014330667935610967,-0.007066858028385666,-0.020027716867810467,0,70,255.0,255.0,255.0
445,22.25,16.233,-0.9916,-6.6749,0.4710344447194977,-0.20492182710782605,-0.5484335346802326,0.013813333205062062,-0.006605219777052751,-0.020866876006725654,0,70,255.0,255.0,255.0
446,22.3,16.25656906667974,-1.0018540529209528,-6.702347276540658,0.4717297780153342,-0.20523439054708373,-0.54944785117884,0.013999998628399183,-0.005897317793253921,-0.01970578393756826,0,70,255.0,255.0,255.0
447,22.35,16.280173133356055,-1.0121228491363887,-6.72984381754116,0.47243444458233763,-0.20551155888715145,-0.5504041130739894,0.014186664051736303,-0.005189415809455091,-0.018544691868410866,0,70,255.0,255.0,255.0
448,22.400000000000002,16.303812666692497,-1.0224046188913485,-6.757386720271334,0.4731484444205079,-0.20575333212802926,-0.551302320365681,0.014373329475073424,-0.004481513825656262,-0.017383599799253475,0,70,255.0,255.0,255.0
449,22.450000000000003,16.327488133352627,-1.0326975924308723,-6.784973082001005,0.47387177752984494,-0.2059597102697171,-0.5521424730539148,0.014559994898410544,-0.0037736118418574315,-0.01622250773009608,0,70,255.0,255.0,255.0
450,22.5,16.3512,-1.043,-6.8126,0.47460444391034884,-0.206130693312215,-0.5529245711386905,0.014746660321747207,-0.0030657098580588737,-0.01506141566093433,0,70,255.0,255.0,255.0
451,22.55,16.374948559968015,-1.0533109389888444,-6.840265040830318,0.4753360437523696,-0.20631830995978132,-0.5536767721501804,0.014517333359083825,-0.004438956044593054,-0.015026624798660038,0,70,255.0,255.0,255.0
452,22.6,16.398733413269433,-1.0636329753678007,-6.867967648222634,0.4760561772462572,-0.20657458891667432,-0.5544272336185565,0.014288006396420442,-0.005812202231127234,-0.014991833936385745,0,70,255.0,255.0,255.0
453,22.650000000000002,16.42255398658684,-1.0739695422523343,-6.89570773519979,0.4767648443920117,-0.20689953018289403,-0.555175955543819,0.01405867943375706,-0.007185448417661414,-0.014957043074111453,0,70,255.0,255.0,255.0
454,22.700000000000003,16.446409706602832,-1.0843240727579122,-6.923485214784631,0.477462045189633,-0.20729313375844047,-0.5559229379259677,0.01382935247109368,-0.008558694604195595,-0.01492225221183716,0,70,255.0,255.0,255.0
455,22.75,16.4703,-1.0947,-6.9513,0.4781477796391211,-0.20775539964331355,-0.5566681807650028,0.01360002550842987,-0.00993194079072901,-0.014887461349565534,0,70,255.0,255.0,255.0
456,22.8,16.49422469344819,-1.1050997911236697,-6.97915256013807,0.4788460469752204,-0.20822836961379143,-0.5574450602204375,0.01433066793554164,-0.00898685802838702,-0.0161877168678201,0,70,255.0,255.0,255.0
457,22.85,16.518185213566216,-1.115522049392411,-7.0070455895683095,0.4795808464326753,-0.20865408544615227,-0.5582869524517848,0.015061310362653412,-0.008041775266045032,-0.017487972386074663,0,70,255.0,255.0,255.0
458,22.900000000000002,16.542183386960147,-1.1259644120993166,-7.034982338929514,0.4803521780114858,-0.20903254714039596,-0.5591938574590449,0.015791952789765182,-0.007096692503703043,-0.018788227904329224,0,70,255.0,255.0,255.0
459,22.950000000000003,16.56622104023605,-1.1364245165374822,-7.06296605886048,0.48116004171165183,-0.20936375469652257,-0.5601657752422178,0.016522595216876955,-0.006151609741361055,-0.020088483422583788,0,70,255.0,255.0,255.0
460,23.0,16.5903,-1.1469,-7.091,0.4820044375331734,-0.2096477081145321,-0.5612027058013034,0.01725323764398512,-0.005206526979020243,-0.021388738940839147,0,70,255.0,255.0,255.0
461,23.05,16.614421466239236,-1.1573890965164766,-7.119086318617404,0.48284776834673315,-0.20992021158505395,-0.5622389869680765,0.016479994898404272,-0.00569361184185367,-0.02006250773008416,0,70,255.0,255.0,255.0
462,23.1,16.638584132465716,-1.1678924270625581,-7.147222793504134,0.48365243702301386,-0.21021706929871747,-0.5632089565743118,0.01570675215282342,-0.006180696704687097,-0.018736276519329173,0,70,255.0,255.0,255.0
463,23.150000000000002,16.662786065572583,-1.1784112093504011,-7.175406109082161,0.4844184435620155,-0.21053828125552265,-0.5641126146200094,0.014933509407242574,-0.006667781567520524,-0.017410045308574183,0,70,255.0,255.0,255.0
464,23.200000000000003,16.687025332452965,-1.188946661092163,-7.203632949773459,0.48514578796373814,-0.21088384745546954,-0.5649499611051693,0.014160266661661725,-0.0071548664303539514,-0.016083814097819196,0,70,255.0,255.0,255.0
465,23.25,16.7113,-1.1995,-7.2319,0.48583447022818166,-0.21125376789855807,-0.5657209960297912,0.013387023916078267,-0.007641951293188898,-0.014757582887061638,0,70,255.0,255.0,255.0
466,23.3,16.735608641594872,-1.2100718228104241,-7.260204565392318,0.48651487963786266,-0.2116107840459927,-0.5664629919072632,0.013829352471161644,-0.0066386946041955795,-0.014922252211820999,0,70,255.0,255.0,255.0
467,23.35,16.759951856570915,-1.2206602423573587,-7.2885464364151655,0.48721740547529785,-0.21191763735897765,-0.5672132212509733,0.014271681026245021,-0.005635437915202261,-0.01508692153658036,0,70,255.0,255.0,255.0
468,23.400000000000002,16.78433075074953,-1.2312627504990814,-7.3169260247418535,0.4879420477404872,-0.21217432783751292,-0.5679716840609214,0.014714009581328399,-0.004632181226208944,-0.01525159086133972,0,70,255.0,255.0,255.0
469,23.450000000000003,16.808746429952098,-1.2418768390938697,-7.345343742045695,0.4886888064334307,-0.21238085548159855,-0.5687383803371072,0.015156338136411776,-0.0036289245372156257,-0.015416260186099083,0,70,255.0,255.0,255.0
470,23.5,16.8332,-1.2525,-7.3738,0.48945768155412833,-0.2125372202912345,-0.5695133100795311,0.015598666691493346,-0.0026256678482221574,-0.015580929510855768,0,70,255.0,255.0,255.0
471,23.55,16.857691967381292,-1.2631308122418277,-7.402295419813329,0.49021271310183423,-0.2127086522309742,-0.5703090454028674,0.01460259521674335,-0.00423160974136565,-0.016248483422593562,0,70,255.0,255.0,255.0
472,23.6,16.882220441250624,-1.2737722035080086,-7.430831460835214,0.4909179410758027,-0.2129603812653711,-0.5711381584217904,0.013606523741993353,-0.005837551634509143,-0.016916037334331353,0,70,255.0,255.0,255.0
473,23.650000000000002,16.90678293142931,-1.284428188653276,-7.459409791950435,0.4915733654760336,-0.21329240739442515,-0.5720006491363004,0.012610452267243357,-0.007443493527652636,-0.017583591246069147,0,70,255.0,255.0,255.0
474,23.700000000000003,16.931376947738663,-1.2951027825323624,-7.488032082043772,0.49217898630252704,-0.21370473061813633,-0.5728965175463975,0.01161438079249336,-0.009049435420796129,-0.01825114515780694,0,70,255.0,255.0,255.0
475,23.75,16.956,-1.3058,-7.5167,0.4927348035552829,-0.21419735093650472,-0.5738257636520812,0.01061830931774388,-0.010655377313939951,-0.018918699069544687,0,70,255.0,255.0,255.0
476,23.8,16.980650688879972,-1.3165225282222663,-7.54541455535437,0.49330626795476984,-0.21469060703011197,-0.5747488264812656,0.012240266661734212,-0.009074866430350404,-0.01800381409783077,0,70,255.0,255.0,255.0
477,23.85,17.005331978426597,-1.3272677436106086,-7.574174120243984,0.4939588302214563,-0.21510483757953977,-0.5756261450618642,0.013862224005724545,-0.007494355546760855,-0.017088929126116856,0,70,255.0,255.0,255.0
478,23.900000000000002,17.030047923533235,-1.3380316948878177,-7.602976407456414,0.4946924903553423,-0.21544004258478808,-0.5764577193938772,0.015484181349714878,-0.0059138446631713075,-0.01617404415440294,0,70,255.0,255.0,255.0
479,23.950000000000003,17.054802579093252,-1.3488104307766848,-7.63181912977923,0.4955072483564278,-0.2156962220458569,-0.5772435494773046,0.01710613869370521,-0.004333333779581759,-0.015259159182689023,0,70,255.0,255.0,255.0
480,24.0,17.0796,-1.3596,-7.6607,0.4964031042247128,-0.21587337596274622,-0.5779836353121461,0.01872809603769454,-0.0027528228959912138,-0.014344274210975172,0,70,255.0,255.0,255.0
481,24.05,17.104442877098826,-1.370397474869108,-7.689617558769195,0.497298215079067,-0.21603291964857638,-0.5787276486720726,0.01707633813647431,-0.0036289245372153403,-0.015416260186080437,0,70,255.0,255.0,255.0
482,24.1,17.129328445042987,-1.381204022049559,-7.718573658188855,0.4981107380383602,-0.2162362684164678,-0.5795252613307542,0.015424580235254079,-0.004505026178439467,-0.016488246161185702,0,70,255.0,255.0,255.0
483,24.150000000000002,17.154252574437745,-1.392021831795456,-7.747570978223917,0.49884067310259245,-0.21648342226642034,-0.5803764732881912,0.013772822334033848,-0.005381127819663593,-0.017560232136290967,0,70,255.0,255.0,255.0
484,24.200000000000003,17.17921113588833,-1.4028530943609023,-7.77661219883932,0.4994880202717636,-0.21677438119843412,-0.5812812845443833,0.012121064432813616,-0.00625722946088772,-0.01863221811139623,0,70,255.0,255.0,255.0
485,24.25,17.2042,-1.4137,-7.8057,0.5000527795458738,-0.2171091452125091,-0.5822396950993307,0.010469306531591727,-0.007133331102110896,-0.019704204086499644,0,70,255.0,255.0,255.0
486,24.3,17.229216202724736,-1.4245643723013028,-7.834836009568854,0.5006048717289742,-0.21746571437558188,-0.5831885788304387,0.0116143807924246,-0.007129435420800556,-0.018251145157823223,0,70,255.0,255.0,255.0
487,24.35,17.25426144140145,-1.4354465681911575,-7.864017647000604,0.5012142176251163,-0.21782208875458917,-0.5840648096151131,0.012759455053257472,-0.007125539739490217,-0.016798086229146806,0,70,255.0,255.0,255.0
488,24.400000000000002,17.279338578715798,-1.446346577930361,-7.893241279647927,0.5018808172342999,-0.2181782683495309,-0.5848683874533535,0.013904529314090346,-0.007121644058179877,-0.015345027300470385,0,70,255.0,255.0,255.0
489,24.450000000000003,17.30445047735343,-1.4572643917797097,-7.9225032748635,0.5026046705565254,-0.21853425316040717,-0.58559931234516,0.015049603574923218,-0.007117748376869537,-0.013891968371793968,0,70,255.0,255.0,255.0
490,24.5,17.3296,-1.4682,-7.9518,0.5033857775917923,-0.21889004318721786,-0.5862575842905328,0.016194677835757787,-0.007113852695558753,-0.01243890944311854,0,70,255.0,255.0,255.0
491,24.55,17.35478911200224,-1.4791530359256821,-7.981128802955389,0.504170298005029,-0.21922422284909626,-0.5869020360061781,0.01518613869371029,-0.006253333779576785,-0.013339159182694805,0,70,255.0,255.0,255.0
492,24.6,17.380016189351217,-1.490121705185813,-8.010490953808736,0.5049043914611633,-0.21951537656517556,-0.5875915002088022,0.014177599551662794,-0.005392814863594816,-0.014239408922271072,0,70,255.0,255.0,255.0
493,24.650000000000002,17.405278710699072,-1.5011038564831034,-8.039888703184388,0.5055880579601953,-0.21976350433545574,-0.5883259768984052,0.013169060409615298,-0.004532295947612849,-0.015139658661847338,0,70,255.0,255.0,255.0
494,24.700000000000003,17.43057415469795,-1.5120973385202625,-8.069324301706692,0.5062212975021249,-0.21996860615993685,-0.589105466074987,0.012160521267567802,-0.0036717770316308804,-0.016039908401423605,0,70,255.0,255.0,255.0
495,24.75,17.4559,-1.5231,-8.0988,0.506804110086952,-0.2201306820386188,-0.5899299677385477,0.011151982125520377,-0.0028112581156483074,-0.016940158141000694,0,70,255.0,255.0,255.0
496,24.8,17.4812545492663,-1.5341106839959695,-8.128317578609593,0.5073859362509104,-0.22030939422803228,-0.5907712771448569,0.012121064432812658,-0.004337229460891767,-0.01671221811136547,0,70,255.0,255.0,255.0
497,24.85,17.50663940119368,-1.545132211065591,-8.157876937764463,0.5080162165302333,-0.22056440498470797,-0.5916011895496842,0.013090146740104941,-0.005863200806135226,-0.016484278081730246,0,70,255.0,255.0,255.0
498,24.900000000000002,17.532056978487915,-1.5561683961372281,-8.187477507614537,0.5086949509249209,-0.22089571430864582,-0.5924197049530299,0.014059229047397223,-0.007389172151378685,-0.01625633805209502,0,70,255.0,255.0,255.0
499,24.950000000000003,17.557509703854763,-1.5672230541392438,-8.217118718309742,0.509422139434973,-0.22130332219984586,-0.5932268233548939,0.015028311354689504,-0.008915143496622145,-0.016028398022459797,0,70,255.0,255.0,255.0
500,25.0,17.583,-1.5783,-8.2468,0.5101977820603897,-0.22178722865830802,-0.5940225447552758,0.0159973936619755,-0.010441114841866384,-0.01580045799282459,0,70,255.0,255.0,255.0
501,25.05,17.60852949093256,-1.5894018280904407,-8.276520882606247,0.5109739569913121,-0.2222742002387763,-0.5948128554143912,0.015049603574921896,-0.009037748376865353,-0.01581196837178922,0,70,255.0,255.0,255.0
502,25.1,17.634096605874056,-1.600526250551824,-8.306281295133422,0.5117027424178819,-0.22269100349599458,-0.5956037415924548,0.014101813487868292,-0.007634381911864323,-0.01582347875075385,0,70,255.0,255.0,255.0
503,25.150000000000002,17.659698975349276,-1.6116697589679867,-8.336081266357475,0.512384138340099,-0.22303763842996277,-0.5963952032894666,0.01315402340081469,-0.006231015446863293,-0.01583498912971848,0,70,255.0,255.0,255.0
504,25.200000000000003,17.685334229882997,-1.6228288449227661,-8.365920825054353,0.5130181447579634,-0.2233141050406809,-0.5971872405054267,0.012206233313761085,-0.004827648981862263,-0.01584649950868311,0,70,255.0,255.0,255.0
505,25.25,17.711,-1.634,-8.3958,0.513604761671475,-0.223520403328149,-0.5979798532403348,0.011258443226703108,-0.003424282516860888,-0.015858009887645075,0,70,255.0,255.0,255.0
506,25.3,17.736694687003453,-1.6451804036422681,-8.425718890965426,0.5141902357838334,-0.22369780481686125,-0.5987773011975623,0.012160521267636084,-0.003671777031630178,-0.016039908401458018,0,70,255.0,255.0,255.0
507,25.35,17.762419775310082,-1.6563699867271153,-8.45567788170185,0.5148208137982386,-0.223887581031312,-0.5995838440804805,0.01306259930856906,-0.0039192715463994676,-0.016221806915270958,0,70,255.0,255.0,255.0
508,25.400000000000002,17.78817752011498,-1.6675693679908286,-8.485677426955569,0.5154964957146904,-0.2240897319715012,-0.6003994818890894,0.013964677349502035,-0.004166766061168758,-0.0164037054290839,0,70,255.0,255.0,255.0
509,25.450000000000003,17.813970176613253,-1.6787791661696947,-8.515717981472855,0.5162172815331888,-0.2243042576374289,-0.601224214623389,0.014866755390435011,-0.004414260575938048,-0.01658560394289684,0,70,255.0,255.0,255.0
510,25.5,17.8398,-1.69,-8.5458,0.5169831712537337,-0.224531158029095,-0.602058042283379,0.01576883343136526,-0.004661755090706432,-0.01676750245670533,0,70,255.0,255.0,255.0
511,25.55,17.86566856105361,-1.7012325573404876,-8.575923553532059,0.5177530998733834,-0.22477458049377833,-0.6028779397953581,0.015028311354618563,-0.0050751434966268385,-0.01602839802245909,0,70,255.0,255.0,255.0
512,25.6,17.89157469288561,-1.7124778025397163,-8.606087178059175,0.5184860023891956,-0.22503867237875771,-0.603660882085625,0.014287789277871867,-0.005488531902547245,-0.01528929358821285,0,70,255.0,255.0,255.0
513,25.650000000000002,17.9175165441908,-1.7237367690687018,-8.636289025820261,0.5191818788011706,-0.22532343368403307,-0.6044068691541794,0.01354726720112517,-0.005901920308467652,-0.01455018915396661,0,70,255.0,255.0,255.0
514,25.700000000000003,17.943492263663998,-1.7350104903984584,-8.666527249054232,0.5198407291093081,-0.22562886440960447,-0.6051159010010216,0.012806745124378474,-0.006315308714388059,-0.013811084719720371,0,70,255.0,255.0,255.0
515,25.75,17.9695,-1.7463,-8.6968,0.5204625533136084,-0.22595496455547184,-0.6057879776261513,0.012066223047630054,-0.0067286971203082135,-0.013071980285471518,0,70,255.0,255.0,255.0
516,25.8,17.995538268782102,-1.7576061669957832,-8.727106094906341,0.5210693647226431,-0.22629187320802602,-0.6064629396210044,0.012206233313758655,-0.006747648981857913,-0.013926499508652247,0,70,255.0,255.0,255.0
517,25.85,18.021607053147488,-1.768929203114021,-8.757447006061454,0.5216831766449842,-0.22662972945365767,-0.6071806275770166,0.012346243579887254,-0.006766600843407611,-0.014781018731832976,0,70,255.0,255.0,255.0
518,25.900000000000002,18.047706703121822,-1.7802691557343673,-8.787824869763396,0.5223039890806318,-0.22696853329236677,-0.6079410414941877,0.012486253846015856,-0.006785552704957311,-0.015635537955013705,0,70,255.0,255.0,255.0
519,25.950000000000003,18.073837568730774,-1.7916260722364756,-8.818241822310227,0.5229318020295859,-0.22730828472415338,-0.608744181372518,0.012626264112144455,-0.006804504566507009,-0.016490057178194434,0,70,255.0,255.0,255.0
520,26.0,18.1,-1.803,-8.8487,0.5235666154918461,-0.22764898374901746,-0.609590047212007,0.012766274378268605,-0.006823456428056707,-0.017344576401374212,0,70,255.0,255.0,255.0
521,26.05,18.126194363817987,-1.8143907746763808,-8.879200866842577,0.5242094412360637,-0.22797792667411743,-0.6104383017206146,0.012946755390436951,-0.006334260575941768,-0.01658560394292933,0,70,255.0,255.0,255.0
522,26.1,18.152421094524456,-1.825797385004202,-8.909743197695013,0.5248612910308899,-0.22828240980661163,-0.6112486076063001,0.013127236402605297,-0.005845064723826829,-0.015826631484484443,0,70,255.0,255.0,255.0
523,26.150000000000002,18.178680643321922,-1.8372186079938322,-8.940325095126159,0.5255221648763243,-0.22856243314650013,-0.6120209648690631,0.013307717414773643,-0.00535586887171189,-0.01506765902603956,0,70,255.0,255.0,255.0
524,26.200000000000003,18.204973461412926,-1.848653220655642,-8.970944661704872,0.5261920627723672,-0.22881799669378286,-0.612755373508904,0.013488198426941989,-0.004866673019596951,-0.014308686567594677,0,70,255.0,255.0,255.0
525,26.25,18.2313,-1.8601,-9.0016,0.5268709847190184,-0.2290491004484598,-0.6134518335258227,0.013668679439109432,-0.004377477167481603,-0.013549714109150734,0,70,255.0,255.0,255.0
526,26.3,18.257660275945952,-1.8715579342986937,-9.032289637723348,0.5275328703331039,-0.22926842009550644,-0.6141358534965444,0.012806745124310646,-0.004395308714383583,-0.013811084719718817,0,70,255.0,255.0,255.0
527,26.35,18.284052568754717,-1.8830268568691735,-9.063013803158498,0.5281516592314495,-0.2294886313198982,-0.6148329419977946,0.01194481080951186,-0.004413140261285565,-0.0140724553302869,0,70,255.0,255.0,255.0
528,26.400000000000002,18.310474723590502,-1.8945068122903064,-9.093773149731971,0.528727351414055,-0.229709734121635,-0.6155430990295732,0.011082876494713075,-0.004430971808187545,-0.014333825940854982,0,70,255.0,255.0,255.0
529,26.450000000000003,18.336924585617528,-1.9059978451409598,-9.124568330870297,0.5292599468809207,-0.22993172850071691,-0.6162663245918801,0.010220942179914289,-0.004448803355089527,-0.014595196551423066,0,70,255.0,255.0,255.0
530,26.5,18.3634,-1.9175,-9.1554,0.5297494456320465,-0.2301546144571439,-0.6170026186847154,0.009359007865113789,-0.004466634901989952,-0.014856567161987577,0,70,255.0,255.0,255.0
531,26.55,18.389899732398202,-1.929013488128845,-9.186268582264029,0.5302510774314814,-0.23038839294385635,-0.6177382842932191,0.010706264112282524,-0.004884504566506825,-0.014570057178162262,0,70,255.0,255.0,255.0
532,26.6,18.416426230456686,-1.9405391875191065,-9.217173589671003,0.5308200720432747,-0.2306430649137946,-0.6184596244025317,0.012053520359451259,-0.0053023742310237,-0.014283547194336946,0,70,255.0,255.0,255.0
533,26.650000000000002,18.44298286231607,-1.9520781428449452,-9.248114305945963,0.5314564294674265,-0.23091863036695873,-0.6191666390126529,0.013400776606619993,-0.005720243895540573,-0.013997037210511631,0,70,255.0,255.0,255.0
534,26.700000000000003,18.46957299611697,-1.9636313987805232,-9.279090014813951,0.5321601497039368,-0.23121508930334866,-0.6198593281235828,0.014748032853788728,-0.006138113560057447,-0.013710527226686314,0,70,255.0,255.0,255.0
535,26.75,18.4962,-1.9752,-9.3101,0.5329312327528054,-0.23153244172296444,-0.6205376917353214,0.016095289100957366,-0.006555983224573847,-0.013424017242860131,0,70,255.0,255.0,255.0
536,26.8,18.52286639446124,-1.9867849131859272,-9.341144033220539,0.533718819941001,-0.2318660081290688,-0.6212310093305827,0.015408198426868748,-0.006786673019600989,-0.014308686567596509,0,70,255.0,255.0,255.0
537,26.85,18.54957130941854,-1.998386793054403,-9.372223838157497,0.5344720525954924,-0.23221110902492456,-0.621968560392081,0.01472110775278013,-0.0070173628146281315,-0.015193355892332885,0,70,255.0,255.0,255.0
538,26.900000000000002,18.576313027145225,-2.0100062163299155,-9.403341626484185,0.5351909307162791,-0.23256774441053163,-0.6227503449198161,0.014034017078691511,-0.007248052609655274,-0.01607802521706926,0,70,255.0,255.0,255.0
539,26.950000000000003,18.60308982991461,-2.0216437597369525,-9.434499609873917,0.5358754543033615,-0.23293591428589008,-0.6235763629137879,0.013346926404602893,-0.007478742404682417,-0.01696269454180564,0,70,255.0,255.0,255.0
540,27.0,18.6299,-2.0333,-9.4657,0.5365256233567395,-0.2333156186509999,-0.6244466143739967,0.012659835730516988,-0.007709432199710209,-0.017847363866541066,0,70,255.0,255.0,255.0
541,27.05,18.656741889756855,-2.044974859127448,-9.49694408485382,0.5371456428044985,-0.23366757453986975,-0.6253056783844456,0.012140942179841466,-0.006368803355084499,-0.016515196551416426,0,70,255.0,255.0,255.0
542,27.1,18.683614131869156,-2.056665640263284,-9.528229457699016,0.5377397175747237,-0.23395249898650836,-0.6260981340291384,0.011622048629165944,-0.00502817451045879,-0.015183029236291785,0,70,255.0,255.0,255.0
543,27.150000000000002,18.710515429103033,-2.068368991835395,-9.559552788117303,0.5383078476674151,-0.23417039199091566,-0.6268239813080748,0.011103155078490422,-0.003687545665833079,-0.013850861921167145,0,70,255.0,255.0,255.0
544,27.200000000000003,18.737444484224607,-2.0800815622716717,-9.590910745690394,0.5388500330825727,-0.2343212535530917,-0.6274832202212551,0.0105842615278149,-0.0023469168212073696,-0.012518694606042505,0,70,255.0,255.0,255.0
545,27.25,18.7644,-2.0918,-9.6223,0.5393662738201965,-0.23440508367303642,-0.6280758507686791,0.01006536797714297,-0.0010062879765819766,-0.011186527290914405,0,70,255.0,255.0,255.0
546,27.3,18.791381246511346,-2.1035220503042824,-9.653718027364187,0.5398906088409735,-0.23448769371145242,-0.62865027713162,0.010908032853934924,-0.002298113560057509,-0.011790527226722788,0,70,255.0,255.0,255.0
547,27.35,18.81838976310483,-2.1152498458924653,-9.685165531046442,0.5404570771055901,-0.2346348950290422,-0.6292549034913515,0.01175069773072688,-0.003589939143533042,-0.012394527162531171,0,70,255.0,255.0,255.0
548,27.400000000000002,18.845427656442634,-2.126986616328507,-9.716644021046603,0.5410656786140462,-0.2348466876258057,-0.6298897298478732,0.012593362607518834,-0.004881764727008575,-0.012998527098339555,0,70,255.0,255.0,255.0
549,27.450000000000003,18.872497033186963,-2.1387355911763657,-9.74815500736451,0.5417164133663419,-0.23512307150174303,-0.6305547562011854,0.013436027484310789,-0.006173590310484108,-0.013602527034147938,0,70,255.0,255.0,255.0
550,27.5,18.8996,-2.1505,-9.7797,0.5424092813624772,-0.23546404665685414,-0.631249982551288,0.014278692361097356,-0.007465415893960214,-0.014206526969954503,0,70,255.0,255.0,255.0
551,27.55,18.92673792419776,-2.1622825396554233,-9.811280605689433,0.543099921831618,-0.23583765061432022,-0.6319812130890821,0.013346926404533464,-0.007478742404682892,-0.015042694541810253,0,70,255.0,255.0,255.0
552,27.6,18.953909215711533,-2.1740837761668583,-9.84289881811522,0.5437439740029305,-0.23621192089732243,-0.632754252005469,0.012415160447969571,-0.00749206891540557,-0.015878862113666004,0,70,255.0,255.0,255.0
553,27.650000000000002,18.981111545126424,-2.1859037428505816,-9.87455672769629,0.544341437876415,-0.2365868575058608,-0.6335690993004487,0.01148339449140568,-0.007505395426128248,-0.016715029685521757,0,70,255.0,255.0,255.0
554,27.700000000000003,19.008342583027545,-2.19774247302287,-9.906256424851573,0.5448923134520712,-0.23696246043993527,-0.6344257549740212,0.010551628534841786,-0.007518721936850926,-0.017551197257377506,0,70,255.0,255.0,255.0
555,27.75,19.0356,-2.2096,-9.938,0.545396600729899,-0.23733872969954584,-0.6353242190261864,0.009619862578275296,-0.0075320484475724925,-0.018387364829231423,0,70,255.0,255.0,255.0
556,27.8,19.062882256697613,-2.221475791074026,-9.969788349878087,0.5459017038325514,-0.23768170383126533,-0.6361928705120671,0.010584261527816899,-0.006186916821206781,-0.016358694605997717,0,70,255.0,255.0,255.0
557,27.85,19.090190974049047,-2.2333670494401052,-10.00161759649269,0.5464550268826807,-0.23795742138166653,-0.6369600884867862,0.011548660477358502,-0.00484178519484107,-0.014330024382764015,0,70,255.0,255.0,255.0
558,27.900000000000002,19.11752856305167,-2.2452704122691713,-10.033482668168247,0.5470565698802872,-0.23816588235074942,-0.6376258729503436,0.012513059426900106,-0.0034966535684753585,-0.012301354159530311,0,70,255.0,255.0,255.0
559,27.950000000000003,19.144897434702866,-2.257182516732158,-10.065378493229206,0.5477063328253708,-0.23830708673851406,-0.6381902239027393,0.013477458376441709,-0.002151521942109648,-0.010272683936296607,0,70,255.0,255.0,255.0
560,28.0,19.1723,-2.2691,-10.0973,0.5484043157179312,-0.23838103454496043,-0.6386531413439732,0.014441857325982355,-0.0008063903157442542,-0.008244013713059495,0,70,255.0,255.0,255.0
561,28.05,19.19973784901179,-2.281020696048474,-10.129243594798224,0.5491012628381885,-0.23845953406061637,-0.6391033048626535,0.013436027484309306,-0.002333590310493582,-0.009762527034155099,0,70,255.0,255.0,255.0
562,28.1,19.227209288092283,-2.2929472260727244,-10.161211595914034,0.5497479184663623,-0.2386143935760098,-0.6396293940473888,0.012430197642636259,-0.0038607903052429106,-0.011281040355250703,0,70,255.0,255.0,255.0
