idx,t,px,py,pz,vx,vy,vz,ax,ay,az,yaw,mode,ledr,ledg,ledb
0,0.0,-10.5,-7.5,0.0,0.0010416038047438014,0.00048679807076401063,0.0016519983325399903,-0.033299245656919774,-0.008241576849155429,-0.045423979990479896,0,70,255.0,255.0,255.0
1,0.05,-10.49998970226303,-7.4999856752694525,2.5871939971439636e-05,-0.0006328622498176045,9.192711255200117e-05,-0.0006160807670316048,-0.03367939652553646,-0.007553261479324948,-0.04529918399238391,0,70,255.0,255.0,255.0
2,0.1,-10.500063603017374,-7.499990233692604,-6.150408003808052e-05,-0.002326335847809845,-0.00026852807716848425,-0.0028779200666984007,-0.03405954739415316,-0.006864946109494467,-0.045174387994287926,0,70,255.0,255.0,255.0
3,0.15000000000000002,-10.5002226526402,-7.500011954481027,-0.0002618160700333206,-0.004038816989232921,-0.0005945674983974455,-0.005133519566460399,-0.034439698262769845,-0.006176630739663985,-0.04504959199619195,0,70,255.0,255.0,255.0
4,0.2,-10.500467801508686,-7.500049116846301,-0.0005747520400190404,-0.00577030567408683,-0.0008861911511348829,-0.007382879266317595,-0.03481984913138654,-0.005488315369833505,-0.044924795998095964,0,70,255.0,255.0,255.0
5,0.25,-10.5008,-7.5001,-0.001,-0.007520801902371574,-0.001143399035380796,-0.009625999166269994,-0.03520000000000323,-0.004800000000003026,-0.04479999999999995,0,70,255.0,255.0,255.0
6,0.30000000000000004,-10.501220198491316,-7.500162883153698,-0.0015372479599809602,-0.009290305674087153,-0.0013661911511351854,-0.011862879266317594,-0.03558015086861992,-0.0041116846301725435,-0.044675204001904,0,70,255.0,255.0,255.0
7,0.35000000000000003,-10.501729347359799,-7.500236045518972,-0.0021861839299666796,-0.011078816989233568,-0.0015545674983980504,-0.014093519566460396,-0.03596030173723661,-0.003423369260342061,-0.04455040800380805,0,70,255.0,255.0,255.0
8,0.4,-10.502328396982628,-7.500317766307397,-0.00294649591996192,-0.012886335847810815,-0.0017085280771693915,-0.0163179200666984,-0.0363404526058533,-0.0027350538905115797,-0.0444256120057121,0,70,255.0,255.0,255.0
9,0.45,-10.50301829773697,-7.500406324730547,-0.0038178719399714393,-0.014712862249818897,-0.0018280728874492083,-0.0185360807670316,-0.036720603474469996,-0.002046738520681098,-0.04430081600761615,0,70,255.0,255.0,255.0
10,0.5,-10.5038,-7.5005,-0.0048,-0.016558396195257813,-0.0019132019292375014,-0.020748001667460013,-0.037100754343086684,-0.0013584231508506177,-0.044176020009520284,0,70,255.0,255.0,255.0
11,0.55,-10.504674303771717,-7.500597992115754,-0.005892880100047601,-0.01841391505383495,-0.0020191625080089545,-0.02297240216769802,-0.03711999999999875,-0.0028800000000074994,-0.04480000000000007,0,70,255.0,255.0,255.0
12,0.6000000000000001,-10.50564140754343,-7.500703184231508,-0.007097760200095204,-0.02027039619525769,-0.0022012019292382517,-0.025228001667460025,-0.037139245656910826,-0.004401576849164381,-0.045423979990479854,0,70,255.0,255.0,255.0
13,0.65,-10.50670135942929,-7.500819380289386,-0.008416200250119002,-0.022127839619526034,-0.0024593201929253923,-0.02751480016674601,-0.03715849131382289,-0.00592315369832126,-0.04604795998095963,0,70,255.0,255.0,255.0
14,0.7000000000000001,-10.507854207543431,-7.500950384231508,-0.009849760200095203,-0.02398624532663998,-0.0027935172990703775,-0.029832797665555986,-0.03717773697073497,-0.007444730547478141,-0.04667193997143942,0,70,255.0,255.0,255.0
15,0.75,-10.5091,-7.5011,-0.0114,-0.025845613316599524,-0.0032037932476732056,-0.03218199416388995,-0.03719698262764706,-0.00896630739663503,-0.047295919961919286,0,70,255.0,255.0,255.0
16,0.8,-10.510438586421824,-7.501270748383285,-0.013068031639828639,-0.027694034110575257,-0.0036131588168348077,-0.034535512062890336,-0.03673984913138209,-0.007408315369829036,-0.04684479599809592,0,70,255.0,255.0,255.0
17,0.8500000000000001,-10.511869022466476,-7.501460017554995,-0.014853175269652517,-0.029519598229737737,-0.00394462478465611,-0.036866473763699545,-0.03628271563511712,-0.005850323343023041,-0.04639367203427256,0,70,255.0,255.0,255.0
18,0.9,-10.513390165300219,-7.5016639125350615,-0.016754303079562074,-0.03132230567408697,-0.004198191151137112,-0.03917487926631759,-0.03582558213885215,-0.00429233131621705,-0.045942548070449195,0,70,255.0,255.0,255.0
19,0.9500000000000001,-10.515000872089306,-7.50187853834342,-0.018770287259647755,-0.03310215644362295,-0.004373857916277815,-0.04146072857074446,-0.035368448642587175,-0.0027343392894110547,-0.045491424106625836,0,70,255.0,255.0,255.0
20,1.0,-10.5167,-7.5021,-0.0209,-0.03485915053834568,-0.004471625080078217,-0.04372402167698016,-0.034911315146322175,-0.00117634726260505,-0.045040300142802525,0,70,255.0,255.0,255.0
21,1.05,-10.518486550540986,-7.502325414351107,-0.02314219334063785,-0.0366019485038656,-0.004552202224659944,-0.04595754958074063,-0.034800603474474466,-0.00204673852066404,-0.044300816007616275,0,70,255.0,255.0,255.0
22,1.1,-10.52036010259066,-7.502555945548515,-0.025495138721294743,-0.03833921088579313,-0.004676298932144622,-0.04815410327774179,-0.03468989180262676,-0.0029171297787230297,-0.04356133187243002,0,70,255.0,255.0,255.0
23,1.1500000000000001,-10.52232037936984,-7.50279376957037,-0.02795698743163271,-0.040070937684128276,-0.004843915202532248,-0.05031368276798364,-0.034579180130779055,-0.003787521036782019,-0.04282184773724376,0,70,255.0,255.0,255.0
24,1.2000000000000002,-10.524367104099348,-7.503041062394817,-0.03052589076131379,-0.041797128898871036,-0.0050550510358228235,-0.052436288051466176,-0.034468468458931346,-0.004657912294841009,-0.04208236360205751,0,70,255.0,255.0,255.0
25,1.25,-10.5265,-7.5033,-0.0332,-0.043517784530021406,-0.005309706432016347,-0.05452191912818939,-0.03435775678708353,-0.00552830355289996,-0.04134287946687176,0,70,255.0,255.0,255.0
26,1.3,-10.528719211414229,-7.50357239421229,-0.03597839499761996,-0.04525817187396698,-0.005586032284525911,-0.056626289614147174,-0.035257736970739396,-0.005524730547482609,-0.042831939971439616,0,70,255.0,255.0,255.0
27,1.35,-10.531026567170883,-7.503858600250949,-0.03886386984516853,-0.04704355822709535,-0.005862179486764609,-0.05880511312533336,-0.036157717154395266,-0.005521157542065258,-0.04432100047600747,0,70,255.0,255.0,255.0
28,1.4000000000000001,-10.533424317220424,-7.504158609183461,-0.04186014719390711,-0.04887394358940651,-0.006138148038732438,-0.061058389661747925,-0.037057697338051136,-0.005517584536647907,-0.04581006098057532,0,70,255.0,255.0,255.0
29,1.4500000000000002,-10.53591471151331,-7.504472412077317,-0.04497094969509713,-0.05074932796090047,-0.0064139379404294,-0.0633861192233909,-0.037957677521707006,-0.005514011531230556,-0.047299121485143175,0,70,255.0,255.0,255.0
30,1.5,-10.5385,-7.5048,-0.0482,-0.0526697113415772,-0.006689549191855493,-0.06578830181026224,-0.03885765770536259,-0.0055104385258132466,-0.04878818198971113,0,70,255.0,255.0,255.0
31,1.55,-10.541181403802103,-7.505141008799735,-0.051549826668882304,-0.054573364000274974,-0.00694366863723599,-0.06819329196267067,-0.03728844864254851,-0.0046543392894066,-0.04741142410662582,0,70,255.0,255.0,255.0
32,1.6,-10.543956028725807,-7.505493653447694,-0.05501818189803117,-0.056398556205832055,-0.007154983120796153,-0.07052944422092483,-0.03571923957973443,-0.003798240052999953,-0.04603466622354051,0,70,255.0,255.0,255.0
33,1.6500000000000001,-10.546819951748466,-7.505855793695784,-0.05860162379273889,-0.05814528795824842,-0.0073234926425359845,-0.07279675858502471,-0.034150030516920345,-0.002942140816593306,-0.044657908340455195,0,70,255.0,255.0,255.0
34,1.7000000000000002,-10.549769249847415,-7.506225289295918,-0.06229671045829774,-0.05981355925752409,-0.007449197202455484,-0.07499523505497036,-0.03258082145410626,-0.002086041580186659,-0.04328115045736988,0,70,255.0,255.0,255.0
35,1.75,-10.5528,-7.5066,-0.0661,-0.061403370103659045,-0.007532096800554651,-0.0771248736307617,-0.03101161239129241,-0.0012299423437800022,-0.0419043925742848,0,70,255.0,255.0,255.0
36,1.8,-10.555909573377367,-7.506978770588771,-0.07000869832685086,-0.06299237212491561,-0.007631293166520714,-0.07922454253517026,-0.032548468458970026,-0.002737912294862503,-0.04208236360205762,0,70,255.0,255.0,255.0
37,1.85,-10.55910051792588,-7.507364385958277,-0.07402260256270686,-0.06465821694955605,-0.007805888030040901,-0.08133310999096748,-0.03408532452664764,-0.004245882245945003,-0.042260334629830434,0,70,255.0,255.0,255.0
38,1.9000000000000001,-10.562376675785712,-7.5077606160334005,-0.07814215763513743,-0.06640090457758037,-0.008055881391115214,-0.08345057599815331,-0.035622180594325266,-0.005753852197027505,-0.042438305657603245,0,70,255.0,255.0,255.0
39,1.9500000000000002,-10.565741889097028,-7.508171230739015,-0.082367808471712,-0.06822043500898858,-0.008381273249743653,-0.0855769405567278,-0.03715903666200288,-0.007261822148110005,-0.04261627668537606,0,70,255.0,255.0,255.0
40,2.0,-10.5692,-7.5086,-0.0867,-0.07011680824378067,-0.008782063605926212,-0.08771220366669093,-0.03869589272968077,-0.008769792099192486,-0.042794247713149214,0,70,255.0,255.0,255.0
41,2.0500000000000003,-10.572753902688431,-7.509049508845184,-0.09113938002371434,-0.07203314750006537,-0.009187158696686678,-0.08986853789664824,-0.03795767752170689,-0.007434011531226097,-0.04345912148514326,0,70,255.0,255.0,255.0
42,2.1,-10.576402699570668,-7.509517602719196,-0.09568740785114149,-0.07391257599595136,-0.009525464759048821,-0.09205811581520525,-0.03721946231373301,-0.006098230963259718,-0.044123995257137304,0,70,255.0,255.0,255.0
43,2.15,-10.580144545108686,-7.510000942170615,-0.10034574566671149,-0.07575509373143866,-0.009796981793012648,-0.09428093742236197,-0.03648124710575913,-0.004762450395293341,-0.04478886902913135,0,70,255.0,255.0,255.0
44,2.2,-10.58397759376447,-7.510496187748024,-0.10511605565485437,-0.07756070070652726,-0.010001709798578156,-0.0965370027181184,-0.035743031897785243,-0.003426669827326951,-0.0454537428011254,0,70,255.0,255.0,255.0
45,2.25,-10.5879,-7.511,-0.11,-0.07932939692121718,-0.010139648775745344,-0.09882631170247452,-0.03500481668981137,-0.0020908892593605732,-0.04611861657311933,0,70,255.0,255.0,255.0
46,2.3000000000000003,-10.591910015868907,-7.511509594030495,-0.11499858157829193,-0.08106703787481502,-0.0102440720467336,-0.10110930587823676,-0.03450082145410183,-0.0020860415801696062,-0.045201150457369985,0,70,255.0,255.0,255.0
47,2.35,-10.59600628379145,-7.512024403164942,-0.12011016603272721,-0.08277947906662736,-0.010348252933762304,-0.10334642674821153,-0.033996826218392284,-0.0020811939009786396,-0.044283684341620645,0,70,255.0,255.0,255.0
48,2.4000000000000004,-10.60018754377954,-7.512544415284139,-0.12533245969801662,-0.08446672049665425,-0.010452191436831463,-0.10553767431239883,-0.033492830982682735,-0.0020763462217876726,-0.04336621822587129,0,70,255.0,255.0,255.0
49,2.45,-10.604452535845088,-7.513069618268892,-0.13066316890887067,-0.08612876216489565,-0.010555887555941073,-0.10768304857079866,-0.0329888357469732,-0.002071498542596706,-0.04244875211012195,0,70,255.0,255.0,255.0
50,2.5,-10.6088,-7.5136,-0.1361,-0.08776560407135156,-0.010659341291091135,-0.10978254952341102,-0.0324848405112641,-0.0020666508634057806,-0.04153128599437306,0,70,255.0,255.0,255.0
51,2.5500000000000003,-10.613229233835936,-7.514136115032835,-0.14164149366311815,-0.08941070100068348,-0.010796553116379254,-0.11188623859040477,-0.03331903666201215,-0.0034218221481189517,-0.0426162766853762,0,70,255.0,255.0,255.0
52,2.6,-10.617741765263528,-7.514680784621042,-0.14728952801794964,-0.09109750773755278,-0.01100152350590303,-0.11404417719194865,-0.03415323281276019,-0.004776993432832111,-0.04370126737637934,0,70,255.0,255.0,255.0
53,2.6500000000000004,-10.62233967977315,-7.51523739669283,-0.15304681554122218,-0.09282602428195949,-0.011274252459662466,-0.11625636532804269,-0.034987428963508246,-0.006132164717545281,-0.044786258067382484,0,70,255.0,255.0,255.0
54,2.7,-10.627025062855182,-7.515809339176413,-0.1589160687096631,-0.0945962506339036,-0.011614739977657556,-0.1185228029986869,-0.03582162511425629,-0.00748733600225844,-0.04587124875838562,0,70,255.0,255.0,255.0
55,2.75,-10.6318,-7.5164,-0.1649,-0.09640818679338513,-0.012022986059888307,-0.12084349020388124,-0.03665582126500466,-0.008842507286971599,-0.04695623944938854,0,70,255.0,255.0,255.0
56,2.8000000000000003,-10.636665848787347,-7.5170115458381614,-0.17100024376923573,-0.09821815812245403,-0.01242571548774555,-0.12315373976014411,-0.03574303189775112,-0.00726666982731799,-0.04545374280112577,0,70,255.0,255.0,255.0
57,2.85,-10.64162105515444,-7.517641258350891,-0.17721412189547417,-0.09998248998316024,-0.012749653042620109,-0.12538886448399383,-0.03483024253049758,-0.005690832367664394,-0.043951246152863006,0,70,255.0,255.0,255.0
58,2.9000000000000004,-10.646663337127857,-7.51828519794454,-0.18353787813709488,-0.1017011823755038,-0.012994798724511989,-0.12754886437543042,-0.03391745316324403,-0.004114994908010786,-0.04244874950460024,0,70,255.0,255.0,255.0
59,2.95,-10.651790412734185,-7.51893942502546,-0.18996775625247703,-0.10337423529948465,-0.013161152533421186,-0.12963373943445386,-0.03300466379599049,-0.00253915744835719,-0.040946252856337476,0,70,255.0,255.0,255.0
60,3.0,-10.657,-7.5196,-0.1965,-0.10500164875510283,-0.013248714469347707,-0.13164348966106415,-0.03209187442873718,-0.0009633199887036231,-0.03944375620807561,0,70,255.0,255.0,255.0
61,3.0500000000000003,-10.662290571014674,-7.520264101614517,-0.2031319312599392,-0.10662866650949646,-0.013324584932630643,-0.1336428023690191,-0.03298883574700751,-0.002071498542613801,-0.040528752110121954,0,70,255.0,255.0,255.0
62,3.1,-10.667663614118714,-7.520933381975391,-0.20986518440015364,-0.10830053232980359,-0.013455864323609087,-0.13569636487207637,-0.033885797065277834,-0.0031796770965239686,-0.041613748012168286,0,70,255.0,255.0,255.0
63,3.1500000000000004,-10.67312137171542,-7.521610611529005,-0.21670247191039854,-0.11001724621602424,-0.013642552642283041,-0.13780417717023594,-0.03478275838354817,-0.004287855650434146,-0.04269874391421463,0,70,255.0,255.0,255.0
64,3.2,-10.678666086208082,-7.522298560721748,-0.22364650628042892,-0.1117788081681584,-0.013884649888652501,-0.1399662392634978,-0.03567971970181849,-0.005396034204344314,-0.043783739816260964,0,70,255.0,255.0,255.0
65,3.25,-10.6843,-7.523,-0.2307,-0.11358521818620607,-0.01418215606271747,-0.14218255115186204,-0.03657668102008871,-0.006504212758254482,-0.04486873571830707,0,70,255.0,255.0,255.0
66,3.3000000000000003,-10.69002466715396,-7.523716847703768,-0.2378648311910077,-0.11539517583956471,-0.014483944781730405,-0.14440305076377938,-0.035821625114256454,-0.005567336002262899,-0.04395124875838534,0,70,255.0,255.0,255.0
67,3.35,-10.695838888370702,-7.524447613747543,-0.24513954050391132,-0.11716738069763172,-0.01473888966294376,-0.14657767602770058,-0.035066569208424214,-0.0046304592462713245,-0.04303376179846361,0,70,255.0,255.0,255.0
68,3.4000000000000004,-10.701740776010466,-7.525189955939433,-0.2525218342213112,-0.11890183276040713,-0.014946990706357539,-0.14870642694362574,-0.03431151330259196,-0.0036935824902797417,-0.04211627483854187,0,70,255.0,255.0,255.0
69,3.45,-10.707728442433487,-7.525941532087548,-0.2600094186258073,-0.12059853202789092,-0.015108247911971734,-0.15078930351155476,-0.03355645739675972,-0.0027567057342881666,-0.04119878787862014,0,70,255.0,255.0,255.0
70,3.5,-10.7138,-7.5267,-0.2676,-0.12225747850008309,-0.015222661279786354,-0.1528263057314877,-0.03280140149092792,-0.0018198289782965643,-0.04028130091869775,0,70,255.0,255.0,255.0
71,3.5500000000000003,-10.719953960369494,-7.527463707570408,-0.27529194397603013,-0.1239026301322552,-0.015331635940452273,-0.1548569945758636,-0.03300466379595668,-0.002539157448340147,-0.04094625285633775,0,70,255.0,255.0,255.0
72,3.6,-10.72619043239848,-7.528233763034438,-0.2830862535842011,-0.12555794487967878,-0.015476577024620368,-0.15692093101712148,-0.03320792610098544,-0.003258485918383723,-0.04161120479397775,0,70,255.0,255.0,255.0
73,3.6500000000000004,-10.732509924242718,-7.529011964713262,-0.290984591204357,-0.12722342274235376,-0.015657484532290645,-0.1590181150552614,-0.0334111884060142,-0.003977814388427306,-0.04227615673161776,0,70,255.0,255.0,255.0
74,3.7,-10.73891294405797,-7.529800110928059,-0.29898861921634196,-0.12889906372028018,-0.0158743584634631,-0.16114854669028325,-0.033614450711042965,-0.004697142858470882,-0.04294110866925776,0,70,255.0,255.0,255.0
75,3.75,-10.7454,-7.5306,-0.3071,-0.13058486781345804,-0.01612719881813773,-0.16331222592218714,-0.03381771301607084,-0.005416471328514333,-0.043606060606897756,0,70,255.0,255.0,255.0
76,3.8000000000000003,-10.751971491368062,-7.531413122014599,-0.3153201929048719,-0.13227430363140538,-0.016397511456459197,-0.1654969709327661,-0.03375971970182241,-0.005396034204344274,-0.04378373981626114,0,70,255.0,255.0,255.0
77,3.85,-10.758627382035378,-7.532239734114708,-0.3236498451592844,-0.1339608397836403,-0.016666802238572156,-0.16769059990381324,-0.03370172638757398,-0.0053755970801742155,-0.04396141902562452,0,70,255.0,255.0,255.0
78,3.9000000000000004,-10.765367527018665,-7.533079785207519,-0.33208940096126105,-0.13564447627016277,-0.01693507116447662,-0.1698931128353286,-0.033643733073325556,-0.005355159956004157,-0.0441390982349879,0,70,255.0,255.0,255.0
79,3.95,-10.772191781334634,-7.53393322420022,-0.3406393045088251,-0.13732521309097287,-0.017202318234172575,-0.17210450972731203,-0.033585739759077124,-0.005334722831834099,-0.04431677744435127,0,70,255.0,255.0,255.0
80,4.0,-10.7791,-7.5348,-0.3493,-0.13900305024607046,-0.017468543447660027,-0.1743247905797637,-0.03352774644482848,-0.005314285707664096,-0.0444944566537151,0,70,255.0,255.0,255.0
81,4.05,-10.786092074158255,-7.5356798043711954,-0.3580712844044823,-0.14068015534211104,-0.017718318233709146,-0.17651512169307207,-0.03355645739679423,-0.004676705734300787,-0.04311878787862025,0,70,255.0,255.0,255.0
82,4.1000000000000005,-10.793168039460005,-7.5365713005067265,-0.3669503657786614,-0.1423586959857499,-0.017936214021090108,-0.17863666936762573,-0.03358516834875998,-0.004039125760937466,-0.04174311910352538,0,70,255.0,255.0,255.0
83,4.15,-10.800327967682625,-7.53747289445666,-0.3759338049505991,-0.14403867217698704,-0.018122230809802898,-0.18068943360342463,-0.03361387930072572,-0.003401545787574157,-0.04036745032843053,0,70,255.0,255.0,255.0
84,4.2,-10.807571930603496,-7.538382992271062,-0.3850181627483579,-0.14572008391582245,-0.018276368599847524,-0.18267341440046878,-0.03364259025269147,-0.0027639658142108482,-0.038991781553335686,0,70,255.0,255.0,255.0
85,4.25,-10.8149,-7.5393,-0.3942,-0.14740293120225617,-0.018398627391223984,-0.18458861175875815,-0.03367130120465811,-0.0021263858408475667,-0.037616112778239286,0,70,255.0,255.0,255.0
86,4.3,-10.822312211998913,-7.54022286050062,-0.4034770694771986,-0.1490850750001487,-0.018521215608706627,-0.18650654229494554,-0.033614450711043006,-0.0027771428584582236,-0.03910110866925653,0,70,255.0,255.0,255.0
87,4.3500000000000005,-10.829808460124605,-7.5411526638583855,-0.4128518917260705,-0.15076437627336048,-0.01867634167706981,-0.18849872262568385,-0.03355760021742791,-0.003427899876068892,-0.0405861045602738,0,70,255.0,255.0,255.0
88,4.4,-10.837388602250837,-7.542091036965841,-0.42232817923634286,-0.1524408350218915,-0.01886400559631352,-0.19056515275097294,-0.033500749723812805,-0.004078656893679549,-0.042071100451291046,0,70,255.0,255.0,255.0
89,4.45,-10.84505249625138,-7.5430396067155305,-0.43190964449774355,-0.15411445124574175,-0.019084207366437764,-0.1927058326708129,-0.03344389923019771,-0.004729413911290206,-0.04355609634230829,0,70,255.0,255.0,255.0
90,4.5,-10.8528,-7.544,-0.4416,-0.1557852249449113,-0.01933694698744254,-0.19492076238520373,-0.03338704873658371,-0.005380170928900946,-0.045041092233324864,0,70,255.0,255.0,255.0
91,4.55,-10.860631077846092,-7.544973553626326,-0.4514020376867231,-0.15745954465730194,-0.019604819331461344,-0.19715470912714567,-0.03358573975904293,-0.005334722831851185,-0.044316777444352695,0,70,255.0,255.0,255.0
92,4.6000000000000005,-10.868546120041584,-7.545960444059731,-0.4613148673170571,-0.1591437989208156,-0.019870419270627663,-0.199352440129639,-0.03378443078150215,-0.005289274734801424,-0.04359246265538052,0,70,255.0,255.0,255.0
93,4.65,-10.876545623314026,-7.546960557679974,-0.47133667810402957,-0.1608379877354522,-0.02013374680494149,-0.20151395539268374,-0.03398312180396137,-0.005243826637751664,-0.04286814786640835,0,70,255.0,255.0,255.0
94,4.7,-10.88463008439098,-7.547973780866811,-0.48146565926066803,-0.16254211110121172,-0.020394801934402827,-0.20363925491627985,-0.03418181282642059,-0.005198378540701903,-0.04214383307743619,0,70,255.0,255.0,255.0
95,4.75,-10.8928,-7.549,-0.4917,-0.16425616901809423,-0.020653584659011678,-0.20572833870042734,-0.03438050384888025,-0.005152930443652087,-0.04141951828846446,0,70,255.0,255.0,255.0
96,4.800000000000001,-10.901055476616715,-7.550038924994076,-0.5020379797759091,-0.16595674637063443,-0.020899507065457713,-0.20778662119647234,-0.03364259025272588,-0.0046839658141893045,-0.04091178155333396,0,70,255.0,255.0,255.0
97,4.8500000000000005,-10.909395059709066,-7.551089559902688,-0.5124782390057014,-0.16762042804336683,-0.02112198124043061,-0.20981951685576075,-0.03290467665657152,-0.00421500118472653,-0.04040404481820347,0,70,255.0,255.0,255.0
98,4.9,-10.917816904493057,-7.552150732314262,-0.5230195083475391,-0.16924721403629156,-0.021321007183930367,-0.21182702567829265,-0.032166763060417165,-0.0037460365552637563,-0.03989630808307298,0,70,255.0,255.0,255.0
99,4.95,-10.9263191661847,-7.553221269817223,-0.5336605184595847,-0.17083710434940852,-0.021496584895956985,-0.21380914766406806,-0.031428849464262804,-0.003277071925800982,-0.03938857134794249,0,70,255.0,255.0,255.0
100,5.0,-10.9349,-7.5543,-0.5444,-0.17239009898271782,-0.02164871437651046,-0.21576588281308692,-0.03069093586810845,-0.002808107296338125,-0.038880834612812665,0,70,255.0,255.0,255.0
101,5.050000000000001,-10.94355821568704,-7.555385946397369,-0.5552372432096411,-0.17394546986017476,-0.021789152406701286,-0.217730806086965,-0.03152389923016857,-0.0028094139112947226,-0.03971609634230836,0,70,255.0,255.0,255.0
102,5.1000000000000005,-10.952295241122155,-7.5564789163295165,-0.5661737766601378,-0.1755424889057347,-0.021929655767639937,-0.21973749244731777,-0.03235686259222868,-0.0028107205262513204,-0.040551358071804045,0,70,255.0,255.0,255.0
103,5.15,-10.961113158713747,-7.5575789130629785,-0.5772116885058142,-0.1771811561193976,-0.022070224459326417,-0.22178594189414538,-0.03318982595428879,-0.0028120271412079177,-0.04138661980129972,0,70,255.0,255.0,255.0
104,5.2,-10.970014050870228,-7.558685939864294,-0.5883530669009935,-0.17886147150116355,-0.022210858481760725,-0.22387615442744774,-0.0340227893163489,-0.0028133337561645154,-0.0422218815307954,0,70,255.0,255.0,255.0
105,5.25,-10.979,-7.5598,-0.5996,-0.18058343505103253,-0.022351557834942866,-0.22600813004722492,-0.034855752678409235,-0.0028146403711210577,-0.0430571432602922,0,70,255.0,255.0,255.0
106,5.300000000000001,-10.988072460635127,-7.5609212894164495,-0.6109538473855273,-0.1823093741886533,-0.02250388330773898,-0.22813815445566815,-0.03418181282642071,-0.00327837854072341,-0.04214383307743653,0,70,255.0,255.0,255.0
107,5.3500000000000005,-10.99723037580232,-7.562050774779249,-0.6224130543537479,-0.1840016163336746,-0.022679395689015207,-0.2302225133549686,-0.0335078729744322,-0.003742116710325754,-0.04123052289458088,0,70,255.0,255.0,255.0
108,5.4,-11.006472060651951,-7.563189615433824,-0.633975337629205,-0.18566016148609651,-0.022878094978771555,-0.23226120674512626,-0.03283393312244369,-0.004205854879928098,-0.04031721271172523,0,70,255.0,255.0,255.0
109,5.45,-11.015795830334389,-7.564338970725601,-0.6456384139364414,-0.18728500964591896,-0.023099981177008014,-0.2342542346261411,-0.03215999327045518,-0.004669593049530442,-0.03940390252886958,0,70,255.0,255.0,255.0
110,5.5,-11.0252,-7.5655,-0.6574,-0.18887616081314204,-0.023345054283724596,-0.23620159699801319,-0.03148605341846644,-0.005133331219132786,-0.038490592346013486,0,70,255.0,255.0,255.0
111,5.550000000000001,-11.034683141772451,-7.566673695936839,-0.6692585672482507,-0.19044903338521113,-0.023603314362347402,-0.2381485760903621,-0.031428849464296645,-0.0051970719257794186,-0.039388571347942505,0,70,255.0,255.0,255.0
112,5.6000000000000005,-11.04424485566856,-7.56786038455349,-0.6812156059248713,-0.1920190457595717,-0.02386476147630254,-0.24014045413280746,-0.031371645510126854,-0.005260812632426049,-0.040286550349871504,0,70,255.0,255.0,255.0
113,5.65,-11.053884998678443,-7.569060225201723,-0.6932733609773664,-0.1935861979362238,-0.02412939562559001,-0.24217723112534925,-0.031314441555957064,-0.00532455333907268,-0.04118452935180051,0,70,255.0,255.0,255.0
114,5.7,-11.06360342779222,-7.570273377233304,-0.705434077353241,-0.19515048991516742,-0.02439721681020981,-0.2442589070679875,-0.031257237601787266,-0.005388294045719311,-0.04208250835372951,0,70,255.0,255.0,255.0
115,5.75,-11.0734,-7.5715,-0.7177,-0.19671192169640253,-0.02466822503016194,-0.24638548196072219,-0.031200033647617476,-0.005452034752365914,-0.04298048735565718,0,70,255.0,255.0,255.0
116,5.800000000000001,-11.083274972275074,-7.572739926836201,-0.7300726836214705,-0.198294492270501,-0.024922859242875094,-0.24851554118288352,-0.03210278931631955,-0.00473333375615998,-0.04222188153079552,0,70,255.0,255.0,255.0
117,5.8500000000000005,-11.09323020152344,-7.5739916870067905,-0.7425509219467678,-0.1999222006280345,-0.02514155840577794,-0.25060767011380175,-0.033005544985021604,-0.00401463275995406,-0.04146327570593388,0,70,255.0,255.0,255.0
118,5.9,-11.10326794463427,-7.5752534837592815,-0.7551328184613298,-0.20159504676900314,-0.025324322518870495,-0.2526618687534769,-0.03390830065372366,-0.003295931763748139,-0.040704669881072235,0,70,255.0,255.0,255.0
119,5.95,-11.11339045849673,-7.576523520341181,-0.7678164766505947,-0.20331303069340684,-0.025471151582152757,-0.25467813710190895,-0.03481105632242572,-0.002577230767542219,-0.039946064056210595,0,70,255.0,255.0,255.0
120,6.0,-11.1236,-7.5778,-0.7806,-0.2050761524012457,-0.025582045595624717,-0.2566564751590979,-0.03571381199112866,-0.0018585297713361315,-0.039187458231347616,0,70,255.0,255.0,255.0
121,6.050000000000001,-11.13389776912725,-7.579081796718362,-0.7934818982658681,-0.20682099753278607,-0.025697248666146495,-0.25862125917810336,-0.034079993270485186,-0.002749593049534867,-0.03940390252886941,0,70,255.0,255.0,255.0
122,6.1000000000000005,-11.144280738237677,-7.580370467419346,-0.8064623062880584,-0.2084841517282942,-0.025857004900578205,-0.26059686541198485,-0.032446174549841736,-0.0036406563277335863,-0.0396203468263912,0,70,255.0,255.0,255.0
123,6.15,-11.15474482278448,-7.581668239761152,-0.8195417651773145,-0.2100656149877702,-0.02606131429891985,-0.2625832938607425,-0.03081235582919829,-0.004531719605932306,-0.03983679112391299,0,70,255.0,255.0,255.0
124,6.2,-11.165285938220855,-7.58297734140197,-0.8327208160443805,-0.21156538731121402,-0.026310176861171434,-0.2645805445243761,-0.029178537108554843,-0.0054227828841310255,-0.040053235421434775,0,70,255.0,255.0,255.0
125,6.25,-11.1759,-7.5843,-0.846,-0.21298346869862572,-0.02660359258733295,-0.266588617402886,-0.027544718387910727,-0.006313846162329606,-0.040269679718957896,0,70,255.0,255.0,255.0
126,6.300000000000001,-11.186584351215922,-7.585637686290354,-0.8593797233150577,-0.21440551759836746,-0.0268961460925346,-0.2685994221047032,-0.029337237601757087,-0.0053882940457363505,-0.04016250835373185,0,70,255.0,255.0,255.0
127,6.3500000000000005,-11.197342045525847,-7.586988843315823,-0.8728598529009994,-0.21591719245880145,-0.027142421991906585,-0.2706048682382592,-0.031129756815603413,-0.0044627419291431115,-0.04005533698850581,0,70,255.0,255.0,255.0
128,6.4,-11.208177564227814,-7.588351157196114,-0.8864401208294125,-0.21751849327992775,-0.02734242028544891,-0.2726049558035538,-0.03292227602944974,-0.0035371898125498725,-0.03994816562327976,0,70,255.0,255.0,255.0
129,6.45,-11.219095388619854,-7.589722314050937,-0.9001202591718838,-0.2192094200617464,-0.027496140973161574,-0.27459968480058716,-0.034714795243296064,-0.0026116376959566335,-0.03984099425805372,0,70,255.0,255.0,255.0
130,6.5,-11.2301,-7.5911,-0.9139,-0.2209899728042574,-0.02760358405504457,-0.27658905522935917,-0.036507314457142614,-0.0016860855793632556,-0.039733822892827675,0,70,255.0,255.0,255.0
131,6.550000000000001,-11.241194426009061,-7.592482658120222,-0.9277792084739023,-0.22277293207374663,-0.02771016696371678,-0.278581052403085,-0.034811056322426134,-0.002577230767525103,-0.039946064056205266,0,70,255.0,255.0,255.0
132,6.6000000000000005,-11.25237587965893,-7.593871759317362,-0.9417582821079448,-0.22447107843650002,-0.027861307131797082,-0.2805836616349797,-0.03311479818770969,-0.003468375955686935,-0.04015830521958286,0,70,255.0,255.0,255.0
133,6.65,-11.263640120304265,-7.595269531454392,-0.9558377515050364,-0.22608441189251757,-0.028057004559285472,-0.2825968829250433,-0.03141854005299324,-0.004359521143848766,-0.04037054638296045,0,70,255.0,255.0,255.0
134,6.7,-11.274982907299737,-7.596678202394281,-0.9700181472680852,-0.22761293244179934,-0.02829725924618196,-0.28462071627327573,-0.029722281918276788,-0.005250666332010599,-0.04058278754633804,0,70,255.0,255.0,255.0
135,6.75,-11.2864,-7.5981,-0.9843,-0.22905664008434526,-0.02858207119248653,-0.2866551616796771,-0.028026023783561227,-0.006141811520172319,-0.04079502870971474,0,70,255.0,255.0,255.0
136,6.800000000000001,-11.29788834474783,-7.59953648122876,-0.9986834427893343,-0.23048675410664818,-0.02887118605259454,-0.2886763682829559,-0.02917853710855504,-0.005422782884147976,-0.040053235421435206,0,70,255.0,255.0,255.0
137,6.8500000000000005,-11.309449635838437,-7.600986519414729,-1.0131670186672221,-0.23197449379520077,-0.02912434948090133,-0.2906604852218206,-0.030331050433548834,-0.004703754248123646,-0.03931144213315568,0,70,255.0,255.0,255.0
138,6.9,-11.321086754555125,-7.602448316986319,-1.0277488731504427,-0.23351985915000306,-0.029341561477406904,-0.2926075124962714,-0.03148356375854263,-0.003984725612099316,-0.03856964884487617,0,70,255.0,255.0,255.0
139,6.95,-11.332802582181207,-7.6039200763719395,-1.0424271517557757,-0.23512285017105503,-0.029522822042111263,-0.2945174501063082,-0.03263607708353642,-0.0032656969760749863,-0.037827855556596644,0,70,255.0,255.0,255.0
140,7.0,-11.3446,-7.6054,-1.0572,-0.23678346685835672,-0.029668131175014406,-0.2963902980519311,-0.03378859040853044,-0.002546668340050684,-0.037086062268318454,0,70,255.0,255.0,255.0
141,7.050000000000001,-11.356480994999611,-7.606886616964742,-1.072066220368761,-0.23844805149965254,-0.029797088825914163,-0.2982654744650906,-0.03279479524330052,-0.002611637695939529,-0.03792099425806078,0,70,255.0,255.0,255.0
142,7.1000000000000005,-11.368443976987328,-7.608379763023721,-1.0870272432231671,-0.24006294638268677,-0.029929294944608362,-0.30018239747773723,-0.031801000078070615,-0.0026766070518283733,-0.038755926247803094,0,70,255.0,255.0,255.0
143,7.15,-11.38048646147524,-7.609879600600332,-1.102085155893193,-0.24162815150745956,-0.030064749531097,-0.30214106708987093,-0.030807204912840717,-0.002741576407717217,-0.03959085823754541,0,70,255.0,255.0,255.0
144,7.2,-11.392605963975436,-7.611386292117961,-1.1172420457088126,-0.24314366687397085,-0.03020345258538008,-0.30414148330149177,-0.029813409747610816,-0.002806545763606061,-0.04042579022728772,0,70,255.0,255.0,255.0
145,7.25,-11.4048,-7.6129,-1.1325,-0.24460949248222066,-0.0303454041074576,-0.3061836461125997,-0.028819614582380693,-0.002871515119494711,-0.04126072221703003,0,70,255.0,255.0,255.0
146,7.300000000000001,-11.417066875253727,-7.614421050912277,-1.147860475735622,-0.24607303989473797,-0.03050045864374492,-0.30822973385668373,-0.029722281918311,-0.003330666331997912,-0.04058278754633101,0,70,255.0,255.0,255.0
147,7.3500000000000005,-11.429408056212255,-7.615950428490385,-1.1633224084401097,-0.24758172067405176,-0.030678470740657392,-0.3102419248672328,-0.030624949254241293,-0.0037898175445011057,-0.03990485287563201,0,70,255.0,255.0,255.0
148,7.4,-11.441825799543915,-7.617489280612353,-1.1788841032767865,-0.2491355348201621,-0.030879440398195027,-0.31222021914424697,-0.03152761659017159,-0.004248968757004298,-0.039226918204933,0,70,255.0,255.0,255.0
149,7.45,-11.454322361917049,-7.6190387551562155,-1.1945438654089753,-0.2507344823330689,-0.031103367616357822,-0.31416461668772605,-0.03243028392610188,-0.004708119969507492,-0.03854898353423399,0,70,255.0,255.0,255.0
150,7.5,-11.4669,-7.6206,-1.2103,-0.25237856321277224,-0.03135025239514578,-0.3160751174976703,-0.03333295126203195,-0.005167271182010935,-0.037871048863534984,0,70,255.0,255.0,255.0
151,7.550000000000001,-11.479560303985474,-7.622173979386148,-1.2261510766887518,-0.25402778892141065,-0.03160907659909867,-0.31796759010817366,-0.032636077083502614,-0.00518569697610477,-0.03782785555659744,0,70,255.0,255.0,255.0
152,7.6000000000000005,-11.49230219816366,-7.623760923014738,-1.242096723016395,-0.2556421709211225,-0.03186882209275626,-0.31985790305333006,-0.03193920290497329,-0.005204122770198605,-0.03778466224965991,0,70,255.0,255.0,255.0
153,7.65,-11.505123940349106,-7.6253608769502526,-1.2581368309996623,-0.25722170921190796,-0.03212948887611854,-0.32174605633313963,-0.031242328726443964,-0.00522254856429244,-0.037741468942722366,0,70,255.0,255.0,255.0
154,7.7,-11.51802378835637,-7.6269738872571775,-1.2742712926552864,-0.2587664037937669,-0.0323910769491855,-0.3236320499476023,-0.030545454547914637,-0.0052409743583862745,-0.03769827563578483,0,70,255.0,255.0,255.0
155,7.75,-11.531,-7.6286,-1.2905,-0.2602762546666994,-0.03265358631195716,-0.3255158838967181,-0.029848580369384425,-0.005259400152479998,-0.0376550823288464,0,70,255.0,255.0,255.0
156,7.800000000000001,-11.544051108804373,-7.630239031543127,-1.3068232175093715,-0.26176780441962344,-0.0329032349598592,-0.3274199057106216,-0.029813409747576448,-0.00472654576360139,-0.03850579022729185,0,70,255.0,255.0,255.0
157,7.8500000000000005,-11.557176751133111,-7.631889879450662,-1.3232426994943112,-0.263257595641457,-0.033126240888317296,-0.3293664629194473,-0.029778239125768467,-0.004193691374722791,-0.03935649812573728,0,70,255.0,255.0,255.0
158,7.9,-11.570376839059666,-7.633551211586634,-1.3397605727245647,-0.2647456283322003,-0.033322604097331475,-0.3313555555231953,-0.02974306850396049,-0.003660836985844192,-0.040207206024182714,0,70,255.0,255.0,255.0
159,7.95,-11.58365128465748,-7.635221695815071,-1.3563789639698791,-0.26623190249185313,-0.03349232458690172,-0.3333871835218656,-0.02970789788215251,-0.003127982596965593,-0.04105791392262814,0,70,255.0,255.0,255.0
160,8.0,-11.597,-7.6369,-1.3731,-0.26771641812041547,-0.033635402357028034,-0.33546134691545804,-0.0296727272603432,-0.002595128208086661,-0.04190862182107313,0,70,255.0,255.0,255.0
161,8.05,-11.61042326079704,-7.638585094441346,-1.3899248532737631,-0.26922099340007755,-0.033769983561468,-0.33752078704934063,-0.03051028392614016,-0.0027881199695119737,-0.040468983534229765,0,70,255.0,255.0,255.0
162,8.1,-11.623922797303894,-7.640277159182615,-1.4068508790063616,-0.2707674465130295,-0.03391421435397923,-0.339508245268881,-0.031347840591937084,-0.002981111730937279,-0.03902934524738645,0,70,255.0,255.0,255.0
163,8.15,-11.637500703412229,-7.641976676703211,-1.423874478102079,-0.27235577745927125,-0.034068094734561724,-0.3414237215740793,-0.03218539725773405,-0.0031741034923625914,-0.037589706960543076,0,70,255.0,255.0,255.0
164,8.200000000000001,-11.651159073013712,-7.643684129482539,-1.4409920514651977,-0.27398598623880294,-0.034231624703215495,-0.34326721596493537,-0.033022953923531,-0.0033670952537879035,-0.036150068673699715,0,70,255.0,255.0,255.0
165,8.25,-11.6649,-7.6454,-1.4582,-0.27565807285162436,-0.03440480425994051,-0.3450387284414492,-0.033860510589325266,-0.0035600870152127095,-0.034710430386856395,0,70,255.0,255.0,255.0
166,8.3,-11.678724648007467,-7.647124590691492,-1.4754957693955766,-0.27731622198005607,-0.03457683079427974,-0.3468009460920154,-0.0324654545479431,-0.0033209743583564955,-0.03577827563578905,0,70,255.0,255.0,255.0
167,8.35,-11.692630459651303,-7.648857483818881,-1.4928809844802422,-0.27890461830641866,-0.03473690169577616,-0.3486165560050281,-0.03107039850656098,-0.0030818617015002897,-0.03684612088472167,0,70,255.0,255.0,255.0
168,8.4,-11.706613947291409,-7.650598081600523,-1.51035831486712,-0.28042326183071214,-0.03488501696442977,-0.35048555818048754,-0.029675342465178813,-0.0028427490446440756,-0.03791396613365433,0,70,255.0,255.0,255.0
169,8.450000000000001,-11.720671623287675,-7.652345786254777,-1.5279304301693322,-0.28187215255293663,-0.035021176600240574,-0.3524079526183936,-0.028280286423796645,-0.0026036363877878616,-0.03898181138258698,0,70,255.0,255.0,255.0
170,8.5,-11.7348,-7.6541,-1.5456,-0.28325129047309183,-0.03514538060320855,-0.35438373931874617,-0.02688523038241364,-0.0023645237309313782,-0.04004965663151916,0,70,255.0,255.0,255.0
171,8.55,-11.74899654717309,-7.655860542792684,-1.5633688691439318,-0.28461811867970527,-0.0352826932614064,-0.3563634285825998,-0.02778789788212227,-0.003127982596982548,-0.039137913922623724,0,70,255.0,255.0,255.0
172,8.6,-11.763262564090887,-7.657628905541862,-1.5812355830726692,-0.28603008026130405,-0.0354581788629068,-0.3582975307110085,-0.028690565381830874,-0.00389144146303369,-0.038226171213728316,0,70,255.0,255.0,255.0
173,8.65,-11.777600307422137,-7.659406996894696,-1.5991978624294418,-0.2874871752178883,-0.03567183740770977,-0.3601860457039726,-0.029593232881539505,-0.00465490032908486,-0.03731442850483288,0,70,255.0,255.0,255.0
174,8.700000000000001,-11.792012033835592,-7.661196725498355,-1.6172534278574762,-0.28898940354945807,-0.03592366889581529,-0.3620289735614919,-0.03049590038124814,-0.00541835919513603,-0.036402685795937445,0,70,255.0,255.0,255.0
175,8.75,-11.8065,-7.663,-1.6354,-0.29053676525601313,-0.03621367332722337,-0.3638263142835663,-0.03139856788095585,-0.006181818061187061,-0.03549094308704204,0,70,255.0,255.0,255.0
176,8.8,-11.821065963300171,-7.664818038137769,-1.6536359540286985,-0.2920993033011254,-0.03650039616009805,-0.36561733957758485,-0.03110295392353421,-0.005287095253800243,-0.03615006867369984,0,70,255.0,255.0,255.0
177,8.85,-11.835709683985147,-7.666649294013671,-1.6719622832290804,-0.29364706064836654,-0.03674238285260339,-0.3674413211509363,-0.030807339966112582,-0.004392372446413457,-0.03680919426035762,0,70,255.0,255.0,255.0
178,8.9,-11.850430423020041,-7.668491530820689,-1.6903806354151143,-0.2951800372977366,-0.0369396334047394,-0.3692982590036206,-0.03051172600869094,-0.003497649639026639,-0.03746831984701542,0,70,255.0,255.0,255.0
179,8.950000000000001,-11.865227441369957,-7.670342511751805,-1.7088926584007655,-0.2966982332492357,-0.03709214781650606,-0.3711881531356379,-0.0302161120512693,-0.002602926831639821,-0.038127445433673225,0,70,255.0,255.0,255.0
180,9.0,-11.8801,-7.6722,-1.7275,-0.2982016485028635,-0.03719992608790338,-0.37311100354698795,-0.029920498093846337,-0.001708204024252813,-0.03878657102033101,0,70,255.0,255.0,255.0
181,9.05,-11.895047599626231,-7.674062504656244,-1.7462041147412761,-0.2997046681158045,-0.03730772209820397,-0.375055213107061,-0.03020028642379176,-0.0026036363877706154,-0.038981811382590784,0,70,255.0,255.0,255.0
182,9.1,-11.910070699968522,-7.675931518403456,-1.765005684011008,-0.30122167714524267,-0.03746028972668044,-0.377009184685247,-0.030480074753737173,-0.003499068751288386,-0.039177051744850554,0,70,255.0,255.0,255.0
183,9.15,-11.925170000497697,-7.677809279822547,-1.7839051959101027,-0.3027526755911782,-0.0376576289733328,-0.37897291828154606,-0.030759863083682594,-0.004394501114806188,-0.03937229210711033,0,70,255.0,255.0,255.0
184,9.200000000000001,-11.940346200684582,-7.679698027494426,-1.802903138539465,-0.304297663453611,-0.03789973983816106,-0.38094641389595807,-0.031039651413628015,-0.005289933478323991,-0.03956753246937011,0,70,255.0,255.0,255.0
185,9.25,-11.9556,-7.6816,-1.822,-0.305856640732541,-0.038186622321165195,-0.38292967152848306,-0.03131943974357254,-0.006185365841841706,-0.03976277283162988,0,70,255.0,255.0,255.0
186,9.3,-11.970931638194905,-7.683516743237258,-1.8411955870061991,-0.3074020242356607,-0.03847671544708964,-0.38488180799417215,-0.030495900381213557,-0.0054183591951360134,-0.03832268579593297,0,70,255.0,255.0,255.0
187,9.35,-11.986339516140763,-7.685447032372504,-1.8604869807268876,-0.3089062307706623,-0.0387284582406788,-0.38676194010807635,-0.029672361018854603,-0.004651352548430349,-0.036882598760236106,0,70,255.0,255.0,255.0
188,9.4,-12.001821574989169,-7.687388949889121,-1.879870580944477,-0.31036926033754614,-0.03894185070193267,-0.38857006787019577,-0.028848821656495622,-0.0038843459017246563,-0.035442511724539195,0,70,255.0,255.0,255.0
189,9.450000000000001,-12.017375755891718,-7.6893405782704916,-1.8993427874413777,-0.3117911129363119,-0.03911689283085126,-0.39030619128053035,-0.028025282294136637,-0.003117339255018964,-0.034002424688842285,0,70,255.0,255.0,255.0
190,9.5,-12.033,-7.6913,-1.9189,-0.31317178856695976,-0.03925358462743458,-0.39197031033908003,-0.027201742931776796,-0.0023503326083134657,-0.03256233765314498,0,70,255.0,255.0,255.0
191,9.55,-12.048693047594146,-7.693265722394725,-1.9385399372339291,-0.31455923494153687,-0.039377416113433414,-0.3936415549162504,-0.028296112051306926,-0.0026029268316397993,-0.034287445433668955,0,70,255.0,255.0,255.0
192,9.600000000000001,-12.06445683546842,-7.69523795210653,-1.9582655930814425,-0.3160013997720905,-0.039513877310598564,-0.395399054882447,-0.029390481170837056,-0.002855521054966133,-0.03601255321419292,0,70,255.0,255.0,255.0
193,9.65,-12.080294099545622,-7.697217320620971,-1.9780812803119907,-0.31749828305862055,-0.03966296821893003,-0.39724281023766966,-0.030484850290367148,-0.0031081152782924575,-0.037737660994716836,0,70,255.0,255.0,255.0
194,9.700000000000001,-12.096207575748547,-7.699204459423609,-1.9979913116950268,-0.3190498848011272,-0.03982468883842781,-0.39917282098191864,-0.031579219409897274,-0.0033607095016187916,-0.03946276877524081,0,70,255.0,255.0,255.0
195,9.75,-12.1122,-7.7012,-2.018,-0.3206562049996103,-0.03999903916909191,-0.40118908711519374,-0.032673588529428255,-0.0036133037249451716,-0.04118787655576295,0,70,255.0,255.0,255.0
196,9.8,-12.12827297142851,-7.703204367183842,-2.0381102640580853,-0.32224903599818755,-0.04017362009917375,-0.4032079723408223,-0.031039651413662273,-0.003369933478328343,-0.03956753246937798,0,70,255.0,255.0,255.0
197,9.850000000000001,-12.144423541985557,-7.705217159201379,-2.058319446947344,-0.3237601701409766,-0.04033603251692475,-0.4051458403621316,-0.029405714297896287,-0.0031265632317115143,-0.037947188382993026,0,70,255.0,255.0,255.0
198,9.9,-12.160647626828345,-7.707237767626995,-2.07862349780756,-0.3251896074279772,-0.0404862764223449,-0.4070026911791216,-0.027771777182130364,-0.002883192985094694,-0.03632684429660812,0,70,255.0,255.0,255.0
199,9.950000000000001,-12.17694114111409,-7.709265584035074,-2.0990183657785173,-0.3265373478591896,-0.04062435181543421,-0.40877852479179244,-0.02613784006636438,-0.0026398227384778652,-0.03470650021022315,0,70,255.0,255.0,255.0
200,10.0,-12.1933,-7.7113,-2.1195,-0.3278033914346137,-0.040750258696192684,-0.4104733412001439,-0.02450390295059801,-0.0023964524918611563,-0.03308615612383736,0,70,255.0,255.0,255.0
201,10.05,-12.209721466691812,-7.713340808869909,-2.140065406533731,-0.3290686210657305,-0.04088810348986469,-0.41215055572046094,-0.026105282294071965,-0.003117339255019124,-0.03400242468884242,0,70,255.0,255.0,255.0
202,10.100000000000001,-12.22620819658936,-7.715389411087956,-2.160715819129184,-0.3304139196640209,-0.041061992621694604,-0.41387358366902816,-0.027706661637545916,-0.0038382260181770915,-0.03491869325384747,0,70,255.0,255.0,255.0
203,10.15,-12.242764193141003,-7.717447608871047,-2.181453528457771,-0.331839287229485,-0.041271926091682405,-0.41564242504584564,-0.02930804098101981,-0.004559112781335034,-0.03583496181885249,0,70,255.0,255.0,255.0
204,10.200000000000001,-12.259393459795096,-7.719517204436093,-2.202280825190906,-0.3333447237621229,-0.0415179038998281,-0.4174570798509134,-0.030909420324493765,-0.0052799995444930015,-0.036751230383857546,0,70,255.0,255.0,255.0
205,10.25,-12.2761,-7.7216,-2.2232,-0.3349302292619344,-0.0417999260461317,-0.41931754808423144,-0.03251079966796855,-0.006000886307651054,-0.03766749894886212,0,70,255.0,255.0,255.0
206,10.3,-12.29288676180424,-7.723697197336521,-2.244212909806992,-0.33653247973888106,-0.042081965941363764,-0.421197804777334,-0.03157921940989804,-0.0052807095016314315,-0.03754276877524001,0,70,255.0,255.0,255.0
207,10.350000000000001,-12.309752471657006,-7.725807596446798,-2.2653196765359223,-0.33808815120292424,-0.042327996996294845,-0.4230718249617555,-0.030647639151827527,-0.004560532695611809,-0.037418038601617895,0,70,255.0,255.0,255.0
208,10.4,-12.32669480060765,-7.727929396888812,-2.286519988361356,-0.3395972436540638,-0.04253801921092494,-0.4249396086374958,-0.02971605889375705,-0.003840355889592212,-0.03729330842799578,0,70,255.0,255.0,255.0
209,10.450000000000001,-12.34371141970553,-7.730060798220552,-2.3078135334578604,-0.34105975709229996,-0.042712032585254064,-0.4268011558045551,-0.02878447863568654,-0.0031201790835725897,-0.03716857825437367,0,70,255.0,255.0,255.0
210,10.5,-12.3608,-7.7322,-2.3292,-0.3424756915176325,-0.042850037119282196,-0.4286564664629331,-0.02785289837761562,-0.0024000022775529373,-0.03704384808075112,0,70,255.0,255.0,255.0
211,10.55,-12.377958686091223,-7.734345601784002,-2.350678954238302,-0.34387345997873364,-0.042976032744682965,-0.43049822517020736,-0.02805784006642762,-0.0026398227384779073,-0.03662650021021853,0,70,255.0,255.0,255.0
212,10.600000000000001,-12.395187516782615,-7.736497803124852,-2.372249474727129,-0.34528147552427535,-0.04311401939312999,-0.432319116483955,-0.028262781755239625,-0.0028796431994028773,-0.03620915233968595,0,70,255.0,255.0,255.0
213,10.65,-12.41248700442839,-7.738657203573699,-2.3939105180968054,-0.3466997381542576,-0.04326399706462326,-0.43411914040417593,-0.02846772344405162,-0.0031194636603278387,-0.03579180446915337,0,70,255.0,255.0,255.0
214,10.700000000000001,-12.429857661382782,-7.740824402681699,-2.4156610409776547,-0.34812824786868046,-0.04342596575916277,-0.43589829693087034,-0.028672665132863623,-0.0033592841212528087,-0.03537445659862079,0,70,255.0,255.0,255.0
215,10.75,-12.4473,-7.743,-2.4375,-0.3495670046675439,-0.043599925476748534,-0.43765658606403807,-0.028877606821675617,-0.003599104582177548,-0.03495710872808866,0,70,255.0,255.0,255.0
216,10.8,-12.464814493830865,-7.745184395527466,-2.459426473239802,-0.35101368034619745,-0.04377390307991456,-0.43940129454183663,-0.028989420324464544,-0.003359999544463318,-0.03483123038385356,0,70,255.0,255.0,255.0
217,10.850000000000001,-12.48240146121254,-7.747377191053794,-2.481440024555564,-0.35246594669999043,-0.04393592543119487,-0.4411397091024235,-0.029101233827253475,-0.003120894506749088,-0.03470535203961846,0,70,255.0,255.0,255.0
218,10.9,-12.500061181678783,-7.749577788816388,-2.5035403392514244,-0.3539238037289228,-0.044085992530589466,-0.4428718297457985,-0.0292130473300424,-0.002881789469034866,-0.03457947369538337,0,70,255.0,255.0,255.0
219,10.950000000000001,-12.51779393476335,-7.751785591052655,-2.525727102631524,-0.35538725143299466,-0.04422410437809836,-0.4445976564719618,-0.029324860832831326,-0.002642684431320636,-0.03445359535114827,0,70,255.0,255.0,255.0
220,11.0,-12.5356,-7.754,-2.548,-0.3568562898122059,-0.04435026097372153,-0.4463171892809133,-0.02943667433562025,-0.0024035793936063032,-0.034327717006911396,0,70,255.0,255.0,255.0
221,11.05,-12.553479338585323,-7.756220816106132,-2.5703591528024914,-0.35831181863648776,-0.044488354935651425,-0.44805659666244557,-0.028784478635652536,-0.003120179083589613,-0.03524857825437692,0,70,255.0,255.0,255.0
222,11.100000000000001,-12.571430638367234,-7.758449432659973,-2.5928064270506184,-0.3597347376757712,-0.0446622788820805,-0.449842047106351,-0.02813228293568482,-0.0038367787735729226,-0.03616943950184244,0,70,255.0,255.0,255.0
223,11.15,-12.589452268856483,-7.760687641160748,-2.6153441248974993,-0.36112504693005626,-0.04487203281300872,-0.45167354061262976,-0.027480087235717127,-0.004553378463556206,-0.037090300749307935,0,70,255.0,255.0,255.0
224,11.200000000000001,-12.607542599563821,-7.7629372331076825,-2.637974548496254,-0.36248274639934286,-0.045117616728436116,-0.4535510771812818,-0.026827891535749413,-0.005269978153539516,-0.03801116199677346,0,70,255.0,255.0,255.0
225,11.25,-12.6257,-7.7652,-2.6607,-0.36380783608363115,-0.045399030628362674,-0.45547465681230714,-0.026175695835780832,-0.005986577843522967,-0.03893202324423761,0,70,255.0,255.0,255.0
226,11.3,-12.643923351827851,-7.767477140048005,-2.6835217155502353,-0.3651310451078474,-0.045680677177482386,-0.4573803188083787,-0.026752665132867746,-0.0052792841212653385,-0.03729445659862483,0,70,255.0,255.0,255.0
227,11.350000000000001,-12.662213585318533,-7.7697674783063135,-2.706436667241967,-0.36648310259691796,-0.04592695904048922,-0.4592041024721697,-0.027329634429954657,-0.00457199039900771,-0.035656889953012035,0,70,255.0,255.0,255.0
228,11.4,-12.68057214289529,-7.772069246540619,-2.7294407611585805,-0.36786400855084284,-0.046137876217383154,-0.46094600780367995,-0.02790660372704155,-0.0038646966767501073,-0.034019323307399305,0,70,255.0,255.0,255.0
229,11.450000000000001,-12.699000466981364,-7.774380676516617,-2.752529903383463,-0.3692737629696221,-0.046313428708164225,-0.46260603480290957,-0.02848357302412846,-0.003157402954492479,-0.03238175666178652,0,70,255.0,255.0,255.0
230,11.5,-12.7175,-7.7767,-2.7757,-0.3707123658532557,-0.046453616512832405,-0.4641841834698585,-0.02906054232121358,-0.002450109232234765,-0.03074419001617157,0,70,255.0,255.0,255.0
231,11.55,-12.736072054103278,-7.779025823701848,-2.79894838499657,-0.37217200093210767,-0.04658093635442086,-0.4657661281040414,-0.0293248608328649,-0.002642684431303469,-0.032533595351143176,0,70,255.0,255.0,255.0
232,11.600000000000001,-12.754717420358638,-7.7813582541147746,-2.8222781039815175,-0.37364485193654223,-0.046717884955962755,-0.46743754300497287,-0.02958917934451622,-0.002835259630372172,-0.03432300068611478,0,70,255.0,255.0,255.0
233,11.65,-12.773436759562358,-7.783697772676777,-2.8456936304681792,-0.37513091886655925,-0.04686446231745808,-0.4691984281726529,-0.029853497856167536,-0.003027834829440869,-0.036112406021086334,0,70,255.0,255.0,255.0
234,11.700000000000001,-12.79223073251072,-7.786044860825853,-2.8691994379698946,-0.37663020172215894,-0.04702066843890684,-0.4710487836070815,-0.030117816367818857,-0.0032204100285095722,-0.03790181135605794,0,70,255.0,255.0,255.0
235,11.75,-12.8111,-7.7884,-2.8928,-0.37814270050334114,-0.04718650332030903,-0.47298860930825865,-0.03038213487947017,-0.0034129852275781025,-0.03969121669103037,0,70,255.0,255.0,255.0
236,11.8,-12.830044431759038,-7.790763565144602,-2.9164983444634878,-0.3796209511637216,-0.04735557740483708,-0.47493116877545377,-0.02874789153574493,-0.0033499781535440633,-0.03801116199677394,0,70,255.0,255.0,255.0
237,11.850000000000001,-12.849060733246919,-7.79313550523459,-2.9402917168319673,-0.3810174896569157,-0.04752150113566343,-0.4767897255079361,-0.02711364819201969,-0.003286971079510024,-0.03633110730251751,0,70,255.0,255.0,255.0
238,11.9,-12.868144818855278,-7.795515662752274,-2.9641759169687028,-0.3823323159829235,-0.04768427451278809,-0.4785642795057055,-0.025479404848294508,-0.0032239640054759875,-0.034651052608261144,0,70,255.0,255.0,255.0
239,11.950000000000001,-12.887292602975759,-7.797903880179973,-2.9881467447369587,-0.3835654301417451,-0.04784389753621104,-0.48025483076876224,-0.023845161504569265,-0.0031609569314419482,-0.032970997914004714,0,70,255.0,255.0,255.0
240,12.0,-12.9065,-7.8003,-3.0122,-0.3847168321333805,-0.04800037020593228,-0.481861379297106,-0.02221091816084453,-0.003097949857408022,-0.03129094321974657,0,70,255.0,255.0,255.0
241,12.05,-12.925764618860562,-7.802703915719743,-3.036332637149481,-0.385888194413005,-0.0481567540262298,-0.4834531967941445,-0.024643573024136636,-0.0031574029544925285,-0.032381756661793056,0,70,255.0,255.0,255.0
242,12.100000000000001,-12.945090846653684,-7.80511572494687,-3.060546228690617,-0.38718118943579416,-0.048316110501381536,-0.4850995549632854,-0.027076227887428743,-0.0032168560515770345,-0.033472570103839534,0,70,255.0,255.0,255.0
243,12.15,-12.964484765016527,-7.807535576314128,-3.0848435016570113,-0.3885958172017479,-0.048478439631387496,-0.4868004538045284,-0.029508882750720763,-0.0032763091486615386,-0.03456338354588598,0,70,255.0,255.0,255.0
244,12.200000000000001,-12.983952455586246,-7.8099636184542565,-3.109227183082271,-0.3901320777108662,-0.048643741416247686,-0.4885558933178739,-0.03194153761401287,-0.0033357622457460445,-0.035654196987932464,0,70,255.0,255.0,255.0
245,12.25,-13.0035,-7.8124,-3.1337,-0.3917899709631491,-0.04881201585596211,-0.49036587350332167,-0.03437419247730178,-0.0033952153428308263,-0.036745010429979796,0,70,255.0,255.0,255.0
246,12.3,-13.023131492798708,-7.814844771976429,-3.15826390693859,-0.39345027118427617,-0.048977406490245616,-0.49218404404797234,-0.03203781636777917,-0.0032204100285095215,-0.035981811356046375,0,70,255.0,255.0,255.0
247,12.350000000000001,-13.042843080138338,-7.81729759497793,-3.1829177684055696,-0.3949937525999271,-0.049134056858813065,-0.4939640546389264,-0.02970144025825656,-0.0030456047141882163,-0.03521861228211296,0,70,255.0,255.0,255.0
248,12.4,-13.062628921078609,-7.819758031991215,-3.2076596764032543,-0.3964204152101018,-0.04928196696166444,-0.49570590527618363,-0.027365064148734037,-0.0028707993998669176,-0.03445541320817957,0,70,255.0,255.0,255.0
249,12.450000000000001,-13.082483174679258,-7.822225646003001,-3.2324877229339597,-0.39773025901480047,-0.04942113679879975,-0.49740959595974427,-0.025028688039211426,-0.002695994085545613,-0.033692214134246154,0,70,255.0,255.0,255.0
250,12.5,-13.1024,-7.8247,-3.2574,-0.3989232840140229,-0.049551566370219,-0.4990751266896083,-0.022692311929689346,-0.002521188771224314,-0.032929015060313205,0,70,255.0,255.0,255.0
251,12.55,-13.122375009944603,-7.827180996374541,-3.282394935096162,-0.4000867208498794,-0.04969362001278566,-0.5007226270139663,-0.023845161504570826,-0.0031609569314419474,-0.03297099791400378,0,70,255.0,255.0,255.0
252,12.600000000000001,-13.142409632792965,-7.8296698951414125,-3.307472297687109,-0.40130780016448,-0.0498676620633632,-0.5023722264810087,-0.02499801107945231,-0.0038007250916595806,-0.03301298076769434,0,70,255.0,255.0,255.0
253,12.65,-13.16250675066903,-7.8321682957210115,-3.3326321927299745,-0.40258652195782463,-0.05007369252195161,-0.5040239250907357,-0.02615086065433375,-0.004440493251877191,-0.033054963621384915,0,70,255.0,255.0,255.0
254,12.700000000000001,-13.182669245696728,-7.8346777975337405,-3.3578747251818934,-0.4039228862299134,-0.050311711388550916,-0.5056777228431472,-0.027303710229215232,-0.005080261412094824,-0.03309694647507549,0,70,255.0,255.0,255.0
255,12.75,-13.2029,-7.8372,-3.3832,-0.40531689298074614,-0.0505817186631611,-0.5073336197382432,-0.02845655980409756,-0.0057200295723123795,-0.033138929328766054,0,70,255.0,255.0,255.0
256,12.8,-13.223201267422878,-7.839736042525404,-3.4086083526767648,-0.4067308454161999,-0.050856113458612455,-0.5090054478961608,-0.028101537614054622,-0.005255762245741651,-0.03373419698793719,0,70,255.0,255.0,255.0
257,12.850000000000001,-13.243572788689796,-7.842285224456423,-3.434101040845999,-0.40812704674215167,-0.05110729488773527,-0.510707039437037,-0.027746515424011686,-0.004791494919170922,-0.03432946464710833,0,70,255.0,255.0,255.0
258,12.9,-13.26401367624527,-7.844846385124739,-3.459679552676851,-0.4095054969586011,-0.05133526295052955,-0.5124383943608717,-0.027391493233968764,-0.00432722759260021,-0.03492473230627944,0,70,255.0,255.0,255.0
259,12.950000000000001,-13.28452304253383,-7.847418363862037,-3.485345376338469,-0.41086619606554853,-0.05154001764699529,-0.514199512667665,-0.027036471043925828,-0.0038629602660294818,-0.03551999996545058,0,70,255.0,255.0,255.0
260,13.0,-13.3051,-7.85,-3.5111,-0.41220914406299375,-0.05172155897713249,-0.5159903943574168,-0.026681448853885126,-0.003398692939458492,-0.036115267624620806,0,70,255.0,255.0,255.0
261,13.05,-13.325743920363877,-7.852590033523841,-3.5369444541967807,-0.4135498974853211,-0.05187392615275802,-0.5177835814013886,-0.02694868803920736,-0.0026959940855625928,-0.03561221413424977,0,70,255.0,255.0,255.0
262,13.100000000000001,-13.346455212447854,-7.855186807032898,-3.562877938928898,-0.4149040128669145,-0.05199115838568875,-0.5195516157708419,-0.027215927224529597,-0.001993295231666694,-0.03510916064387873,0,70,255.0,255.0,255.0
263,13.15,-13.36723454434989,-7.857788563780032,-3.588899196562623,-0.416271490207774,-0.05207325567592469,-0.5212944974657765,-0.027483166409851826,-0.00129059637777082,-0.03460610715350771,0,70,255.0,255.0,255.0
264,13.200000000000001,-13.38808258416795,-7.860393547018111,-3.615006969464233,-0.4176523295078997,-0.05212021802346583,-0.5230122264861926,-0.02775040559517406,-0.0005878975238749213,-0.03410305366313667,0,70,255.0,255.0,255.0
265,13.25,-13.409,-7.863,-3.6412,-0.4190465307672914,-0.052132045428312186,-0.52470480283209,-0.028017644780496287,0.00011480133002089721,-0.033600000172764766,0,70,255.0,255.0,255.0
266,13.3,-13.429987051121612,-7.86560702337923,-3.6674770305361135,-0.4204295646425334,-0.052160181930363834,-0.526372226498286,-0.027303710229181,-0.0012402614120867821,-0.033096946475075835,0,70,255.0,255.0,255.0
267,13.350000000000001,-13.451042361518795,-7.868217147411988,-3.6938368034384146,-0.4217769017902096,-0.05225607156952087,-0.5280144974795976,-0.026589775677865714,-0.0025953241541944614,-0.0325938927773869,0,70,255.0,255.0,255.0
268,13.4,-13.472164146355173,-7.870833759755134,-3.7202780610726585,-0.42308854221031994,-0.052419714345783276,-0.5296316157760247,-0.025875841126550454,-0.003950386896302093,-0.03209083907969798,0,70,255.0,255.0,255.0
269,13.450000000000001,-13.493350620794367,-7.873460248065518,-3.746799545804602,-0.4243644859028646,-0.05265111025915108,-0.5312235813875674,-0.025161906575235166,-0.0053054496384097715,-0.03158778538200905,0,70,255.0,255.0,255.0
270,13.5,-13.5146,-7.8761,-3.7734,-0.4256047328678434,-0.05295025930962425,-0.5327903943142255,-0.024447972023919462,-0.006660512380517625,-0.031084731684317468,0,70,255.0,255.0,255.0
271,13.55,-13.535911075149679,-7.878755472959242,-3.800078623658768,-0.42684384394453967,-0.053261346125787395,-0.5343595126054695,-0.025116471043931565,-0.005782960266007884,-0.031679999965442296,0,70,255.0,255.0,255.0
272,13.600000000000001,-13.557284941476972,-7.881425403319151,-3.8268364473174485,-0.4281163799722366,-0.053528555336225046,-0.5359583943107697,-0.025784970063943667,-0.004905408151498145,-0.03227526824656712,0,70,255.0,255.0,255.0
273,13.65,-13.57872327022942,-7.884107597199436,-3.8536749591467454,-0.42942234095093407,-0.05375188694093721,-0.5375870394301262,-0.026453469083955742,-0.0040278560369884355,-0.032870536527691924,0,70,255.0,255.0,255.0
274,13.700000000000001,-13.60022773265458,-7.886799860719815,-3.880595647317362,-0.43076172688063213,-0.05393134093992389,-0.5392454479635389,-0.027121968103967845,-0.0031503039224786956,-0.033465804808816745,0,70,255.0,255.0,255.0
275,13.75,-13.6218,-7.8895,-3.9076,-0.4321345377613309,-0.054066917333185076,-0.5409336199110077,-0.027790467123977702,-0.0022727518079686537,-0.03406107308993889,0,70,255.0,255.0,255.0
276,13.8,-13.643441448279667,-7.892206284783801,-3.934689274828819,-0.43352305957931053,-0.0541864335664819,-0.5426377230798346,-0.027750405595207094,-0.0025078975239044487,-0.0341030536631358,0,70,255.0,255.0,255.0
277,13.850000000000001,-13.665152272573323,-7.894918839311411,-3.961863807291795,-0.43490957832085164,-0.054317707085575526,-0.5443439252773213,-0.027710344066436486,-0.0027430432398402437,-0.03414503423633271,0,70,255.0,255.0,255.0
278,13.9,-13.686932372727146,-7.8976382514471215,-3.989123702340362,-0.43629409398595415,-0.05446073789046593,-0.546052226503468,-0.02767028253766588,-0.0029781889557760305,-0.03418701480952961,0,70,255.0,255.0,255.0
279,13.950000000000001,-13.708781648587314,-7.900365109055221,-4.0164690649259525,-0.4376766065746182,-0.05461552598115313,-0.5477626267582744,-0.027630221008895273,-0.0032133346717118255,-0.03422899538272652,0,70,255.0,255.0,255.0
280,14.0,-13.7307,-7.9031,-4.0439,-0.43905711608684367,-0.05478207135763711,-0.5494751260417405,-0.027590159480122,-0.00344848038764739,-0.03427097595592521,0,70,255.0,255.0,255.0
281,14.05,-13.75268713173165,-7.905843387905555,-4.07141627702596,-0.4404239177382266,-0.05495291960828823,-0.551169595075189,-0.02708190657519553,-0.00338544963839723,-0.033507785382012746,0,70,255.0,255.0,255.0
282,14.100000000000001,-13.774741968229737,-7.908595239435205,-4.099016323515374,-0.44176530674436326,-0.055120616321476835,-0.5528259045799419,-0.026573653670269055,-0.00332241888914707,-0.03274459480810028,0,70,255.0,255.0,255.0
283,14.15,-13.796863238861999,-7.911355397012078,-4.126698231491808,-0.4430812831052535,-0.05528516149720294,-0.5544440545559991,-0.0260654007653426,-0.0032593881398969124,-0.03198140423418784,0,70,255.0,255.0,255.0
284,14.200000000000001,-13.819049672996174,-7.914123703059301,-4.15446009297883,-0.44437184682089753,-0.05544655513546652,-0.5560240450033607,-0.02555714786041613,-0.0031963573906467523,-0.031218213660275378,0,70,255.0,255.0,255.0
285,14.25,-13.8413,-7.9169,-4.1823,-0.44563699789129513,-0.05560479723626761,-0.5575658759220267,-0.025048894955488787,-0.0031333266413964833,-0.030455023086365607,0,70,255.0,255.0,255.0
286,14.3,-13.863613224793738,-7.919684163593982,-4.2102168170673435,-0.4468932694677817,-0.05576188800036449,-0.5591158966194065,-0.025201968103971864,-0.0031503039224785815,-0.03154580480882833,0,70,255.0,255.0,255.0
287,14.350000000000001,-13.885989454507735,-7.922476202947771,-4.23821249864671,-0.44815719470169235,-0.05591982762851547,-0.5607204564029096,-0.02535504125245494,-0.0031672812035606797,-0.032636586531291055,0,70,255.0,255.0,255.0
288,14.4,-13.908429071824864,-7.925276160504569,-4.266289771692404,-0.44942877359302713,-0.056078616120720556,-0.5623795552725357,-0.02550811440093801,-0.003184258484642777,-0.03372736825375374,0,70,255.0,255.0,255.0
289,14.450000000000001,-13.930932459427996,-7.928084078707577,-4.294451363158733,-0.45070800614178613,-0.05623825347697974,-0.564093193228285,-0.025661187549421087,-0.003201235765724875,-0.03481814997621646,0,70,255.0,255.0,255.0
290,14.5,-13.9535,-7.9309,-4.3227,-0.4519948923479693,-0.05639873969729304,-0.5658613702701573,-0.0258142606979046,-0.0032182130468067505,-0.03590893169867737,0,70,255.0,255.0,255.0
291,14.55,-13.9761319690934,-7.933723957718517,-4.351037254704667,-0.4532830043906394,-0.056559528390256006,-0.5676148184471922,-0.02571022100889877,-0.003213334671711665,-0.03422899538271744,0,70,255.0,255.0,255.0
292,14.600000000000001,-13.998828213739323,-7.936555948773713,-4.379460081897791,-0.45456591444885924,-0.05672007316446421,-0.569284269808429,-0.025606181319892937,-0.0032084562966165795,-0.03254905906675751,0,70,255.0,255.0,255.0
293,14.65,-14.021588473838547,-7.939395960969652,-4.407964281738581,-0.45584362252262867,-0.056880374019917655,-0.570869724353868,-0.02550214163088711,-0.0032035779215214945,-0.030869122750797638,0,70,255.0,255.0,255.0
294,14.700000000000001,-14.044412489291846,-7.9422439821103925,-4.436545654386247,-0.45711612861194795,-0.05704043095661636,-0.5723711820835088,-0.025398101941881277,-0.003198699546426409,-0.029189186434837706,0,70,255.0,255.0,255.0
295,14.75,-14.0673,-7.9451,-4.4652,-0.45838343271681675,-0.0572002439745603,-0.5737886429973516,-0.025294062252874117,-0.0031938211713312126,-0.02750925011887695,0,70,255.0,255.0,255.0
296,14.8,-14.090250898832661,-7.947964005531951,-4.493924564113993,-0.4596547129696498,-0.05735999843860975,-0.5752088295918302,-0.02555714786044954,-0.003196357390646709,-0.029298213660264975,0,70,255.0,255.0,255.0
297,14.850000000000001,-14.113265690534972,-7.950836001957376,-4.522722373762135,-0.46093914750286175,-0.05751987971362497,-0.5767184643633781,-0.025820233468024964,-0.0031988936099622057,-0.031087177201653,0,70,255.0,255.0,255.0
298,14.9,-14.136345032820952,-7.953715995616829,-4.551597901353281,-0.46223673631645235,-0.057679887799605964,-0.5783175473119954,-0.026083319075600377,-0.003201429829277702,-0.03287614074304096,0,70,255.0,255.0,255.0
299,14.950000000000001,-14.159489583404623,-7.956603992850853,-4.580555619296285,-0.46354747941042174,-0.057840022696552744,-0.5800060784376823,-0.0263464046831758,-0.003203966048593199,-0.03466510428442899,0,70,255.0,255.0,255.0
300,15.0,-14.1827,-7.9595,-4.6096,-0.46487137678476986,-0.058000284404465294,-0.5817840577404383,-0.026609490290748994,-0.0032065022679085287,-0.03645406782581517,0,70,255.0,255.0,255.0
301,15.05,-14.205976435575963,-7.9624040201536825,-4.638734088839367,-0.4661781437307733,-0.05816047785530613,-0.5835658631854891,-0.02566118754938705,-0.0032012357657247082,-0.03481814997621517,0,70,255.0,255.0,255.0
302,15.100000000000001,-14.229317024120794,-7.965316043396779,-4.667955223053675,-0.4674374955397086,-0.05832040798103777,-0.5852658727380599,-0.02471288480802511,-0.0031959692635408874,-0.03318223212661517,0,70,255.0,255.0,255.0
303,15.15,-14.252719394877646,-7.968236056563034,-4.697259312848299,-0.4686494322115758,-0.058480074781660216,-0.5868840863981506,-0.023764582066663202,-0.003190702761357067,-0.03154631427701523,0,70,255.0,255.0,255.0
304,15.200000000000001,-14.276181177089668,-7.971164046486194,-4.726642268428615,-0.4698139537463749,-0.05863947825717348,-0.5884205041657613,-0.02281627932530126,-0.0031854362591732465,-0.02991039642741523,0,70,255.0,255.0,255.0
305,15.25,-14.2997,-7.9741,-4.7561,-0.47093106014410596,-0.05879861840757753,-0.5898751260408921,-0.02186797658393891,-0.0031801697569894816,-0.028274478577815287,0,70,255.0,255.0,255.0
306,15.3,-14.3232745588635,-7.97704391385332,-4.7856294805285415,-0.4720647121072516,-0.058958090140162935,-0.5913117176662085,-0.023478101941884977,-0.0031986995464264537,-0.029189186434837224,0,70,255.0,255.0,255.0
307,15.350000000000001,-14.346907812981858,-7.979995824455508,-4.815231934023169,-0.47327887033829447,-0.05911848836222018,-0.5927940446843758,-0.025088227299831047,-0.003217229335863426,-0.03010389429185916,0,70,255.0,255.0,255.0
308,15.4,-14.370603787668463,-7.982955778131034,-4.844909647253526,-0.4745735348372347,-0.05927981307374927,-0.5943221070953943,-0.026698352657777057,-0.003235759125300397,-0.031018602148881066,0,70,255.0,255.0,255.0
309,15.450000000000001,-14.394366508236713,-7.9859238212043735,-4.874664906989256,-0.4759487056040722,-0.05944206427475022,-0.5958959048992639,-0.02830847801572313,-0.0032542889147373693,-0.031933310005903,0,70,255.0,255.0,255.0
310,15.5,-14.4182,-7.9889,-4.9045,-0.477404382638807,-0.059605241965223016,-0.5975154380959846,-0.02991860337367047,-0.003272818704174174,-0.03284801786292135,0,70,255.0,255.0,255.0
311,15.55,-14.44210692897004,-7.991884324433036,-4.93441678904647,-0.47885900784022806,-0.059767161584042196,-0.5991552661496689,-0.028266404683170498,-0.0032039660485930536,-0.032745104284448344,0,70,255.0,255.0,255.0
312,15.600000000000001,-14.466084523951782,-7.994876658781192,-4.964415440853652,-0.4802310231071241,-0.059925638570082325,-0.6007899485244296,-0.026614205992670524,-0.0031351133930119326,-0.032642190705975335,0,70,255.0,255.0,255.0
313,15.65,-14.490128654448508,-7.997876830912831,-4.994495698137597,-0.4815204284394951,-0.06008067292334339,-0.6024194852202664,-0.02496200730217061,-0.0030662607374308142,-0.03253927712750233,0,70,255.0,255.0,255.0
314,15.700000000000001,-14.51423518996349,-8.000884668696312,-5.024657303614363,-0.4827272238373412,-0.0602322646438254,-0.6040438762371797,-0.023309808611670632,-0.0029974080818496937,-0.03243636354902932,0,70,255.0,255.0,255.0
315,15.75,-14.5384,-8.0039,-5.0549,-0.48385140930066217,-0.06038041373152836,-0.6056631215751693,-0.02165760992116983,-0.0029285554262685753,-0.03233344997055454,0,70,255.0,255.0,255.0
316,15.8,-14.562620125256352,-8.006922788414538,-5.085223363285579,-0.4849632565318239,-0.060533263523664414,-0.6072672177351185,-0.022816279325300764,-0.0031854362591732725,-0.031830396427410784,0,70,255.0,255.0,255.0
317,15.850000000000001,-14.58689729121102,-8.009953540419726,-5.1156263025622275,-0.4861330372331923,-0.06069895735744569,-0.6088461612179105,-0.0239749487294317,-0.0034423170920779697,-0.03132734288426703,0,70,255.0,255.0,255.0
318,15.9,-14.61123439453751,-8.012992898217645,-5.146107560196085,-0.48736075140476715,-0.060877495232872204,-0.6103999520235452,-0.025133618133562595,-0.0036991979249826577,-0.030824289341123287,0,70,255.0,255.0,255.0
319,15.950000000000001,-14.635634331909333,-8.016041504010374,-5.176665878553295,-0.4886463990465485,-0.061068877149943954,-0.6119285901520227,-0.02629228753769353,-0.0039560787578873545,-0.030321235797979528,0,70,255.0,255.0,255.0
320,16.0,-14.6601,-8.0191,-5.2073,-0.4899899801585365,-0.06127310310866093,-0.6134320756033432,-0.02745095694182398,-0.004212959590792209,-0.029818182254834902,0,70,255.0,255.0,255.0
321,16.05,-14.684633370004553,-8.022168521908807,-5.238008957811217,-0.4913359660324762,-0.06145978432129917,-0.6149278629098613,-0.02638847801576219,-0.003254288914737422,-0.03001331000588845,0,70,255.0,255.0,255.0
322,16.1,-14.709232711204143,-8.0252451795399,-5.268792948897446,-0.49262882796011276,-0.061598532000134675,-0.6164334066039321,-0.025325999089700405,-0.0022956182386826346,-0.030208437756942003,0,70,255.0,255.0,255.0
323,16.150000000000002,-14.733895367401457,-8.02832757621659,-5.299652461078069,-0.49386856594144624,-0.06168934614516744,-0.6179487066855556,-0.024263520163638617,-0.0013369475626278473,-0.030403565507995552,0,70,255.0,255.0,255.0
324,16.2,-14.758618682399181,-8.031413315262187,-5.33058798217246,-0.4950551799764766,-0.06173222675639747,-0.6194737631547317,-0.023201041237576908,-0.00037827688657312815,-0.03059869325904909,0,70,255.0,255.0,255.0
325,16.25,-14.7834,-8.0345,-5.3616,-0.49618867006520395,-0.06172717383382475,-0.6210085760114603,-0.02213856231151201,0.0005803937894821032,-0.0307938210100982,0,70,255.0,255.0,255.0
326,16.3,-14.808237594725444,-8.037586323950233,-5.39268880546956,-0.4973248793382826,-0.06173959919113447,-0.6225413306254386,-0.023309808611634803,-0.0010774080818710355,-0.03051636354903202,0,70,255.0,255.0,255.0
327,16.35,-14.83313346397241,-8.040675341420672,-5.423853901847994,-0.49851965092636746,-0.06183491464201186,-0.6240602123663636,-0.024481054911757595,-0.0027352099532241742,-0.030238906087965835,0,70,255.0,255.0,255.0
328,16.400000000000002,-14.858090535856663,-8.043771196915994,-5.455094595491647,-0.4997729848294584,-0.062013120186456896,-0.6255652212342352,-0.025652301211880384,-0.004393011824577312,-0.029961448626899655,0,70,255.0,255.0,255.0
329,16.45,-14.883111738493943,-8.046878034940878,-5.486410192756865,-0.5010848810475554,-0.06227421582446957,-0.6270563572290535,-0.026823547512003092,-0.006050813695930334,-0.029683991165833493,0,70,255.0,255.0,255.0
330,16.5,-14.9082,-8.05,-5.5178,-0.5024553395806587,-0.06261820155604991,-0.6285336203508184,-0.027994793812125884,-0.007708615567283417,-0.029406533704764648,0,70,255.0,255.0,255.0
331,16.55,-14.933357051093685,-8.053139782290257,-5.549263820310545,-0.5038125166144034,-0.06295781891417822,-0.630026814588387,-0.026292287537660084,-0.0058760787578488755,-0.030321235797980087,0,70,255.0,255.0,255.0
332,16.6,-14.958579832906214,-8.056294254777413,-5.580803443710584,-0.5050845683344247,-0.0632058094318348,-0.6315657439306165,-0.024589781263194284,-0.004043541948414334,-0.031235937891195525,0,70,255.0,255.0,255.0
333,16.650000000000002,-14.983864089171899,-8.059458836119434,-5.612421156955351,-0.5062714947407229,-0.06336217310901966,-0.6331504083775066,-0.022887274988728484,-0.002211005138979793,-0.032150639984410964,0,70,255.0,255.0,255.0
334,16.7,-15.009205563625056,-8.062628944974305,-5.644119246800077,-0.5073732958332975,-0.0634269099457328,-0.6347808079290574,-0.021184768714262805,-0.00037846832954538216,-0.033065342077626333,0,70,255.0,255.0,255.0
335,16.75,-15.0346,-8.0658,-5.6759,-0.5083899716121492,-0.06340001994197421,-0.6364569425852691,-0.019482262439797893,0.001454068479888826,-0.03398004417083733,0,70,255.0,255.0,255.0
336,16.8,-15.060044600899822,-8.068968946888733,-5.707764713288264,-0.5094090542040844,-0.06337312515214132,-0.6381194110210161,-0.021281041237614342,-0.00037827688657304055,-0.032518693259041574,0,70,255.0,255.0,255.0
337,16.85,-15.08554240440274,-8.072138839469687,-5.739710723309677,-0.5105180757359107,-0.06343784763063151,-0.6397088119111733,-0.023079820035430795,-0.002210622253034907,-0.031057342347245824,0,70,255.0,255.0,255.0
338,16.900000000000002,-15.111097907455747,-8.07531425860627,-5.771734376686957,-0.5117170362076277,-0.06359418737744481,-0.6412251452557407,-0.024878598833247244,-0.004042967619496774,-0.029595991435450067,0,70,255.0,255.0,255.0
339,16.95,-15.136715607005835,-8.078499785161902,-5.803832020042823,-0.5130059356192352,-0.06384214439258118,-0.6426684110547182,-0.026677377631063568,-0.00587531298595851,-0.028134640523654417,0,70,255.0,255.0,255.0
340,17.0,-15.1624,-8.0817,-5.836,-0.5143847739707339,-0.06418171867604065,-0.644038609308106,-0.028476156428880017,-0.007707658352420155,-0.026673289611856,0,70,255.0,255.0,255.0
341,17.05,-15.188154145307024,-8.084918030154801,-5.868235726536401,-0.5157672665692569,-0.06452568047725027,-0.6453995413275478,-0.026823547512037013,-0.0060508136959642285,-0.027763991165819683,0,70,255.0,255.0,255.0
342,17.1,-15.213975349482828,-8.088151187343843,-5.9005408630507175,-0.5170671287219376,-0.06478680004563708,-0.646815008424688,-0.025170938595194012,-0.004393969039508302,-0.028854692719783366,0,70,255.0,255.0,255.0
343,17.150000000000002,-15.239859481005121,-8.091395329455485,-5.932918136296833,-0.5182843604287762,-0.06496507738120111,-0.6482850105995264,-0.02351832967835101,-0.0027371243830523768,-0.029945394273747053,0,70,255.0,255.0,255.0
344,17.2,-15.265802408351608,-8.094646314378084,-5.96537027302863,-0.5194189616897726,-0.06506051248394232,-0.6498095478520627,-0.021865720761508126,-0.0010802797265965685,-0.03103609582771066,0,70,255.0,255.0,255.0
345,17.25,-15.2918,-8.0979,-5.9979,-0.5204709325049272,-0.06507310535386075,-0.6513886201822973,-0.02021311184466601,0.0005765649298595799,-0.03212679738167612,0,70,255.0,255.0,255.0
346,17.3,-15.317849217872082,-8.101153332492053,-6.030509180566132,-0.5215058795188987,-0.0650681529388529,-0.6529704236687804,-0.021184768714195293,-0.00037846832954552517,-0.031145342077646795,0,70,255.0,255.0,255.0
347,17.35,-15.343951397665949,-8.104407611154935,-6.063196224487458,-0.5225894093763467,-0.0651109521868153,-0.654503154390062,-0.022156425583724576,-0.0013335015889506302,-0.03016388677361747,0,70,255.0,255.0,255.0
348,17.400000000000002,-15.370108968523775,-8.107665223571784,-6.09595867812572,-0.5237215220772712,-0.06520150309774797,-0.6559868123461422,-0.02312808245325386,-0.002288534848355735,-0.029182431469588148,0,70,255.0,255.0,255.0
349,17.45,-15.396324359587732,-8.110928557325758,-6.1287940878426515,-0.524902217621672,-0.06533980567165086,-0.6574213975370207,-0.024099739322783073,-0.003243568107760772,-0.028200976165558892,0,70,255.0,255.0,255.0
350,17.5,-15.4226,-8.1142,-6.1617,-0.5261314960095494,-0.06552585990852403,-0.6588069099626981,-0.025071396192308804,-0.004198601367165322,-0.027219520861530455,0,70,255.0,255.0,255.0
351,17.55,-15.448937783204649,-8.117481439876977,-6.194674751199071,-0.5273772153551347,-0.06572970776735139,-0.660190763997328,-0.02475737763110057,-0.003955312985928701,-0.028134640523669333,0,70,255.0,255.0,255.0
352,17.6,-15.47533745985338,-8.120772768036417,-6.227719838999452,-0.5286072337726595,-0.0659213912071169,-0.6616203740150651,-0.024443359069892336,-0.003712024604692081,-0.02904976018580821,0,70,255.0,255.0,255.0
353,17.650000000000002,-15.501798244899783,-8.124073376257371,-6.2608375512002965,-0.5298215512621239,-0.0661009102278206,-0.663095740015909,-0.024129340508684104,-0.0034687362234554603,-0.029964879847947084,0,70,255.0,255.0,255.0
354,17.7,-15.528319353297455,-8.127382656318883,-6.29403017560076,-0.5310201678235279,-0.06626826482946244,-0.6646168619998597,-0.02381532194747589,-0.0032254478422188574,-0.030879999510085895,0,70,255.0,255.0,255.0
355,17.75,-15.5549,-8.1307,-6.3273,-0.5322030834568714,-0.06642345501204246,-0.6661837399669174,-0.02350130338626677,-0.0029821594609816815,-0.031795119172223885,0,70,255.0,255.0,255.0
356,17.8,-15.581539649309315,-8.134024908000038,-6.360648614637586,-0.5333852590605666,-0.0665730159917318,-0.667754520341915,-0.023785720761539512,-0.003000279726591937,-0.031036095827677267,0,70,255.0,255.0,255.0
357,17.85,-15.608238762920537,-8.137357316699394,-6.3940748195147386,-0.5345816555330254,-0.06672348298470165,-0.6692873495496852,-0.024070138136812254,-0.0030183999922021925,-0.030277072483130652,0,70,255.0,255.0,255.0
358,17.900000000000002,-15.6349980518771,-8.14069727139873,-6.427576717073101,-0.5357922728742478,-0.06687485599095203,-0.670782227590228,-0.024354555512085,-0.003036520257812448,-0.029518049138584038,0,70,255.0,255.0,255.0
359,17.95,-15.66181822722244,-8.14404481739871,-6.461152409754306,-0.5370171110842339,-0.0670271350104829,-0.6722391544635435,-0.02463897288735772,-0.0030546405234227023,-0.028759025794037475,0,70,255.0,255.0,255.0
360,18.0,-15.6887,-8.1474,-6.4948,-0.5382561701629837,-0.06718032004329429,-0.6736581301696317,-0.024923390262634904,-0.003072760789032958,-0.02800000244948908,0,70,255.0,255.0,255.0
361,18.05,-15.715643619558085,-8.150762928122866,-6.5285179902505925,-0.5394817484026174,-0.06733822826571582,-0.6750631546350083,-0.024099739322714864,-0.0032435681078288228,-0.028200976165576288,0,70,255.0,255.0,255.0
362,18.1,-15.74264748846448,-8.154133965166002,-6.562306482941598,-0.5406661440952553,-0.06750467685407717,-0.6764782277861894,-0.023276088382794824,-0.0034143754266246877,-0.028401949881663495,0,70,255.0,255.0,255.0
363,18.150000000000002,-15.76970954759183,-8.157513538147706,-6.596165980507308,-0.541809357240897,-0.0676796658083783,-0.6779033496231748,-0.022452437442874784,-0.0035851827454205527,-0.028602923597750705,0,70,255.0,255.0,255.0
364,18.2,-15.796827737812785,-8.160902074086273,-6.630096985382011,-0.5429113878395426,-0.06786319512861923,-0.6793385201459644,-0.0216287865029548,-0.0037559900642164055,-0.0288038973138379,0,70,255.0,255.0,255.0
365,18.25,-15.824,-8.1643,-6.6641,-0.5439722358911924,-0.06805526481479995,-0.6807837393545585,-0.02080513556303476,-0.0039267973830123815,-0.029004871029925106,0,70,255.0,255.0,255.0
366,18.3,-15.851225072458341,-8.167707379508494,-6.698175424360049,-0.5450397473289552,-0.06823407094542902,-0.6822328611180589,-0.0218953219474786,-0.003225447842150321,-0.02895999951008985,0,70,255.0,255.0,255.0
367,18.35,-15.87850488322155,-8.171122822636592,-6.732323248718874,-0.5461617680859402,-0.06837780959901499,-0.6836797393055675,-0.022985508331922443,-0.00252409830128826,-0.028915127990254596,0,70,255.0,255.0,255.0
368,18.400000000000002,-15.90584215775559,-8.174544576010444,-6.766543360897674,-0.5473382981621475,-0.06848648077555786,-0.6851243739170845,-0.024075694716366284,-0.0018227487604261993,-0.02887025647041934,0,70,255.0,255.0,255.0
369,18.45,-15.933239621526418,-8.177970886256198,-6.800835648717648,-0.5485693375575768,-0.06856008447505761,-0.6865667649526094,-0.025165881100810045,-0.0011213992195641888,-0.02882538495058409,0,70,255.0,255.0,255.0
370,18.5,-15.9607,-8.1814,-6.8352,-0.5498548862722286,-0.06859862069751427,-0.6880069124121428,-0.02625606748525655,-0.0004200496787019059,-0.028780513430751498,0,70,255.0,255.0,255.0
371,18.55,-15.988224890608553,-8.18483075384316,-6.869636312309214,-0.5511272622815457,-0.0686374879525675,-0.6894454008927617,-0.024638972887428754,-0.0011346405234270763,-0.02875902579400318,0,70,255.0,255.0,255.0
372,18.6,-16.015811378649325,-8.188264344287626,-6.904144522182913,-0.5523187835609715,-0.06871208474985697,-0.6908828149915431,-0.02302187828960096,-0.0018492313681522468,-0.02873753815725486,0,70,255.0,255.0,255.0
373,18.650000000000002,-16.04345542138582,-8.191702557810515,-6.938724575902007,-0.5534294501105058,-0.06882241108938272,-0.6923191547084873,-0.021404783691773163,-0.0025638222128774174,-0.02871605052050654,0,70,255.0,255.0,255.0
374,18.7,-16.071152976081542,-8.195147180888934,-6.973376419747397,-0.5544592619301487,-0.06896846697114471,-0.6937544200435938,-0.01978768909394548,-0.003278413057602537,-0.028694562883758223,0,70,255.0,255.0,255.0
375,18.75,-16.0989,-8.1986,-7.0081,-0.5554082190199003,-0.06915025239514297,-0.695188610996863,-0.018170594496119463,-0.003993003902327041,-0.028673075247009905,0,70,255.0,255.0,255.0
376,18.8,-16.12669376510745,-8.20206240511887,-7.042895326403097,-0.5563552035448757,-0.06934397724430655,-0.696625535310885,-0.019708786502891252,-0.0037559900642162936,-0.028803897313871476,0,70,255.0,255.0,255.0
377,18.85,-16.154536802181163,-8.2055342002129,-7.077762662549478,-0.5573790976701894,-0.0695258514015646,-0.6980690007282502,-0.021246978509663037,-0.003518976226105546,-0.028934719380733047,0,70,255.0,255.0,255.0
378,18.900000000000002,-16.182432956701142,-8.209014792747494,-7.112702335494312,-0.558479901395842,-0.06969587486691711,-0.6995190072489584,-0.022785170516434826,-0.003281962387994798,-0.029065541447594618,0,70,255.0,255.0,255.0
379,18.95,-16.21038607414742,-8.212503590188062,-7.147714672292762,-0.5596576147218328,-0.06985404764036408,-0.7009755548730097,-0.024323362523206504,-0.0030449485498840667,-0.02919636351445618,0,70,255.0,255.0,255.0
380,19.0,-16.2384,-8.216,-7.1828,-0.5609122376481624,-0.0700003697219055,-0.702438643600404,-0.025861554529977404,-0.002807934711772986,-0.029327185581321302,0,70,255.0,255.0,255.0
381,19.05,-16.26647764896164,-8.219503625681362,-7.217958382078401,-0.5621879235389331,-0.07014660307018881,-0.7038924578637018,-0.02516588110084558,-0.003041399219559685,-0.0288253849505871,0,70,255.0,255.0,255.0
382,19.1,-16.294618212626034,-8.223014854860775,-7.25318882761918,-0.563428825758247,-0.07030450964386148,-0.7053211820954627,-0.024470207671713755,-0.0032748637273463843,-0.0283235843198529,0,70,255.0,255.0,255.0
383,19.150000000000002,-16.32281995180961,-8.226534271199505,-7.288490082120757,-0.5646349443061045,-0.07047408944292347,-0.7067248162956871,-0.023774534242581927,-0.0035083282351330834,-0.027821783689118695,0,70,255.0,255.0,255.0
384,19.200000000000003,-16.35108112732879,-8.230062458358823,-7.323860891081556,-0.5658062791825053,-0.07065534246737479,-0.7081033604643746,-0.023078860813450102,-0.003741792742919783,-0.027319983058384494,0,70,255.0,255.0,255.0
385,19.25,-16.3794,-8.2336,-7.3593,-0.5669428303874494,-0.07084826871721542,-0.7094568146015254,-0.022383187384314773,-0.00397525725070591,-0.02681818242764855,0,70,255.0,255.0,255.0
386,19.3,-16.407774839045985,-8.237147092155675,-7.3948063452833015,-0.5680451022994059,-0.07102961047492483,-0.7107966332343097,-0.02170768909394044,-0.003278413057670394,-0.02677456288372717,0,70,255.0,255.0,255.0
387,19.35,-16.4362039473147,-8.240702380343999,-7.430379626973812,-0.5691135992968435,-0.07117611002298246,-0.7121342708898982,-0.021032190803566112,-0.002581568864634878,-0.026730943339805788,0,70,255.0,255.0,255.0
388,19.400000000000002,-16.464685636060427,-8.24426412245448,-7.466019736022672,-0.5701483213797625,-0.07128776736138832,-0.7134697275682904,-0.02035669251319178,-0.0018847246715993616,-0.02668732379588441,0,70,255.0,255.0,255.0
389,19.450000000000003,-16.493218216537436,-8.247830576376643,-7.501726563381023,-0.5711492685481627,-0.0713645824901424,-0.7148030032694866,-0.01968119422281745,-0.0011878804785638458,-0.026643704251963028,0,70,255.0,255.0,255.0
390,19.5,-16.5218,-8.2514,-7.5375,-0.572116440802044,-0.07140655540924469,-0.7161340979934866,-0.01900569593244228,-0.0004910362855280459,-0.026600084708035432,0,70,255.0,255.0,255.0
391,19.55,-16.55043019485443,-8.25497120569593,-7.573340236788395,-0.5731036672634355,-0.0714469550301284,-0.7174810091990494,-0.020483362523215497,-0.0011249485498201796,-0.027276363514477542,0,70,255.0,255.0,255.0
392,19.6,-16.57911159811517,-8.258545223763234,-7.609248664485578,-0.5741647770543656,-0.07151905026422671,-0.7188617343449344,-0.021961029113988714,-0.0017588608141123133,-0.027952642320919648,0,70,255.0,255.0,255.0
393,19.650000000000002,-16.60784790394869,-8.262123638982573,-7.645226973788562,-0.5752997701748345,-0.07162284111153963,-0.7202762734311414,-0.023438695704761932,-0.002392773078404447,-0.028628921127361758,0,70,255.0,255.0,255.0
394,19.700000000000003,-16.63664280652148,-8.265708036134606,-7.6812768553943656,-0.5765086466248418,-0.07175832757206717,-0.7217246264576705,-0.02491636229553515,-0.0030266853426965806,-0.029305199933803865,0,70,255.0,255.0,255.0
395,19.75,-16.6655,-8.2693,-7.7174,-0.5777914064043879,-0.0719255096458093,-0.7232067934245217,-0.02639402888631004,-0.0036605976069887802,-0.02998147874024326,0,70,255.0,255.0,255.0
396,19.8,-16.6944219815363,-8.272900885060604,-7.753597507563118,-0.5790762286468817,-0.07211056940455701,-0.7246873299694877,-0.024998860813445115,-0.0037417927429195265,-0.02923998305839709,0,70,255.0,255.0,255.0
397,19.85,-16.723406460224627,-8.276511124603068,-7.78986811508388,-0.5802912924857324,-0.07229968892010125,-0.7261307917303614,-0.02360369274058019,-0.0038229878788502724,-0.02849848737655092,0,70,255.0,255.0,255.0
398,19.900000000000002,-16.75244994814481,-8.280130921615228,-7.826209968823086,-0.5814365979209398,-0.07249286819244204,-0.7275371787071427,-0.022208524667715265,-0.0039041830147810187,-0.027756991694704747,0,70,255.0,255.0,255.0
399,19.950000000000003,-16.781548957376664,-8.283760479084927,-7.8626212150415284,-0.5825121449525039,-0.07269010722157936,-0.728906490899832,-0.02081335659485034,-0.003985378150711765,-0.02701549601285858,0,70,255.0,255.0,255.0
400,20.0,-16.8107,-8.2874,-7.8991,-0.5835179335804248,-0.0728914060075132,-0.7302387283084286,-0.01941818852198729,-0.004066573286642505,-0.026274000331010683,0,70,255.0,255.0,255.0
401,20.05,-16.839900279000382,-8.291049254061647,-7.935644932959136,-0.5844954181490432,-0.07307076735164411,-0.7315616709230024,-0.019681194222748746,-0.003107880478593281,-0.026643704251942783,0,70,255.0,255.0,255.0
402,20.1,-16.86914976098632,-8.29470627782449,-7.972256475178901,-0.5854860530026997,-0.07320219405537254,-0.7329030987336229,-0.019944199923510205,-0.0021491876705440564,-0.027013408172874887,0,70,255.0,255.0,255.0
403,20.150000000000002,-16.898449103472068,-8.298368674556512,-8.008935550919102,-0.5864898381413943,-0.07328568611869851,-0.73426301174029,-0.02020720562427166,-0.0011904948624948323,-0.027383112093806988,0,70,255.0,255.0,255.0
404,20.200000000000003,-16.927798963971885,-8.302034047525687,-8.045683084439533,-0.5875067735651269,-0.07332124354162202,-0.7356414099430036,-0.02047021132503312,-0.00023180205444560788,-0.027752816014739088,0,70,255.0,255.0,255.0
405,20.25,-16.9572,-8.3057,-8.0825,-0.5885368592738975,-0.07330886632414306,-0.7370382933417637,-0.02073321702579456,0.0007268907536038816,-0.0281225199356685,0,70,255.0,255.0,255.0
406,20.3,-16.986652902462172,-8.309365298692803,-8.11938676060034,-0.5895820987569327,-0.07331836118886963,-0.7384259863385007,-0.021076362295612588,-0.0011066853426669836,-0.027385199933806514,0,70,255.0,255.0,255.0
407,20.35,-17.016158495830087,-8.313033364098969,-8.156341984200516,-0.5906444955034588,-0.07341953485840977,-0.7397768133351444,-0.021419507565430616,-0.0029402614389378487,-0.02664787993194453,0,70,255.0,255.0,255.0
408,20.400000000000002,-17.045717637966913,-8.316708780158725,-8.193363827500521,-0.5917240495134758,-0.07361238733276343,-0.7410907743316951,-0.021762652835248645,-0.0047738375352087145,-0.025910559930082545,0,70,255.0,255.0,255.0
409,20.450000000000003,-17.075331186735824,-8.320396130812323,-8.23045044720035,-0.5928207607869838,-0.07389691861193064,-0.7423678693281527,-0.022105798105066674,-0.006607413631479579,-0.025173239928220563,0,70,255.0,255.0,255.0
410,20.5,-17.105,-8.3241,-8.2676,-0.5939346293239824,-0.07427312869591135,-0.7436080983245172,-0.022448943374884678,-0.008440989727749981,-0.024435919926359517,0,70,255.0,255.0,255.0
411,20.55,-17.134724911150926,-8.327823151167133,-8.304811224639502,-0.5950641868232257,-0.07463178789287364,-0.7448463837229978,-0.022733356594846658,-0.005905378150741356,-0.025095496012862747,0,70,255.0,255.0,255.0
412,20.6,-17.16450665569334,-8.331561065779638,-8.34208518801904,-0.5962079649834672,-0.0748636665109855,-0.7461176479258036,-0.023017769814808638,-0.0033697665737327303,-0.02575507209936598,0,70,255.0,255.0,255.0
413,20.650000000000002,-17.194345944660288,-8.335307404808582,-8.379423539078823,-0.5973659638047066,-0.07496876455024691,-0.7474218909329344,-0.02330218303477062,-0.0008341549967241044,-0.02641464818586921,0,70,255.0,255.0,255.0
414,20.700000000000003,-17.224243489084824,-8.339055829225016,-8.416827926759073,-0.5985381832869442,-0.0749470820106579,-0.7487591127443906,-0.0235865962547326,0.0017014565802845206,-0.02707422427237244,0,70,255.0,255.0,255.0
415,20.75,-17.2542,-8.3428,-8.4543,-0.59972462343018,-0.07479861889221848,-0.7501293133601717,-0.023871009474693672,0.004237068157292745,-0.027733800358876515,0,70,255.0,255.0,255.0
416,20.8,-17.284215452934124,-8.346535696638671,-8.491841140841647,-0.600881153950173,-0.07465048723964655,-0.7515164787695118,-0.02239021132502772,0.0016881979455839772,-0.02775281601472006,0,70,255.0,255.0,255.0
417,20.85,-17.314286881396562,-8.350267172782475,-8.529451663723332,-0.6019636445626828,-0.07462979909766007,-0.7529045949616437,-0.020909413175361772,-0.0008606722661247904,-0.02777183167056361,0,70,255.0,255.0,255.0
418,20.900000000000002,-17.344410583391934,-8.354000800606945,-8.567131616184193,-0.6029720952677092,-0.07473655446625904,-0.7542936619365681,-0.01942861502569582,-0.003409542477833558,-0.027790847326407155,0,70,255.0,255.0,255.0
419,20.950000000000003,-17.374582856924874,-8.35774295228761,-8.60488104576337,-0.6039065060652524,-0.07497075334544344,-0.7556836796942845,-0.01794781687602987,-0.005958412689542326,-0.027809862982250702,0,70,255.0,255.0,255.0
420,21.0,-17.4048,-8.3615,-8.6427,-0.6047668769553122,-0.07533239573521326,-0.7570746482347931,-0.0164670187263658,-0.008507282901250801,-0.02782887863809247,0,70,255.0,255.0,255.0
421,21.05,-17.435059677112587,-8.36527646227819,-8.680588211993907,-0.6056351973760966,-0.0757102631485315,-0.7584477011989517,-0.018265798105008304,-0.0066074136314790925,-0.027093239928250225,0,70,255.0,255.0,255.0
422,21.1,-17.465365018720426,-8.36906944309046,-8.718544157087637,-0.606593456765813,-0.07599313709836117,-0.7597839722276182,-0.02006457748365081,-0.004707544361707385,-0.02635760121840798,0,70,255.0,255.0,255.0
423,21.150000000000002,-17.495720521771982,-8.372874192763636,-8.756565996184413,-0.6076416551244617,-0.07618101758470226,-0.7610834613207925,-0.021863356862293314,-0.002807675091935676,-0.025621962508565733,0,70,255.0,255.0,255.0
424,21.200000000000003,-17.52613068321569,-8.37668596162454,-8.794651890187462,-0.6087797924520424,-0.07627390460755475,-0.7623461684784748,-0.02366213624093582,-0.0009078058221639682,-0.02488632379872349,0,70,255.0,255.0,255.0
425,21.25,-17.5566,-8.3805,-8.8328,-0.6100078687485551,-0.07627179816691865,-0.7635720937006648,-0.02546091561957553,0.0009920634476081602,-0.024150685088877744,0,70,255.0,255.0,255.0
426,21.3,-17.58713143861555,-8.384312854248563,-8.87100921118272,-0.6112340565454144,-0.07625246016622207,-0.7648047164346953,-0.023586596254800057,-0.00021854341974522694,-0.02515422427234261,0,70,255.0,255.0,255.0
427,21.35,-17.61772184372174,-8.38812625485568,-8.909281307926124,-0.6123665283740352,-0.07629365250889317,-0.7660875161278992,-0.021712276890024588,-0.001429150287098614,-0.026157763455807476,0,70,255.0,255.0,255.0
428,21.400000000000002,-17.64836652952015,-8.391943228338508,-8.947618799078166,-0.613405284234417,-0.07639537519493193,-0.7674204927802761,-0.019837957525249115,-0.002639757154452001,-0.02716130263927234,0,70,255.0,255.0,255.0
429,21.450000000000003,-17.679060810212377,-8.395766801214227,-8.986024193486807,-0.61435032412656,-0.07655762822433838,-0.7688036463918263,-0.017963638160473642,-0.0038503640218053884,-0.028164841822737208,0,70,255.0,255.0,255.0
430,21.5,-17.7098,-8.3996,-9.0245,-0.6152016480504643,-0.07678041159711245,-0.7702369769625499,-0.016089318795696528,-0.005060970889158134,-0.02916838100619934,0,70,255.0,255.0,255.0
431,21.55,-17.74058096842522,-8.40344492072755,-9.063047743275208,-0.6160525764422575,-0.07700789618658008,-0.7716614330622611,-0.017947816876030514,-0.0040384126895466185,-0.027809862982249082,0,70,255.0,255.0,255.0
432,21.6,-17.77140680639263,-8.407299937486824,-9.101665011207874,-0.6169964297380673,-0.07718425286606712,-0.7730179632607748,-0.0198063149563645,-0.0030158544899351034,-0.026451344958298824,0,70,255.0,255.0,255.0
433,21.650000000000002,-17.80228216014743,-8.411162493882324,-9.140348407502934,-0.618033207937894,-0.0773094816355736,-0.7743065675580911,-0.021664813036698483,-0.001993296290323588,-0.025092826934348562,0,70,255.0,255.0,255.0
434,21.700000000000003,-17.83321167593482,-8.41503003351855,-9.17909453586533,-0.6191629110417373,-0.07738358249509948,-0.7755272459542097,-0.02352331111703247,-0.0009707380907120729,-0.023734308910398304,0,70,255.0,255.0,255.0
435,21.75,-17.8642,-8.4189,-9.2179,-0.6203855390495973,-0.0774065554446448,-0.7766799984491307,-0.025381809197365435,5.182010889981381e-05,-0.022375790886449032,0,70,255.0,255.0,255.0
436,21.8,-17.89525028768358,-8.422770662841234,-9.256762215716446,-0.621611637685553,-0.07742795508747555,-0.777813551316261,-0.02366213624086535,-0.0009078058221296284,-0.02296632379876212,0,70,255.0,255.0,255.0
437,21.85,-17.926359730707762,-8.426643595197026,-9.295681847242387,-0.6227517526736838,-0.07749733602685777,-0.778976630829007,-0.021942463284365263,-0.0018674317531590706,-0.023556856711075207,0,70,255.0,255.0,255.0
438,21.900000000000002,-17.95752402989015,-8.430521196132196,-9.334660370910107,-0.6238058840139896,-0.07761469826279145,-0.7801692369873685,-0.020222790327865173,-0.002827057684188513,-0.024147389623388298,0,70,255.0,255.0,255.0
439,21.950000000000003,-17.988738886048363,-8.43440586471158,-9.373699263051886,-0.6247740317064704,-0.07778004179527662,-0.7813913697913458,-0.018503117371365087,-0.003786683615217955,-0.024737922535701385,0,70,255.0,255.0,255.0
440,22.0,-18.02,-8.4383,-9.4128,-0.625656195751126,-0.07799336662431325,-0.7826430292409386,-0.01678344441486246,-0.00474630954624744,-0.025328455448016207,0,70,255.0,255.0,255.0
441,22.05,-18.051304280840466,-8.442205227907511,-9.451964193859013,-0.6265248728155111,-0.07820828346351456,-0.783932361672706,-0.01796363816054091,-0.0038503640218050844,-0.026244841822673427,0,70,255.0,255.0,255.0
442,22.1,-18.08265347077634,-8.44612008172508,-9.491193999822585,-0.6274525595671802,-0.07837840302649375,-0.7852675134232061,-0.019143831906219367,-0.0029544184973627286,-0.027161228197330647,0,70,255.0,255.0,255.0
443,22.150000000000002,-18.114050520291975,-8.45004232158889,-9.530491708856648,-0.628439256006133,-0.07850372531325085,-0.786648484492439,-0.02032402565189782,-0.0020584729729203727,-0.028077614571987868,0,70,255.0,255.0,255.0
444,22.200000000000003,-18.145498379871743,-8.453969707635137,-9.569859611927141,-0.6294849621323699,-0.0785842503237858,-0.7880752748804049,-0.021504219397576275,-0.0011625274484780169,-0.02899400094664509,0,70,255.0,255.0,255.0
445,22.25,-18.177,-8.4579,-9.6093,-0.6305896779458906,-0.07861997805809866,-0.7895478845871033,-0.022684413143251092,-0.0002665819240362799,-0.029910387321297804,0,70,255.0,255.0,255.0
446,22.3,-18.208557388954542,-8.461831625528713,-9.648813808847503,-0.6316968710523978,-0.07865091105846822,-0.7909850019928965,-0.021603311117036113,-0.0009707380907462026,-0.02757430891042173,0,70,255.0,255.0,255.0
447,22.35,-18.240168786186885,-8.465765677902654,-9.688396553467282,-0.6327500090575943,-0.07871705186717329,-0.7923053154781455,-0.020522209090821135,-0.0016748942574561253,-0.025238230499545655,0,70,255.0,255.0,255.0
448,22.400000000000002,-18.27183148894195,-8.469703917512236,-9.728042393663308,-0.63374909196148,-0.07881840048421383,-0.793508825042851,-0.019441107064606153,-0.0023790504241660484,-0.02290215208866958,0,70,255.0,255.0,255.0
449,22.450000000000003,-18.30354279446468,-8.473648104747879,-9.767745489239559,-0.6346941197640549,-0.07895495690958988,-0.7945955306870125,-0.018360005038391174,-0.0030832065908759708,-0.020566073677793506,0,70,255.0,255.0,255.0
450,22.5,-18.3353,-8.4776,-9.8075,-0.635585092465319,-0.07912672114330142,-0.7955654324106302,-0.017278903012176272,-0.0037873627575858437,-0.018229995266914933,0,70,255.0,255.0,255.0
451,22.55,-18.367101363341348,-8.481561069977637,-9.847302170750977,-0.6364796429749076,-0.07931607230262067,-0.7965436303556968,-0.018503117371364314,-0.0037866836151837944,-0.02089792253574551,0,70,255.0,255.0,255.0
452,22.6,-18.398948984476124,-8.48553160666431,-9.887156586308295,-0.6374354042024555,-0.0795053895048198,-0.7976552246642047,-0.019727331730552355,-0.0037860044727817455,-0.023565849804576086,0,70,255.0,255.0,255.0
453,22.650000000000002,-18.43084592394023,-8.489511608362166,-9.927069916490122,-0.6384523761479628,-0.07969467274989885,-0.7989002153361544,-0.0209515460897404,-0.0037853253303796962,-0.026233777073406662,0,70,255.0,255.0,255.0
454,22.700000000000003,-18.462795242269557,-8.493501073373348,-9.967048831114635,-0.6395305588114296,-0.07988392203785778,-0.8002786023715455,-0.022175760448928442,-0.0037846461879776474,-0.02890170434223724,0,70,255.0,255.0,255.0
455,22.75,-18.4948,-8.4975,-10.0071,-0.6406699521928556,-0.0800731373686966,-0.801790385770378,-0.02339997480811462,-0.003783967045575376,-0.031569631611069404,0,70,255.0,255.0,255.0
456,22.8,-18.526861957680065,-8.501508094560743,-10.047227908148589,-0.6417925570479962,-0.08024479973104784,-0.80330447658432,-0.021504219397505835,-0.003082527448473783,-0.02899400094660983,0,70,255.0,255.0,255.0
457,22.85,-18.558977675908626,-8.505523895440108,-10.087428301299546,-0.6428203741326062,-0.08038139011354398,-0.804689785865039,-0.019608463986897053,-0.0023810878513721902,-0.026418370282150255,0,70,255.0,255.0,255.0
458,22.900000000000002,-18.591142415297156,-8.5095456490391,-10.127694740376207,-0.6437534034466859,-0.08048290851618506,-0.805946313612535,-0.017712708576288268,-0.001679648254270597,-0.023842739617690678,0,70,255.0,255.0,255.0
459,22.950000000000003,-18.62335143645712,-8.513571601758729,-10.168020786301913,-0.644591644990235,-0.08054935493897104,-0.8070740598268081,-0.015816953165679486,-0.000978208657169004,-0.021267108953231105,0,70,255.0,255.0,255.0
460,23.0,-18.6556,-8.5176,-10.2084,-0.6453350987632537,-0.08058072938190196,-0.8080730245078582,-0.013921197755069947,-0.000276769060067239,-0.018691478288774377,0,70,255.0,255.0,255.0
461,23.05,-18.68788520593839,-8.521629751779392,-10.248827796654666,-0.6460941288330903,-0.0806167287731765,-0.8090544633070225,-0.01644000503839628,-0.00116320659091448,-0.020566073677792243,0,70,255.0,255.0,255.0
462,23.1,-18.720211511889378,-8.52566241157526,-10.289307008493525,-0.6469790992670933,-0.0806970500409934,-0.8101296318756375,-0.018958812321722612,-0.002049644121761721,-0.022440669066810113,0,70,255.0,255.0,255.0
463,23.150000000000002,-18.75258521487117,-8.529700195481434,-10.329842322005055,-0.6479900100652626,-0.08082169318535268,-0.8112985302137035,-0.021477619605048945,-0.0029360816526089618,-0.024315264455827983,0,70,255.0,255.0,255.0
464,23.200000000000003,-18.785012611901976,-8.533745319591738,-10.370438423677724,-0.6491268612275982,-0.08099065820625431,-0.8125611583212203,-0.023996426888375277,-0.003822519183456203,-0.02618985984484585,0,70,255.0,255.0,255.0
465,23.25,-18.8175,-8.5378,-10.4111,-0.6503896527541001,-0.08120394510369827,-0.813917516198188,-0.02651523417170143,-0.0047089567143030475,-0.028064455233863583,0,70,255.0,255.0,255.0
466,23.3,-18.85005161856637,-8.541865698321693,-10.451830505232746,-0.6516549276196175,-0.08141628517625443,-0.8152936701875907,-0.024095760448991543,-0.003784646187943417,-0.026981704342241727,0,70,255.0,255.0,255.0
467,23.35,-18.882663476533857,-8.545940858258854,-10.49262846472635,-0.6527992287989993,-0.08158240972249262,-0.8166156866324121,-0.021676286726281656,-0.0028603356615837863,-0.02589895345061987,0,70,255.0,255.0,255.0
468,23.400000000000002,-18.915329525218166,-8.550023169035171,-10.533491171603579,-0.6538225562922456,-0.08170231874241281,-0.8178835655326526,-0.01925681300357177,-0.0019360251352241557,-0.02481620255899801,0,70,255.0,255.0,255.0
469,23.450000000000003,-18.948043715934983,-8.554110319874324,-10.574415918987206,-0.6547249100993565,-0.08177601223601504,-0.819097306888312,-0.016837339280861882,-0.0010117146088645251,-0.023733451667376153,0,70,255.0,255.0,255.0
470,23.5,-18.9808,-8.5582,-10.6154,-0.6555062902203317,-0.08180349020329927,-0.8202569106993902,-0.014417865558147724,-8.740408250473841e-05,-0.022650700775752597,0,70,255.0,255.0,255.0
471,23.55,-19.013593919796133,-8.56229065493384,-10.656441382414346,-0.6562621606884272,-0.08183013052179111,-0.8214028559426148,-0.01581695316567748,-0.0009782086571689457,-0.023187108953227672,0,70,255.0,255.0,255.0
472,23.6,-19.04642738197518,-8.566383755389325,-10.697540732601077,-0.6570879855368995,-0.08190131106901616,-0.822575621594713,-0.017216040773207236,-0.001869013231833153,-0.023723517130702747,0,70,255.0,255.0,255.0
473,23.650000000000002,-19.079303884256163,-8.570481528377886,-10.738699391580633,-0.657983764765748,-0.08201703184497444,-0.823775207655685,-0.018615128380736992,-0.00275981780649736,-0.02425992530817782,0,70,255.0,255.0,255.0
474,23.700000000000003,-19.112226924358097,-8.574586200910966,-10.779918700373461,-0.6589494983749732,-0.0821772928496659,-0.8250016141255309,-0.020014215988266748,-0.0036506223811615677,-0.024796333485652897,0,70,255.0,255.0,255.0
475,23.75,-19.1452,-8.5787,-10.8212,-0.6599851863645747,-0.08238209408309059,-0.8262548410042504,-0.021413303595791078,-0.0045414269558262665,-0.025332741663127045,0,70,255.0,255.0,255.0
476,23.8,-19.178225502249095,-8.582824481942945,-10.862543965109866,-0.6610244296266791,-0.0825911927365735,-0.8274949060419498,-0.02015642688838282,-0.003822519183490248,-0.024269859844849667,0,70,255.0,255.0,255.0
477,23.85,-19.211301395565414,-8.586958520183847,-10.903948604869345,-0.662000829053413,-0.08276434600143963,-0.8286818269887354,-0.018899550180974563,-0.0031036114111542296,-0.023206978026572293,0,70,255.0,255.0,255.0
478,23.900000000000002,-19.24442453775718,-8.591100317453277,-10.945411262073891,-0.6629143846447765,-0.08290155387768892,-0.8298156038446071,-0.01764267347356631,-0.002384703638818211,-0.022144096208294915,0,70,255.0,255.0,255.0
479,23.950000000000003,-19.277591786632634,-8.595248076481806,-10.98692927951896,-0.6637650964007696,-0.08300281636532145,-0.8308962366095649,-0.01638579676615805,-0.0016657958664821927,-0.02108121439001754,0,70,255.0,255.0,255.0
480,24.0,-19.3108,-8.5994,-11.0285,-0.6645529643213923,-0.08306813346433715,-0.8319237252836089,-0.015128920058748108,-0.0009468880941462254,-0.020018332571741126,0,70,255.0,255.0,255.0
481,24.05,-19.344047271207483,-8.603554617294382,-11.070121957146185,-0.6653521208048808,-0.08311709853191242,-0.8329695198895869,-0.016837339280791876,-0.001011714608864379,-0.021813451667380006,0,70,255.0,255.0,255.0
482,24.1,-19.37733663576317,-8.607711763875285,-11.111798447921538,-0.6662366982494715,-0.08316930492522359,-0.834105070450347,-0.018545758502835644,-0.0010765411235825325,-0.023608570763018883,0,70,255.0,255.0,255.0
483,24.150000000000002,-19.41067236471512,-8.611871601809002,-11.1535339601238,-0.6672066966551644,-0.08322475264427068,-0.8353303769658889,-0.02025417772487941,-0.001141367638300686,-0.025403689858657763,0,70,255.0,255.0,255.0
484,24.200000000000003,-19.44405872911138,-8.616034293161809,-11.19533298155071,-0.6682621160219595,-0.08328344168905366,-0.8366454394362127,-0.021962596946923183,-0.0012061941530188396,-0.02719880895429664,0,70,255.0,255.0,255.0
485,24.25,-19.4775,-8.6202,-11.2372,-0.6694029563498566,-0.08334537205957256,-0.8380502578613185,-0.023671016168964165,-0.0012710206677367664,-0.02899392804993539,0,70,255.0,255.0,255.0
486,24.3,-19.510999012920962,-8.624369048879528,-11.279137806305394,-0.6705430871537872,-0.08342041313579428,-0.8394430143997081,-0.021934215988259863,-0.0017306223811320918,-0.02671633348564836,0,70,255.0,255.0,255.0
487,24.35,-19.54455286138189,-8.628542424315008,-11.321142403444501,-0.6715963779486827,-0.08351843429768577,-0.8407218912098834,-0.020197415807555557,-0.0021902240945274173,-0.024438738921361326,0,70,255.0,255.0,255.0
488,24.400000000000002,-19.578157203382347,-8.632721275310724,-11.363208097430913,-0.6725628287345428,-0.08363943554524703,-0.8418868882918442,-0.018460615626851255,-0.0026498258079227428,-0.022161144357074294,0,70,255.0,255.0,255.0
489,24.450000000000003,-19.61180769692187,-8.636906750870962,-11.405329194278217,-0.6734424395113677,-0.08378341687847805,-0.8429380056455908,-0.016723815446146952,-0.0031094275213180683,-0.01988354979278726,0,70,255.0,255.0,255.0
490,24.5,-19.6455,-8.6411,-11.4475,-0.6742352102791574,-0.08395037829737882,-0.843875243271123,-0.014987015265440995,-0.003569029234713361,-0.017605955228500392,0,70,255.0,255.0,255.0
491,24.55,-19.679231077108664,-8.64530198718751,-11.489716417632243,-0.6750195305799491,-0.08412924892490861,-0.8447944225115861,-0.016385796766225466,-0.0035857958664778037,-0.019161214390022985,0,70,255.0,255.0,255.0
492,24.6,-19.713003118709246,-8.649512938864683,-11.53198073830046,-0.67587378995578,-0.08430895788402662,-0.8457913647101253,-0.017784578267009937,-0.003602562498242246,-0.02071647355154558,0,70,255.0,255.0,255.0
493,24.650000000000002,-19.746819621755495,-8.653732896948105,-11.574296850152558,-0.6767979884066502,-0.08448950517473283,-0.8468660698667406,-0.01918335976779441,-0.0036193291300066883,-0.02227173271306817,0,70,255.0,255.0,255.0
494,24.700000000000003,-19.780684083201162,-8.65796190335435,-11.616668641336437,-0.6777921259325596,-0.08467089079702728,-0.8480185379814321,-0.02058214126857888,-0.0036360957617711308,-0.023826991874590763,0,70,255.0,255.0,255.0
495,24.75,-19.8146,-8.6622,-11.6591,-0.678856202533508,-0.08485311475090994,-0.8492487690541997,-0.02198092276936503,-0.003652862393535572,-0.025382251036109693,0,70,255.0,255.0,255.0
496,24.8,-19.848569478644375,-8.666447002370438,-11.70159412316564,-0.6799067905264152,-0.08502259116457454,-0.8505152955539591,-0.020042596946926998,-0.003126194153048371,-0.025278808954265486,0,70,255.0,255.0,255.0
497,24.85,-19.882589063781126,-8.670701820226256,-11.744151443353664,-0.6808604622282007,-0.08516573416621477,-0.8517766499496262,-0.01810427112448897,-0.00259952591256117,-0.025175366872421275,0,70,255.0,255.0,255.0
498,24.900000000000002,-19.91665390959568,-8.67496313689686,-11.786771701958866,-0.6817172176388642,-0.08528254375583066,-0.8530328322412012,-0.01616594530205094,-0.0020728576720739685,-0.025071924790577068,0,70,255.0,255.0,255.0
499,24.950000000000003,-19.950759170273493,-8.679229635711641,-11.82945464037605,-0.6824770567584058,-0.08537301993342218,-0.854283842428684,-0.014227619479612909,-0.0015461894315867675,-0.024968482708732857,0,70,255.0,255.0,255.0
500,25.0,-19.9849,-8.6835,-11.8722,-0.6831399795868256,-0.08543716269898935,-0.8555296805120745,-0.012289293657175904,-0.0010195211910994928,-0.024865040626883328,0,70,255.0,255.0,255.0
501,25.05,-20.019073408313822,-8.687773203330742,-11.915007089705204,-0.683817307314407,-0.08549238641679904,-0.8567443952725668,-0.014803815446082105,-0.0011894275212883023,-0.023723549792811112,0,70,255.0,255.0,255.0
502,25.1,-20.053283826166265,-8.692049380230289,-11.957873488284896,-0.6846203611314339,-0.08555610545111818,-0.8579020354913556,-0.017318337234988306,-0.0013593338514771118,-0.022582058958738896,0,70,255.0,255.0,255.0
503,25.150000000000002,-20.087537539861792,-8.696328955464462,-12.00079634201198,-0.6855491410379059,-0.08562831980194675,-0.8590026011684407,-0.019832859023894506,-0.0015292401816659213,-0.021440568124666676,0,70,255.0,255.0,255.0
504,25.200000000000003,-20.121840835704884,-8.700612353799093,-12.043772797159379,-0.6866036470338233,-0.08570902946928478,-0.8600460923038222,-0.02234738081280071,-0.0016991465118547308,-0.02029907729059446,0,70,255.0,255.0,255.0
505,25.25,-20.1562,-8.7049,-12.0868,-0.687783879119186,-0.08579823445313223,-0.8610325088975002,-0.024861902601709396,-0.0018690528420435282,-0.019157586456513442,0,70,255.0,255.0,255.0
506,25.3,-20.190619288100322,-8.709192184306593,-12.129875918013536,-0.6889679802159449,-0.0858878631682277,-0.8620111233557779,-0.022502141268643572,-0.0017160957617756245,-0.019986991874595728,0,70,255.0,255.0,255.0
507,25.35,-20.225094831553815,-8.71348865885259,-12.17300180350676,-0.6900340932460504,-0.0859698440293098,-0.8630312080849598,-0.02014237993557775,-0.0015631386815077209,-0.020816397292678014,0,70,255.0,255.0,255.0
508,25.400000000000002,-20.25962073095715,-8.71778904124529,-12.216179729993218,-0.6909822182095027,-0.08604417703637847,-0.8640927630850458,-0.017782618602511922,-0.0014101816012398174,-0.0216458027107603,0,70,255.0,255.0,255.0
509,25.450000000000003,-20.29419108690699,-8.722092949091993,-12.259411770986448,-0.6918123551063017,-0.08611086218943377,-0.8651957883560358,-0.015422857269446099,-0.0012572245209719135,-0.022475208128842586,0,70,255.0,255.0,255.0
510,25.5,-20.3288,-8.7264,-12.3027,-0.6925245039364474,-0.08616989948847567,-0.8663402838979298,-0.01306309593638133,-0.001104267440704243,-0.0233046135469257,0,70,255.0,255.0,255.0
511,25.55,-20.363443039284892,-8.730710059442886,-12.346046038240647,-0.6932067718218472,-0.08623616091028294,-0.8674991113043206,-0.014227619479613212,-0.0015461894315869148,-0.02304848270870376,0,70,255.0,255.0,255.0
512,25.6,-20.39812164761847,-8.735023984359355,-12.389449697688068,-0.6939472658844088,-0.08632451843163437,-0.8686451321688002,-0.015392143022845094,-0.0019881114224695865,-0.022792351870481824,0,70,255.0,255.0,255.0
513,25.650000000000002,-20.432838736309616,-8.739342879554377,-12.432910338015164,-0.6947459861241319,-0.08643497205252991,-0.8697783464913689,-0.016556666566076978,-0.0024300334133522585,-0.022536221032259884,0,70,255.0,255.0,255.0
514,25.700000000000003,-20.467597216667173,-8.743667849832931,-12.476427318894842,-0.6956029325410165,-0.0865675217729696,-0.8708987542720262,-0.01772119010930886,-0.00287195540423493,-0.022280090194037944,0,70,255.0,255.0,255.0
515,25.75,-20.5024,-8.748,-12.52,-0.6965181051350627,-0.08672216759295341,-0.8720063555107724,-0.018885713652543323,-0.0033138773951181255,-0.02202395935580803,0,70,255.0,255.0,255.0
516,25.8,-20.537249354760135,-8.752340377921856,-12.563627929023873,-0.6974529324966932,-0.08689549319062849,-0.8731124314269331,-0.01850738081267504,-0.0036191465118844677,-0.022219077290617763,0,70,255.0,255.0,255.0
517,25.85,-20.572144977972304,-8.756689803709993,-12.607311405740973,-0.6983688432163302,-0.08708408224414187,-0.8742282632398342,-0.018129047972806754,-0.00392441562865081,-0.022414195225427497,0,70,255.0,255.0,255.0
518,25.900000000000002,-20.607085923804405,-8.7610490405372,-12.651050917946138,-0.6992658372939738,-0.08728793475349357,-0.8753538509494758,-0.017750715132938473,-0.0042296847454171525,-0.02260931316023723,0,70,255.0,255.0,255.0
519,25.950000000000003,-20.642071246424337,-8.765418851576275,-12.694846953434201,-0.7001439147296241,-0.08750705071868357,-0.876489194555858,-0.01737238229307019,-0.004534953862183494,-0.022804431095046963,0,70,255.0,255.0,255.0
520,26.0,-20.6771,-8.7698,-12.7387,-0.7010030755232809,-0.0877414301397119,-0.8776342940589805,-0.016994049453203708,-0.004840222978950037,-0.02299954902985668,0,70,255.0,255.0,255.0
521,26.05,-20.71217154167457,-8.774192428869686,-12.782610245663863,-0.7018614981913506,-0.08794186632720985,-0.878771162987948,-0.017342857269579254,-0.0031772245209674907,-0.022475208128843953,0,70,255.0,255.0,255.0
522,26.1,-20.747286440492317,-8.778592800800674,-12.826576679348046,-0.7027373612502389,-0.08805915259180866,-0.879881814871865,-0.017691665085954798,-0.0015142260629849441,-0.021950867227831225,0,70,255.0,255.0,255.0
523,26.150000000000002,-20.782445568472774,-8.782996958296819,-12.870597990200299,-0.7036306646999461,-0.08809328893350835,-0.8809662497107312,-0.018040472902330344,0.00014877239499760248,-0.021426526326818497,0,70,255.0,255.0,255.0
524,26.200000000000003,-20.81764979763549,-8.787400743861975,-12.914672867368367,-0.7045414085404719,-0.0880442753523089,-0.8820244675045468,-0.018389280718705887,0.001811770852980149,-0.020902185425805766,0,70,255.0,255.0,255.0
525,26.25,-20.8529,-8.7918,-12.9588,-0.7054695927718166,-0.08791211184821034,-0.8830564682533119,-0.018738088535082298,0.0034747693109625777,-0.020377844524793964,0,70,255.0,255.0,255.0
526,26.3,-20.888196478541584,-8.796192306599403,-13.002978288320685,-0.7063810747379264,-0.08780104150054152,-0.8840749166212819,-0.017721190109309844,0.000968044595789972,-0.02036009019400442,0,70,255.0,255.0,255.0
527,26.35,-20.923537260058442,-8.800582193087317,-13.047207476866854,-0.7072417117827476,-0.08781530738863133,-0.8850924772727122,-0.01670429168353739,-0.0015386801193826337,-0.020342335863214878,0,70,255.0,255.0,255.0
528,26.400000000000002,-20.958919802304507,-8.80497592627553,-13.091487521252681,-0.7080515039062802,-0.08795490951247979,-0.8861091502076033,-0.01568739325776494,-0.00404540483455524,-0.020324581532425334,0,70,255.0,255.0,255.0
529,26.450000000000003,-20.994341563033714,-8.809379772975829,-13.135818377092338,-0.7088104511085241,-0.08821984787208687,-0.8871249354259549,-0.014670494831992485,-0.006552129549727845,-0.02030682720163579,0,70,255.0,255.0,255.0
530,26.5,-21.0298,-8.8138,-13.1802,-0.7095185533894793,-0.08861012246745255,-0.8881398329277669,-0.013653596406215662,-0.009058854264900051,-0.0202890728708498,0,70,255.0,255.0,255.0
531,26.55,-21.065293744159103,-8.818240744732702,-13.224632601053404,-0.7102462028569582,-0.08899796767062952,-0.8891691705269152,-0.015452382292937576,-0.006454953862178966,-0.020884431095086784,0,70,255.0,255.0,255.0
532,26.6,-21.100826119273936,-8.822697626850061,-13.269117413184546,-0.7110637916187731,-0.08925561785367045,-0.8902282760372756,-0.01725116817965949,-0.00385105345945788,-0.021479789319323768,0,70,255.0,255.0,255.0
533,26.650000000000002,-21.136401622309222,-8.827164136601068,-13.313655924788987,-0.7119713196749241,-0.08938307301657532,-0.8913171494588478,-0.0190499540663814,-0.001247153056736794,-0.02207514754356075,0,70,255.0,255.0,255.0
534,26.700000000000003,-21.17202475022967,-8.831633764234718,-13.358249624262285,-0.7129687870254112,-0.08938033315934414,-0.8924357907916317,-0.020848739953103317,0.0013567473459842917,-0.022670505767797732,0,70,255.0,255.0,255.0
535,26.75,-21.2077,-8.8361,-13.4029,-0.7140561936702344,-0.08924739828197689,-0.8935842000356276,-0.0226475258398251,0.003960647748705748,-0.023265863992033786,0,70,255.0,255.0,255.0
536,26.8,-21.24343014482201,-8.840558314469787,-13.447608107465703,-0.715130113834201,-0.08910308781693474,-0.8947364012710735,-0.020309280718839563,0.0018117708529801352,-0.022822185425800605,0,70,255.0,255.0,255.0
537,26.85,-21.27921106284582,-8.84501209951244,-13.49237327039497,-0.7160871217421184,-0.08906622119667887,-0.8958664185782076,-0.017971035597854023,-0.0003371060427454775,-0.022378506859567424,0,70,255.0,255.0,255.0
538,26.900000000000002,-21.315036908458627,-8.8494667273202,-13.537194379591389,-0.7169272173939865,-0.08913679842120929,-0.8969742519570302,-0.015632790476868486,-0.00248598293847109,-0.021934828293334246,0,70,255.0,255.0,255.0
539,26.950000000000003,-21.350901836047615,-8.85392757008531,-13.582070325858536,-0.7176504007898054,-0.08931481949052598,-0.8980599014075411,-0.013294545355882948,-0.004634859834196703,-0.021491149727101064,0,70,255.0,255.0,255.0
540,27.0,-21.3868,-8.8584,-13.627,-0.7182566719295749,-0.08960028440462894,-0.8991233669297403,-0.010956300234896688,-0.006783736729922163,-0.02104747116086969,0,70,255.0,255.0,255.0
541,27.05,-21.42272727655286,-8.862887597388152,-13.67198216908379,-0.7188493418062472,-0.08988568106162116,-0.9001572243888013,-0.012750494831993845,-0.0046321295497662755,-0.02030682720156988,0,70,255.0,255.0,255.0
542,27.1,-21.458686429342787,-8.86738677510018,-13.717015105235582,-0.7195317214127742,-0.09006349735960557,-0.9011540496498973,-0.014544689429091002,-0.002480522369610388,-0.019566183242270066,0,70,255.0,255.0,255.0
543,27.150000000000002,-21.494681943856296,-8.871892154118127,-13.762096956845483,-0.7203038107491563,-0.09013373329858221,-0.9021138427130283,-0.01633888402618816,-0.00032891518945450064,-0.01882553928297025,0,70,255.0,255.0,255.0
544,27.200000000000003,-21.530718305579875,-8.876398355424055,-13.807225872303588,-0.7211656098153931,-0.09009638887855104,-0.9030366035781943,-0.018133078623285316,0.0018226919907013868,-0.018084895323670438,0,70,255.0,255.0,255.0
545,27.25,-21.5668,-8.8809,-13.8524,-0.7221171186114848,-0.08995146409951209,-0.9039223322453953,-0.019927273220378794,0.003974299170857232,-0.017344251364372454,0,70,255.0,255.0,255.0
546,27.3,-21.602930348966574,-8.885393695977607,-13.897618416199144,-0.7230885189408202,-0.0898181879365902,-0.9048267011737016,-0.018928739953038218,0.0013567473460186124,-0.018830505767875413,0,70,255.0,255.0,255.0
547,27.35,-21.639108019783027,-8.889884000086846,-13.942883908662708,-0.7240099926067887,-0.08981578936491022,-0.9058053828221829,-0.01793020668569764,-0.001260804478820007,-0.020316760171378376,0,70,255.0,255.0,255.0
548,27.400000000000002,-21.675330516116194,-8.894377456207284,-13.988200193026698,-0.7248815396093901,-0.0899442683844722,-0.9068583771908394,-0.016931673418357066,-0.0038783563036586255,-0.02180301457488134,0,70,255.0,255.0,255.0
549,27.450000000000003,-21.711595341632908,-8.898880608218482,-14.033570984927128,-0.7257031599486243,-0.0902036249952761,-0.9079856842796711,-0.01593314015101649,-0.006495908128497246,-0.0232892689783843,0,70,255.0,255.0,255.0
550,27.5,-21.7479,-8.9034,-14.079,-0.7264748536244916,-0.0905938591973219,-0.9091873040886778,-0.014934606883674206,-0.009113459953335235,-0.024775523381883602,0,70,255.0,255.0,255.0
551,27.55,-21.78424252758086,-8.907940018701423,-14.12448976611964,-0.7272285824304804,-0.09098556719201008,-0.9103919709164022,-0.015214545355878788,-0.006554859834191915,-0.02341114972709553,0,70,255.0,255.0,255.0
552,27.6,-21.82062309152511,-8.912496424552435,-14.170038060113598,-0.7279963081600794,-0.09124934518074108,-0.9115284190613873,-0.015494483828083369,-0.003996259715048594,-0.022046776072307456,0,70,255.0,255.0,255.0
553,27.650000000000002,-21.85704239167893,-8.917062821052733,-14.215641471047732,-0.7287780308132887,-0.09138519316351494,-0.912596648523633,-0.01577442230028795,-0.001437659595905274,-0.020682402417519383,0,70,255.0,255.0,255.0
554,27.700000000000003,-21.893501127888502,-8.92163281170202,-14.261296587987914,-0.7295737503901083,-0.09139311114033163,-0.9135966593031394,-0.016054360772492532,0.0011209405232380457,-0.01931802876273131,0,70,255.0,255.0,255.0
555,27.75,-21.93,-8.9262,-14.307,-0.7303834668905381,-0.09127309911119115,-0.9145284513999061,-0.016334299244699757,0.003679540642381185,-0.01795365510794511,0,70,255.0,255.0,255.0
