idx,t,px,py,pz,vx,vy,vz,ax,ay,az,yaw,mode,ledr,ledg,ledb
0,0.0,-10.5,-1.5,0.0,0.0015522688148518291,-0.0007989904094652437,0.0016468020702859153,-0.03542722577822543,0.002387884913583717,-0.05096162484343098,0,70,255.0,255.0,255.0
1,0.05,-10.499966518322665,-1.5000375636547407,1.8484874530292937e-05,-0.0002099563451683501,-0.0007155355883539738,-0.0009104710476684789,-0.03506178062258174,0.0009503079308670794,-0.051329299874744785,0,70,255.0,255.0,255.0
2,0.1,-10.500020691096886,-1.5000727515396544,-9.135350062627612e-05,-0.0019539092474063447,-0.0007039596163785358,-0.0034861279171885633,-0.03469633546693804,-0.0004872690518495583,-0.05169697490605859,0,70,255.0,255.0,255.0
3,0.15000000000000002,-10.500161604709776,-1.5001091575971974,-0.0003304343130479916,-0.0036795898918621545,-0.0007642624935389297,-0.006080168538274339,-0.03433089031129435,-0.0019248460345661963,-0.052064649937372386,0,70,255.0,255.0,255.0
4,0.2,-10.500388345548442,-1.5001503757698271,-0.0006996767503131382,-0.00538699827853578,-0.0008964442198351554,-0.008692592910925803,-0.03396544515565065,-0.003362423017282834,-0.05243232496868619,0,70,255.0,255.0,255.0
5,0.25,-10.5007,-1.5002,-0.0012,-0.007076134407427219,-0.001100504795267213,-0.011323401035142957,-0.03360000000000695,-0.00479999999999947,-0.0528,0,70,255.0,255.0,255.0
6,0.30000000000000004,-10.501095654451557,-1.5002616242301727,-0.0018323232496868622,-0.008746998278536476,-0.0013764442198351027,-0.013972592910925804,-0.03323455484436326,-0.00623757698271611,-0.05316767503131382,0,70,255.0,255.0,255.0
7,0.35000000000000003,-10.501574395290223,-1.5003388424028024,-0.0025975656869520088,-0.010399589891863547,-0.001724262493538824,-0.01664016853827434,-0.03286910968871957,-0.007675153965432748,-0.053535350062627635,0,70,255.0,255.0,255.0
8,0.4,-10.502135308903114,-1.5004352484603456,-0.0034966464993737246,-0.012033909247408431,-0.002143959616378377,-0.019326127917188567,-0.032503664533075884,-0.009112730948149387,-0.05390302509394146,0,70,255.0,255.0,255.0
9,0.45,-10.502777481677334,-1.5005544363452592,-0.004530484874530294,-0.013649956345171134,-0.0026355355883537625,-0.022030471047668483,-0.03213821937743219,-0.010550307930866025,-0.054270700125255276,0,70,255.0,255.0,255.0
10,0.5,-10.5035,-1.5007,-0.0057,-0.01524773118515165,-0.0031989904094649794,-0.02475319792971409,-0.031772774221788494,-0.011987884913582676,-0.054638375156569136,0,70,255.0,255.0,255.0
11,0.55,-10.504302063871108,-1.5008743394245676,-0.007005991875782846,-0.016834050540695797,-0.0037626875323046242,-0.027487157308628322,-0.03167999999997733,-0.010560000000003105,-0.05472,0,70,255.0,255.0,255.0
12,0.6000000000000001,-10.505183327742218,-1.5010750788491358,-0.008448783751565693,-0.018415731185149387,-0.004254990409465291,-0.030225197929714096,-0.03158722577816617,-0.009132115086423535,-0.05480162484343086,0,70,255.0,255.0,255.0
13,0.65,-10.506143559677772,-1.5012986485614197,-0.010028579689457116,-0.019992773118512414,-0.004675899040946978,-0.032967319792971406,-0.031494451556354996,-0.007704230172843968,-0.054883249686861715,0,70,255.0,255.0,255.0
14,0.7000000000000001,-10.507182527742216,-1.5015414788491357,-0.011745583751565694,-0.021565176340784885,-0.005025413426749687,-0.03571352289840027,-0.03140167733454383,-0.006276345259264397,-0.05496487453029258,0,70,255.0,255.0,255.0
15,0.75,-10.5083,-1.5018,-0.0136,-0.023132940851966797,-0.005303533566873418,-0.03846380724600067,-0.03130890311273268,-0.004848460345684834,-0.055046499373723246,0,70,255.0,255.0,255.0
16,0.8,-10.509496090064008,-1.5020714180715558,-0.015591709247181756,-0.02471679955867649,-0.005556805650947605,-0.04119877785456091,-0.03204544515565512,-0.0052824230172826185,-0.05435232496868608,0,70,255.0,255.0,255.0
17,0.8500000000000001,-10.510772293740903,-1.5023560422006546,-0.017719299306785227,-0.026337485367532314,-0.005831775868601681,-0.04389903974286928,-0.03278198719857756,-0.005716385688880403,-0.05365815056364892,0,70,255.0,255.0,255.0
18,0.9,-10.512130452385797,-1.5026549572939756,-0.019981034742797818,-0.027994998278534248,-0.006128444219835645,-0.046564592910925795,-0.0335185292415,-0.006150348360478187,-0.05296397615861176,0,70,255.0,255.0,255.0
19,0.9500000000000001,-10.513572407353793,-1.5029692482581978,-0.022375180119206944,-0.029689338291682313,-0.006446810704649499,-0.04919543735873046,-0.03425507128442244,-0.006584311032075973,-0.052269801753574596,0,70,255.0,255.0,255.0
20,1.0,-10.5151,-1.5033,-0.0249,-0.031420505406976496,-0.006786875323043242,-0.05179157308628325,-0.034991613327344906,-0.007018273703673757,-0.051575627348538045,0,70,255.0,255.0,255.0
21,1.05,-10.516714375872864,-1.5036479882892098,-0.027554371135490134,-0.03314675122459581,-0.007130089863906641,-0.05438973127312809,-0.0340582193774277,-0.006710307930862187,-0.052350700125255646,0,70,255.0,255.0,255.0
22,1.1,-10.518413897294169,-1.5040127523482467,-0.03033961902129341,-0.03482632734471927,-0.0074579061161294605,-0.05702664309880882,-0.033124825427510496,-0.006402342158050618,-0.05312577290197325,0,70,255.0,255.0,255.0
23,1.1500000000000001,-10.520196230779044,-1.5043935222626788,-0.03325768133935162,-0.03645923376734687,-0.007770324079711703,-0.059702308563325424,-0.03219143147759329,-0.0060943763852390484,-0.05390084567869085,0,70,255.0,255.0,255.0
24,1.2000000000000002,-10.52205904284261,-1.504789528118074,-0.03631049577160656,-0.0380454704924786,-0.008067343754653367,-0.062416727666677906,-0.031258037527676086,-0.005786410612427479,-0.05467591845540845,0,70,255.0,255.0,255.0
25,1.25,-10.524,-1.5052,-0.0395,-0.03958503752011446,-0.00834896514095445,-0.06516990040886626,-0.030324643577758714,-0.005478444839615876,-0.055450991232125824,0,70,255.0,255.0,255.0
26,1.3,-10.526017606444542,-1.5056246287716057,-0.04282760621085771,-0.04112819554292288,-0.008642834893426456,-0.06793029705292672,-0.03140167733457792,-0.006276345259264394,-0.05496487453029231,0,70,255.0,255.0,255.0
27,1.35,-10.528113717082421,-1.506064948406359,-0.04629262460804115,-0.04272520525357226,-0.008976599666880889,-0.0706663878618955,-0.03247871109139712,-0.007074245678912912,-0.05447875782845879,0,70,255.0,255.0,255.0
28,1.4000000000000001,-10.530291024498029,-1.50652295365531,-0.04989383989979574,-0.04437606665206259,-0.00935025946131775,-0.0733781728357726,-0.03355574484821632,-0.00787214609856143,-0.053992641126625274,0,70,255.0,255.0,255.0
29,1.4500000000000002,-10.53255222127576,-1.5070006392695072,-0.053630036794366884,-0.04608077973839389,-0.009763814276737033,-0.07606565197455803,-0.034632778605035525,-0.008670046518209948,-0.05350652442479176,0,70,255.0,255.0,255.0
30,1.5,-10.5349,-1.5075,-0.0575,-0.04783934451256614,-0.010217264113138742,-0.07872882527825176,-0.0357098123618545,-0.00946794693785849,-0.05302040772295835,0,70,255.0,255.0,255.0
31,1.55,-10.537335998348965,-1.5080222966243686,-0.06150240402107905,-0.04958846660372306,-0.010666570562387099,-0.0813610805151651,-0.03425507128442241,-0.008504311032075778,-0.05226980175357476,0,70,255.0,255.0,255.0
32,1.6,-10.539857634376142,-1.5085658540263174,-0.06563548254654203,-0.051264851641008385,-0.01106769521634632,-0.08395580545360924,-0.03280033020699032,-0.007540675126293066,-0.051519195784191174,0,70,255.0,255.0,255.0
33,1.6500000000000001,-10.542461271228834,-1.5091282631160818,-0.0698973590614655,-0.0528684996244221,-0.011420638075016407,-0.0865130000935842,-0.03134558912955823,-0.006577039220510353,-0.050768589814807585,0,70,255.0,255.0,255.0
34,1.7000000000000002,-10.545143272054354,-1.5097071148038976,-0.07428615705092596,-0.05439941055396422,-0.011725399138397357,-0.08903266443509,-0.029890848052126145,-0.005613403314727641,-0.050017983845424,0,70,255.0,255.0,255.0
35,1.75,-10.5479,-1.5103,-0.0788,-0.05585758442963471,-0.011981978406489171,-0.09151479847812659,-0.028436106974694064,-0.004649767408945002,-0.049267377876040075,0,70,255.0,255.0,255.0
36,1.8,-10.550728800159597,-1.5109053847309204,-0.08343797770482611,-0.05730193804219237,-0.01224288285702359,-0.09401738088641282,-0.029338037527612295,-0.0057864106124317395,-0.05083591845540856,0,70,255.0,255.0,255.0
37,1.85,-10.553630945413014,-1.511525235488372,-0.08820304520579075,-0.058791388182395946,-0.012560619467732346,-0.09659839032366745,-0.030239968080530522,-0.006923053815918477,-0.05240445903477704,0,70,255.0,255.0,255.0
38,1.9000000000000001,-10.55660869058663,-1.5121623938803632,-0.09309912385434234,-0.06032593485024543,-0.012935188238615438,-0.09925782678989052,-0.031141898633448753,-0.008059697019405215,-0.05397299961414553,0,70,255.0,255.0,255.0
39,1.9500000000000002,-10.559664290506833,-1.512819701514903,-0.09813013500192928,-0.061905578045740824,-0.013366589169672868,-0.101995690285082,-0.03204382918636698,-0.009196340222891952,-0.05554154019351401,0,70,255.0,255.0,255.0
40,2.0,-10.5628,-1.5135,-0.1033,-0.06353031776888213,-0.013854822260904632,-0.10481198080924191,-0.032945759739285485,-0.010332983426378714,-0.05711008077288249,0,70,255.0,255.0,255.0
41,2.0500000000000003,-10.566017601012645,-1.51420496445195,-0.10861128515961652,-0.06517178122749198,-0.014329898009519351,-0.10762539593918378,-0.03271277860510819,-0.008670046518209944,-0.055426524424791984,0,70,255.0,255.0,255.0
42,2.1,-10.569316983971802,-1.514931604020195,-0.11406113663029498,-0.06680159562939296,-0.01472182691272563,-0.11035463325172111,-0.0324797974709309,-0.00700710961004119,-0.05374296807670149,0,70,255.0,255.0,255.0
43,2.15,-10.572697566424639,-1.5156757613624654,-0.11964534552116518,-0.06841976097458505,-0.015030608970523466,-0.11299969274685392,-0.032246816336753616,-0.0053441727018724355,-0.052059411728611,0,70,255.0,255.0,255.0
44,2.2,-10.576158765918317,-1.5164332791364907,-0.12535970294135698,-0.07002627726306832,-0.015256244182912871,-0.11556057442458222,-0.03201383520257632,-0.003681235793703666,-0.05037585538052049,0,70,255.0,255.0,255.0
45,2.25,-10.5797,-1.5172,-0.1312,-0.07162114449484269,-0.015398732549893835,-0.11803727828490597,-0.03178085406839948,-0.0020182988855349665,-0.048692299032429776,0,70,255.0,255.0,255.0
46,2.3000000000000003,-10.583320795789822,-1.5179731574612805,-0.13716328165670796,-0.07321093704785489,-0.015541525104900302,-0.12050503535685231,-0.03181084805208769,-0.003693403314723654,-0.050017983845423046,0,70,255.0,255.0,255.0
47,2.35,-10.587021118699772,-1.5187555484308477,-0.1432516082730294,-0.07480222930005147,-0.0157680728813662,-0.12303907666944829,-0.031840842035775904,-0.0053685077439123265,-0.05134366865841631,0,70,255.0,255.0,255.0
48,2.4000000000000004,-10.590801043714814,-1.5195513606697748,-0.149468294060997,-0.07639502125143248,-0.016078375879291534,-0.12563940222269393,-0.031870836019464124,-0.007043612173101014,-0.05266935347140958,0,70,255.0,255.0,255.0
49,2.45,-10.594660645819904,-1.5203647819391346,-0.155816653232643,-0.07798931290199787,-0.0164724340986763,-0.12830601201658923,-0.03190083000315234,-0.008718716602289686,-0.053995038284402844,0,70,255.0,255.0,255.0
50,2.5,-10.5986,-1.5212,-0.1623,-0.0795851042517477,-0.016950247539520503,-0.13103890605113422,-0.03193082398684055,-0.010393821031478429,-0.05532072309739622,0,70,255.0,255.0,255.0
51,2.5500000000000003,-10.60261921582807,-1.5220600057029285,-0.16892038821355185,-0.08118447058107789,-0.017440001570879767,-0.13376246263340702,-0.032043829186367036,-0.009196340222891963,-0.0536215401935145,0,70,255.0,255.0,255.0
52,2.6,-10.606718541229105,-1.5229430022564143,-0.17567483027758748,-0.0827894871703844,-0.0178698815618097,-0.13640106007048566,-0.03215683438589352,-0.007998859414305507,-0.05192235728963279,0,70,255.0,255.0,255.0
53,2.6500000000000004,-10.610898258716109,-1.5238459959584356,-0.1825590782348472,-0.08440015401966725,-0.018239887512310315,-0.1389546983623703,-0.032269839585420006,-0.006801378605719041,-0.050223174385751065,0,70,255.0,255.0,255.0
54,2.7,-10.615158650802073,-1.5247659931069713,-0.1895688841280713,-0.08601647112892641,-0.018550019422381606,-0.14142337750906078,-0.032382844784946484,-0.005603897797132586,-0.04852399148186936,0,70,255.0,255.0,255.0
55,2.75,-10.6195,-1.5257,-0.1967,-0.08763843849816187,-0.01880027729202357,-0.14380709751055717,-0.03249584998447308,-0.004406416988546102,-0.04682480857798699,0,70,255.0,255.0,255.0
56,2.8000000000000003,-10.623922340897897,-1.5266460197270058,-0.2039495654890848,-0.08925118062783897,-0.01905046861157981,-0.14618911410951985,-0.03201383520261072,-0.00560123579370348,-0.04845585538051994,0,70,255.0,255.0,255.0
57,2.85,-10.628424716383801,-1.5276060425434956,-0.21132027061662081,-0.09083982201842294,-0.01936040087139392,-0.14865268304860918,-0.031531820420748355,-0.006796054598860847,-0.050086902183052874,0,70,255.0,255.0,255.0
58,2.9000000000000004,-10.633005921420754,-1.5285830554964828,-0.2188161929996145,-0.09240436266991381,-0.019730074071465896,-0.15119780432782515,-0.031049805638885992,-0.007990873404018226,-0.05171794898558583,0,70,255.0,255.0,255.0
59,2.95,-10.637664750971805,-1.52958004563298,-0.22644141025507208,-0.09394480258231155,-0.020159488211795737,-0.15382447794716775,-0.030567790857023634,-0.009185692209175592,-0.05334899578811876,0,70,255.0,255.0,255.0
60,3.0,-10.6424,-1.5306,-0.2342,-0.09546114175561618,-0.020648643292383455,-0.156532703906637,-0.030085776075162052,-0.010380511014333044,-0.0549800425906517,0,70,255.0,255.0,255.0
61,3.0500000000000003,-10.647210620580344,-1.5316447153890487,-0.24209494983010926,-0.09696280690757246,-0.021126123982799134,-0.15925708092851343,-0.02998083000308882,-0.008718716602293994,-0.053995038284403614,0,70,255.0,255.0,255.0
62,3.1,-10.652096193235698,-1.532711227569603,-0.25012488725592946,-0.09845922475592506,-0.021520514952612854,-0.16193220773507738,-0.02987588393101559,-0.007056922190254958,-0.053010033978155534,0,70,255.0,255.0,255.0
63,3.1500000000000004,-10.657056455600877,-1.5337953820556334,-0.25828734976669515,-0.09995039530067402,-0.02183181620182463,-0.16455808432632896,-0.02977093785894236,-0.005395127778215907,-0.05202502967190745,0,70,255.0,255.0,255.0
64,3.2,-10.662091145310704,-1.534893024361109,-0.2665798748516405,-0.10143631854181931,-0.02206002773043445,-0.16713471070226812,-0.029665991786869128,-0.003733333366176872,-0.05104002536565937,0,70,255.0,255.0,255.0
65,3.25,-10.6672,-1.536,-0.275,-0.10291699447936092,-0.022205149538442312,-0.16966208686289488,-0.02956104571479612,-0.0020715389541378637,-0.0500550210594104,0,70,255.0,255.0,255.0
66,3.3000000000000003,-10.672383176780723,-1.5371135187167995,-0.28354583519047843,-0.10441759174185546,-0.022349035457224078,-0.17217456217642688,-0.030462844784984983,-0.003683897797132793,-0.0504439914818684,0,70,255.0,255.0,255.0
67,3.35,-10.67764251067341,-1.5382362471780917,-0.29221778035966145,-0.10596327895785942,-0.022573539318155592,-0.17470648601108174,-0.03136464385517384,-0.005296256640127709,-0.0508329619043264,0,70,255.0,255.0,255.0
68,3.4000000000000004,-10.682980256175735,-1.5393722162809842,-0.30101680793360536,-0.10755405612737284,-0.022878661121236852,-0.1772578583668595,-0.032266442925362696,-0.006908615483122638,-0.0512219323267844,0,70,255.0,255.0,255.0
69,3.45,-10.688398667785375,-1.5405254569225846,-0.30994389033836617,-0.1091899232503957,-0.023264400866467853,-0.17982867924376017,-0.03316824199555155,-0.008520974326117554,-0.051610902749242404,0,70,255.0,255.0,255.0
70,3.5,-10.6939,-1.5417,-0.319,-0.11087088032692798,-0.023730758553848603,-0.18241894864178376,-0.034070041065740075,-0.010133333169112524,-0.05199987317170107,0,70,255.0,255.0,255.0
71,3.5500000000000003,-10.699485472296757,-1.5428988097437542,-0.32818570940797737,-0.11253482612499782,-0.024213734188305705,-0.18500467036577928,-0.03248779085705353,-0.009185692209171387,-0.05142899578811874,0,70,255.0,255.0,255.0
72,3.6,-10.705152164070658,-1.5441205837180305,-0.33749999130542496,-0.11411965941263333,-0.024649327774765743,-0.18756184822059566,-0.030905540648366987,-0.00823805124923026,-0.05085811840453642,0,70,255.0,255.0,255.0
73,3.6500000000000004,-10.710896119696182,-1.5453629528204307,-0.34694141849888394,-0.11562538018983454,-0.02503753931322873,-0.19009048220623292,-0.02932329043968044,-0.007290410289289122,-0.050287241020954096,0,70,255.0,255.0,255.0
74,3.7,-10.716713383547802,-1.5466235479485535,-0.3565085637948953,-0.11705198845660138,-0.025378368803694654,-0.19259057232269106,-0.027741040230993903,-0.006342769329347993,-0.04971636363737177,0,70,255.0,255.0,255.0
75,3.75,-10.7226,-1.5479,-0.3662,-0.11839948421293392,-0.025671816246163524,-0.19506211856997008,-0.0261587900223077,-0.0053951283694068375,-0.04914548625378812,0,70,255.0,255.0,255.0
76,3.8000000000000003,-10.728553334032243,-1.5491904423081853,-0.37601452717761247,-0.11974710375816261,-0.025948027789553112,-0.19751875636045624,-0.027745991786839726,-0.005653333366176657,-0.04912002536565803,0,70,255.0,255.0,255.0
77,3.85,-10.734576033043954,-1.550495017949786,-0.3859518544186389,-0.12117408339161789,-0.026237149582781193,-0.1999741211065359,-0.02933319355137174,-0.005911538362946472,-0.049094564477527934,0,70,255.0,255.0,255.0
78,3.9000000000000004,-10.740672065039542,-1.551814372437294,-0.3960119180708593,-0.1226804231132998,-0.02653918162584776,-0.20242821280820905,-0.03092039531590377,-0.006169743359716292,-0.049069103589397846,0,70,255.0,255.0,255.0
79,3.95,-10.74684539802342,-1.5531491512832014,-0.40619465448205305,-0.12426612292320828,-0.026854123918752817,-0.20488103146547568,-0.03250759708043578,-0.006427948356486108,-0.04904364270126775,0,70,255.0,255.0,255.0
80,4.0,-10.7531,-1.5545,-0.4165,-0.12593118282134336,-0.02718197646149637,-0.20733257707833577,-0.03409479884496802,-0.006686153353255925,-0.04901818181313611,0,70,255.0,255.0,255.0
81,4.05,-10.759438791574269,-1.555867421023505,-0.4269281818815732,-0.12761275884235634,-0.027514154653480817,-0.20980030419239523,-0.03316824199555138,-0.00660097432612205,-0.04969090274924279,0,70,255.0,255.0,255.0
82,4.1000000000000005,-10.765860503753528,-1.5572513444828253,-0.4374805910200197,-0.12924800702089853,-0.027842073894108577,-0.2123016673532601,-0.032241685146134715,-0.006515795298988174,-0.05036362368534949,0,70,255.0,255.0,255.0
83,4.15,-10.772362820145652,-1.5586515574303932,-0.4481589092176794,-0.1308369273569698,-0.028165734183379636,-0.2148366665609302,-0.03131512829671807,-0.0064306162718543,-0.05103634462145617,0,70,255.0,255.0,255.0
84,4.2,-10.778943424358516,-1.5600678469186409,-0.4589648182768928,-0.1323795198505703,-0.028485135521294006,-0.21740530181540568,-0.030388571447301425,-0.006345437244720425,-0.051709065557562855,0,70,255.0,255.0,255.0
85,4.25,-10.7856,-1.5615,-0.4699,-0.13387578450169998,-0.028800277907851682,-0.22000757311668645,-0.029462014597884556,-0.006260258217586689,-0.05238178649366887,0,70,255.0,255.0,255.0
86,4.3,-10.79233069967068,-1.5629478735977944,-0.4809655452960946,-0.13535386087242185,-0.02911535359652494,-0.22260802686996248,-0.029661040230989366,-0.006342769329343745,-0.05163636363737228,0,70,255.0,255.0,255.0
87,4.3500000000000005,-10.799135551941937,-1.5644116041189124,-0.4921601815012828,-0.13684188852479892,-0.02943455484078606,-0.22517120948042368,-0.02986006586409418,-0.006425280441100801,-0.05089094078107567,0,70,255.0,255.0,255.0
88,4.4,-10.806015054377854,-1.565891397841133,-0.5034820450584235,-0.13833986745883126,-0.029757881640635024,-0.22769712094807007,-0.030059091497198986,-0.0065077915528578565,-0.05014551792477907,0,70,255.0,255.0,255.0
89,4.45,-10.812969704542516,-1.5673874610422358,-0.5149292724103762,-0.13984779767451883,-0.030085333996071845,-0.23018576127290158,-0.030258117130303797,-0.006590302664614911,-0.04940009506848248,0,70,255.0,255.0,255.0
90,4.5,-10.82,-1.5689,-0.5265,-0.14136567917186163,-0.03041691190709651,-0.2326371304549183,-0.030457142763408163,-0.006672813776371883,-0.048654672212185446,0,70,255.0,255.0,255.0
91,4.55,-10.827106409743013,-1.570429084585317,-0.5381928369340483,-0.14289179766795698,-0.030744430960417957,-0.2350795883277546,-0.030587597080406103,-0.006427948356486064,-0.04904364270126802,0,70,255.0,255.0,255.0
92,4.6000000000000005,-10.834289288478727,-1.5719742390415252,-0.5500082829748497,-0.14442443887990228,-0.03105970674274512,-0.23754149472504513,-0.030718051397404047,-0.00618308293660024,-0.0494326131903506,0,70,255.0,255.0,255.0
93,4.65,-10.841548962342934,-1.5735348512050749,-0.561947310548627,-0.14596360280769738,-0.03136273925407798,-0.24002284964678972,-0.030848505714401987,-0.00593821751671442,-0.04982158367943317,0,70,255.0,255.0,255.0
94,4.7,-10.848885757471427,-1.5751103089124165,-0.5740108920816028,-0.14750928945134245,-0.03165352849441656,-0.24252365309298843,-0.030978960031399928,-0.005693352096828601,-0.05021055416851574,0,70,255.0,255.0,255.0
95,4.75,-10.8563,-1.5767,-0.5862,-0.14906149881083738,-0.03193207446376084,-0.24504390506364127,-0.031109414348396536,-0.005448486676942643,-0.05059952465759743,0,70,255.0,255.0,255.0
96,4.800000000000001,-10.863791661357268,-1.5783037880609374,-0.5985151069677126,-0.15059894845573155,-0.03222692256180253,-0.24755361981902024,-0.030388571447369228,-0.0063454372447247515,-0.049789065557560255,0,70,255.0,255.0,255.0
97,4.8500000000000005,-10.871359294143154,-1.5799234397149866,-0.6109546865993188,-0.15210035595557433,-0.032566618188233316,-0.25002281161939727,-0.029667728546341934,-0.007242387812506844,-0.04897860645752309,0,70,255.0,255.0,255.0
98,4.9,-10.879001096250407,-1.5815611973385673,-0.6235167127470689,-0.15356572131036572,-0.03295116134305321,-0.2524514804647725,-0.02894688564531464,-0.008139338380288935,-0.04816814735748593,0,70,255.0,255.0,255.0
99,4.95,-10.886715265571773,-1.5832193033080986,-0.6361991592632127,-0.1549950445201058,-0.03338055202626221,-0.2548396263551459,-0.028226042744287347,-0.009036288948071028,-0.047357688257448766,0,70,255.0,255.0,255.0
100,5.0,-10.8945,-1.5849,-0.649,-0.15638832558479449,-0.03385479023786032,-0.25718724929051734,-0.02750519984325983,-0.009933239515853287,-0.046547229157410275,0,70,255.0,255.0,255.0
101,5.050000000000001,-10.902354144827914,-1.5866045631709333,-0.6619179351951024,-0.15778440850913286,-0.03431587879237192,-0.25953793239616463,-0.028338117130274044,-0.008510302664610427,-0.04748009506848031,0,70,255.0,255.0,255.0
102,5.1000000000000005,-10.910279134948654,-1.5883304020985278,-0.6749545706278759,-0.1592221372978219,-0.03470582050432137,-0.2619352587973654,-0.02917103441728824,-0.007087365813367592,-0.048412960979550335,0,70,255.0,255.0,255.0
103,5.15,-10.918277052655435,-1.5900739594406559,-0.6881122384630981,-0.1607015119508617,-0.03502461537370868,-0.2643792284941196,-0.03000395170430244,-0.0056644289621247575,-0.04934582689062036,0,70,255.0,255.0,255.0
104,5.2,-10.926349980241477,-1.5918316778551895,-0.7013932708655469,-0.16222253246825213,-0.03527226340053384,-0.26686984148642745,-0.030836868991316636,-0.004241492110881923,-0.050278692801690374,0,70,255.0,255.0,255.0
105,5.25,-10.9345,-1.5936,-0.7148,-0.16378519884999332,-0.03544876458479687,-0.26940709777428873,-0.031669786278330836,-0.002818555259639255,-0.05121155871276084,0,70,255.0,255.0,255.0
106,5.300000000000001,-10.942728559331078,-1.5953763592553298,-0.7283339522518788,-0.16535141750773574,-0.035613562268708675,-0.2719426505963207,-0.030978960031365323,-0.0037733520968330184,-0.05021055416851768,0,70,255.0,255.0,255.0
107,5.3500000000000005,-10.951034566062233,-1.5971621518909018,-0.7419934308891787,-0.16688309485312988,-0.035826099794480176,-0.2744281531911405,-0.03028813378439982,-0.0047281489340267645,-0.04920954962427454,0,70,255.0,255.0,255.0
108,5.4,-10.959416293127852,-1.5989597648988088,-0.7557759334005393,-0.1683802308861757,-0.036086377162111355,-0.27686360555874817,-0.02959730753743432,-0.005682945771220511,-0.0482085450800314,0,70,255.0,255.0,255.0
109,5.45,-10.967872013462314,-1.600771585271144,-0.7696789572745999,-0.1698428256068733,-0.036394394371602225,-0.2792490076991437,-0.02890648129046882,-0.006637742608414258,-0.04720754053578826,0,70,255.0,255.0,255.0
110,5.5,-10.9764,-1.6026,-0.7837,-0.1712708790152226,-0.03675015142295278,-0.28158435961232703,-0.028215655043503318,-0.007592539445608115,-0.04620653599154467,0,70,255.0,255.0,255.0
111,5.550000000000001,-10.984998817847774,-1.6044467998077474,-0.7978374557973833,-0.17268192145991823,-0.03711787213279477,-0.28392346521855194,-0.0282260427443215,-0.007116288948071341,-0.047357688257449584,0,70,255.0,255.0,255.0
112,5.6000000000000005,-10.993668200802409,-1.606311390337865,-0.8120933058154103,-0.17409348328965474,-0.037461780317759916,-0.286320128438072,-0.028236430445139682,-0.006640038450534575,-0.04850884052335448,0,70,255.0,255.0,255.0
113,5.65,-11.002408174833159,-1.6081925809641089,-0.8264704279347455,-0.1755055645044322,-0.037781875977848225,-0.2887743492708873,-0.028246818145957864,-0.006163787952997809,-0.04965999278925937,0,70,255.0,255.0,255.0
114,5.7,-11.01121876590927,-1.6100891810602351,-0.8409717000360538,-0.17691816510425054,-0.038078159113059694,-0.29128612771699797,-0.028257205846776046,-0.005687537455461043,-0.05081114505516427,0,70,255.0,255.0,255.0
115,5.75,-11.0201,-1.612,-0.8556,-0.17833128508910978,-0.038350629723394335,-0.2938554637764037,-0.028267593547594227,-0.005211286957924444,-0.05196229732106694,0,70,255.0,255.0,255.0
116,5.800000000000001,-11.029052169277826,-1.6139244415136809,-0.8703570245585887,-0.17976089665258269,-0.03863494920011428,-0.29641148852947263,-0.028916868991321117,-0.006161492110873315,-0.050278692801688125,0,70,255.0,255.0,255.0
117,5.8500000000000005,-11.038076630728128,-1.615864286757639,-0.8852397458491814,-0.1812229719882419,-0.038966778934481666,-0.29888333305657255,-0.029566144435048,-0.007111697263822169,-0.048595088282309344,0,70,255.0,255.0,255.0
118,5.9,-11.047175007539519,-1.6178219112447565,-0.9002439548604797,-0.1827175110960875,-0.0393461189264965,-0.3012709973577036,-0.03021541987877488,-0.008061902416771023,-0.04691148376293056,0,70,255.0,255.0,255.0
119,5.95,-11.056348922900606,-1.6197996904879164,-0.9153654425811855,-0.18424451397611938,-0.039772969176158766,-0.3035744814328656,-0.03086469532250176,-0.009012107569719877,-0.045227879243551775,0,70,255.0,255.0,255.0
120,6.0,-11.0656,-1.6218,-0.9306,-0.18580398062833764,-0.040247329683468475,-0.30579378528205864,-0.031513970766228194,-0.009962312722668676,-0.04354427472417166,0,70,255.0,255.0,255.0
121,6.050000000000001,-11.074929305040927,-1.623824234137529,-0.9459448459682632,-0.187362491929755,-0.04071033106674576,-0.30801458066355764,-0.03082648129046416,-0.008557742608422571,-0.04528754053578663,0,70,255.0,255.0,255.0
122,6.1000000000000005,-11.084335676285079,-1.6258698626315795,-0.9614029107878656,-0.18888662875738407,-0.04110310394431074,-0.31032253933563736,-0.030138991814700138,-0.0071531724941764924,-0.047030806347401574,0,70,255.0,255.0,255.0
123,6.15,-11.093817395008768,-1.6279333740568651,-0.9769785526233365,-0.19037639111122495,-0.04142564831616341,-0.31271766129829776,-0.029451502338936116,-0.005748602379930413,-0.04877407215901652,0,70,255.0,255.0,255.0
124,6.2,-11.103372742488304,-1.6300112569881002,-0.9926761296392049,-0.19183177899127768,-0.04167796418230378,-0.315199946551539,-0.02876401286317209,-0.004344032265684334,-0.05051733797063145,0,70,255.0,255.0,255.0
125,6.25,-11.113,-1.6321,-1.0085,-0.19325279239754217,-0.041860051542731834,-0.3177693950953609,-0.028076523387407182,-0.002939462151438199,-0.05226060378224462,0,70,255.0,255.0,255.0
126,6.300000000000001,-11.122697810558469,-1.6341970219362025,-1.02445319156836,-0.19466113562839676,-0.042027726532904326,-0.3203461888162961,-0.028257205846775782,-0.00376753745546139,-0.05081114505516478,0,70,255.0,255.0,255.0
127,6.3500000000000005,-11.132466264131557,-1.6363034627160438,-1.040533410999357,-0.19607851298221976,-0.04223680528827797,-0.3228505096008774,-0.02843788830614438,-0.004595612759484566,-0.04936168632808496,0,70,255.0,255.0,255.0
128,6.4,-11.142305812425406,-1.638421392527784,-1.0567370346461749,-0.19750492445901122,-0.04248728780885278,-0.32528235744910466,-0.028618570765512975,-0.005423688063507743,-0.04791222760100514,0,70,255.0,255.0,255.0
129,6.45,-11.152216907146173,-1.6405528815596826,-1.0730604388619949,-0.19894037005877105,-0.042779174094628745,-0.3276417323609779,-0.028799253224881572,-0.006251763367530919,-0.04646276887392532,0,70,255.0,255.0,255.0
130,6.5,-11.1622,-1.6427,-1.0895,-0.20038484978149934,-0.04311246414560587,-0.32992863433649716,-0.02897993568425017,-0.007079838671554095,-0.04501331014684373,0,70,255.0,255.0,255.0
131,6.550000000000001,-11.172255452725198,-1.6448644781176607,-1.1060527877582988,-0.20183296555666827,-0.04346676280163752,-0.3321846640712571,-0.02894469532250623,-0.007092107569711514,-0.04522787924355276,0,70,255.0,255.0,255.0
132,6.6000000000000005,-11.1823832671887,-1.6470466865042457,-1.1227186452147062,-0.20327931931374998,-0.043821674902577025,-0.3344514222608525,-0.028909454960762294,-0.007104376467868934,-0.04544244834026179,0,70,255.0,255.0,255.0
133,6.65,-11.192583355289605,-1.649246655832,-1.1394981087919644,-0.20472391105274448,-0.04417720044842441,-0.3367289089052833,-0.028874214599018354,-0.007116645366026353,-0.045657017436970815,0,70,255.0,255.0,255.0
134,6.7,-11.202855628927004,-1.6514644167731698,-1.1563917149128151,-0.2061667407736518,-0.044533339439179656,-0.33901712400454953,-0.02883897423727442,-0.007128914264183772,-0.04587158653367984,0,70,255.0,255.0,255.0
135,6.75,-11.2132,-1.6537,-1.1734,-0.20760780847647195,-0.04489009187484279,-0.3413160675586513,-0.028803733875530257,-0.007141183162341136,-0.046086155630389314,0,70,255.0,255.0,255.0
136,6.800000000000001,-11.223616378540747,-1.655953065593155,-1.190523657398446,-0.20904700214493868,-0.04522522226054363,-0.3436351548986768,-0.02876401286313741,-0.006264032265692531,-0.046677337970629305,0,70,255.0,255.0,255.0
137,6.8500000000000005,-11.23410466711365,-1.6582217912669739,-1.207764008141818,-0.2104842097627857,-0.04551649510141204,-0.3459838013557142,-0.028724291850744564,-0.005386881369043941,-0.04726852031086928,0,70,255.0,255.0,255.0
138,6.9,-11.244664766416182,-1.6605039841442153,-1.2251225301859674,-0.21191943133001312,-0.04576391039744803,-0.3483620069297637,-0.02868457083835172,-0.00450973047239535,-0.04785970265110926,0,70,255.0,255.0,255.0
139,6.95,-11.255296577145808,-1.662797451347638,-1.2426007014867444,-0.21335266684662085,-0.04596746814865158,-0.3507697716208251,-0.028644849825958874,-0.0036325795757467605,-0.048450884991349245,0,70,255.0,255.0,255.0
140,7.0,-11.266,-1.6651,-1.2602,-0.21478391631260899,-0.0461271683550227,-0.3532070954288986,-0.028605128813565583,-0.0027554286790980598,-0.04904206733158745,0,70,255.0,255.0,255.0
141,7.050000000000001,-11.27677503311182,-1.6674104595097203,-1.277921382647919,-0.21621902586357103,-0.04630434815618843,-0.35564271633403644,-0.02879925322491555,-0.004331763367531116,-0.0483827688739236,0,70,255.0,255.0,255.0
142,7.1000000000000005,-11.2876220643567,-1.6697317484278593,-1.2957637222180223,-0.21766384163510055,-0.046560344691775814,-0.358045372316291,-0.028993377636265506,-0.005908098055964145,-0.04772347041625977,0,70,255.0,255.0,255.0
143,7.15,-11.298541579045674,-1.6720678075911384,-1.3137253704641665,-0.21911836362719758,-0.046895157961784846,-0.36041506337566237,-0.029187502047615468,-0.007484432744397174,-0.04706417195859593,0,70,255.0,255.0,255.0
144,7.2,-11.309534062489762,-1.674422577836278,-1.3318046791402072,-0.2205825918398621,-0.04730878796621553,-0.3627517895121506,-0.029381626458965426,-0.009060767432830203,-0.046404873500932094,0,70,255.0,255.0,255.0
145,7.25,-11.3206,-1.6768,-1.35,-0.22205652627309408,-0.04780123470506786,-0.3650555507257555,-0.029575750870316053,-0.010637102121263009,-0.04574557504326782,0,70,255.0,255.0,255.0
146,7.300000000000001,-11.33173948901198,-1.6792026963679647,-1.3683100120098797,-0.22351689440078387,-0.04829338511470392,-0.3673459797651793,-0.02883897423727494,-0.00904891426417922,-0.04587158653368073,0,70,255.0,255.0,255.0
147,7.3500000000000005,-11.34295107545955,-1.6816280150215894,-1.3867347029860937,-0.2249404236968216,-0.04870612613148579,-0.3696427093791236,-0.02810219760423384,-0.007460726407095458,-0.045997598024093644,0,70,255.0,255.0,255.0
148,7.4,-11.354232917401134,-1.6840719854912323,-1.4052743879573673,-0.22632711416120724,-0.04903945775541347,-0.3719457395675886,-0.02736542097119274,-0.005872538550011697,-0.04612360951450656,0,70,255.0,255.0,255.0
149,7.45,-11.365583172895144,-1.68653063730725,-1.4239293819524275,-0.22767696579394087,-0.04929337998648696,-0.37425507033057426,-0.02662864433815164,-0.004284350692927935,-0.04624962100491947,0,70,255.0,255.0,255.0
150,7.5,-11.377,-1.689,-1.4427,-0.2289899785950224,-0.04946789282470626,-0.37657070166808054,-0.02589186770510965,-0.0026961628358441736,-0.04637563249533061,0,70,255.0,255.0,255.0
151,7.550000000000001,-11.388482210840268,-1.691477155018422,-1.4615865693125636,-0.23030539653329837,-0.049626111384996036,-0.3788933646052474,-0.026724849825928588,-0.003632579575746777,-0.04653088499134386,0,70,255.0,255.0,255.0
152,7.6000000000000005,-11.400031233805098,-1.6939633914857828,-1.4805894658376049,-0.23166246357761527,-0.04983115078228094,-0.3812237901672149,-0.02755783194674751,-0.004568996315649364,-0.04668613748735711,0,70,255.0,255.0,255.0
153,7.65,-11.411649151349796,-1.6964610504439332,-1.499709077706365,-0.23306117972797313,-0.05008301101656098,-0.3835619783539831,-0.028390814067566432,-0.005505413055551951,-0.046841389983370355,0,70,255.0,255.0,255.0
154,7.7,-11.423338045929663,-1.6989724729347222,-1.5189457930500831,-0.23450154498437192,-0.05038169208783613,-0.385907929165552,-0.029223796188385356,-0.006441829795454538,-0.0469966424793836,0,70,255.0,255.0,255.0
155,7.75,-11.4351,-1.7015,-1.5383,-0.23598355934681167,-0.05072719399610643,-0.38826164260192153,-0.030056778309204057,-0.007378246535357291,-0.047151894975395514,0,70,255.0,255.0,255.0
156,7.800000000000001,-11.446936467626955,-1.7040454835583485,-1.5577717107398679,-0.2374695194660159,-0.051090169345311125,-0.3906005618138298,-0.029381626458965505,-0.007140767432830349,-0.04640487350093546,0,70,255.0,255.0,255.0
157,7.8500000000000005,-11.45884638932006,-1.706608819035279,-1.5773594336634877,-0.23892172199270825,-0.051441270739389464,-0.3929021299520151,-0.028706474608726967,-0.006903288330303412,-0.045657852026475425,0,70,255.0,255.0,255.0
158,7.9,-11.470828077199686,-1.7091894127330352,-1.5970613012171737,-0.24034016692688862,-0.05178049817834147,-0.3951663470164774,-0.028031322758488426,-0.006665809227776474,-0.044910830552015384,0,70,255.0,255.0,255.0
159,7.95,-11.482879843386208,-1.7117866709538612,-1.6168754458472399,-0.24172485426855708,-0.052107851662167116,-0.3973932130072166,-0.027356170908249884,-0.006428330125249537,-0.04416380907755535,0,70,255.0,255.0,255.0
160,8.0,-11.495,-1.7144,-1.6368,-0.2430757840177136,-0.052423331190866417,-0.39958272792423283,-0.02668101905801179,-0.006190851022722488,-0.04341678760309309,0,70,255.0,255.0,255.0
161,8.05,-11.507187118651908,-1.7170289107481842,-1.6568337877279666,-0.24440852560261853,-0.05273321123375778,-0.4017763881394331,-0.026628644338185615,-0.006204350692931915,-0.04432962100491863,0,70,255.0,255.0,255.0
162,8.1,-11.519440808914661,-1.7196733323731008,-1.6769783995084449,-0.24573864845153215,-0.0530437662601596,-0.40401569002472465,-0.02657626961835944,-0.006217850363141341,-0.04524245440674414,0,70,255.0,255.0,255.0
163,8.15,-11.531760939851461,-1.7223332986239253,-1.6972361174249406,-0.2470661525644545,-0.05335499627007192,-0.4063006335801076,-0.02652389489853326,-0.006231350033350769,-0.04615528780856969,0,70,255.0,255.0,255.0
164,8.200000000000001,-11.544147380525507,-1.7250088432498332,-1.7176092235609575,-0.2483910379413855,-0.05366690126349469,-0.40863121880558173,-0.026471520178707086,-0.0062448497035601964,-0.047068121210395227,0,70,255.0,255.0,255.0
165,8.25,-11.5566,-1.7277,-1.7381,-0.24971330458232516,-0.05397948124042794,-0.41100744570114706,-0.0264191454588798,-0.006258349373769678,-0.04798095461221985,0,70,255.0,255.0,255.0
166,8.3,-11.56911905776541,-1.7304068734489144,-1.7587099383482678,-0.2510563781235069,-0.05429698571965855,-0.41338188562843714,-0.027303796188389486,-0.006441829795454648,-0.046996642479383406,0,70,255.0,255.0,255.0
167,8.35,-11.581706375021293,-1.733129851472317,-1.7794373683027327,-0.2524436842011641,-0.0546236642199734,-0.4157071099490854,-0.02818844691789914,-0.0066253102171396116,-0.046012330346547,0,70,255.0,255.0,255.0
168,8.4,-11.594364163394467,-1.7358693927712632,-1.800279829083065,-0.25387522281529684,-0.054959516741372505,-0.41798311866309185,-0.029073097647408824,-0.006808790638824581,-0.04502801821371056,0,70,255.0,255.0,255.0
169,8.450000000000001,-11.607094634511764,-1.7386259560468058,-1.821234859908932,-0.25535099396590505,-0.05530454328385587,-0.42020991177045647,-0.02995774837691851,-0.006992271060509551,-0.044043706080874115,0,70,255.0,255.0,255.0
170,8.5,-11.6199,-1.7414,-1.8423,-0.2568709976529886,-0.05565874384742346,-0.42238748927117925,-0.030842399106426832,-0.0071757514821940704,-0.04305939394803593,0,70,255.0,255.0,255.0
171,8.55,-11.63278145028645,-1.7441915954561586,-1.8634736588789649,-0.25837396190335543,-0.05599884588760944,-0.424568069346819,-0.029276170908245525,-0.00642833012524503,-0.04416380907755368,0,70,255.0,255.0,255.0
172,8.6,-11.64573609100017,-1.7469992617376304,-1.8847577272806233,-0.2597986147438131,-0.056301576859947966,-0.42680387017893456,-0.027709942710064273,-0.005680908768296016,-0.045268224207071384,0,70,255.0,255.0,255.0
173,8.65,-11.658760006570665,-1.7498211302910227,-1.9061549662427997,-0.26114495617436184,-0.05656693676443904,-0.4290948917675262,-0.026143714511882965,-0.004933487411346976,-0.04637263933658914,0,70,255.0,255.0,255.0
174,8.700000000000001,-11.67184928142744,-1.7526553325629435,-1.9276681368033177,-0.2624129861950015,-0.056794925601082666,-0.4314411341125936,-0.024577486313701657,-0.004186066054397936,-0.04747705446610689,0,70,255.0,255.0,255.0
175,8.75,-11.685,-1.7555,-1.9493,-0.263602704805732,-0.056985543369878836,-0.43384259721413676,-0.023011258115519517,-0.0034386446974490337,-0.04858146959562237,0,70,255.0,255.0,255.0
176,8.8,-11.69820954108879,-1.7583539447264518,-1.9710522261358745,-0.2647917742630869,-0.05717963072990408,-0.43623383698428725,-0.02455152017867681,-0.004324849703560609,-0.04706812121039457,0,70,255.0,255.0,255.0
177,8.85,-11.711480460978027,-1.761218701577162,-1.9929221225747744,-0.26605785682359967,-0.05741802834023489,-0.4385494093351762,-0.02609178224183405,-0.005211054709672152,-0.04555477282516681,0,70,255.0,255.0,255.0
178,8.9,-11.72481661032287,-1.764096486064647,-2.0149059059457377,-0.2674009524872703,-0.057700736200871294,-0.4407893142668039,-0.027632044304991343,-0.006097259715783726,-0.044041424439939005,0,70,255.0,255.0,255.0
179,8.950000000000001,-11.738221839778475,-1.7669895137014213,-2.036999792877801,-0.2688210612540988,-0.05802775431181328,-0.4429535517791702,-0.02917230636814864,-0.006983464721895302,-0.04252807605471119,0,70,255.0,255.0,255.0
180,9.0,-11.7517,-1.7699,-2.0592,-0.2703181831240851,-0.05839908267306082,-0.445042121872275,-0.03071256843130632,-0.007869669728006956,-0.04101472766948344,0,70,255.0,255.0,255.0
181,9.05,-11.765253985358388,-1.772829425638035,-2.0815038365775393,-0.2718349410442908,-0.05877063119277373,-0.44712058271603394,-0.0299577483769183,-0.006992271060509379,-0.042123706080874096,0,70,255.0,255.0,255.0
182,9.1,-11.778882865087716,-1.775776331953721,-2.103912982420279,-0.273313957961777,-0.059098309779111756,-0.44925449248036237,-0.029202928322530314,-0.0061148723930118335,-0.04323268449226471,0,70,255.0,255.0,255.0
183,9.15,-11.792584752137852,-1.7787385254503898,-2.126430209974252,-0.27475523387654377,-0.059382118432074915,-0.4514438511652604,-0.028448108268142296,-0.0052374737255142575,-0.04434166290365536,0,70,255.0,255.0,255.0
184,9.200000000000001,-11.80635775945866,-1.7817138126313725,-2.149058291685482,-0.2761587687885912,-0.059622057151663195,-0.45368865877072795,-0.02769328821375428,-0.004360075058016681,-0.04545064131504602,0,70,255.0,255.0,255.0
185,9.25,-11.8202,-1.7847,-2.1718,-0.27752456269791925,-0.05981812593787659,-0.45598891529676505,-0.026938468159365847,-0.0034826763905193014,-0.046559619726436186,0,70,255.0,255.0,255.0
186,9.3,-11.834109717477657,-1.7876955527214085,-2.1946572275539715,-0.2788604615597467,-0.06000984449899963,-0.4582918321515784,-0.026497486313730428,-0.004186066054402281,-0.04555705446609693,0,70,255.0,255.0,255.0
187,9.35,-11.848085678671103,-1.7907015706079532,-2.2176283477441077,-0.2801743113292923,-0.060236732543316816,-0.46054462074337477,-0.026056504468095022,-0.004889455718285236,-0.04455448920575771,0,70,255.0,255.0,255.0
188,9.4,-11.862126781125719,-1.7937198121337934,-2.2407108541572587,-0.28146611200655614,-0.06049879007082815,-0.4627472810721541,-0.025615522622459606,-0.0055928453821682145,-0.043551923945418465,0,70,255.0,255.0,255.0
189,9.450000000000001,-11.876231922386888,-1.7967520357730893,-2.2639022403802733,-0.2827358635915383,-0.06079601708153364,-0.4648998131379166,-0.025174540776824184,-0.006296235046051195,-0.04254935868507921,0,70,255.0,255.0,255.0
190,9.5,-11.8904,-1.7998,-2.2872,-0.2839835660842386,-0.06112841357543327,-0.4670022169406621,-0.024733558931187893,-0.00699962470993426,-0.041546793424739104,0,70,255.0,255.0,255.0
191,9.55,-11.904630344730974,-1.8028651634763309,-2.3106024532065765,-0.28523521271672136,-0.06147799081122891,-0.4691040886776485,-0.0253323063681231,-0.006983464721891075,-0.042528076054719505,0,70,255.0,255.0,255.0
192,9.600000000000001,-11.918924020227868,-1.8059477856144663,-2.3341112266032904,-0.2865167967210509,-0.06182676004762239,-0.4712550245461341,-0.025931053805058307,-0.006967304733847889,-0.0435093586846999,0,70,255.0,255.0,255.0
193,9.65,-11.933282523359278,-1.8090478260144365,-2.357728773396715,-0.2878283180972272,-0.062174721284613696,-0.47345502454611854,-0.026529801241993493,-0.006951144745804705,-0.044490641314680265,0,70,255.0,255.0,255.0
194,9.700000000000001,-11.94770735099379,-1.812165244276271,-2.381457546793427,-0.2891697768452503,-0.06252187452220286,-0.4757040886776021,-0.0271285486789287,-0.006934984757761519,-0.04547192394466066,0,70,255.0,255.0,255.0
195,9.75,-11.9622,-1.8153,-2.4053,-0.2905411729651201,-0.06286821976038984,-0.47800221694058465,-0.02772729611586433,-0.006918824769718057,-0.04645320657464147,0,70,255.0,255.0,255.0
196,9.8,-11.976761703598441,-1.8184517933732682,-2.429257759619723,-0.29192668757336143,-0.06319819225608321,-0.4802998131378269,-0.02769328821378858,-0.006280075058016478,-0.045450641315046156,0,70,255.0,255.0,255.0
197,9.850000000000001,-11.991392640417418,-1.8216192869341818,-2.4533291458427335,-0.29331050178649903,-0.06349622726619149,-0.48254728107208933,-0.02765928031171283,-0.0056413253463149,-0.04444807605545084,0,70,255.0,255.0,255.0
198,9.9,-12.00609272543717,-1.824800883808461,-2.477511652255882,-0.29469261560453275,-0.0637623247907147,-0.48474462074337193,-0.02762527240963708,-0.005002575634613344,-0.04344551079585556,0,70,255.0,255.0,255.0
199,9.950000000000001,-12.020861873637951,-1.827994987121827,-2.501802772446021,-0.2960730290274627,-0.06399648482965282,-0.48689183215167486,-0.02759126450756133,-0.004363825922911766,-0.04244294553626025,0,70,255.0,255.0,255.0
200,10.0,-12.0357,-1.8312,-2.5262,-0.29745174205528885,-0.06419870738300587,-0.488988915296998,-0.027557256605483804,-0.003725076211210432,-0.041440380276664524,0,70,255.0,255.0,255.0
201,10.05,-12.05060684087526,-1.8344148630305954,-2.550701708314533,-0.2988180369898464,-0.06440124016443753,-0.4910886587710416,-0.027094540776818558,-0.004376235046055853,-0.04254935868507836,0,70,255.0,255.0,255.0
202,10.100000000000001,-12.065581418102461,-1.8376406666488063,-2.5753097900257784,-0.30016119613297076,-0.06463633088761146,-0.4932438511655059,-0.026631824948153315,-0.005027393880901273,-0.04365833709349219,0,70,255.0,255.0,255.0
203,10.15,-12.080622574892033,-1.8408790387517189,-2.6000270175797566,-0.3014812194846617,-0.06490397955252766,-0.4954544924803908,-0.026169109119488086,-0.00567855271574667,-0.04476731550190599,0,70,255.0,255.0,255.0
204,10.200000000000001,-12.095729154454405,-1.8441316072364213,-2.624856163422491,-0.3027781070449196,-0.06520418615918613,-0.49772058271569647,-0.02570639329082284,-0.00632971155059209,-0.045876293910319825,0,70,255.0,255.0,255.0
205,10.25,-12.1109,-1.8474,-2.6498,-0.304051858813744,-0.06553695070758686,-0.5000421218714227,-0.02524367746215672,-0.006980870385437488,-0.04698527231873317,0,70,255.0,255.0,255.0
206,10.3,-12.126134132900521,-1.8506855545043497,-2.6748602071221477,-0.3053131644672696,-0.06588484708616683,-0.5023535517780076,-0.025208548678865395,-0.00693498475776133,-0.04547192394466124,0,70,255.0,255.0,255.0
207,10.350000000000001,-12.141431287172743,-1.8539884464705936,-2.700034094054156,-0.30657271368163064,-0.06623044918336302,-0.5045893142658889,-0.025173419895574065,-0.006889099130085173,-0.04395857557058931,0,70,255.0,255.0,255.0
208,10.4,-12.156791374994699,-1.8573085611846627,-2.725317877425091,-0.30783050645682697,-0.06657375699917535,-0.5067494093350666,-0.02513829111228274,-0.006843213502409018,-0.04244522719651743,0,70,255.0,255.0,255.0
209,10.450000000000001,-12.172214308544438,-1.8606457839324884,-2.750707773864018,-0.30908654279285885,-0.0669147705336039,-0.5088338369855406,-0.025103162328991412,-0.0067973278747328605,-0.0409318788224455,0,70,255.0,255.0,255.0
210,10.5,-12.1877,-1.864,-2.7762,-0.3103408226897261,-0.06725348978664862,-0.5108425972173112,-0.025068033545699198,-0.006751442247056594,-0.03941853044837629,0,70,255.0,255.0,255.0
211,10.55,-12.203248627522653,-1.8673709189520062,-2.801791863196879,-0.3116093051410586,-0.06757937149089772,-0.512841134116927,-0.02567126450759903,-0.006283825922907409,-0.04052294553625694,0,70,255.0,255.0,255.0
212,10.600000000000001,-12.218861433206575,-1.8707575474688198,-2.8274850337576,-0.31290794914048603,-0.06788187237893938,-0.514894891770937,-0.026274495469498865,-0.0058162095987582246,-0.0416273606241376,0,70,255.0,255.0,255.0
213,10.65,-12.234539925129168,-1.8741587165096303,-2.8532822727198797,-0.31423675468800844,-0.06816099245077355,-0.5170038701793408,-0.02687772643139868,-0.0053485932746090556,-0.042731775712018215,0,70,255.0,255.0,255.0
214,10.700000000000001,-12.250285611367843,-1.8775732570336272,-2.8791863411214402,-0.31559572178362594,-0.06841673170640028,-0.5191680693421387,-0.027480957393298512,-0.004880976950459871,-0.043836190799898866,0,70,255.0,255.0,255.0
215,10.75,-12.2661,-1.881,-2.9052,-0.3169848504273383,-0.06864909014581953,-0.5213874892593306,-0.02808418835519566,-0.004413360626310703,-0.04494060588777771,0,70,255.0,255.0,255.0
216,10.8,-12.281984157008868,-1.8844379696876257,-2.931325140090336,-0.31837761496848954,-0.06886966695024212,-0.5236099117542834,-0.02762639329085123,-0.00440971155059231,-0.043956293910331096,0,70,255.0,255.0,255.0
217,10.850000000000001,-12.297937380000961,-1.887886963654128,-2.957560170915448,-0.31974748975642353,-0.06909006130087877,-0.5257831186503639,-0.027168598226506798,-0.004406062474873918,-0.04297198193288449,0,70,255.0,255.0,255.0
218,10.9,-12.313958524488623,-1.891346972776817,-2.9839026316953903,-0.32109447479114017,-0.0693102731977295,-0.5279071099475718,-0.026710803162162386,-0.004402413399155525,-0.041987669955437915,0,70,255.0,255.0,255.0
219,10.950000000000001,-12.330046445984191,-1.8948179879330045,-3.0103500616502235,-0.3224185700726397,-0.06953030264079432,-0.5299818856459075,-0.026253008097817956,-0.004398764323437132,-0.04100335797799131,0,70,255.0,255.0,255.0
220,11.0,-12.3462,-1.8983,-3.0369,-0.3237197756009219,-0.06975014963007321,-0.5320074457453708,-0.025795213033469544,-0.004395115247718295,-0.040019046000543845,0,70,255.0,255.0,255.0
221,11.05,-12.362417944441878,-1.9017932022974915,-3.0635507764417786,-0.3249922349849826,-0.06998196070813449,-0.5340312188659452,-0.025103162328956142,-0.004877327874732791,-0.04093187882243062,0,70,255.0,255.0,255.0
222,11.100000000000001,-12.378698646789577,-1.9052985979146695,-3.0903038825806135,-0.32623009183381757,-0.0702378824175465,-0.536100633627614,-0.02441111162444274,-0.005359540501747286,-0.041844711644317405,0,70,255.0,255.0,255.0
223,11.15,-12.395040376916338,-1.908817392383102,-3.1171616004985583,-0.32743334614742686,-0.07051791475830922,-0.538215690030377,-0.023719060919929365,-0.005841753128761765,-0.04275754446620415,0,70,255.0,255.0,255.0
224,11.200000000000001,-12.4114414046954,-1.912350791234356,-3.144126212277669,-0.32860199792581046,-0.07082205773042267,-0.5403763880742344,-0.023027010215415963,-0.006323965755776261,-0.04367037728809093,0,70,255.0,255.0,255.0
225,11.25,-12.4279,-1.9159,-3.1712,-0.3297360471689684,-0.07115031133388684,-0.542582727759186,-0.022334959510902586,-0.00680617838279074,-0.044583210109974125,0,70,255.0,255.0,255.0
226,11.3,-12.44441526522362,-1.9194660211224095,-3.198384554142551,-0.3308854450915745,-0.07149049021721811,-0.5447932127819328,-0.023640957393341308,-0.006800976950459758,-0.04383619079989688,0,70,255.0,255.0,255.0
227,11.350000000000001,-12.460989632840727,-1.9230490446871948,-3.2256786987621022,-0.3321001429083026,-0.07183040902893283,-0.5469663468391759,-0.02494695527578003,-0.006795775518128777,-0.04308917148981963,0,70,255.0,255.0,255.0
228,11.4,-12.477626367846021,-1.9266490576907755,-3.2530805663103766,-0.33338014061915255,-0.072170067769031,-0.5491021299309148,-0.026252953158218705,-0.006790574085797796,-0.042342152179742416,0,70,255.0,255.0,255.0
229,11.450000000000001,-12.49432873523421,-1.930266047129571,-3.280588289239102,-0.3347254382241244,-0.0725094664375126,-0.55120056205715,-0.027558951040657427,-0.006785372653466814,-0.041595132869665166,0,70,255.0,255.0,255.0
230,11.5,-12.5111,-1.9339,-3.3082,-0.3361360357232183,-0.07284860503437766,-0.5532616432178813,-0.028864948923095657,-0.006780171221136055,-0.0408481135595844,0,70,255.0,255.0,255.0
231,11.55,-12.52794259466364,-1.937550713212871,-3.3359142069880185,-0.33756198464874015,-0.0731760784229921,-0.5553079300063211,-0.028173008097777064,-0.006318764323441088,-0.041003357978006784,0,70,255.0,255.0,255.0
232,11.600000000000001,-12.544855621847521,-1.9412172233365512,-3.3637309223709813,-0.3389533365329961,-0.07348048146672179,-0.5573619790156821,-0.027481067272458474,-0.005857357425746121,-0.04115860239642917,0,70,255.0,255.0,255.0
233,11.65,-12.561837351699584,-1.9448983768537953,-3.3916505342599343,-0.340310091375986,-0.07376181416556671,-0.559423790245964,-0.026789126447139905,-0.0053959505280511705,-0.041313846814851556,0,70,255.0,255.0,255.0
234,11.700000000000001,-12.578886054367764,-1.9485930202473596,-3.419673430765926,-0.34163224917771,-0.0740200765195269,-0.5614933636971672,-0.02609718562182131,-0.004934543630356204,-0.04146909123327394,0,70,255.0,255.0,255.0
235,11.75,-12.596,-1.9523,-3.4478,-0.34291980993816806,-0.07425526852860234,-0.5635706993692914,-0.025405244796500526,-0.004473136732661365,-0.04162433565169632,0,70,255.0,255.0,255.0
236,11.8,-12.61317755612183,-1.9560183260261057,-3.4760306179053786,-0.344178616313465,-0.07447719609081328,-0.5656550671927858,-0.024947010215376857,-0.004403965755776395,-0.04175037728807762,0,70,255.0,255.0,255.0
237,11.850000000000001,-12.630417479769196,-1.9597476619666006,-3.504365611753976,-0.34541451095970577,-0.07469566510417999,-0.5677457370980992,-0.02448877563425319,-0.004334794778891425,-0.04187641892445893,0,70,255.0,255.0,255.0
238,11.9,-12.64771862535565,-1.963487834894043,-3.532805296649885,-0.34662749387689035,-0.07491067556870244,-0.5698427090852316,-0.024030541053129535,-0.0042656238020064565,-0.04200246056084023,0,70,255.0,255.0,255.0
239,11.950000000000001,-12.665079847294734,-1.96723867188099,-3.561349987697196,-0.3478175650650187,-0.07512222748438063,-0.5719459831541832,-0.023572306472005866,-0.004196452825121487,-0.04212850219722153,0,70,255.0,255.0,255.0
240,12.0,-12.6825,-1.971,-3.59,-0.34898472452409096,-0.07533032085121458,-0.5740555593049539,-0.023114071890883547,-0.004127281848236963,-0.04225454383360372,0,70,255.0,255.0,255.0
241,12.05,-12.699978380849046,-1.9747719826827066,-3.6187553213904717,-0.3501555500973815,-0.07555513721375709,-0.5761518012225356,-0.02371895104073537,-0.004865372653463018,-0.04159513286966358,0,70,255.0,255.0,255.0
242,12.100000000000001,-12.717516059075697,-1.9785561287970468,-3.647614630613117,-0.35135661962816456,-0.07581685811656089,-0.5782150725919203,-0.024323830190587186,-0.005603463458689072,-0.040935721905723435,0,70,255.0,255.0,255.0
243,12.15,-12.73511454687782,-1.9823542835700338,-3.6765762791405265,-0.35258793311644016,-0.07611548355962598,-0.580245373413108,-0.024928709340438986,-0.0063415542639151,-0.040276310941783314,0,70,255.0,255.0,255.0
244,12.200000000000001,-12.752775356453297,-1.9861682922286803,-3.705638618445292,-0.35384949056220844,-0.07645101354295239,-0.5822427036860987,-0.025533588490290804,-0.007079645069141154,-0.03961689997784318,0,70,255.0,255.0,255.0
245,12.25,-12.7705,-1.99,-3.7348,-0.35514129196546923,-0.07682344806654011,-0.5842070634108921,-0.026138467640141716,-0.007817735874367071,-0.03895748901390217,0,70,255.0,255.0,255.0
246,12.3,-12.788289720481982,-1.9938505432430684,-3.764059296532737,-0.3564471832970174,-0.07719025505415808,-0.5861697279170717,-0.026097185621785444,-0.006854543630351637,-0.03954909123327842,0,70,255.0,255.0,255.0
247,12.350000000000001,-12.806144683928022,-1.9977182228452124,-3.7934174657935573,-0.3577510105276478,-0.07750890242957528,-0.5881619725342201,-0.026055903603429173,-0.005891351386336202,-0.04014069345265467,0,70,255.0,255.0,255.0
248,12.4,-12.824064787133066,-2.0016006308258225,-3.822875986788008,-0.3590527736573603,-0.0777793901927917,-0.590183797262337,-0.026014621585072905,-0.004928159142320802,-0.0407322956720309,0,70,255.0,255.0,255.0
249,12.450000000000001,-12.842049926892074,-2.0054953592042883,-3.8524363385216405,-0.3603524726861551,-0.07800171834380736,-0.5922352021014231,-0.025973339566716633,-0.003964966898305368,-0.04132389789140715,0,70,255.0,255.0,255.0
250,12.5,-12.8601,-2.0094,-3.8821,-0.361650107614032,-0.07817588688262225,-0.5943161870514778,-0.025932057548361254,-0.003001774654289635,-0.04191550011078338,0,70,255.0,255.0,255.0
251,12.55,-12.878214737223022,-2.0133130443450202,-3.911868292478582,-0.3629357167145411,-0.07835584256960786,-0.596417287109178,-0.025492306472002728,-0.004196452825134295,-0.0421285021972226,0,70,255.0,255.0,255.0
252,12.600000000000001,-12.896393205212222,-2.017236579822103,-3.9417419062126573,-0.3641993382612323,-0.07859553216513569,-0.5985290372712001,-0.025052555395644202,-0.005391130995978955,-0.04234150428366182,0,70,255.0,255.0,255.0
253,12.65,-12.914634304589915,-2.021173593126676,-3.9717213737074406,-0.3654409722541055,-0.07889495566920575,-0.6006514375375442,-0.024612804319285694,-0.006585809166823572,-0.04255450637010103,0,70,255.0,255.0,255.0
254,12.700000000000001,-12.932936935978404,-2.025127070954166,-4.00180722746815,-0.3666606186931609,-0.07925411308181804,-0.6027844879082102,-0.024173053242927168,-0.007780487337668233,-0.04276750845654025,0,70,255.0,255.0,255.0
255,12.75,-12.9513,-2.0291,-4.032,-0.36785827757839823,-0.07967300440297256,-0.6049281883831983,-0.02373330216656777,-0.008975165508512628,-0.04298051054298391,0,70,255.0,255.0,255.0
256,12.8,-12.96972253062593,-2.0330940793768515,-4.062299533552936,-0.3690419498448207,-0.0800743746674137,-0.6070411236462189,-0.023613588490328484,-0.007079645069132585,-0.04153689997783905,0,70,255.0,255.0,255.0
257,12.850000000000001,-12.988204095223086,-2.037105857866375,-4.092702909355818,-0.3702196364274311,-0.08038096890988584,-0.6090818783809823,-0.023493874814089197,-0.005184124629752542,-0.04009328941269419,0,70,255.0,255.0,255.0
258,12.9,-13.006744394507278,-2.0411305966674735,-4.12320651838223,-0.3713913373262296,-0.08059278713038896,-0.6110504525874884,-0.023374161137849913,-0.0032886041903725655,-0.038649678847549385,0,70,255.0,255.0,255.0
259,12.950000000000001,-13.025343129194312,-2.0451635569790483,-4.153806751605763,-0.37255705254121607,-0.08070982932892308,-0.6129468462657371,-0.023254447461610626,-0.0013930837509925223,-0.037206068282404525,0,70,255.0,255.0,255.0
260,13.0,-13.044,-2.0492,-4.1845,-0.37371678207239056,-0.08073209550548821,-0.6147710594157288,-0.023134733785370898,0.0005024366883878972,-0.03576245771725883,0,70,255.0,255.0,255.0
261,13.05,-13.062715140273262,-2.0532370381475746,-4.215283973309672,-0.3748964839061912,-0.08077065876073615,-0.6166022183059456,-0.024053339566653533,-0.0020449668983054366,-0.03748389789141433,0,70,255.0,255.0,255.0
262,13.100000000000001,-13.081490413895438,-2.057279188712396,-4.246161656364074,-0.37612211602905593,-0.08093659219531875,-0.6185194492048702,-0.02497194534793617,-0.0045923704849987704,-0.039205338065569834,0,70,255.0,255.0,255.0
263,13.15,-13.100328117380984,-2.061332820203429,-4.2771373527636385,-0.37739367844098476,-0.08122989580923602,-0.6205227521125026,-0.025890551129218772,-0.007139774071692013,-0.04092677823972527,0,70,255.0,255.0,255.0
264,13.200000000000001,-13.119230547244355,-2.0654043011296417,-4.3082153661088025,-0.37871117114197783,-0.08165056960248797,-0.6226121270288428,-0.026809156910501404,-0.009687177658385348,-0.04264821841388077,0,70,255.0,255.0,255.0
265,13.25,-13.1382,-2.0695,-4.3394,-0.3800745941320349,-0.08219861357507455,-0.6247875739538907,-0.027727762691784008,-0.012234581245078813,-0.04436965858803443,0,70,255.0,255.0,255.0
266,13.3,-13.15723770828103,-2.0736241680328487,-4.370694173208376,-0.3814201145304035,-0.08274699028964333,-0.626966003130005,-0.02609305324295652,-0.009700487337672311,-0.04276750845653347,0,70,255.0,255.0,255.0
267,13.350000000000001,-13.176340649195167,-2.077772587284042,-4.402095265187892,-0.38268389945633063,-0.08316866230884179,-0.6290643247995441,-0.02445834379412903,-0.007166393430265811,-0.04116535832503252,0,70,255.0,255.0,255.0
268,13.4,-13.195504735968788,-2.0819389225188103,-4.43359927056322,-0.38386594890981635,-0.08346362963266991,-0.6310825389625082,-0.022823634345301602,-0.004632299522859399,-0.03956320819353162,0,70,255.0,255.0,255.0
269,13.450000000000001,-13.214725881828274,-2.086116838502386,-4.4652021839590335,-0.3849662628908607,-0.08363189226112773,-0.6330206456188974,-0.021188924896474115,-0.0020982056154528993,-0.037961058062030664,0,70,255.0,255.0,255.0
270,13.5,-13.234,-2.0903,-4.4969,-0.3859848413994638,-0.08367345019421521,-0.6348786447687111,-0.01955421544764624,0.0004358882919530682,-0.03635890793052532,0,70,255.0,255.0,255.0
271,13.55,-13.253324426602621,-2.0944838897210305,-4.5286897338568295,-0.3870070579721962,-0.08369738008069098,-0.6367177691740339,-0.021334447461648344,-0.001393083750984018,-0.03720606828238681,0,70,255.0,255.0,255.0
272,13.600000000000001,-13.272702189323898,-2.0986712621514383,-4.560572482884363,-0.38811828614562865,-0.08381275856931361,-0.6385992515969499,-0.023114679475650452,-0.0032220557939211044,-0.038053228634248294,0,70,255.0,255.0,255.0
273,13.65,-13.292137738743863,-2.102866689721331,-4.5925503649834845,-0.38931852591976124,-0.0840195856600831,-0.6405230920374588,-0.024894911489652494,-0.005051027836858126,-0.03890038898610975,0,70,255.0,255.0,255.0
274,13.700000000000001,-13.311635525442552,-2.1070747448608156,-4.62462549805507,-0.39060777729459395,-0.08431786135299943,-0.6424892904955608,-0.026675143503654603,-0.006879999879795213,-0.03974754933797124,0,70,255.0,255.0,255.0
275,13.75,-13.3312,-2.1113,-4.6568,-0.39198604027012673,-0.08470758564806262,-0.6444978469712559,-0.02845537551765709,-0.008708971922732567,-0.040594709689829145,0,70,255.0,255.0,255.0
276,13.8,-13.350834185308486,-2.11554587308303,-4.689075691364311,-0.39336765358082904,-0.08511948938759069,-0.6465309201738496,-0.02680915691043315,-0.007767177658389821,-0.04072821841391807,0,70,255.0,255.0,255.0
277,13.850000000000001,-13.370535393509245,-2.1198111641102058,-4.721453203274655,-0.3946669559611701,-0.0854843034139016,-0.6485706688126478,-0.02516293830320921,-0.006825383394047075,-0.040861727138007,0,70,255.0,255.0,255.0
278,13.9,-13.390299509055762,-2.124093518595866,-4.753932869502845,-0.3958839474111499,-0.0858020277269954,-0.6506170928876504,-0.023516719695985334,-0.005883589129704363,-0.04099523586209593,0,70,255.0,255.0,255.0
279,13.950000000000001,-13.41012241640152,-2.1283905820543514,-4.786515023820691,-0.3970186279307686,-0.08607266232687205,-0.6526701923988574,-0.021870501088761395,-0.004941794865361617,-0.04112874458618485,0,70,255.0,255.0,255.0
280,14.0,-13.43,-2.1327,-4.8192,-0.3980709975200261,-0.08629620721353154,-0.6547299673462686,-0.020224282481538847,-0.00400000060101835,-0.04126225331027111,0,70,255.0,255.0,255.0
281,14.05,-13.449929232163443,-2.1370198179468503,-4.851987500685932,-0.3991063277044773,-0.08649666236894343,-0.6567585501305757,-0.021188924896508535,-0.00401820561545696,-0.039881058062007015,0,70,255.0,255.0,255.0
282,14.100000000000001,-13.469911436639128,-2.14134968140774,-4.884874704017019,-0.400189890009677,-0.08669802777507724,-0.6587180731524693,-0.022153567311478224,-0.004036410629895571,-0.038499862813742916,0,70,255.0,255.0,255.0
283,14.15,-13.48994902503309,-2.145689635895203,-4.9178581570051385,-0.40132168443562516,-0.08690030343193297,-0.6606085364119498,-0.023118209726447875,-0.004054615644334181,-0.03711866756547887,0,70,255.0,255.0,255.0
284,14.200000000000001,-13.510044408951368,-2.1500397269217784,-4.9509344066621725,-0.4025017109823218,-0.08710348933951066,-0.6624299399090173,-0.024082852141417564,-0.004072820658772791,-0.035737472317214775,0,70,255.0,255.0,255.0
285,14.25,-13.5302,-2.1544,-4.9841,-0.40372996964976693,-0.08730758549781024,-0.6641822836436715,-0.025047494556386773,-0.004091025673211068,-0.034356277068949836,0,70,255.0,255.0,255.0
286,14.3,-13.550417686037745,-2.158770855129568,-5.017352705891965,-0.4049750356012681,-0.08753386113663551,-0.6659388793038443,-0.024755143503658768,-0.0049599998797999045,-0.035907549337961364,0,70,255.0,255.0,255.0
287,14.350000000000001,-13.570697259934251,-2.163154110258836,-5.050695180657276,-0.40620548400013284,-0.08780358548579024,-0.6677730385774676,-0.024462792450930762,-0.005828974086388741,-0.03745882160697289,0,70,255.0,255.0,255.0
288,14.4,-13.591037990811882,-2.1675519378233195,-5.084131302476603,-0.4074213148463612,-0.0881167585452744,-0.6696847614645416,-0.024170441398202767,-0.006697948292977546,-0.039010093875984364,0,70,255.0,255.0,255.0
289,14.450000000000001,-13.61143914779301,-2.1719665102585353,-5.117664949530621,-0.4086225281399531,-0.08847338031508799,-0.671674047965066,-0.02387809034547476,-0.007566922499566383,-0.04056136614499589,0,70,255.0,255.0,255.0
290,14.5,-13.6319,-2.1764,-5.1513,-0.4098091238809086,-0.08887345079523104,-0.6737408980790411,-0.023585739292745878,-0.0084358967061553,-0.04211263841400914,0,70,255.0,255.0,255.0
291,14.55,-13.652420023685576,-2.180853561534877,-5.185039275746208,-0.41099352989044535,-0.08925589308451863,-0.6758219326540464,-0.023790501088723385,-0.006861794865348369,-0.04112874458620118,0,70,255.0,255.0,255.0
292,14.600000000000001,-13.672999523623874,-2.185324277556918,-5.218881373353883,-0.412188173989781,-0.08955963028176589,-0.6778537725376613,-0.023995262884700892,-0.00528769302454144,-0.04014485075839322,0,70,255.0,255.0,255.0
293,14.65,-13.693639011719384,-2.18980821281152,-5.252823833088451,-0.4133930561789155,-0.08978466238697279,-0.6798364177298857,-0.02420002468067839,-0.0037135911837345662,-0.03916095693058529,0,70,255.0,255.0,255.0
294,14.700000000000001,-13.714338999876595,-2.1943014320440812,-5.2868641952153475,-0.4146081764578488,-0.08993098940013934,-0.6817698682307198,-0.024404786476655897,-0.0021394893429276364,-0.03817706310277733,0,70,255.0,255.0,255.0
295,14.75,-13.7351,-2.1988,-5.321,-0.415833534826581,-0.08999861132126556,-0.6836541240401636,-0.024609548272632065,-0.0005653875021210952,-0.03719316927497207,0,70,255.0,255.0,255.0
296,14.8,-13.755922219219947,-2.203301298730923,-5.355229391123203,-0.41705084483693394,-0.09006656652528802,-0.6855253900799682,-0.02408285214148575,-0.002152820658777133,-0.03765747231721069,0,70,255.0,255.0,255.0
297,14.850000000000001,-13.776804645570252,-2.207807979513493,-5.389552925927199,-0.4182418200407296,-0.09021389338714328,-0.6874198712718848,-0.023556156010339432,-0.0037402538154331704,-0.03812177535944931,0,70,255.0,255.0,255.0
298,14.9,-13.797745962310579,-2.212324010930601,-5.423971765169593,-0.41940646043796787,-0.09044059190683133,-0.6893375676159131,-0.023029459879193134,-0.005327686972089152,-0.03858607840168791,0,70,255.0,255.0,255.0
299,14.950000000000001,-13.818744852700604,-2.21685336156514,-5.458487069607992,-0.4205447660286489,-0.0907466620843522,-0.6912784791120534,-0.022502763748046817,-0.006915120128745189,-0.03905038144392653,0,70,255.0,255.0,255.0
300,15.0,-13.8398,-2.2214,-5.4931,-0.4216567368127726,-0.09113210391970586,-0.6932426057603057,-0.02197606761690185,-0.008502553285400838,-0.03951468448616513,0,70,255.0,255.0,255.0
301,15.05,-13.860910299434632,-2.2259668435414315,-5.527811159760981,-0.4227550907618313,-0.09153384081433026,-0.6951965070260849,-0.021958090345445314,-0.007566922499574722,-0.0386413661450005,0,70,255.0,255.0,255.0
302,15.100000000000001,-13.882075494095126,-2.230552604389112,-5.562618922937325,-0.4238525458473172,-0.09188879616966333,-0.6971067423748059,-0.021940113073988774,-0.006631291713748606,-0.037768047803835865,0,70,255.0,255.0,255.0
303,15.15,-13.903295539038304,-2.235154943466076,-5.597521106233177,-0.42494910206923014,-0.09219696998570512,-0.6989733118064685,-0.021922135802532237,-0.0056956609279225235,-0.036894729462671264,0,70,255.0,255.0,255.0
304,15.200000000000001,-13.924570389320987,-2.2397715216953604,-5.632515526352687,-0.4260447594275704,-0.09245836226245559,-0.700796215321073,-0.0219041585310757,-0.004760030142096408,-0.036021411121506634,0,70,255.0,255.0,255.0
305,15.25,-13.9459,-2.2444,-5.6676,-0.42713951792233773,-0.09267297299991474,-0.7025754529186191,-0.021886181259618276,-0.003824399356269992,-0.03514809278034203,0,70,255.0,255.0,255.0
306,15.3,-13.967284583041533,-2.249038527103352,-5.7027731698328745,-0.4282487921157438,-0.09287007021739437,-0.7043605818156968,-0.02248478647662485,-0.004059489342914871,-0.03625706310276639,0,70,255.0,255.0,255.0
307,15.350000000000001,-13.988725378049256,-2.2536872029300623,-5.738036982323506,-0.42938799657000026,-0.09307892193420624,-0.7062011592288958,-0.02308339169363142,-0.004294579329559751,-0.037366033425190744,0,70,255.0,255.0,255.0
308,15.4,-14.010223881536213,-2.258346615205095,-5.773394209897699,-0.430557131285107,-0.09329952815035035,-0.708097185158216,-0.023681996910637975,-0.0045296693162046224,-0.03847500374761506,0,70,255.0,255.0,255.0
309,15.450000000000001,-14.031781590015447,-2.263017351653419,-5.808847624981263,-0.43175619626106404,-0.09353188886582668,-0.7100486596036573,-0.024280602127644546,-0.004764759302849502,-0.03958397407003942,0,70,255.0,255.0,255.0
310,15.5,-14.0534,-2.2677,-5.8444,-0.4329851914978714,-0.0937760040806353,-0.71205558256522,-0.02487920734465021,-0.0049998492894942625,-0.0406929443924664,0,70,255.0,255.0,255.0
311,15.55,-14.075080168399243,-2.27239504804516,-5.880052960907524,-0.4342177407751896,-0.0940258783160914,-0.7140491657111298,-0.024422763748077076,-0.004995120128749519,-0.03905038144392703,0,70,255.0,255.0,255.0
312,15.600000000000001,-14.096821393707856,-2.277102583890642,-5.915803547768657,-0.43542746787267916,-0.09427551609351027,-0.7159606207096127,-0.023966320151503937,-0.004990390968004776,-0.03740781849538766,0,70,255.0,255.0,255.0
313,15.65,-14.118622534816847,-2.281822595713544,-5.9516476541760275,-0.43661437279034,-0.09452491741289187,-0.7177899475606686,-0.023509876554930816,-0.004985661807260034,-0.03576525554684834,0,70,255.0,255.0,255.0
314,15.700000000000001,-14.140482450617226,-2.286555071690964,-5.987581173722267,-0.4377784555281722,-0.09477408227423625,-0.7195371462642974,-0.02305343295835768,-0.0049809326465152905,-0.03412269259830897,0,70,255.0,255.0,255.0
315,15.75,-14.1624,-2.2913,-6.0236,-0.43891971608617575,-0.0950230106775434,-0.7212022168204995,-0.02259698936178456,-0.004976203485770325,-0.03248012964976965,0,70,255.0,255.0,255.0
316,15.8,-14.1843739433615,-2.296057280716008,-6.059701386537034,-0.4400322447834973,-0.09526641651824007,-0.7228667553397815,-0.021904158531075513,-0.004760030142096158,-0.03410141112151062,0,70,255.0,255.0,255.0
317,15.850000000000001,-14.206402647119324,-2.3008264615073717,-6.095888026601873,-0.44111013193928333,-0.09549901369175304,-0.7246123579326506,-0.021211327700366468,-0.004543856798421991,-0.03572269259325158,0,70,255.0,255.0,255.0
318,15.9,-14.2284843791964,-2.3056070019407304,-6.132163973398192,-0.4421533775535339,-0.09572080219808227,-0.7264390245991067,-0.02051849686965745,-0.004327683454747831,-0.03734397406499249,0,70,255.0,255.0,255.0
319,15.950000000000001,-14.250617407515653,-2.310398361582726,-6.168533280129676,-0.4431619816262491,-0.0959317820372278,-0.7283467553391498,-0.019825666038948406,-0.004111510111073664,-0.03896525553673346,0,70,255.0,255.0,255.0
320,16.0,-14.2728,-2.3152,-6.205,-0.44413594415742874,-0.09613195320918964,-0.73033555015278,-0.01913283520823672,-0.0038953367673993933,-0.04058653700847259,0,70,255.0,255.0,255.0
321,16.05,-14.295031258154767,-2.3200118290908085,-6.241567092944342,-0.4451252800908251,-0.09634845561094586,-0.7323398129297428,-0.020440602127617977,-0.0047647593028494655,-0.03958397407004027,0,70,255.0,255.0,255.0
322,16.1,-14.317313617814849,-2.324835570079874,-6.27823314582386,-0.44618000437019056,-0.0966084291394746,-0.734293947559784,-0.02174836904699923,-0.005634181838299537,-0.03858141113160795,0,70,255.0,255.0,255.0
323,16.150000000000002,-14.339650348397551,-2.329673396523536,-6.314995652231206,-0.4473001169955251,-0.09691187379477584,-0.7361979540429037,-0.023056135966380488,-0.006503604373749609,-0.03757884819317563,0,70,255.0,255.0,255.0
324,16.2,-14.362044719320167,-2.3345274819781308,-6.351852105759034,-0.44848561796682856,-0.09725878957684954,-0.7380518323791015,-0.02436390288576165,-0.00737302690919962,-0.03657628525474338,0,70,255.0,255.0,255.0
325,16.25,-14.3845,-2.3394,-6.3888,-0.4497365072841012,-0.09764917648569578,-0.7398555825683778,-0.02567166980514113,-0.008242449444649469,-0.0355737223163084,0,70,255.0,255.0,255.0
326,16.3,-14.407018624019441,-2.3442922029207582,-6.425837441685598,-0.4510026348531894,-0.098027761037975,-0.7416459929412436,-0.024973432958387134,-0.0069009326465191674,-0.03604269259832141,0,70,255.0,255.0,255.0
327,16.35,-14.429599681621278,-2.3492016581731323,-6.4629649901026935,-0.4522338505799399,-0.0983392697503477,-0.74345985182821,-0.02427519611163314,-0.005559415848388866,-0.03651166288033442,0,70,255.0,255.0,255.0
328,16.400000000000002,-14.452241427213398,-2.354125011965128,-6.500183817676989,-0.45343015446435275,-0.0985837026228139,-0.7452971592292771,-0.02357695926487914,-0.004217899050258565,-0.036980633162347426,0,70,255.0,255.0,255.0
329,16.45,-14.474942115203675,-2.359058910504748,-6.5374950968341885,-0.4545915465064278,-0.09876105965537356,-0.7471579151444446,-0.022878722418125195,-0.0028763822521283592,-0.03744960344436041,0,70,255.0,255.0,255.0
330,16.5,-14.4977,-2.364,-6.5749,-0.4557180267061653,-0.09887134084802673,-0.749042119573713,-0.022180485571370756,-0.0015348654539975026,-0.037918573726369864,0,70,255.0,255.0,255.0
331,16.55,-14.520513445767468,-2.3689457592261594,-6.612399140313266,-0.45681618049642314,-0.09896450023715342,-0.7509162153052903,-0.021745666038942783,-0.002191510111069404,-0.03704525553671923,0,70,255.0,255.0,255.0
332,16.6,-14.543381255700032,-2.3738969972275963,-6.649990893765373,-0.4578925933100596,-0.09909049185913367,-0.752746645127385,-0.02131084650651481,-0.002848154768141305,-0.036171937347068604,0,70,255.0,255.0,255.0
333,16.650000000000002,-14.566302342748864,-2.3788553556159537,-6.687673077060848,-0.4589472651470747,-0.09924931571396754,-0.7545334090399972,-0.02087602697408684,-0.0035047994252132065,-0.03529861915741797,0,70,255.0,255.0,255.0
334,16.7,-14.589275619865127,-2.3838224760028734,-6.725443506904211,-0.4599801960074682,-0.09944097180165498,-0.7562765070431268,-0.0204412074416589,-0.004161444082285061,-0.03442530096776741,0,70,255.0,255.0,255.0
335,16.75,-14.6123,-2.3888,-6.7633,-0.46099138589124056,-0.09966546012219604,-0.7579759391367739,-0.020006387909230483,-0.004818088739357185,-0.03355198277811322,0,70,255.0,255.0,255.0
336,16.8,-14.635374792910689,-2.393789560174605,-6.801241197061343,-0.4620046431611147,-0.09992223801341009,-0.7596811458375948,-0.020523902885735454,-0.005453026909204226,-0.0346562852547285,0,70,255.0,255.0,255.0
337,16.85,-14.658500895578591,-2.3987927529164828,-6.839269034835825,-0.4630437761798142,-0.10021076281311647,-0.7614415676622468,-0.02104141786224042,-0.006087965079051268,-0.035760587731343774,0,70,255.0,255.0,255.0
338,16.900000000000002,-14.681679601791151,-2.403811165571058,-6.877386274079633,-0.4641087849473388,-0.10053103452131522,-0.7632572046107293,-0.021558932838745392,-0.006722903248898309,-0.03686489020795905,0,70,255.0,255.0,255.0
339,16.95,-14.704912205335805,-2.408846385483755,-6.91559567554896,-0.4651996694636886,-0.10088305313800629,-0.7651280566830426,-0.022076447815250325,-0.007357841418745305,-0.03796919268457424,0,70,255.0,255.0,255.0
340,17.0,-14.7282,-2.4139,-6.9539,-0.4663164297288638,-0.10126681866318973,-0.7670541238791866,-0.022593962791754407,-0.007992779588592347,-0.039073495161186855,0,70,255.0,255.0,255.0
341,17.05,-14.751544182589777,-2.418972800075422,-6.992300871441362,-0.46745324685911166,-0.10163454770920774,-0.7689672013443257,-0.02287872241815912,-0.006716382252127699,-0.0374496034443762,0,70,255.0,255.0,255.0
342,17.1,-14.7749455619856,-2.4240623911064736,-7.030795366891336,-0.46860430197067976,-0.10193845688840251,-0.7707990842236242,-0.02316348204456383,-0.005439984915663051,-0.035825711727565546,0,70,255.0,255.0,255.0
343,17.150000000000002,-14.798404850086534,-2.4291655820998153,-7.069379426620628,-0.4697695950635681,-0.10217854620077406,-0.7725497725170823,-0.02344824167096854,-0.0041635875791984035,-0.03420182001075489,0,70,255.0,255.0,255.0
344,17.2,-14.821922758791644,-2.434279182062104,-7.108048990899946,-0.4709491261377765,-0.10235481564632234,-0.7742192662246996,-0.02373300129737323,-0.0028871902427338465,-0.03257792829394435,0,70,255.0,255.0,255.0
345,17.25,-14.8455,-2.4394,-7.1468,-0.4721428951933053,-0.10246726522504743,-0.7758075653464767,-0.024017760923777942,-0.0016107929062691984,-0.030954036577131916,0,70,255.0,255.0,255.0
346,17.3,-14.869136476730203,-2.4445256395237087,-7.185629717173208,-0.47330236940244114,-0.10256357114976118,-0.7773940487850993,-0.022361207441654662,-0.002241444082281117,-0.03250530096777029,0,70,255.0,255.0,255.0
347,17.35,-14.89282885647901,-2.4496568826576226,-7.224540697598836,-0.47437901593747084,-0.10269140963327554,-0.7790580954432537,-0.02070465395953138,-0.0028720952582930353,-0.03405656535840866,0,70,255.0,255.0,255.0
348,17.400000000000002,-14.916572997862716,-2.4547953060296828,-7.26353681943786,-0.4753728347983943,-0.10285078067559049,-0.7807997053209401,-0.019048100477408098,-0.0035027464343049533,-0.03560782974904704,0,70,255.0,255.0,255.0
349,17.45,-14.940364759497612,-2.4599424862678285,-7.302621960851255,-0.47628382598521163,-0.10304168427670603,-0.7826188784181584,-0.017391546995284935,-0.004133397610316827,-0.0371590941396853,0,70,255.0,255.0,255.0
350,17.5,-14.9642,-2.4651,-7.3418,-0.47711198949792283,-0.10326412043662218,-0.7845156147349085,-0.015734993513162987,-0.004764048786329078,-0.03871035853031746,0,70,255.0,255.0,255.0
351,17.55,-14.988076310489413,-2.4702694418297444,-7.381073859865806,-0.47796127553113255,-0.10351916769174895,-0.7864326035152808,-0.018236447815225123,-0.005437841418741339,-0.03796919268457105,0,70,255.0,255.0,255.0
352,17.6,-15.011998212098366,-2.475452478263035,-7.420442642713325,-0.4789356342794454,-0.10380790457849633,-0.7883125340033657,-0.02073790211728726,-0.0061116340511536,-0.037228026838824646,0,70,255.0,255.0,255.0
353,17.650000000000002,-15.03597195846261,-2.480650793781454,-7.459904495627939,-0.48003506574286126,-0.10413033109686431,-0.7901554061991634,-0.023239356419349395,-0.006785426683565861,-0.03648686099307824,0,70,255.0,255.0,255.0
354,17.7,-15.060003803217903,-2.485866072866582,-7.499457565695035,-0.48125956992138025,-0.1044864472468529,-0.7919612201026733,-0.025740810721411354,-0.007459219315978073,-0.03574569514733189,0,70,255.0,255.0,255.0
355,17.75,-15.0841,-2.4911,-7.5391,-0.4826091468150024,-0.10487625302846211,-0.7937299757138965,-0.0282422650234726,-0.00813301194838989,-0.03500452930158282,0,70,255.0,255.0,255.0
356,17.8,-15.108264681312143,-2.4963533931573147,-7.57883004336357,-0.4839565284730243,-0.1052477580832404,-0.7954675371537842,-0.02565300129740221,-0.006727190242741667,-0.034497928293921724,0,70,255.0,255.0,255.0
357,17.85,-15.13249349512753,-2.5016236042902356,-7.6186463315478745,-0.48517444694474265,-0.10554897205273628,-0.7971797685432886,-0.023063737571331816,-0.005321368537093444,-0.03399132728626063,0,70,255.0,255.0,255.0
358,17.900000000000002,-15.156779968286846,-2.5069071188445,-7.658547598050394,-0.4862629022301575,-0.10577989493694977,-0.7988666698824102,-0.020474473845261423,-0.003915546831445222,-0.03348472627859953,0,70,255.0,255.0,255.0
359,17.95,-15.181117627630774,-2.5122004222658427,-7.698532576368605,-0.48722189432926877,-0.10594052673588081,-0.8005282411711486,-0.01788521011919121,-0.0025097251257971,-0.03297812527093847,0,70,255.0,255.0,255.0
360,18.0,-15.2055,-2.5175,-7.7386,-0.48805142324207657,-0.10603086744952946,-0.8021644824095039,-0.015295946393120818,-0.0011039034201488773,-0.03247152426327293,0,70,255.0,255.0,255.0
361,18.05,-15.229922564262015,-2.522803385540998,-7.77874916667992,-0.4888686105767859,-0.106113799975291,-0.803809247869578,-0.017391546995251812,-0.0022133976103130885,-0.03331909413969055,0,70,255.0,255.0,255.0
362,18.1,-15.254388607391517,-2.528112304576021,-7.818981631095189,-0.4897905779416018,-0.10625220721056076,-0.805496391823473,-0.019487147597382806,-0.0033228918004772996,-0.03416666401610818,0,70,255.0,255.0,255.0
363,18.150000000000002,-15.278903368390008,-2.5334295308405457,-7.859299512170498,-0.49081732533652417,-0.10644608915533874,-0.8072259142711888,-0.0215827481995138,-0.00443238599064151,-0.035014233892525795,0,70,255.0,255.0,255.0
364,18.2,-15.303472086259001,-2.5387578380700466,-7.899704928830537,-0.4919488527615531,-0.10669544580962491,-0.8089978152127255,-0.02367834880164465,-0.005541880180805643,-0.03586180376894336,0,70,255.0,255.0,255.0
365,18.25,-15.3281,-2.5441,-7.9402,-0.4931851602166886,-0.10700027717341931,-0.8108120946480831,-0.025773949403772978,-0.006651374370969965,-0.036709373645360976,0,70,255.0,255.0,255.0
366,18.3,-15.352790661639805,-2.549457864678695,-7.980786089916753,-0.49442502921981835,-0.10730504201559313,-0.8126234713679008,-0.023820810721414416,-0.0055392193159823425,-0.03574569514734927,0,70,255.0,255.0,255.0
367,18.35,-15.377540875306414,-2.5548295774056804,-8.021461544071377,-0.4955672412888301,-0.10755419910501755,-0.8143866641628181,-0.021867672039055853,-0.004427064260994719,-0.03478201664933757,0,70,255.0,255.0,255.0
368,18.400000000000002,-15.402345758153121,-2.560212357793318,-8.062223953267623,-0.49661179642372394,-0.1077477484416926,-0.8161016730328347,-0.019914533356697288,-0.0033149092060070964,-0.03381833815132587,0,70,255.0,255.0,255.0
369,18.45,-15.427200427333215,-2.56560342545397,-8.103070908309244,-0.4975586946244998,-0.10788569002561826,-0.8177684979779507,-0.017961394674338865,-0.002202754151019553,-0.03285465965331424,0,70,255.0,255.0,255.0
370,18.5,-15.4521,-2.571,-8.144,-0.4984079358911578,-0.10796802385679455,-0.8193871389981662,-0.016008255991978526,-0.001090599096031486,-0.03189098115530342,0,70,255.0,255.0,255.0
371,18.55,-15.477041189178767,-2.5764003557442225,-8.185009673653068,-0.49925527254393787,-0.10805803196234025,-0.8210088666588218,-0.01788521011922513,-0.0025097251257969002,-0.03297812527091894,0,70,255.0,255.0,255.0
372,18.6,-15.502027091382832,-2.581806985801259,-8.226101792619314,-0.5001964569030803,-0.10821899636937424,-0.8226849515252581,-0.019762164246471734,-0.0039288511555623145,-0.03406526938653445,0,70,255.0,255.0,255.0
373,18.650000000000002,-15.527062398997517,-2.587223437986185,-8.267279074759024,-0.5012314889685852,-0.10845091707789649,-0.8244153935974753,-0.02163911837371834,-0.005347977185327728,-0.035152413502149975,0,70,255.0,255.0,255.0
374,18.7,-15.552151804408131,-2.5926532601140737,-8.30854423793249,-0.5023603687404521,-0.108753794087907,-0.826200192875473,-0.02351607250096481,-0.006767103215093042,-0.036239557617765414,0,70,255.0,255.0,255.0
375,18.75,-15.5773,-2.5981,-8.3499,-0.5035830962186815,-0.10912762739940579,-0.8280393493592517,-0.02539302662821097,-0.0081862292448589,-0.03732670173338093,0,70,255.0,255.0,255.0
376,18.8,-15.602510181645126,-2.6035663123444164,-8.39134801547098,-0.5048098806044279,-0.1095188301350471,-0.8298690619968099,-0.02367834880164403,-0.007461880180793024,-0.03586180376894317,0,70,255.0,255.0,255.0
377,18.85,-15.627779559162255,-2.609051279389285,-8.432885685451378,-0.5059509310988459,-0.1098738154174851,-0.831625529736146,-0.021963670975077093,-0.0067375311167271485,-0.03439690580450541,0,70,255.0,255.0,255.0
378,18.900000000000002,-15.653103845856823,-2.6145530902619454,-8.47450934769629,-0.5070062477019356,-0.11019258324671982,-0.8333087525772604,-0.020248993148510155,-0.006013182052661273,-0.03293200784006765,0,70,255.0,255.0,255.0
379,18.95,-15.678478755034257,-2.6200699340897367,-8.5162153399608,-0.5079758304136969,-0.11047513362275123,-0.8349187305201528,-0.018534315321943343,-0.005288832988595448,-0.03146710987562999,0,70,255.0,255.0,255.0
380,19.0,-15.7039,-2.6256,-8.558,-0.50885967923413,-0.11072146654557936,-0.8364554635648234,-0.016819637495377293,-0.004564483924529461,-0.030002211911192234,0,70,255.0,255.0,255.0
381,19.05,-15.729364484240735,-2.6311415948781125,-8.599860664463021,-0.509729205038372,-0.1109386474974684,-0.8379788853539366,-0.017961394674303948,-0.004122754151031732,-0.030934659653336652,0,70,255.0,255.0,255.0
382,19.1,-15.754873871968154,-2.6366934966416022,-8.64179866557518,-0.5106558187015604,-0.11113374196068254,-0.8395489295301571,-0.019103151853230603,-0.003681024377534002,-0.03186710739548107,0,70,255.0,255.0,255.0
383,19.150000000000002,-15.780431017575207,-2.642254600966036,-8.683816334455825,-0.5116395202236952,-0.1113067499352218,-0.8411655960934847,-0.020244909032157258,-0.0032392946040362726,-0.03279955513762549,0,70,255.0,255.0,255.0
384,19.200000000000003,-15.80603877545484,-2.6478238035269803,-8.725916002224315,-0.5126803096047762,-0.11145767142108617,-0.8428288850439196,-0.021386666211083913,-0.002797564830538543,-0.03373200287976991,0,70,255.0,255.0,255.0
385,19.25,-15.8317,-2.6534,-8.7681,-0.5137781868448035,-0.11158650641827565,-0.8445387963814616,-0.022528423390010488,-0.002355835057040845,-0.03466445062191337,0,70,255.0,255.0,255.0
386,19.3,-15.857416681391943,-2.658982508143134,-8.810370126676933,-0.514881299242078,-0.11171857987507902,-0.8462633965874528,-0.021596072500968674,-0.002927103215093693,-0.03431955761773597,0,70,255.0,255.0,255.0
387,19.35,-15.883187352965132,-2.6645723340443066,-8.85272605224791,-0.5159377940949004,-0.11187921673978503,-0.8479707521432353,-0.020663721611926863,-0.003498371373146541,-0.033974664613558574,0,70,255.0,255.0,255.0
388,19.400000000000002,-15.909009683842356,-2.6701709058739116,-8.895166914480422,-0.5169476714032707,-0.11206841701239369,-0.8496608630488087,-0.01973137072288505,-0.004069639531199389,-0.03362977160938117,0,70,255.0,255.0,255.0
389,19.450000000000003,-15.934881343146387,-2.675779651802344,-8.937691851141956,-0.5179109311671889,-0.11228618069290497,-0.8513337293041734,-0.018799019833843238,-0.004640907689252237,-0.03328487860520377,0,70,255.0,255.0,255.0
390,19.5,-15.9608,-2.6814,-8.9803,-0.5188275733866549,-0.11253250778131889,-0.852989350909329,-0.0178666689448006,-0.005212175847305045,-0.03293998560102285,0,70,255.0,255.0,255.0
391,19.55,-15.986763990191506,-2.687033172549351,-9.022990828829249,-0.5197375979933244,-0.1127950330022164,-0.8546475282962452,-0.0185343153219785,-0.005288832988595461,-0.03338710987562426,0,70,255.0,255.0,255.0
392,19.6,-16.012774316171317,-2.6926795671811727,-9.065765125433188,-0.5206810049188527,-0.11306139108017844,-0.8563280618968916,-0.019201961699156396,-0.005365490129885877,-0.03383423415022568,0,70,255.0,255.0,255.0
393,19.650000000000002,-16.038832647055372,-2.69833937553832,-9.108624007622502,-0.52165779416324,-0.113331582015205,-0.8580309517112678,-0.019869608076334293,-0.005442147271176293,-0.03428135842482709,0,70,255.0,255.0,255.0
394,19.700000000000003,-16.06494065195962,-2.7040127892636443,-9.151568593207879,-0.5226679657264862,-0.11360560580729608,-0.8597561977393743,-0.02053725445351219,-0.005518804412466709,-0.0347284826994285,0,70,255.0,255.0,255.0
395,19.75,-16.0911,-2.7097,-9.1946,-0.5237115196085912,-0.11388346245645165,-0.8615037999812105,-0.021204900830690043,-0.00559546155375612,-0.035175606974028995,0,70,255.0,255.0,255.0
396,19.8,-16.117312157842044,-2.715400801659464,-9.237718558006073,-0.5247763087846339,-0.11414128811605889,-0.8632264902275564,-0.021386666211015818,-0.004717564830533748,-0.033732002879803935,0,70,255.0,255.0,255.0
397,19.85,-16.143577782349613,-2.7211133972310035,-9.280921446019343,-0.5258501862296928,-0.11435521893950502,-0.8648770002691909,-0.02156843159134159,-0.003839668107311375,-0.032288398785578876,0,70,255.0,255.0,255.0
398,19.900000000000002,-16.169897327936166,-2.726835591972812,-9.32420505502958,-0.5269331519437681,-0.11452525492679004,-0.8664553301061143,-0.021750196971667364,-0.002961771384089003,-0.030844794691353823,0,70,255.0,255.0,255.0
399,19.950000000000003,-16.196271249015144,-2.73256519114308,-9.367565776026547,-0.5280252059268595,-0.11465139607791394,-0.8679614797383264,-0.02193196235199314,-0.0020838746608666304,-0.029401190597128764,0,70,255.0,255.0,255.0
400,20.0,-16.2227,-2.7383,-9.411,-0.5291263481789672,-0.11473364239287671,-0.8693954491658272,-0.02211372773231446,-0.0012059779376437652,-0.027957586502899368,0,70,255.0,255.0,255.0
401,20.05,-16.249183378440325,-2.744038820812796,-9.454505339146463,-0.5301971668681219,-0.11483181453354901,-0.87083051079353,-0.02071901983387077,-0.002720907689248086,-0.02944487860520921,0,70,255.0,255.0,255.0
402,20.1,-16.27571855443023,-2.7497844438948147,-9.49808429048944,-0.5311982501623543,-0.11500573316180152,-0.8723399370263483,-0.01932431193542708,-0.004235837440852407,-0.030932170707519056,0,70,255.0,255.0,255.0
403,20.150000000000002,-16.302302041199976,-2.755540656570436,-9.541740572259183,-0.5321295980616646,-0.11525539827763426,-0.8739237278642819,-0.01792960403698339,-0.005750767192456727,-0.0324194628098289,0,70,255.0,255.0,255.0
404,20.200000000000003,-16.328930351979814,-2.7613112461640386,-9.585477902685955,-0.5329912105660527,-0.11558080988104721,-0.8755818833073311,-0.0165348961385397,-0.007265696944061048,-0.033906754912138744,0,70,255.0,255.0,255.0
405,20.25,-16.3556,-2.7671,-9.6293,-0.5337830876755185,-0.11598196797204034,-0.8773144033554956,-0.015140188240094332,-0.008780626695664595,-0.03539404701444404,0,70,255.0,255.0,255.0
406,20.3,-16.382308728396666,-2.772909515089354,-9.673209685408079,-0.5345790237428598,-0.11638745374974371,-0.8790674665983416,-0.01669725445355541,-0.007438804412470116,-0.03472848269939312,0,70,255.0,255.0,255.0
407,20.35,-16.409059199929462,-2.778737627189739,-9.717206192022907,-0.5354528131208741,-0.11672584841328737,-0.8807872516254349,-0.018254320667016488,-0.006096982129275636,-0.034062918384342195,0,70,255.0,255.0,255.0
408,20.400000000000002,-16.43585530726393,-2.7845809817454468,-9.761287855933693,-0.5364044558095615,-0.11699715196267128,-0.8824737584367758,-0.019811386880477566,-0.004755159846081157,-0.03339735406929127,0,70,255.0,255.0,255.0
409,20.450000000000003,-16.4627009430656,-2.79043622420077,-9.805453013229656,-0.537433951808922,-0.11720136439789548,-0.8841269870323641,-0.021368453093938644,-0.003413337562886677,-0.03273178975424034,0,70,255.0,255.0,255.0
410,20.5,-16.4896,-2.7963,-9.8497,-0.5385413011189553,-0.11733848571895994,-0.8857469374121997,-0.022925519307397835,-0.002071515279692182,-0.032066225439185025,0,70,255.0,255.0,255.0
411,20.55,-16.516555307973015,-2.8021695188297895,-9.894027119221226,-0.53966273816044,-0.11744237046747391,-0.8873316228131074,-0.02193196235199045,-0.0020838746608666803,-0.03132119059712276,0,70,255.0,255.0,255.0
412,20.6,-16.543565445851918,-2.8080442473462317,-9.938432541418944,-0.5407344973541544,-0.11754687318504661,-0.888879056471912,-0.020938405396583065,-0.002096234042041179,-0.030576155755060497,0,70,255.0,255.0,255.0
413,20.650000000000002,-16.570627929744305,-2.8139242164477793,-9.982914404006051,-0.5417565787000983,-0.11765199387167803,-0.8903892383886135,-0.01994484844117568,-0.002108593423215677,-0.029831120912998235,0,70,255.0,255.0,255.0
414,20.700000000000003,-16.597740275757797,-2.8198094570328838,-10.027470844395438,-0.5427289821982719,-0.11775773252736818,-0.8918621685632119,-0.018951291485768296,-0.0021209528043901757,-0.02908608607093597,0,70,255.0,255.0,255.0
415,20.75,-16.6249,-2.8257,-10.0721,-0.543651707848675,-0.11786408915211703,-0.893297846995707,-0.017957734530358316,-0.002133312185564562,-0.02834105122887376,0,70,255.0,255.0,255.0
416,20.8,-16.65210523971127,-2.8315964095914867,-10.116801037707026,-0.5445620236153956,-0.11800306438035789,-0.8947580421492326,-0.01845489613846621,-0.0034256969440697076,-0.03006675491214621,0,70,255.0,255.0,255.0
417,20.85,-16.679356616662883,-2.8375013834253346,-10.161577242301329,-0.5454971974625217,-0.11820665884652401,-0.8963045224869217,-0.018952057746574106,-0.004718081702574853,-0.03179245859541866,0,70,255.0,255.0,255.0
418,20.900000000000002,-16.70665537375886,-2.843418152463438,-10.20643292804212,-0.546457229390053,-0.11847487255061538,-0.8979372880087745,-0.019449219354682,-0.00601046646108,-0.033518162278691116,0,70,255.0,255.0,255.0
419,20.950000000000003,-16.734002753903226,-2.849349947667695,-10.25137240918861,-0.5474421193979898,-0.11880770549263202,-0.8996563387147908,-0.019946380962789896,-0.007302851219585145,-0.03524386596196357,0,70,255.0,255.0,255.0
420,21.0,-16.7614,-2.8553,-10.2964,-0.548451867486332,-0.11920515767257388,-0.9014616746049707,-0.02044354257089598,-0.008595235978090643,-0.036969569645234124,0,70,255.0,255.0,255.0
421,21.05,-16.788847733181914,-2.861270442804262,-10.341518329950684,-0.5494491673779547,-0.11960137201109809,-0.9032522085899575,-0.01944845309401034,-0.007253337562877874,-0.03465178975423285,0,70,255.0,255.0,255.0
422,21.1,-16.816344087496564,-2.867259018952431,-10.386723289375754,-0.550396712795733,-0.11993049142886168,-0.904926853580394,-0.018453363617124702,-0.005911439147665105,-0.03233400986323158,0,70,255.0,255.0,255.0
423,21.150000000000002,-16.84388657522026,-2.873262373698469,-10.432009083825482,-0.5512945037396672,-0.12019251592586462,-0.9064856095762807,-0.017458274140239063,-0.004569540732452335,-0.030016229972230316,0,70,255.0,255.0,255.0
424,21.200000000000003,-16.8714727086293,-2.879277152296338,-10.477369918850142,-0.5521425402097571,-0.12038744550210691,-0.9079284765776172,-0.016463184663353423,-0.0032276423172395664,-0.027698450081229044,0,70,255.0,255.0,255.0
425,21.25,-16.8991,-2.8853,-10.5228,-0.5529408222060026,-0.12051528015758856,-0.9092554545844034,-0.015468095186466968,-0.0018857439020265598,-0.02538067019022705,0,70,255.0,255.0,255.0
426,21.3,-16.926767027561073,-2.891328219191466,-10.568295242490244,-0.5537533068728085,-0.12061544757524896,-0.9105691234909326,-0.017031291485770716,-0.0021209528043899116,-0.027166086070941044,0,70,255.0,255.0,255.0
427,21.35,-16.954476633350865,-2.8973617407649437,-10.613858400195662,-0.5546439513545797,-0.12072737543802756,-0.9119720631914975,-0.018594487785074464,-0.002356161706753264,-0.02895150195165504,0,70,255.0,255.0,255.0
428,21.400000000000002,-16.982232725360117,-2.9034011527426875,-10.659493936655961,-0.555612755651316,-0.12085106374592429,-0.9134642736860981,-0.020157684084378215,-0.0025913706091166156,-0.030736917832369037,0,70,255.0,255.0,255.0
429,21.450000000000003,-17.01003921157958,-2.909447043146955,-10.705206315410841,-0.5566597197630175,-0.12098651249893921,-0.9150457549747345,-0.021720880383681963,-0.0028265795114799674,-0.03252233371308303,0,70,255.0,255.0,255.0
430,21.5,-17.0379,-2.9155,-10.751,-0.5577848436896842,-0.12113372169707229,-0.9167165070574063,-0.023284076682987376,-0.0030617884138426366,-0.03430774959379779,0,70,255.0,255.0,255.0
431,21.55,-17.065817756573793,-2.9215606804298737,-10.79687830008835,-0.5589136051308268,-0.12129683768790799,-0.9184072974463005,-0.021866380962717338,-0.0034628512195854777,-0.03332386596196829,0,70,255.0,255.0,255.0
432,21.6,-17.093790179099983,-2.927630017987796,-10.842839909841604,-0.5599714817859559,-0.12148000681903084,-0.9200488936536031,-0.0204486852424473,-0.0038639140253283193,-0.03233998233013879,0,70,255.0,255.0,255.0
433,21.650000000000002,-17.121813723339283,-2.933709015330782,-10.888882369550684,-0.5609584736550716,-0.12168322909044083,-0.9216412956793144,-0.01903098952217726,-0.00426497683107116,-0.03135609869830929,0,70,255.0,255.0,255.0
434,21.700000000000003,-17.14988484505239,-2.939798675115845,-10.935003219506509,-0.5618745807381738,-0.12190650450213796,-0.9231845035234341,-0.017613293801907223,-0.004666039636814002,-0.03037221506647979,0,70,255.0,255.0,255.0
435,21.75,-17.178,-2.9459,-10.9812,-0.5627198030352623,-0.1221498330541222,-0.9246785171859622,-0.016195598081637286,-0.005067102442556259,-0.02938833143464592,0,70,255.0,255.0,255.0
436,21.8,-17.206156346143775,-2.9520138590890403,-11.027470757156362,-0.5635362726038871,-0.122405201673117,-0.9261536867238597,-0.01646318466335331,-0.0051476423172349475,-0.029618450081256503,0,70,255.0,255.0,255.0
437,21.85,-17.23435385024921,-2.9581405872838737,-11.073815560437925,-0.5643661215015976,-0.12266459728584571,-0.9276403621940879,-0.016730771245069328,-0.005228182191913635,-0.02984856872786708,0,70,255.0,255.0,255.0
438,21.900000000000002,-17.262593181282753,-2.9642803859341873,-11.12023498514131,-0.5652093497283941,-0.12292801989230837,-0.9291385435966465,-0.016998357826785347,-0.005308722066592323,-0.030078687374477664,0,70,255.0,255.0,255.0
439,21.950000000000003,-17.290875008210868,-2.9704334563896673,-11.16672960656313,-0.5660659572842762,-0.12319546949250494,-0.9306482309315357,-0.01726594440850137,-0.005389261941271011,-0.030308806021088243,0,70,255.0,255.0,255.0
440,22.0,-17.3192,-2.9766,-11.2133,-0.5669359441692441,-0.12346694608643545,-0.9321694241987554,-0.017533530990217372,-0.005469801815949471,-0.030538924667701473,0,70,255.0,255.0,255.0
441,22.05,-17.347568858851115,-2.982779883213965,-11.259946671286208,-0.5678213044535935,-0.1237223556196215,-0.9336979556582743,-0.01788088038375975,-0.004746579511492278,-0.03060233371305454,0,70,255.0,255.0,255.0
442,22.1,-17.37598241990319,-2.9889716328767086,-11.3066698484067,-0.5687240322076201,-0.12394160403758468,-0.9352296575700609,-0.018228229777302127,-0.004023357207035085,-0.030665742758407614,0,70,255.0,255.0,255.0
443,22.150000000000002,-17.404441551529704,-2.99517344093247,-11.353469689884086,-0.5696441274313238,-0.12412469134032501,-0.9367645299341151,-0.018575579170844507,-0.003300134902577892,-0.030729151803760683,0,70,255.0,255.0,255.0
444,22.200000000000003,-17.43294712210415,-3.0013834993254873,-11.400346354240984,-0.5705815901247046,-0.12427161752784248,-0.9383025727504369,-0.018922928564386883,-0.0025769125981206986,-0.03079256084911375,0,70,255.0,255.0,255.0
445,22.25,-17.4615,-3.0076,-11.4473,-0.5715364202877625,-0.12438238260013708,-0.9398437860190265,-0.019270277957931903,-0.0018536902936631128,-0.03085596989446593,0,70,255.0,255.0,255.0
446,22.3,-17.49010101845177,-3.0138218080551002,-11.49433055769881,-0.5725065095817584,-0.12449737584839889,-0.9413744906430492,-0.019533293801903367,-0.002746039636809518,-0.030372215066442002,0,70,255.0,255.0,255.0
447,22.35,-17.518750870138046,-3.0200504812092928,-11.541437045935282,-0.5734897496679529,-0.12465698656381805,-0.9428810075256708,-0.019796309645874827,-0.003638388979955923,-0.029888460238418076,0,70,255.0,255.0,255.0
448,22.400000000000002,-17.547450212598438,-3.0262882503359347,-11.588618255322354,-0.574486140546346,-0.1248612147463945,-0.9443633366668911,-0.02005932548984629,-0.004530738323102328,-0.029404705410394152,0,70,255.0,255.0,255.0
449,22.450000000000003,-17.576199703372552,-3.032537346308385,-11.635872976472951,-0.5754956822169376,-0.12511006039612826,-0.9458214780667102,-0.020322341333817755,-0.005423087666248733,-0.028920950582370226,0,70,255.0,255.0,255.0
450,22.5,-17.605,-3.0388,-11.6832,-0.5765183746797276,-0.12540352351301937,-0.947255431725128,-0.020585357177786534,-0.006315437009395186,-0.02843719575434278,0,70,255.0,255.0,255.0
451,22.55,-17.633851067341805,-3.0450776845656344,-11.730598297918561,-0.5775126572193829,-0.1256961409867858,-0.9486760817695148,-0.019185944408427583,-0.005389261941262444,-0.028388806021127165,0,70,255.0,255.0,255.0
452,22.6,-17.66275009954463,-3.051368842286122,-11.778067567852174,-0.5784369691205703,-0.12594244970714563,-0.9500943123272407,-0.01778653163906863,-0.004463086873129703,-0.02834041628791155,0,70,255.0,255.0,255.0
453,22.650000000000002,-17.691693598076558,-3.0576711577237923,-11.825607688826508,-0.5792913103832898,-0.12614244967409877,-0.9515101233983061,-0.01638711886970968,-0.0035369118049969612,-0.028292026554695936,0,70,255.0,255.0,255.0
454,22.700000000000003,-17.720678064405654,-3.0639823154409753,-11.87321853986723,-0.5800756810075414,-0.12629614088764532,-0.9529235149827104,-0.014987706100350728,-0.002610736736864219,-0.02824363682148032,0,70,255.0,255.0,255.0
455,22.75,-17.7497,-3.0703,-11.9209,-0.5807900809933249,-0.12640352334778523,-0.954334487080454,-0.01358829333099365,-0.0016845616687313214,-0.028195247088261155,0,70,255.0,255.0,255.0
456,22.8,-17.77875711218101,-3.0766226536823624,-11.96865225062695,-0.5815068615407096,-0.12651006020445651,-0.9557611822788884,-0.015082928564398678,-0.0025769125981203304,-0.0288725608491177,0,70,255.0,255.0,255.0
457,22.85,-17.807851931683434,-3.0829517496462207,-12.016476682656023,-0.5822983738497648,-0.12666121460759727,-0.9572217431653658,-0.016577563797803705,-0.0034692635275093394,-0.029549874609974245,0,70,255.0,255.0,255.0
458,22.900000000000002,-17.83698819509535,-3.089289518768897,-12.064374989371622,-0.58316461792049,-0.12685698655720745,-0.9587161697398859,-0.018072199031208734,-0.004361614456898349,-0.03022718837083079,0,70,255.0,255.0,255.0
459,22.950000000000003,-17.86616963900485,-3.0956381919277156,-12.112348864058148,-0.5841055937528856,-0.1270973760532871,-0.960244462002449,-0.01956683426461376,-0.005253965386287357,-0.030904502131687335,0,70,255.0,255.0,255.0
460,23.0,-17.8954,-3.102,-12.1604,-0.5851213013469515,-0.1273823830958362,-0.9618066199530546,-0.021061469498021346,-0.006146316315676303,-0.03158181589254383,0,70,255.0,255.0,255.0
461,23.05,-17.92468208393415,-3.108376500704916,-12.208529499573638,-0.5861558966177493,-0.12767161819538456,-0.9633671891149274,-0.02032234133388452,-0.005423087666257354,-0.030840950582365058,0,70,255.0,255.0,255.0
462,23.1,-17.954014973721634,-3.1147665591289972,-12.256736101523733,-0.58715353548034,-0.12792469186246191,-0.9648907150112911,-0.019583213169747694,-0.0046998590168384055,-0.030100085272186286,0,70,255.0,255.0,255.0
463,23.150000000000002,-17.98339682154205,-3.121168367200621,-12.305017953687011,-0.588114217934724,-0.1281416040970684,-0.966377197642146,-0.01884408500561087,-0.003976630367419456,-0.02935921996200751,0,70,255.0,255.0,255.0
464,23.200000000000003,-18.012825779574975,-3.127580116848163,-12.353373203900192,-0.589037943980901,-0.12832235489920388,-0.9678266370074919,-0.01810495684147404,-0.003253401718000507,-0.02861835465182874,0,70,255.0,255.0,255.0
465,23.25,-18.0423,-3.134,-12.4018,-0.5899247136188714,-0.12846694426886843,-0.9692390331073288,-0.017365828677338158,-0.0025301730685816093,-0.027877489341646466,0,70,255.0,255.0,255.0
466,23.3,-18.071817752082385,-3.140426543497975,-12.450296951078494,-0.5907815519883135,-0.1285954670140046,-0.970642061261407,-0.016907706100346327,-0.0026107367368643176,-0.028243636821477486,0,70,255.0,255.0,255.0
467,23.35,-18.10137777343002,-3.146859613837791,-12.498864511249042,-0.5916154842289061,-0.12872801794255487,-0.9720633967894766,-0.016449583523354492,-0.002691300405147026,-0.028609784301308505,0,70,255.0,255.0,255.0
468,23.400000000000002,-18.13097891873646,-3.15329941242862,-12.547503595880343,-0.592426510340649,-0.1288645970545193,-0.9735030396915378,-0.01599146094636266,-0.0027718640734297343,-0.028975931781139525,0,70,255.0,255.0,255.0
469,23.450000000000003,-18.16062004269527,-3.159746140679633,-12.596215120341096,-0.5932146303235424,-0.12900520434989782,-0.9749609899675906,-0.015533338369370826,-0.002852427741712442,-0.029342079260970544,0,70,255.0,255.0,255.0
470,23.5,-18.1903,-3.1662,-12.645,-0.5939798441775861,-0.12914983982869052,-0.9764372476176348,-0.015075215792379026,-0.0029329914099947008,-0.02970822674079976,0,70,255.0,255.0,255.0
471,23.55,-18.22001810773632,-3.172661325303187,-12.693858696112386,-0.5947498954290095,-0.12930651374859747,-0.9779045658394472,-0.01572683426455584,-0.003333965386283083,-0.02898450213169176,0,70,255.0,255.0,255.0
472,23.6,-18.249775532558296,-3.17913098551984,-12.742789853480105,-0.5955525276040418,-0.12948323636731884,-0.979335697830804,-0.01637845273673266,-0.003734939362571466,-0.02826077752258376,0,70,255.0,255.0,255.0
473,23.650000000000002,-18.279573903512116,-3.185609983084899,-12.791791662791628,-0.5963877407026827,-0.12968000768485463,-0.9807306435917056,-0.017030071208909474,-0.004135913338859848,-0.02753705291347576,0,70,255.0,255.0,255.0
474,23.700000000000003,-18.309414849643957,-3.192099320433306,-12.840862314735435,-0.5972555347249328,-0.1298968277012048,-0.9820894031221516,-0.017681689681086292,-0.004536887315148231,-0.026813328304367758,0,70,255.0,255.0,255.0
475,23.75,-18.3393,-3.1986,-12.89,-0.5981559096707912,-0.1301336964163694,-0.9834119764221423,-0.018333308153256844,-0.004937861291435919,-0.026089603695256258,0,70,255.0,255.0,255.0
476,23.8,-18.369230616972352,-3.205112955289277,-12.939203464471959,-0.5990668662956595,-0.1303864779916054,-0.9847316753808186,-0.018104956841473015,-0.005173401718004559,-0.026698354651796673,0,70,255.0,255.0,255.0
477,23.85,-18.399206496336806,-3.2116388440828496,-12.988473674830546,-0.5999664053549385,-0.13065103658816987,-0.9860818118873219,-0.01787660552968919,-0.005408942144573199,-0.027307105608337084,0,70,255.0,255.0,255.0
478,23.900000000000002,-18.429227067215088,-3.2181782552317832,-13.037812152953158,-0.6008545268486284,-0.13092737220606274,-0.9874623859416524,-0.01764825421790536,-0.005644482571141839,-0.027915856564877498,0,70,255.0,255.0,255.0
479,23.950000000000003,-18.459291758728913,-3.2247317775871442,-13.087220420717179,-0.6017312307767292,-0.13121548484528406,-0.9888733975438099,-0.01741990290612153,-0.005880022997710479,-0.028524607521417913,0,70,255.0,255.0,255.0
480,24.0,-18.4894,-3.2313,-13.1367,-0.6025965171392406,-0.13151537450583378,-0.9903148466937941,-0.01719155159433594,-0.0061155634242795465,-0.029133358477951177,0,70,255.0,255.0,255.0
481,24.05,-18.51955142437428,-3.237882853539704,-13.186252245999782,-0.6034626393883331,-0.1317875742849835,-0.9917767326372671,-0.017453338369366914,-0.004772427741708077,-0.02934207926096768,0,70,255.0,255.0,255.0
482,24.1,-18.549746482094477,-3.2444776381487634,-13.235877847197713,-0.6043418509761773,-0.13199261728000458,-0.993249054619891,-0.017715125144397888,-0.003429292059136608,-0.02955080004398419,0,70,255.0,255.0,255.0
483,24.150000000000002,-18.579985827627542,-3.25108099598797,-13.285577325395757,-0.605234151902773,-0.13213050349089714,-0.9947318126416655,-0.01797691191942886,-0.002086156376565139,-0.029759520827000695,0,70,255.0,255.0,255.0
484,24.200000000000003,-18.610270115440407,-3.257689569218117,-13.335351202395866,-0.6061395421681202,-0.13220123291766112,-0.9962250067025911,-0.018238698694459834,-0.0007430206939936694,-0.0299682416100172,0,70,255.0,255.0,255.0
485,24.25,-18.6406,-3.2643,-13.3852,-0.607058021772219,-0.13220480556029654,-0.9977286368026671,-0.01850048546949168,0.0006001149885779267,-0.030176962393027473,0,70,255.0,255.0,255.0
486,24.3,-18.670975685530536,-3.270910030551906,-13.435123551528921,-0.6079625761509851,-0.1322072248684608,-0.9992013940701036,-0.01768168968115161,-0.000696887315147939,-0.028733328304429564,0,70,255.0,255.0,255.0
487,24.35,-18.70139557528527,-3.277521803322099,-13.485118936378605,-0.6088261907403342,-0.13227449429181135,-1.00060196963311,-0.016862893892811547,-0.0019938896188738046,-0.027289694215831654,0,70,255.0,255.0,255.0
488,24.400000000000002,-18.731857622274745,-3.28413856081634,-13.535182545463826,-0.6096488655402663,-0.13240661383034816,-1.0019303634916867,-0.01604409810447148,-0.00329089192259967,-0.025846060127233745,0,70,255.0,255.0,255.0
489,24.450000000000003,-18.762359779509477,-3.2907635455403876,-13.585310769699367,-0.6104306005507814,-0.1326035834840713,-1.0031865756458334,-0.015225302316131416,-0.004587894226325536,-0.024402426038635835,0,70,255.0,255.0,255.0
490,24.5,-18.7929,-3.2974,-13.6355,-0.6111713957718794,-0.13286540325298068,-1.0043706060955502,-0.014406506527791407,-0.005884896530051087,-0.022958791950030033,0,70,255.0,255.0,255.0
491,24.55,-18.82347703350358,-3.3040506242526733,-13.685747947884538,-0.6119190560077273,-0.13315952624117475,-1.0055616910823348,-0.015499902906125145,-0.005880022997710732,-0.024684607521354377,0,70,255.0,255.0,255.0
492,24.6,-18.85409281676442,-3.310715948562841,-13.736057607287878,-0.6127213860624919,-0.13345340555275176,-1.0068390668476856,-0.016593299284458882,-0.005875149465370377,-0.026410423092678718,0,70,255.0,255.0,255.0
493,24.650000000000002,-18.884750083273477,-3.317395960746672,-13.78643329274895,-0.6135783859361732,-0.13374704118771177,-1.0082027333916026,-0.017686695662792618,-0.0058702759330300225,-0.028136238664003062,0,70,255.0,255.0,255.0
494,24.700000000000003,-18.91545156652169,-3.324090648620335,-13.836879318806684,-0.6144900556287712,-0.1340404331460548,-1.0096526907140861,-0.018780092041126357,-0.005865402400689668,-0.029862054235327406,0,70,255.0,255.0,255.0
495,24.75,-18.9462,-3.3308,-13.8874,-0.6154563951402859,-0.13433358142778073,-1.0111889388151354,-0.01987348841945913,-0.005860528868348869,-0.031587869806651625,0,70,255.0,255.0,255.0
496,24.8,-18.976996980455155,-3.337523472437402,-13.937998256932934,-0.6164091998181322,-0.1345946701668393,-1.012727841600552,-0.018238698694391584,-0.0045830206939932155,-0.029968241610015742,0,70,255.0,255.0,255.0
497,24.85,-19.007839557657043,-3.3442584024265387,-13.988671434469891,-0.6172802650097251,-0.13479188349718005,-1.014185762976137,-0.01660390896932404,-0.0033055125196375626,-0.028348613413379863,0,70,255.0,255.0,255.0
498,24.900000000000002,-19.038723644631357,-3.351001596196975,-14.039415483540385,-0.6180695907150646,-0.13492522141880303,-1.01556270294189,-0.014969119244256498,-0.0020280043452819098,-0.02672898521674398,0,70,255.0,255.0,255.0
499,24.950000000000003,-19.069645154403783,-3.357749859978274,-14.09022635507392,-0.6187771769341508,-0.13499468393170827,-1.0168586614978115,-0.013334329519188955,-0.0007504961709262565,-0.0251093570201081,0,70,255.0,255.0,255.0
500,25.0,-19.1006,-3.3645,-14.1411,-0.6194030236669834,-0.13500027103589568,-1.018073638643901,-0.011699539794117086,0.0005270120034293058,-0.023489728823481215,0,70,255.0,255.0,255.0
501,25.05,-19.13158544467581,-3.37124988599772,-14.192033424383732,-0.6200281447197397,-0.13500579309146807,-1.019270942515455,-0.013305302316134894,-0.0007478942263257696,-0.024402426038668792,0,70,255.0,255.0,255.0
502,25.1,-19.16260415260741,-3.378001641731005,-14.24302785483256,-0.620733553898597,-0.13507506045852827,-1.020513881247768,-0.0149110648381527,-0.002022800456080845,-0.02531512325385637,0,70,255.0,255.0,255.0
503,25.150000000000002,-19.193660138201103,-3.384758454465431,-14.294085573089522,-0.621519251203555,-0.13520807313707617,-1.0218024548408406,-0.016516827360170506,-0.0032977066858359207,-0.026227820469043945,0,70,255.0,255.0,255.0
504,25.200000000000003,-19.2247574158632,-3.3915235114665707,-14.345208860897658,-0.622385236634614,-0.13540483112711188,-1.0231366632946723,-0.018122589882188313,-0.004572612915590996,-0.02714051768423152,0,70,255.0,255.0,255.0
505,25.25,-19.2559,-3.3983,-14.3964,-0.6233315101917737,-0.13566533442863526,-1.0245165066092639,-0.019728352404203342,-0.005847519145345981,-0.028053214899417256,0,70,255.0,255.0,255.0
506,25.3,-19.28709084084161,-3.4050905835717202,-14.447660845532145,-0.624294221302907,-0.13595815746728615,-1.0259163883376317,-0.018780092041126815,-0.00586540240068949,-0.027942054235294122,0,70,255.0,255.0,255.0
507,25.35,-19.318328631913325,-3.4118958306494416,-14.498991546199878,-0.6252095193958864,-0.13625187466870423,-1.0273107120327933,-0.017831831678050285,-0.005883285656033,-0.027830893571170984,0,70,255.0,255.0,255.0
508,25.400000000000002,-19.34961100256423,-3.4187157859413033,-14.55039182410154,-0.626077404470712,-0.13654648603288946,-1.0286994776947487,-0.01688357131497376,-0.005901168911376509,-0.02771973290704785,0,70,255.0,255.0,255.0
509,25.450000000000003,-19.380935582143426,-3.425550494155443,-14.601861401335468,-0.6268978765273838,-0.1368419915598419,-1.0300826853234981,-0.015935310951897232,-0.005919052166720019,-0.027608572242924716,0,70,255.0,255.0,255.0
510,25.5,-19.4123,-3.4324,-14.6534,-0.6276709355659018,-0.13713839124956145,-1.031460334919041,-0.014987050588819884,-0.005936935422063971,-0.02749741157879626,0,70,255.0,255.0,255.0
511,25.55,-19.44370239195775,-3.439263779715401,-14.705007193487694,-0.6284269700686035,-0.1374015770393864,-1.0328235041340144,-0.015254329519250124,-0.0045904961709345915,-0.027029357020141725,0,70,255.0,255.0,255.0
512,25.6,-19.4751429197393,-3.446139035671229,-14.756681960367935,-0.6291963685178269,-0.1375974408666549,-1.034163270621055,-0.015521608449680365,-0.003244056919805211,-0.026561302461487187,0,70,255.0,255.0,255.0
513,25.650000000000002,-19.50662225154198,-3.453022401769357,-14.808423130504334,-0.6299791309135716,-0.13772598273136694,-1.035479634380163,-0.015788887380110604,-0.0018976176686758307,-0.026093247902832652,0,70,255.0,255.0,255.0
514,25.700000000000003,-19.538141055563102,-3.459910511911657,-14.86022953376049,-0.6307752572558379,-0.1377872026335225,-1.0367725954113385,-0.016056166310540847,-0.0005511784175464508,-0.025625193344178118,0,70,255.0,255.0,255.0
515,25.75,-19.5697,-3.4668,-14.9121,-0.6315847475446257,-0.1377811005731216,-1.038042153714581,-0.01632344524096574,0.0007952608335837219,-0.025157138785527167,0,70,255.0,255.0,255.0
516,25.8,-19.601299591327386,-3.4736886975666765,-14.964033580517087,-0.6323978984227046,-0.13777953437517157,-1.0393015951263243,-0.016202589882189145,-0.0007326129155823975,-0.02522051768420468,0,70,255.0,255.0,255.0
517,25.85,-19.632939689129472,-3.480579226665642,-15.016030212328385,-0.6332050065328446,-0.13785436186467984,-1.0405642054830015,-0.016081734523412546,-0.002260486664748517,-0.025283896582882194,0,70,255.0,255.0,255.0
518,25.900000000000002,-19.664619991267873,-3.487475406981269,-15.06809005388114,-0.6340060718750459,-0.13800558304164642,-1.0418299847846124,-0.01596087916463595,-0.0037883604139146362,-0.025347275481559708,0,70,255.0,255.0,255.0
519,25.950000000000003,-19.69634019560418,-3.494381058197931,-15.120213263622595,-0.6348010944493082,-0.1382331979060713,-1.0430989330311575,-0.015840023805859353,-0.005316234163080756,-0.02541065438023722,0,70,255.0,255.0,255.0
520,26.0,-19.7281,-3.5013,-15.1724,-0.6355900742556316,-0.13853720645795445,-1.0443710502226364,-0.0157191684470801,-0.0068441079122461,-0.025474033278912955,0,70,255.0,255.0,255.0
521,26.05,-19.759899242732722,-3.5082350300178944,-15.224650484443966,-0.6363814362406027,-0.1388562854599284,-1.0456501153606823,-0.015935310951761573,-0.0059190521667117,-0.025688572242923514,0,70,255.0,255.0,255.0
522,26.1,-19.791738323742816,-3.5151848576662053,-15.27696519031854,-0.6371836053508078,-0.1391291116746256,-1.0469399074469288,-0.01615145345644305,-0.0049939964211773,-0.025903111206934077,0,70,255.0,255.0,255.0
523,26.150000000000002,-19.823617783386556,-3.5221471703055687,-15.32934465397113,-0.637996581586247,-0.13935568510204616,-1.0482404264813758,-0.016367595961124522,-0.004068940675642901,-0.026117650170944636,0,70,255.0,255.0,255.0
524,26.200000000000003,-19.855538162020196,-3.529119655296622,-15.381789411749148,-0.6388203649469203,-0.13953600574218994,-1.0495516724640235,-0.016583738465806,-0.003143884930108501,-0.0263321891349552,0,70,255.0,255.0,255.0
525,26.25,-19.8875,-3.5361,-15.4343,-0.6396549554328276,-0.13967007359505698,-1.050873645394871,-0.01679988097048568,-0.002218829184573723,-0.026546728098963968,0,70,255.0,255.0,255.0
526,26.3,-19.919503437741746,-3.5430863823617473,-15.486876481707055,-0.6404763566148549,-0.1397873237851103,-1.0521779434309506,-0.016056166310606725,-0.0024711784175587095,-0.025625193344214366,0,70,255.0,255.0,255.0
527,26.35,-19.95154701589927,-3.5500789426695385,-15.53951702639747,-0.6412605720638883,-0.13991719143681286,-1.0534361647292925,-0.015312451650727766,-0.002723527650543696,-0.02470365858946477,0,70,255.0,255.0,255.0
528,26.400000000000002,-19.983628875185918,-3.5570783117964564,-15.592219330234355,-0.6420076017799278,-0.14005967655016466,-1.054648309289897,-0.014568736990848808,-0.0029758768835286826,-0.023782123834715167,0,70,255.0,255.0,255.0
529,26.450000000000003,-20.015747156315047,-3.564085120615583,-15.64498108938083,-0.6427174457629732,-0.14021477912516572,-1.055814377112764,-0.013825022330969852,-0.003228226116513669,-0.02286058907996557,0,70,255.0,255.0,255.0
530,26.5,-20.0479,-3.5711,-15.6978,-0.6433901040130247,-0.140382499161816,-1.0569343681978935,-0.01308130767108917,-0.003480575349498416,-0.02193905432520893,0,70,255.0,255.0,255.0
531,26.55,-20.080086206300297,-3.5781234405351166,-15.750674788727826,-0.6440651372999502,-0.14055441939963056,-1.0580701109155282,-0.013920023805930104,-0.0033962341630848756,-0.023490654380171373,0,70,255.0,255.0,255.0
532,26.6,-20.112307212660106,-3.5851553716556412,-15.8036083040916,-0.6447821063936177,-0.1407221225781245,-1.0592834336359107,-0.014758739940771039,-0.0033118929766713353,-0.025042254435133814,0,70,255.0,255.0,255.0
533,26.650000000000002,-20.14456511586977,-3.592195582508608,-15.856604425091463,-0.6455410112940273,-0.14088560869729772,-1.0605743363590414,-0.015597456075611974,-0.0032275517902577953,-0.02659385449009626,0,70,255.0,255.0,255.0
534,26.700000000000003,-20.17686201271962,-3.5992438622410488,-15.909667030727553,-0.6463418520011789,-0.14104487775715027,-1.0619428190849205,-0.016436172210452907,-0.003143210603844255,-0.0281454545450587,0,70,255.0,255.0,255.0
535,26.75,-20.2092,-3.6063,-15.9628,-0.6471846285150725,-0.14119992975768214,-1.0633888818135475,-0.017274888345292005,-0.0030588694174307207,-0.029697054600015704,0,70,255.0,255.0,255.0
536,26.8,-20.241580537057068,-3.613363855497786,-16.01600596338165,-0.64803109418535,-0.1413549986163704,-1.0648376129069235,-0.01658373846580491,-0.003143884930099895,-0.02825218913501535,0,70,255.0,255.0,255.0
537,26.85,-20.2740025334603,-3.6204355707078975,-16.069282557236143,-0.648843002361653,-0.14151431825069213,-1.066214100727049,-0.015892588586317816,-0.0032289004427690695,-0.026807323670014996,0,70,255.0,255.0,255.0
538,26.900000000000002,-20.306464261335,-3.627515358169116,-16.122626169399805,-0.6496203530439818,-0.14167788866064732,-1.0675183452739248,-0.01520143870683072,-0.003313915955438244,-0.02536245820501464,0,70,255.0,255.0,255.0
539,26.950000000000003,-20.338963992806466,-3.6346034304202233,-16.176033187708978,-0.6503631462323362,-0.14184570984623596,-1.0687503465475507,-0.014510288827343626,-0.0033989314681074183,-0.023917592740014287,0,70,255.0,255.0,255.0
540,27.0,-20.3715,-3.6417,-16.2295,-0.6510713819267161,-0.14201778180745805,-1.0699101045479262,-0.013819138947853027,-0.0034839469807756984,-0.022472727275014037,0,70,255.0,255.0,255.0
541,27.05,-20.40407084547143,-3.6488051374737394,-16.28302375774558,-0.6517624859586849,-0.14218558613489007,-1.071043437456799,-0.013825022330899906,-0.0032282261165045476,-0.02286058907989564,0,70,255.0,255.0,255.0
542,27.1,-20.436676253498693,-3.6559183455127693,-16.336604666963854,-0.6524538841598062,-0.1423406044191085,-1.0721961634559158,-0.013830905713946785,-0.0029725052522333968,-0.023248450884777238,0,70,255.0,255.0,255.0
543,27.150000000000002,-20.46931623879023,-3.6630389848149303,-16.390243697309344,-0.6531455765300797,-0.1424828366601134,-1.0733682825452768,-0.013836789096993663,-0.0027167843879622455,-0.02363631268965884,0,70,255.0,255.0,255.0
544,27.200000000000003,-20.501990816054516,-3.6701664160780605,-16.443941818436553,-0.6538375630695055,-0.14261228285790473,-1.0745597947248817,-0.01384267248004054,-0.002461063523691095,-0.02402417449454044,0,70,255.0,255.0,255.0
545,27.25,-20.5347,-3.6773,-16.4977,-0.6545298437780837,-0.14272894301248254,-1.0757706999947307,-0.013848555863085643,-0.00220534265941974,-0.02441203629941846,0,70,255.0,255.0,255.0
546,27.3,-20.56744408105721,-3.6844395946072583,-16.551519005636045,-0.6552389619799205,-0.14286265684406435,-1.0769886372658428,-0.014516172210388421,-0.003143210603852755,-0.024305454545065074,0,70,255.0,255.0,255.0
547,27.35,-20.60022445254495,-3.691587047241027,-16.605398774908455,-0.6559814609991226,-0.14304326407286783,-1.0782012454492373,-0.015183788557691199,-0.00408107854828577,-0.024198872790711687,0,70,255.0,255.0,255.0
548,27.400000000000002,-20.63304278350408,-3.698744702571166,-16.65933904136284,-0.6567573408356897,-0.14327076469889294,-1.079408524544914,-0.01585140490499398,-0.005018946492718786,-0.0240922910363583,0,70,255.0,255.0,255.0
549,27.450000000000003,-20.665900742975477,-3.705914905267537,-16.71333953854482,-0.6575666014896219,-0.1435451587221397,-1.0806104745528733,-0.016519021252296755,-0.0059568144371518,-0.023985709282004913,0,70,255.0,255.0,255.0
550,27.5,-20.6988,-3.7131,-16.7674,-0.6584092429609193,-0.14386644614260807,-1.0818070954731143,-0.017186637599599486,-0.006894682381584083,-0.023879127527649757,0,70,255.0,255.0,255.0
551,27.55,-20.731741630299723,-3.7203012840972267,-16.821520219710237,-0.6592496661215962,-0.14417178648885065,-1.0830020134798084,-0.016430288827474538,-0.005318931468119525,-0.023917592740117757,0,70,255.0,255.0,255.0
552,27.6,-20.764724336321514,-3.7275158655231238,-16.875700233402327,-0.6600522718436668,-0.14439833928942003,-1.0841988547471262,-0.01567394005534959,-0.0037431805546549674,-0.023956057952585753,0,70,255.0,255.0,255.0
553,27.650000000000002,-20.797746227193446,-3.734739804900408,-16.929940137239292,-0.6608170601271312,-0.14454610454431618,-1.0853976192750672,-0.014917591283224643,-0.00216742964119041,-0.023994523165053752,0,70,255.0,255.0,255.0
554,27.700000000000003,-20.83080541204359,-3.7419691628517944,-16.984240027384175,-0.6615440309719893,-0.14461508225353908,-1.0865983070636316,-0.014161242511099693,-0.0005916787277258518,-0.024032988377521748,0,70,255.0,255.0,255.0
555,27.75,-20.8639,-3.7492,-17.0386,-0.6622331843782412,-0.14460527241708876,-1.0878009181128192,-0.013404893738975687,0.0009840721857381496,-0.02407145358998619,0,70,255.0,255.0,255.0
