idx,t,px,py,pz,vx,vy,vz,ax,ay,az,yaw,mode,ledr,ledg,ledb
0,0.0,1.5,1.5,0.0,0.0010515093594056979,-3.133632794289926e-05,0.0019275997838369523,-0.019018112312865893,-0.005223964064684592,-0.05273119740604342,0,70,255.0,255.0,255.0
1,0.05,1.5000290543369386,1.4999916718921942,3.019359221813028e-05,0.00011569430532672363,-0.0003064147108537015,-0.0007253040994350018,-0.01841448985029307,-0.0057791712517474975,-0.05338495792483474,0,70,255.0,255.0,255.0
2,0.1,1.5000120724492514,1.4999688958562585,-7.307521037582631e-05,-0.0007899396256236096,-0.000609253453117649,-0.0034108960086465215,-0.017810867387720253,-0.006334378438810403,-0.05403871844362605,0,70,255.0,255.0,255.0
3,0.15000000000000002,1.499950563393095,1.4999302838742263,-0.0003114408090788481,-0.0016653924334453017,-0.0009398525547347419,-0.0061291759437976075,-0.01720724492514743,-0.006889585625873308,-0.05469247896241737,0,70,255.0,255.0,255.0
4,0.2,1.4998460362246258,1.4998744479281294,-0.0006865376051879132,-0.002510664118138353,-0.0012982120157049798,-0.008880143904888258,-0.01660362246257461,-0.0074447928129362136,-0.05534623948120868,0,70,255.0,255.0,255.0
5,0.25,1.4997,1.4998,-0.0012,-0.0033257546797027626,-0.0016843318360283631,-0.011663799891918476,-0.016000000000001794,-0.007999999999999122,-0.055999999999999994,0,70,255.0,255.0,255.0
6,0.30000000000000004,1.4995139637753743,1.4997055520718707,-0.0018534623948120875,-0.004110664118138532,-0.002098212015704892,-0.01448014390488826,-0.01539637753742897,-0.008555207187062026,-0.05665376051879132,0,70,255.0,255.0,255.0
7,0.35000000000000003,1.4992894366069047,1.4995897161257734,-0.0026485591909211526,-0.00486539243344566,-0.002539852554734566,-0.017329175943797608,-0.014792755074856149,-0.00911041437412493,-0.057307521037582645,0,70,255.0,255.0,255.0
8,0.4,1.4990279275507485,1.4994511041437413,-0.0035869247896241747,-0.005589939625624147,-0.0030092534531173847,-0.020210896008646523,-0.014189132612283327,-0.009665621561187832,-0.057961281556373964,0,70,255.0,255.0,255.0
9,0.45,1.4987309456630613,1.499288328107806,-0.004670193592218131,-0.006284305694673992,-0.003506414710853349,-0.023125304099435005,-0.013585510149710503,-0.010220828748250735,-0.05861504207516529,0,70,255.0,255.0,255.0
10,0.5,1.4984,1.4991,-0.0059,-0.006948490640595197,-0.004031336327942459,-0.02607240021616305,-0.012981887687137698,-0.010776035935313642,-0.05926880259395656,0,70,255.0,255.0,255.0
11,0.55,1.498035890561564,1.4988853198203236,-0.007277144012969784,-0.007625037832773584,-0.004548737226325379,-0.029002120281011966,-0.014079999999997744,-0.00992000000000317,-0.05792000000000003,0,70,255.0,255.0,255.0
12,0.6000000000000001,1.4976365811231285,1.498645839640647,-0.008799088025939568,-0.008356490640594972,-0.005023336327942777,-0.031864400216163054,-0.015178112312857789,-0.009063964064692695,-0.056571197406043494,0,70,255.0,255.0,255.0
13,0.65,1.4971993264039105,1.4983836995508086,-0.010462460032424457,-0.009142849064059363,-0.005455133632794649,-0.034659240021616314,-0.01627622462571783,-0.008207928129382223,-0.05522239481208696,0,70,255.0,255.0,255.0
14,0.7000000000000001,1.4967213811231286,1.4981010396406471,-0.012263888025939569,-0.009984113103166756,-0.005844129140880999,-0.03738663969737175,-0.01737433693857788,-0.007351892194071749,-0.05387359221813043,0,70,255.0,255.0,255.0
15,0.75,1.4962,1.4978,-0.0142,-0.01088028275791715,-0.006190322852201823,-0.04004659924342936,-0.018472449251437928,-0.006495856258761271,-0.052524789624174284,0,70,255.0,255.0,255.0
16,0.8,1.4956336739783684,1.4974819686468355,-0.016268361553308786,-0.011757184550767357,-0.00653883907899426,-0.04269537497106394,-0.01660362246257034,-0.007444792812936216,-0.05342623948120875,0,70,255.0,255.0,255.0
17,0.8500000000000001,1.4950258389005806,1.4971453253116387,-0.018470288705320595,-0.012540645004174187,-0.006934802133495446,-0.04538922319155025,-0.014734795673702757,-0.008393729367111162,-0.05432768933824322,0,70,255.0,255.0,255.0
18,0.9,1.4943811668336084,1.496787697653024,-0.020808035080678,-0.013230664118137633,-0.007378212015705376,-0.04812814390488826,-0.012865968884835176,-0.009342665921286106,-0.05522913919527768,0,70,255.0,255.0,255.0
19,0.9500000000000001,1.4937043298444244,1.4964067133296064,-0.023283854304023615,-0.013827241892657703,-0.007869068725624056,-0.050912137111078004,-0.010997142095967591,-0.010291602475461053,-0.05613058905231214,0,70,255.0,255.0,255.0
20,1.0,1.493,1.496,-0.0259,-0.014330378327734395,-0.008407372263251481,-0.05374120281011948,-0.00912831530709994,-0.011240539029635968,-0.05703203890934688,0,70,255.0,255.0,255.0
21,1.05,1.492271013524962,1.4955660055923343,-0.028658209773795084,-0.014850223964154767,-0.008943906457698542,-0.05658437983473229,-0.011665510149714953,-0.010220828748246466,-0.056695042075165215,0,70,255.0,255.0,255.0
22,1.1,1.4915128632745491,1.495106459112798,-0.03155815715277808,-0.015496929342705891,-0.009429455138076128,-0.059410707017636004,-0.014202704992329965,-0.009201118466856962,-0.05635804524098355,0,70,255.0,255.0,255.0
23,1.1500000000000001,1.4907192062616559,1.4946239098370944,-0.034598999644863536,-0.016270494463387762,-0.00986401830438424,-0.062220184358830644,-0.016739899834944977,-0.008181408185467458,-0.056021048406801874,0,70,255.0,255.0,255.0
24,1.2000000000000002,1.4898836994991747,1.4941209070409274,-0.037779894757966,-0.01717091932620039,-0.010247595956622875,-0.0650128118583162,-0.01927709467755999,-0.0071616979040779565,-0.055684051572620206,0,70,255.0,255.0,255.0
25,1.25,1.489,1.4936,-0.0411,-0.01819820393114376,-0.010580188094792034,-0.06778858951609265,-0.021814289520174918,-0.006141987622688486,-0.055347054738438484,0,70,255.0,255.0,255.0
26,1.3,1.488063871921785,1.4930628089838274,-0.044558799351510886,-0.01922591959261268,-0.010917535090211147,-0.07056710569000689,-0.019294336938581926,-0.007351892194076025,-0.0557935922181307,0,70,255.0,255.0,255.0
27,1.35,1.4870795080012236,1.4925072382371694,-0.0481570826835671,-0.020127637625001953,-0.011315377314199637,-0.07336794873790572,-0.016774384356988938,-0.008561796765463564,-0.0562401296978229,0,70,255.0,255.0,255.0
28,1.4000000000000001,1.4860532081197695,1.4919302629985978,-0.05189596633986788,-0.020903358028311576,-0.011773714766757506,-0.07619111865978918,-0.014254431775395947,-0.009771701336851103,-0.05668666717751512,0,70,255.0,255.0,255.0
29,1.4500000000000002,1.4849912721588772,1.4913288585066842,-0.05577656666411243,-0.02155308080254155,-0.01229254744788475,-0.07903661545565724,-0.011734479193802957,-0.010981605908238642,-0.05713320465720733,0,70,255.0,255.0,255.0
30,1.5,1.4839,1.4907,-0.0598,-0.02207680594769187,-0.012871875357581367,-0.08190443912550989,-0.009214526612210033,-0.012191510479626202,-0.05757974213689965,0,70,255.0,255.0,255.0
31,1.55,1.4827838987878987,1.4900419584723565,-0.06396659282016137,-0.022582097665396206,-0.013433953181458442,-0.0847471974052402,-0.010997142095963348,-0.01029160247545678,-0.056130589052312475,0,70,255.0,255.0,255.0
32,1.6,1.481640304720557,1.4893581879385243,-0.06827351211295353,-0.023176520157288206,-0.013901035605127047,-0.08751749803074114,-0.012779757579716665,-0.008391694471287358,-0.054681435967725296,0,70,255.0,255.0,255.0
33,1.6500000000000001,1.4804647612592667,1.488653438168514,-0.07271713499566501,-0.023860073423367874,-0.01427312262858718,-0.09021534100201273,-0.01456237306346998,-0.006491786467117936,-0.053232282883138124,0,70,255.0,255.0,255.0
34,1.7000000000000002,1.4792528118653174,1.4879324589323355,-0.07729383858558432,-0.02463275746363521,-0.01455021425183884,-0.09284072631905495,-0.016344988547223296,-0.0045918784629485135,-0.051783129798550945,0,70,255.0,255.0,255.0
35,1.75,1.478,1.4872,-0.082,-0.025494572278090204,-0.01473231047488203,-0.0953936539818678,-0.018127604030976685,-0.0026919704587791,-0.050333976713963,0,70,255.0,255.0,255.0
36,1.8,1.4767029329266206,1.486458957126747,-0.08683322936784363,-0.02638168974580352,-0.014930652183953463,-0.09794810468903237,-0.017357094677555893,-0.005241697904078179,-0.05184405157261964,0,70,255.0,255.0,255.0
37,1.85,1.4753624731165476,1.4857048100087336,-0.09179606886461879,-0.027230281745845793,-0.015256480265289847,-0.10057805913912977,-0.016586585324135105,-0.007791425349377258,-0.05335412643127629,0,70,255.0,255.0,255.0
38,1.9000000000000001,1.473980546843164,1.484931184327347,-0.09689229367747217,-0.02804034827821703,-0.01570979471889119,-0.10328351733216,-0.015816075970714313,-0.010341152794676338,-0.054864201289932926,0,70,255.0,255.0,255.0
39,1.9500000000000002,1.4725590803798536,1.4841317057639734,-0.10212567899355035,-0.028811889342917226,-0.016290595544757484,-0.10606447926812308,-0.015045566617293523,-0.012890880239975417,-0.05637427614858957,0,70,255.0,255.0,255.0
40,2.0,1.4711,1.4833,-0.1075,-0.02954490493994638,-0.01699888274288873,-0.10892094494701896,-0.014275057263872792,-0.015440607685274554,-0.057884351007245316,0,70,255.0,255.0,255.0
41,2.0500000000000003,1.4696051695056187,1.4824318130206562,-0.11301808970846418,-0.03024314335138838,-0.017707438082726772,-0.11179638383863029,-0.013654479193807042,-0.012901605908246969,-0.057133204657207365,0,70,255.0,255.0,255.0
42,2.1,1.468076202813253,1.4815313720265415,-0.11867901242857135,-0.030910352859327087,-0.01828904333371343,-0.11463426541273969,-0.013033901123741297,-0.010362604131219406,-0.05638205830716942,0,70,255.0,255.0,255.0
43,2.15,1.4665146513680776,1.480605024522099,-0.12448089029444641,-0.03154653346376251,-0.01874369849584871,-0.11743458966934721,-0.012413323053675552,-0.007823602354191843,-0.05563091195713148,0,70,255.0,255.0,255.0
44,2.2,1.4649220666152685,1.4796591180117706,-0.13042184544021437,-0.03215168516469464,-0.019071403569132613,-0.12019735660845285,-0.011792744983609802,-0.005284600577164258,-0.05487976560709353,0,70,255.0,255.0,255.0
45,2.25,1.4633,1.4787,-0.1365,-0.03272580796212349,-0.019272158553565136,-0.12292256623005655,-0.011172166913544057,-0.0027455988001365284,-0.05412861925705614,0,70,255.0,255.0,255.0
46,2.3000000000000003,1.4616491890509045,1.4777321907906285,-0.1427136117982998,-0.033317736848642684,-0.019455595485142047,-0.12561835995644674,-0.012504988547223757,-0.004591878462939923,-0.05370312979855069,0,70,255.0,255.0,255.0
47,2.35,1.459967115630441,1.4767529018851,-0.14906148142109593,-0.033976306816845867,-0.01973134639985913,-0.12829287920991164,-0.013837810180903444,-0.006438158125743302,-0.05327764034004525,0,70,255.0,255.0,255.0
48,2.4000000000000004,1.458250447684525,1.475757517584257,-0.15554254514474222,-0.034701517866733034,-0.020099411297716377,-0.13094612399045127,-0.015170631814583144,-0.008284437788546697,-0.0528521508815398,0,70,255.0,255.0,255.0
49,2.45,1.456495853159073,1.4747414221889428,-0.16215573924559232,-0.035493369998304186,-0.020559790178713795,-0.1335780942980656,-0.01650345344826283,-0.010130717451350076,-0.05242666142303436,0,70,255.0,255.0,255.0
50,2.5,1.4547,1.4737,-0.1689,-0.0363518632115593,-0.021112483042851383,-0.1361887901327547,-0.017836275081942354,-0.01197699711415351,-0.05200117196452947,0,70,255.0,255.0,255.0
51,2.5500000000000003,1.4528604742907634,1.472629823816829,-0.17577466309833678,-0.0372219092540402,-0.02168617997670462,-0.13880217633558267,-0.016965566617293298,-0.010970880239975705,-0.05253427614858941,0,70,255.0,255.0,255.0
52,2.6,1.4509785346649833,1.4715322204330579,-0.182780661887045,-0.038048419873288636,-0.022209571066848958,-0.14144221774761365,-0.01609485815264425,-0.00996476336579791,-0.05306738033264935,0,70,255.0,255.0,255.0
53,2.6500000000000004,1.4490563578938218,1.4704097051408724,-0.18991932912658488,-0.03883139506930463,-0.022682656313284408,-0.14410891436884762,-0.015224149687995197,-0.008958646491620108,-0.0536004845167093,0,70,255.0,255.0,255.0
54,2.7,1.44709612074844,1.4692647932324583,-0.19719199757741648,-0.039570834842088155,-0.023105435716010966,-0.14680226619928458,-0.014353441223346149,-0.007952529617442312,-0.05413358870076923,0,70,255.0,255.0,255.0
55,2.75,1.4451,1.4681,-0.2046,-0.040266739191639235,-0.023477909275028637,-0.14952227323892453,-0.013482732758697213,-0.006946412743264407,-0.05466669288482828,0,70,255.0,255.0,255.0
56,2.8000000000000003,1.4430697137860427,1.4669173139420553,-0.21214453580835324,-0.04094662613519691,-0.023831684608039454,-0.1522609347012226,-0.013712744983609672,-0.007204600577168198,-0.05487976560709349,0,70,255.0,255.0,255.0
57,2.85,1.4410051457096262,1.4657166163826676,-0.21982627103072416,-0.0416380136900002,-0.024198369332745457,-0.15501024979963388,-0.013942757208522128,-0.007462788411071986,-0.0550928383293587,0,70,255.0,255.0,255.0
58,2.9000000000000004,1.4389057207401885,1.4644972618522525,-0.22764573834891855,-0.04234090185604912,-0.02457796344914665,-0.15777021853415849,-0.014172769433434587,-0.007720976244975777,-0.055305911051623906,0,70,255.0,255.0,255.0
59,2.95,1.4367708638471672,1.4632586048812248,-0.2356034704447419,-0.043055290633343665,-0.024970466957243035,-0.16054084090479626,-0.014402781658347042,-0.007979164078879565,-0.055518983773889106,0,70,255.0,255.0,255.0
60,3.0,1.4346,1.462,-0.2437,-0.04378118002188382,-0.025375879857034603,-0.16332211691154735,-0.014632793883259554,-0.008237351912783214,-0.05573205649615476,0,70,255.0,255.0,255.0
61,3.0500000000000003,1.4323926705650665,1.4607209204149496,-0.25193519366825046,-0.044511586205171885,-0.025787081591137836,-0.1660740848595271,-0.014583453448262973,-0.008210717451346022,-0.054346661423034785,0,70,255.0,255.0,255.0
62,3.1,1.430148882496512,1.4594213140362706,-0.2603062539900584,-0.045239525366710116,-0.026196951602169206,-0.16875678305385083,-0.014534113013266393,-0.00818408298990883,-0.052961266349914826,0,70,255.0,255.0,255.0
63,3.1500000000000004,1.4278687591454244,1.4581012474501172,-0.2688097174777413,-0.045964997506498524,-0.02660548989012872,-0.17137021149451862,-0.01448477257826981,-0.00815744852847164,-0.05157587127679485,0,70,255.0,255.0,255.0
64,3.2,1.4255524238628914,1.4567607872426422,-0.27744212064361606,-0.046688002624537095,-0.02701269645501637,-0.17391437018153033,-0.01443543214327323,-0.008130814067034448,-0.05019047620367489,0,70,255.0,255.0,255.0
65,3.25,1.4232,1.4554,-0.2862,-0.04740854072082584,-0.027418571296832162,-0.1763892591148861,-0.01438609170827676,-0.008104179605597367,-0.048805081130554706,0,70,255.0,255.0,255.0
66,3.3000000000000003,1.420811603953692,1.4540190043981465,-0.2950810895186452,-0.04812702904411642,-0.027819989027408266,-0.17886672586066918,-0.01435344122334623,-0.007952529617446608,-0.05029358870076793,0,70,255.0,255.0,255.0
67,3.35,1.4183873243043257,1.4526181274722494,-0.30408791300904214,-0.04884388484316047,-0.02821382425857682,-0.1814186179849629,-0.0143207907384157,-0.007800879629295848,-0.05178209627098114,0,70,255.0,255.0,255.0
68,3.4000000000000004,1.4159272426781133,1.4511977483472789,-0.3132241917401166,-0.04955910811795799,-0.02860007699033785,-0.1840449354877673,-0.01428814025348517,-0.007649229641145088,-0.053270603841194364,0,70,255.0,255.0,255.0
69,3.45,1.4134314407012676,1.4497582461482057,-0.322493646980794,-0.05027269886850899,-0.028978747222691333,-0.18674567836908232,-0.014255489768554641,-0.007497579652994329,-0.054759111411407574,0,70,255.0,255.0,255.0
70,3.5,1.4109,1.4483,-0.3319,-0.05098465709481346,-0.029349834955637276,-0.18952084662890803,-0.014222839283624056,-0.007345929664843431,-0.05624761898162034,0,70,255.0,255.0,255.0
71,3.5500000000000003,1.4083329136201654,1.4468230619924642,-0.34144604825716923,-0.051700297618362735,-0.029732962299230243,-0.19231501169779583,-0.014402781658346953,-0.00797916407887517,-0.05551898377389022,0,70,255.0,255.0,255.0
72,3.6,1.405729820286185,1.445326176074732,-0.3511308939737731,-0.052424935260648155,-0.030147751363524794,-0.19507274500629707,-0.014582724033069849,-0.008612398492906905,-0.054790348566160094,0,70,255.0,255.0,255.0
73,3.6500000000000004,1.4030902701421217,1.443807759160767,-0.36095271556179254,-0.05315857002166972,-0.030594202148520936,-0.19779404655441182,-0.014762666407792748,-0.009245632906938644,-0.05406171335842997,0,70,255.0,255.0,255.0
74,3.7,1.4004138133320387,1.4422662281645346,-0.3709096914332079,-0.053901201901427435,-0.03107231465421866,-0.20047891634214005,-0.014942608782515644,-0.009878867320970377,-0.05333307815069985,0,70,255.0,255.0,255.0
75,3.75,1.3977,1.4407,-0.381,-0.054652830899921276,-0.03158208888061797,-0.2031273543694818,-0.015122551157238262,-0.01051210173500211,-0.05260444294296929,0,70,255.0,255.0,255.0
76,3.8000000000000003,1.3949487415656465,1.4391079476319952,-0.3912219174526782,-0.055391780482434066,-0.03209616177566888,-0.2057452273481479,-0.014435432143273204,-0.010050814067034305,-0.05211047620367517,0,70,255.0,255.0,255.0
77,3.85,1.3921613945509348,1.4374907682288234,-0.40157411109586544,-0.0560963741142486,-0.0325871702873214,-0.2083384019898493,-0.013748313129308153,-0.009589526399066505,-0.05161650946438105,0,70,255.0,255.0,255.0
78,3.9000000000000004,1.3893396767534,1.4358496150096534,-0.4120553460127137,-0.05676661179536488,-0.033055114415575536,-0.21090687829458601,-0.013061194115343094,-0.0091282387310987,-0.051122542725086935,0,70,255.0,255.0,255.0
79,3.95,1.3864853059705764,1.4341856411936555,-0.4226643872863746,-0.05740249352578291,-0.03349999416043127,-0.213450656262358,-0.012374075101378043,-0.008666951063130899,-0.050628575985792824,0,70,255.0,255.0,255.0
80,4.0,1.3836,1.4325,-0.4334,-0.05800401930550269,-0.03392180952188861,-0.21596973589316526,-0.011686956087413158,-0.008205663395162932,-0.0501346092464976,0,70,255.0,255.0,255.0
81,4.05,1.3806849201172484,1.4307939474795544,-0.4442614819321184,-0.05860458045190179,-0.03431439059809275,-0.2184960789096128,-0.012335489768550686,-0.007497579653002753,-0.050919111411405454,0,70,255.0,255.0,255.0
82,4.1000000000000005,1.3777390015100754,1.429069151009976,-0.45525026164276555,-0.059237568282357767,-0.034671567487188894,-0.22106164703430584,-0.012984023449688227,-0.0067894959108425615,-0.05170361357631333,0,70,255.0,255.0,255.0
83,4.15,1.3747606228442784,1.4273273808006204,-0.4663683003873532,-0.05990298279687061,-0.03499334018917701,-0.2236664402672442,-0.013632557130825756,-0.006081412168682382,-0.05248811574122119,0,70,255.0,255.0,255.0
84,4.2,1.371748162785654,1.4255704070608433,-0.4776175594212939,-0.06060082399544033,-0.03527970870405713,-0.22631045860842794,-0.014281090811963285,-0.005373328426522203,-0.053272617906129055,0,70,255.0,255.0,255.0
85,4.25,1.3687,1.4238,-0.489,-0.06133109187806694,-0.03553067303182923,-0.2289937020578571,-0.01492962449310109,-0.004665244684362135,-0.05405712007103669,0,70,255.0,255.0,255.0
86,4.3,1.3656147779653598,1.4220170624497879,-0.5005169548188482,-0.06207789770995746,-0.035798275831962344,-0.23167845701340056,-0.014942608782519805,-0.006038867320962344,-0.05333307815070181,0,70,255.0,255.0,255.0
87,4.3500000000000005,1.3624921994087629,1.4202190277312734,-0.5121672423330732,-0.06282535275631893,-0.03613455976392547,-0.2343270098729273,-0.014955593071938523,-0.007412489957562577,-0.05260903623036692,0,70,255.0,255.0,255.0
88,4.4,1.3593322318694867,1.418402461787865,-0.5239490524378739,-0.06357345701715132,-0.036539524827718606,-0.23693936063643728,-0.014968577361357238,-0.008786112594162785,-0.05188499431003203,0,70,255.0,255.0,255.0
89,4.45,1.3561348428868067,1.4165639305629707,-0.53586057502845,-0.06432221049245465,-0.03701317102334174,-0.23951550930393048,-0.014981561650775955,-0.010159735230762995,-0.05116095238969715,0,70,255.0,255.0,255.0
90,4.5,1.3529,1.4147,-0.5479,-0.06507161318222891,-0.03755549835079491,-0.24205545587540697,-0.01499454594019467,-0.01153335786736348,-0.05043691046936272,0,70,255.0,255.0,255.0
91,4.55,1.3496279680213128,1.4128082027212945,-0.5600658987924889,-0.06580382870826822,-0.03810850607405726,-0.2445820930367858,-0.014294075101377882,-0.010586951063130649,-0.05062857598579033,0,70,255.0,255.0,255.0
92,4.6000000000000005,1.3463202008548723,1.4108899380649313,-0.5723583690249424,-0.0665010206923667,-0.038614193457107975,-0.24711831347398605,-0.01359360426256108,-0.0096405442588978,-0.05082024150221796,0,70,255.0,255.0,255.0
93,4.65,1.342978449677775,1.4089475720479205,-0.5847778898611513,-0.06716318913452435,-0.03907256049994705,-0.24966411718700762,-0.01289313342374429,-0.008694137454664966,-0.05101190701864557,0,70,255.0,255.0,255.0
94,4.7,1.3396044656671187,1.4069834706872733,-0.5973249404649069,-0.06779033403474113,-0.03948360720257447,-0.25221950417585054,-0.012192662584927502,-0.007747730650432135,-0.0512035725350732,0,70,255.0,255.0,255.0
95,4.75,1.3362,1.405,-0.61,-0.06838245539301709,-0.039847333564990255,-0.25478447444051494,-0.011492191746110492,-0.006801323846199192,-0.051395238051501035,0,70,255.0,255.0,255.0
96,4.800000000000001,1.332766149949389,1.4029989266650342,-0.6228034500111964,-0.06897878745696893,-0.040199699871808395,-0.2573531708394557,-0.01236109081196356,-0.007293328426526209,-0.051352617906129175,0,70,255.0,255.0,255.0
97,4.8500000000000005,1.3293013971717484,1.4009796200090021,-0.6357352815671579,-0.06961856447421345,-0.04057666640764288,-0.2599197362311279,-0.013229989877816616,-0.007785333006853218,-0.05130999776075731,0,70,255.0,255.0,255.0
98,4.9,1.325803569419413,1.398940850020453,-0.6487953881175214,-0.0703017864447506,-0.04097823317249371,-0.2624841706155314,-0.014098888943669669,-0.008277337587180226,-0.05126737761538545,0,70,255.0,255.0,255.0
99,4.95,1.3222704944447183,1.396881386687936,-0.6619836631119231,-0.07102845336858041,-0.0414044001663609,-0.26504647399266645,-0.014967788009522722,-0.008769342167507233,-0.05122475747001358,0,70,255.0,255.0,255.0
100,5.0,1.3187,1.3948,-0.6753,-0.07179856524570287,-0.041855167389244434,-0.2676066463625328,-0.015836687075376,-0.009261346747834132,-0.05118213732464261,0,70,255.0,255.0,255.0
101,5.050000000000001,1.3150906321811309,1.3926960906185684,-0.6887443011627264,-0.07256902146385669,-0.042292694438709276,-0.2701652236053914,-0.014981561650776075,-0.008239735230759045,-0.051160952389699775,0,70,255.0,255.0,255.0
102,5.1000000000000005,1.3114438104581347,1.39057158189906,-0.7023165047064268,-0.07329672141078049,-0.04267914091232034,-0.2727227416015028,-0.014126436226176167,-0.007218123713683977,-0.05113976745475694,0,70,255.0,255.0,255.0
103,5.15,1.307761672644573,1.3884290278702673,-0.7160165576687642,-0.07398166508647429,-0.043014506810077666,-0.27527920035086706,-0.013271310801576258,-0.006196512196608909,-0.05111858251981412,0,70,255.0,255.0,255.0
104,5.2,1.304046356554008,1.3862709825609831,-0.729844407087401,-0.0746238524909381,-0.043298792131981234,-0.2778345998534842,-0.01241618537697635,-0.005174900679533841,-0.051097397584871286,0,70,255.0,255.0,255.0
105,5.25,1.3003,1.3841,-0.7438,-0.07522328362417194,-0.04353199687803105,-0.28038894010935417,-0.011561059952376773,-0.004153289162458551,-0.051076212649928454,0,70,255.0,255.0,255.0
106,5.300000000000001,1.2965241213260872,1.381917510860692,-0.757883345337899,-0.07581712668760456,-0.04378152237335343,-0.28294593473897917,-0.012192662584927447,-0.005827730650436526,-0.05120357253507111,0,70,255.0,255.0,255.0
107,5.3500000000000005,1.2927177609957123,1.379720452394758,-0.7720946996071356,-0.07644254988266469,-0.0441147699430747,-0.2855092973628613,-0.01282426521747811,-0.007502172138414471,-0.05133093242021376,0,70,255.0,255.0,255.0
108,5.4,1.2888793400022938,1.377504638498478,-0.7864343812074229,-0.07709955320935236,-0.04453173958719487,-0.28807902798100055,-0.013455867850028773,-0.009176613626392417,-0.051458292305356416,0,70,255.0,255.0,255.0
109,5.45,1.28500727933925,1.375265883068132,-0.8009027085384733,-0.07778813666766757,-0.045032431305713945,-0.29065512659339693,-0.014087470482579436,-0.010851055114370362,-0.051585652190499064,0,70,255.0,255.0,255.0
110,5.5,1.2811,1.373,-0.8155,-0.0785083002576103,-0.0456168450986319,-0.2932375932000504,-0.014719073115129877,-0.012525496602348363,-0.0517130120756395,0,70,255.0,255.0,255.0
111,5.550000000000001,1.2771560825145194,1.3707042659386632,-0.8302263174856783,-0.07925047178572663,-0.04619721606787829,-0.29581103743869175,-0.014967788009522656,-0.010689342167507051,-0.05122475747001331,0,70,255.0,255.0,255.0
112,5.6000000000000005,1.273174745559015,1.3683818085219077,-0.8450806968650314,-0.08000507905856256,-0.04668577931538261,-0.29836006894705175,-0.015216502903915432,-0.00885318773266577,-0.05073650286438713,0,70,255.0,255.0,255.0
113,5.65,1.2691553673462512,1.3660372181358207,-0.8600619175015453,-0.08077212207611817,-0.047082534841144864,-0.30088468772513044,-0.015465217798308208,-0.007017033297824491,-0.05024824825876095,0,70,255.0,255.0,255.0
114,5.7,1.2650973260889913,1.3636750851664892,-0.8751687587587063,-0.08155160083839338,-0.047387482645165055,-0.3033848937729278,-0.015713932692700983,-0.005180878862983212,-0.04975999365313477,0,70,255.0,255.0,255.0
115,5.75,1.261,1.3613,-0.8904,-0.08234351534538824,-0.047600622727443184,-0.30586068709044384,-0.015962647587093426,-0.003344724428142043,-0.04927173904750548,0,70,255.0,255.0,255.0
116,5.800000000000001,1.2568635486158342,1.3589150253846545,-0.9057545847193891,-0.08310098616948988,-0.047813613355134975,-0.3083219155062533,-0.014336185376972031,-0.005174900679529552,-0.04917739758487309,0,70,255.0,255.0,255.0
117,5.8500000000000005,1.252691256768226,1.3565171135176102,-0.9212321129327399,-0.08377713388308544,-0.048118112795396135,-0.31077842684893114,-0.012709723166850666,-0.007005076930917028,-0.04908305612224071,0,70,255.0,255.0,255.0
118,5.9,1.2484871906127009,1.3541016889582387,-0.9368323487863964,-0.08437195848617496,-0.04851412104822667,-0.3132302211184774,-0.011083260956729301,-0.008835253182304506,-0.04898871465960832,0,70,255.0,255.0,255.0
119,5.95,1.2442554163047836,1.3516641762659114,-0.952555056426702,-0.08488545997875838,-0.04900163811362659,-0.315677298314892,-0.009456798746607936,-0.010665429433691982,-0.04889437319697594,0,70,255.0,255.0,255.0
120,6.0,1.24,1.3492,-0.9684,-0.08531763836083574,-0.04958066399159587,-0.318119658438175,-0.007830336536486793,-0.012495605685079458,-0.04880003173434577,0,70,255.0,255.0,255.0
121,6.050000000000001,1.2357233230221432,1.3467060325227183,-0.9843673436367669,-0.08576958353631252,-0.050164330511582124,-0.3205813005362962,-0.01024747048258422,-0.0108510551143703,-0.04966565219049938,0,70,255.0,255.0,255.0
122,6.1000000000000005,1.2314210273680803,1.3441849374076509,-1.00045885140401,-0.08634238540909416,-0.050665769503032906,-0.323086223657225,-0.012664604428681607,-0.009206504543661169,-0.05053127264665297,0,70,255.0,255.0,255.0
123,6.15,1.2270870702029455,1.3416408260312238,-1.0166766873528694,-0.08703604397918067,-0.05108498096594824,-0.32563442780096147,-0.015081738374778992,-0.00756195397295204,-0.051396893102806554,0,70,255.0,255.0,255.0
124,6.2,1.222715408691874,1.3390778097698646,-1.0330230155344862,-0.08785055924657205,-0.05142196490032811,-0.32822591296750564,-0.01749887232087638,-0.00591740340224291,-0.052262513558960146,0,70,255.0,255.0,255.0
125,6.25,1.2183,1.3365,-1.0495,-0.0887859312112683,-0.051676721306172534,-0.3308606791568575,-0.019916006266973985,-0.0042728528315339465,-0.05312813401511507,0,70,255.0,255.0,255.0
126,6.300000000000001,1.213836759295592,1.333910444524472,-1.0661088407335448,-0.08972467968526018,-0.05191306459853558,-0.3334808823485636,-0.017633932692700582,-0.005180878862987572,-0.051679993653126456,0,70,255.0,255.0,255.0
127,6.3500000000000005,1.2093294337594525,1.3313079368517868,-1.0828468814512218,-0.09054932448053837,-0.05219480919247129,-0.33602867852217017,-0.015351859118427222,-0.006088904894441182,-0.05023185329113787,0,70,255.0,255.0,255.0
128,6.4,1.2047837285755167,1.3286902069168656,-1.0997105018021263,-0.0912598655971029,-0.05252195508797969,-0.3385040676776774,-0.013069785544153861,-0.006996930925894791,-0.04878371292914928,0,70,255.0,255.0,255.0
129,6.45,1.2002053489277207,1.3260549846546292,-1.1166960814353541,-0.09185630303495375,-0.05289450228506077,-0.34090704981508513,-0.0107877119698805,-0.0079049569573484,-0.04733557256716069,0,70,255.0,255.0,255.0
130,6.5,1.1956,1.3234,-1.1338,-0.09233863679409096,-0.053312450783714535,-0.34323762493439347,-0.00850563839560703,-0.008812982988802287,-0.04588743220517166,0,70,255.0,255.0,255.0
131,6.550000000000001,1.190972039795488,1.320723389379393,-1.1510196934290562,-0.09278769772264635,-0.0537514110942768,-0.3455591700694474,-0.009456798746607889,-0.008745429433687966,-0.046974373196983006,0,70,255.0,255.0,255.0
132,6.6000000000000005,1.1863204375941094,1.3180249151852013,-1.1683568227911048,-0.09328431666875175,-0.05418699372708334,-0.34793506225409176,-0.010407959097608731,-0.008677875878573648,-0.04806131418879432,0,70,255.0,255.0,255.0
133,6.65,1.1816428154949872,1.3153047463013137,-1.185814105438625,-0.09382849363240721,-0.054619198682134155,-0.3503653014883268,-0.011359119448609574,-0.008610322323459329,-0.04914825518060564,0,70,255.0,255.0,255.0
134,6.7,1.176936795597243,1.3125630516116173,-1.203394258724097,-0.09442022861361271,-0.055048025959429266,-0.3528498877721523,-0.012310279799610416,-0.00854276876834501,-0.050235196172416965,0,70,255.0,255.0,255.0
135,6.75,1.1722,1.3098,-1.2211,-0.09505952161236825,-0.055473475558968664,-0.35538882110556846,-0.013261440150611037,-0.008475215213230636,-0.0513221371642274,0,70,255.0,255.0,255.0
136,6.800000000000001,1.1674302815224555,1.3070159979579563,-1.238933185550232,-0.09573252942415546,-0.0558812910243555,-0.35793043737364827,-0.013658872320876819,-0.007837403402242683,-0.050342513558963006,0,70,255.0,255.0,255.0
137,6.8500000000000005,1.1626264158641093,1.3042124024074069,-1.2568922273843608,-0.09642540884445593,-0.056257215899192935,-0.36042307246146477,-0.014056304491142594,-0.007199591591254743,-0.04936288995369863,0,70,255.0,255.0,255.0
138,6.9,1.1577874094445346,1.3013908078778795,-1.2749746764433738,-0.09713815987326971,-0.05660125018348098,-0.3628667263690181,-0.01445373666140837,-0.006561779780266803,-0.048383266348434255,0,70,255.0,255.0,255.0
139,6.95,1.1529122686833069,1.2985528088989013,-1.2931780836682578,-0.09787078251059678,-0.056913393877219616,-0.3652613990963082,-0.014851168831674146,-0.0059239679692788625,-0.04740364274316988,0,70,255.0,255.0,255.0
140,7.0,1.148,1.2957,-1.3115,-0.09862327675643712,-0.05719364698040885,-0.36760709064333513,-0.015248601001940143,-0.005286156158290867,-0.04642401913790506,0,70,255.0,255.0,255.0
141,7.050000000000001,1.1430500341146888,1.292833418788782,-1.3299387643700182,-0.09937018458073253,-0.05747542480830006,-0.3699510804359616,-0.01462771196987597,-0.005984956957357311,-0.047335572567152005,0,70,255.0,255.0,255.0
142,7.1000000000000005,1.1380634989494534,1.2899518751851706,-1.3484958676714542,-0.10008604795342473,-0.05779214267614459,-0.37234064790005034,-0.014006822937811808,-0.006683757756423743,-0.048247125996398944,0,70,255.0,255.0,255.0
143,7.15,1.1330419467268733,1.2870536221871685,-1.3671735887878809,-0.10077086687451371,-0.05814380058394243,-0.37477579303560143,-0.013385933905747644,-0.0073825585554901756,-0.049158679425645876,0,70,255.0,255.0,255.0
144,7.2,1.1279869296695286,1.2841369127927773,-1.385974206602872,-0.10142464134399948,-0.0585303985316936,-0.37725651584261494,-0.012765044873683483,-0.008081359354556608,-0.05007023285489281,0,70,255.0,255.0,255.0
145,7.25,1.1229,1.2812,-1.4049,-0.10204737136188205,-0.0589519365193981,-0.37978281632109073,-0.012144155841619542,-0.008780160153622873,-0.05098178628413885,0,70,255.0,255.0,255.0
146,7.300000000000001,1.117782382018788,1.2782415268869152,-1.4239525569696967,-0.10265873225291292,-0.059385009742447085,-0.3823132408825048,-0.012310279799614634,-0.008542768768336402,-0.050235196172420594,0,70,255.0,255.0,255.0
147,7.3500000000000005,1.1126339883380771,1.2752616968519095,-1.4431307019298243,-0.10327839934184352,-0.05980621339623174,-0.3848063359383328,-0.012476403757609724,-0.008305377383049936,-0.04948860606070235,0,70,255.0,255.0,255.0
148,7.4,1.107454403647972,1.2722611033734463,-1.4624325684051036,-0.10390637262867387,-0.06021554748075208,-0.38726210148857493,-0.012642527715604814,-0.00806798599776347,-0.0487420159489841,0,70,255.0,255.0,255.0
149,7.45,1.102243212638578,1.2692403399299887,-1.4818562899202554,-0.10454265211340401,-0.06061301199600808,-0.38968053753323123,-0.012808651673599902,-0.007830594612477003,-0.047995425837265855,0,70,255.0,255.0,255.0
150,7.5,1.097,1.2662,-1.5014,-0.10518723779603387,-0.060998606941999774,-0.3920616440723015,-0.012974775631594992,-0.007593203227190537,-0.0472488357255445,0,70,255.0,255.0,255.0
151,7.550000000000001,1.0917244378101585,1.2631404736635565,-1.5210622077511964,-0.10583488640761561,-0.06138453622191151,-0.39442795603401937,-0.0129311688316744,-0.007843967969278635,-0.047403642743169175,0,70,255.0,255.0,255.0
152,7.6000000000000005,1.0864165476982384,1.2600613374071903,-1.54084292460925,-0.10648035467920132,-0.061783003738927644,-0.39680200834661844,-0.012887562031753808,-0.008094732711366728,-0.04755844976079384,0,70,255.0,255.0,255.0
153,7.65,1.0810764386812386,1.2569619643190455,-1.5607425375917061,-0.10712364261079098,-0.06219400949304817,-0.39918380101009876,-0.012843955231833215,-0.008345497453454821,-0.04771325677841851,0,70,255.0,255.0,255.0
154,7.7,1.0757042197761593,1.2538417274872673,-1.580761433716108,-0.10776475020238464,-0.06261755348427313,-0.40157333402446027,-0.012800348431912623,-0.008596262195542916,-0.04786806379604318,0,70,255.0,255.0,255.0
155,7.75,1.0703,1.2507,-1.6009,-0.10840367745398226,-0.06305363571260247,-0.40397060738970303,-0.012756741631991919,-0.008847026937631064,-0.048022870813665186,0,70,255.0,255.0,255.0
156,7.800000000000001,1.0648638667405768,1.2475365784588572,-1.6211586120255197,-0.10904172211662415,-0.06347684536990728,-0.40637493498141697,-0.012765044873683462,-0.008081359354560813,-0.04815023285489222,0,70,255.0,255.0,255.0
157,7.8500000000000005,1.0593958208689693,1.2443529535193285,-1.6415375996331762,-0.10968018194135061,-0.06386177164805856,-0.40878563067519225,-0.012773348115375005,-0.007315691771490576,-0.04827759489611925,0,70,255.0,255.0,255.0
158,7.9,1.0538958416270738,1.2411510393503706,-1.6620372812280733,-0.11031905692816166,-0.06420841454705634,-0.4112026944710289,-0.012781651357066548,-0.00655002418842034,-0.048404956937346276,0,70,255.0,255.0,255.0
159,7.95,1.0483639082567853,1.237932750120942,-1.6826579752153135,-0.11095834707705726,-0.0645167740669006,-0.41362612636892687,-0.012789954598758091,-0.0057843566053501026,-0.04853231897857331,0,70,255.0,255.0,255.0
160,8.0,1.0428,1.2347,-1.7034,-0.11159805238803744,-0.06478685020759134,-0.4160559263688862,-0.012798257840449079,-0.005018689022279865,-0.04865968101979945,0,70,255.0,255.0,255.0
161,8.05,1.0372040952275337,1.2314540125010132,-1.7242633441467266,-0.11223822512588867,-0.06506008229846016,-0.4184723040403129,-0.012808651673599769,-0.005910594612472954,-0.047995425837264516,0,70,255.0,255.0,255.0
162,8.1,1.0315761688258835,1.2281932485154954,-1.745246676858046,-0.1128789175553974,-0.06537790966883864,-0.42085546895261267,-0.012819045506750459,-0.006802500202666011,-0.04733117065472961,0,70,255.0,255.0,255.0
163,8.15,1.0259161948104663,1.2249154782794707,-1.7663483374960023,-0.11352012967656372,-0.06574033231872677,-0.4232054211057858,-0.01282943933990115,-0.0076944057928591,-0.046666915472194676,0,70,255.0,255.0,255.0
164,8.200000000000001,1.0202241471966993,1.221618472028964,-1.7875666654226396,-0.11416186148938755,-0.06614735024812456,-0.4255221604998322,-0.01283983317305184,-0.008586311383052188,-0.04600266028965974,0,70,255.0,255.0,255.0
165,8.25,1.0145,1.2183,-1.8089,-0.11480411299386888,-0.06659896345703196,-0.42780568713475176,-0.012850227006202197,-0.009478216973244913,-0.04533840510712572,0,70,255.0,255.0,255.0
166,8.3,1.008743752349288,1.214958571537089,-1.8303472113875756,-0.11544537737982165,-0.06705082543625165,-0.430087848857331,-0.012800348431908425,-0.008596262195542891,-0.04594806379604287,0,70,255.0,255.0,255.0
167,8.35,1.0029555038274962,1.2115956524186895,-1.8519092929346403,-0.11608414783705971,-0.06745858967658626,-0.432400493514356,-0.012750469857614655,-0.007714307417840899,-0.04655772248495999,0,70,255.0,255.0,255.0
168,8.4,0.9971353791310607,1.2082134475317452,-1.8735877687879186,-0.11672042436558311,-0.06782225617803575,-0.434743621105827,-0.012700591283320883,-0.0068323526401388775,-0.047167381173877136,0,70,255.0,255.0,255.0
169,8.450000000000001,0.9912835029564167,1.2048141617632007,-1.895384163094131,-0.11735420696539182,-0.06814182494060016,-0.4371172316317438,-0.012650712709027111,-0.005950397862436854,-0.04777703986279428,0,70,255.0,255.0,255.0
170,8.5,0.9854,1.2014,-1.9173,-0.1179854956364858,-0.06841729596427944,-0.43952132509210634,-0.012600834134732342,-0.00506844308473442,-0.04838669855171007,0,70,255.0,255.0,255.0
171,8.55,0.9794848953753139,1.1979725013506297,-1.939336610302973,-0.11862026535482316,-0.06868861595653165,-0.44194430053036354,-0.012789954598761802,-0.005784356605354268,-0.04853231897857677,0,70,255.0,255.0,255.0
172,8.6,0.9735378158641311,1.1945305418097465,-1.961494551403392,-0.11926449109636197,-0.06899573162481486,-0.44437455698996403,-0.012979075062791254,-0.0065002701259740895,-0.04867793940544347,0,70,255.0,255.0,255.0
173,8.65,0.967558288665291,1.1910723315935479,-1.9837741873523251,-0.11991817286110229,-0.06933864296912907,-0.44681209447090786,-0.013168195526820716,-0.007216183646593937,-0.048823559832310175,0,70,255.0,255.0,255.0
174,8.700000000000001,0.961545840977634,1.187596080918233,-2.0061758822008393,-0.12058131064904408,-0.06971734998947426,-0.4492569129731951,-0.013357315990850176,-0.007932097167213785,-0.048969180259176875,0,70,255.0,255.0,255.0
175,8.75,0.9555,1.1841,-2.0287,-0.12125390446018729,-0.07013185268585044,-0.45170901249682555,-0.013546436454879296,-0.008648010687832941,-0.04911480068604268,0,70,255.0,255.0,255.0
176,8.8,0.9494206661494561,1.1805826230603913,-2.0513463474005347,-0.12191356120088563,-0.07056271073762256,-0.4541349490212179,-0.012839833173053894,-0.008586311383051791,-0.04792266028965127,0,70,255.0,255.0,255.0
177,8.85,0.9433092327159797,1.177043780342325,-2.0741125014517916,-0.12253788777749268,-0.07099048382415563,-0.45650127852579064,-0.012133229891228519,-0.008524612078270644,-0.0467305198932599,0,70,255.0,255.0,255.0
178,8.9,0.9371674662077749,1.173483626094063,-2.0969954818027827,-0.12312688419000847,-0.07141517194544962,-0.4588080010105439,-0.011426626609403119,-0.008462912773489494,-0.04553837949686849,0,70,255.0,255.0,255.0
179,8.950000000000001,0.9309971331330468,1.1699023145638674,-2.1199923081025163,-0.123680550438433,-0.07183677510150457,-0.46105511647547753,-0.010720023327577717,-0.008401213468708344,-0.04434623910047708,0,70,255.0,255.0,255.0
180,9.0,0.9248,1.1663,-2.1431,-0.12419888652276623,-0.07225529329232046,-0.46324262492059165,-0.010013420045751786,-0.008339514163927197,-0.043154098704085264,0,70,255.0,255.0,255.0
181,9.05,0.9185772400268613,1.1626770064078047,-2.1663164000948925,-0.1247174898416356,-0.07266054109297945,-0.46541990338476363,-0.010730712709022516,-0.007870397862432347,-0.04393703986279364,0,70,255.0,255.0,255.0
182,9.1,0.9123276532719503,1.159034336820953,-2.1896426427894418,-0.12527195779366845,-0.07304233307856368,-0.467636328906871,-0.01144800537229322,-0.007401281560937515,-0.04471998102150198,0,70,255.0,255.0,255.0
183,9.15,0.9060494465036084,1.1553731640301994,-2.213080685436545,-0.12586229037886493,-0.07340066924907321,-0.46989190148691384,-0.012165298035563947,-0.006932165259442665,-0.045502922180210355,0,70,255.0,255.0,255.0
184,9.200000000000001,0.8997408264901777,1.1516946608262972,-2.2366324853890993,-0.1264884875972249,-0.07373554960450797,-0.47218662112489207,-0.012882590698834677,-0.006463048957947816,-0.04628586333891872,0,70,255.0,255.0,255.0
185,9.25,0.8934,1.148,-2.2603,-0.12715054944874835,-0.074046974144868,-0.4745204878208057,-0.013599883362104714,-0.005993932656453094,-0.047068804497629735,0,70,255.0,255.0,255.0
186,9.3,0.8870255737430979,1.1442901513083896,-2.284084852219897,-0.12782447943257222,-0.07434712489045966,-0.47687343743972604,-0.013357315990849945,-0.006012097167213693,-0.047049180259182144,0,70,255.0,255.0,255.0
187,9.35,0.8806177541962188,1.1405652723738617,-2.3079873273904403,-0.12848628104783333,-0.07464818386158935,-0.4792254058467239,-0.013114748619595187,-0.006030261677974291,-0.04702955602073455,0,70,255.0,255.0,255.0
188,9.4,0.8741771477777907,1.1368253177851386,-2.332007376451037,-0.12913595429453176,-0.0749501510582571,-0.48157639304179944,-0.012872181248340418,-0.0060484261887348905,-0.04700993178228696,0,70,255.0,255.0,255.0
189,9.450000000000001,0.8677043609062416,1.1330702421309435,-2.356144950341089,-0.1297734991726674,-0.07525302648046286,-0.48392639902495266,-0.01262961387708565,-0.0060665906994954895,-0.04699030754383937,0,70,255.0,255.0,255.0
190,9.5,0.8612,1.1293,-2.3804,-0.1303989156822403,-0.07555681012820663,-0.48627542379618344,-0.012387046505830002,-0.0060847552102559765,-0.04697068330538956,0,70,255.0,255.0,255.0
191,9.55,0.8546644650007466,1.1255143883586358,-2.4047721910255224,-0.1310245924280755,-0.07587095934518075,-0.4886063468563302,-0.012640023327577014,-0.006481213468708563,-0.04626623910047955,0,70,255.0,255.0,255.0
192,9.600000000000001,0.8480973299431741,1.1217125736835998,-2.429260047648796,-0.13166291801499802,-0.0762049314750775,-0.49090204770623147,-0.012893000149324025,-0.00687767172716115,-0.04556179489556953,0,70,255.0,255.0,255.0
193,9.65,0.8414979623852287,1.117893564829246,-2.4538618087593083,-0.1323138924430079,-0.07655872651789686,-0.49316252634588714,-0.01314597697107103,-0.007274129985613722,-0.04485735069065954,0,70,255.0,255.0,255.0
194,9.700000000000001,0.8348657298848552,1.114056370649928,-2.4785757132465474,-0.13297751571210512,-0.07693234447363886,-0.4953877827752974,-0.013398953792818042,-0.00767058824406631,-0.04415290648574953,0,70,255.0,255.0,255.0
195,9.75,0.8282,1.1102,-2.5034,-0.13365378782228968,-0.07732578534230349,-0.4975778169944621,-0.013651930614564156,-0.008067046502519104,-0.04344846228083865,0,70,255.0,255.0,255.0
196,9.8,0.8215005662539154,1.1063234952570669,-2.5283335836780156,-0.1343171508551247,-0.07773703772881527,-0.499773175134956,-0.012882590698836205,-0.008383048957952104,-0.044365863338915824,0,70,255.0,255.0,255.0
197,9.850000000000001,0.8147689260310839,1.102426032891739,-2.5533780820143783,-0.13494204689217332,-0.07816409023809871,-0.5020144033283537,-0.012113250783108254,-0.008699051413385103,-0.045283264396993,0,70,255.0,255.0,255.0
198,9.9,0.8080070026812947,1.0985068228978776,-2.5785357885117324,-0.1355284759334355,-0.07860694287015377,-0.5043015015746553,-0.01134391086738033,-0.009015053868818092,-0.04620066545507014,0,70,255.0,255.0,255.0
199,9.950000000000001,0.8012167195543367,1.0945650752693439,-2.603808996672725,-0.13607643797891134,-0.07906559562498051,-0.5066344698738607,-0.010574570951652379,-0.009331056324251092,-0.047118066513147316,0,70,255.0,255.0,255.0
200,10.0,0.7944,1.0906,-2.6292,-0.13658593302860073,-0.07954004850257888,-0.5090133082259699,-0.009805231035923345,-0.009647058779683637,-0.048035467571222235,0,70,255.0,255.0,255.0
201,10.05,0.7875580699835911,1.0866116306130964,-2.654710274262418,-0.13709880415142597,-0.07998088973955836,-0.5113889526038463,-0.01070961387708539,-0.00798659069949492,-0.04699030754382976,0,70,255.0,255.0,255.0
202,10.100000000000001,0.7806893659324896,1.0826032947494442,-2.680338024293696,-0.13765689441630927,-0.08033870757252838,-0.513712338980353,-0.011613996718247435,-0.006326122619306204,-0.045945147516437294,0,70,255.0,255.0,255.0
203,10.15,0.7737916268895927,1.0785791435792438,-2.706080637193764,-0.1382602038232507,-0.08061350200148898,-0.5159834673554899,-0.012518379559409449,-0.004665654539117547,-0.04489998748904486,0,70,255.0,255.0,255.0
204,10.200000000000001,0.7668625918977969,1.0745433282726957,-2.731935500062555,-0.1389087323722502,-0.08080527302644014,-0.5182023377292574,-0.013422762400571494,-0.0030051864589288307,-0.04385482746165239,0,70,255.0,255.0,255.0
205,10.25,0.7599,1.0705,-2.7579,-0.13960248006330783,-0.08091402064738186,-0.5203689501016551,-0.014327145241733508,-0.0013447183787397288,-0.04280966743425907,0,70,255.0,255.0,255.0
206,10.3,0.7529023538117194,1.066451582290547,-2.783972519272314,-0.14029563253917157,-0.08104340331295191,-0.5225430144496558,-0.013398953792815757,-0.0038305882440624957,-0.044152906485766884,0,70,255.0,255.0,255.0
207,10.350000000000001,0.7458712102389566,1.0623935881104836,-2.810155420810842,-0.14094237544258942,-0.08129707947178812,-0.5247842407502318,-0.012470762343898007,-0.006316458109385263,-0.0454961455372747,0,70,255.0,255.0,255.0
208,10.4,0.7388088897603345,1.0583198027851468,-2.8364520627132133,-0.14154270877356137,-0.08167504912389044,-0.5270926290033832,-0.01154257089498029,-0.008802327974707942,-0.04683938458878246,0,70,255.0,255.0,255.0
209,10.450000000000001,0.7317177128544748,1.0542240116398736,-2.8628658030770566,-0.14209663253208746,-0.08217731226925891,-0.52946817920911,-0.010614379446062541,-0.01128819784003071,-0.04818262364029027,0,70,255.0,255.0,255.0
210,10.5,0.7246,1.0501,-2.8894,-0.14260414671816765,-0.0828038689078935,-0.5319108913674123,-0.009686187997144602,-0.013774067705353166,-0.04952586269179715,0,70,255.0,255.0,255.0
211,10.55,0.7174573147695308,1.0459436402247158,-2.916056448648328,-0.14311066569188763,-0.08342949700863371,-0.5343269895975357,-0.01057457095165374,-0.011251056324254924,-0.047118066513136866,0,70,255.0,255.0,255.0
212,10.600000000000001,0.7102881931116823,1.0417591528086207,-2.942830692462939,-0.14366160381333304,-0.08392897454031902,-0.5366226980187261,-0.011462953906162879,-0.008728044943156682,-0.04471027033447658,0,70,255.0,255.0,255.0
213,10.65,0.7030904140690687,1.037552845280168,-2.9697167119533847,-0.14425696108250388,-0.08430230150294937,-0.5387980166309834,-0.012351336860671986,-0.00620503356205853,-0.04230247415581639,0,70,255.0,255.0,255.0
214,10.700000000000001,0.6958617566843033,1.0333310251678103,-2.996708487629222,-0.14489673749940024,-0.08454947789652485,-0.5408529454343076,-0.013239719815181124,-0.0036820221809602885,-0.03989467797715611,0,70,255.0,255.0,255.0
215,10.75,0.6886,1.0291,-3.0238,-0.145580933064022,-0.08467050372104541,-0.5427874844286988,-0.014128102769689788,-0.0011590107998619148,-0.03748688179849324,0,70,255.0,255.0,255.0
216,10.8,0.681303587110157,1.0248642568105897,-3.0509872861343763,-0.1462697046932785,-0.08477460865251507,-0.5447250271602023,-0.0134227624005692,-0.0030051864589244067,-0.0400148274616431,0,70,255.0,255.0,255.0
217,10.850000000000001,0.6739736173143128,1.0206210006550323,-3.078274609337407,-0.14692320930407893,-0.08497102236693786,-0.5467889671748632,-0.012717422031448614,-0.004851362117986899,-0.04254277312479296,0,70,255.0,255.0,255.0
218,10.9,0.6666118539633903,1.01636561609418,-3.1056682894732486,-0.14754144689642337,-0.08525974486431376,-0.5489793044726816,-0.012012081662328051,-0.006697537777049325,-0.04507071878794273,0,70,255.0,255.0,255.0
219,10.950000000000001,0.6592200604083115,1.012093487688885,-3.133174646406061,-0.14812441747031174,-0.08564077614464279,-0.5512960390536575,-0.011306741293207464,-0.008543713436111816,-0.047598664451092586,0,70,255.0,255.0,255.0
220,11.0,0.6518,1.0078,-3.1608,-0.14867212102574406,-0.08611411620792493,-0.5537391709177908,-0.010601400924086679,-0.010389889095174243,-0.05012661011424058,0,70,255.0,255.0,255.0
221,11.05,0.6443531367898402,1.0034817325329244,-3.1885488068141687,-0.14920251553499786,-0.08660806838130507,-0.5561969017616543,-0.010614379446064871,-0.009368197840030809,-0.048182623640298745,0,70,255.0,255.0,255.0
222,11.100000000000001,0.6368797376310651,0.9991400445712487,-3.216418070187438,-0.14973355897035057,-0.08705093599192802,-0.5585574332818207,-0.010627357968043061,-0.008346506584887375,-0.04623863716635691,0,70,255.0,255.0,255.0
223,11.15,0.6293797700773701,0.9947774903431109,-3.244402930153622,-0.15026525133180219,-0.0874427190397938,-0.56082076547829,-0.010640336490021251,-0.007324815329743976,-0.044294650692415144,0,70,255.0,255.0,255.0
224,11.200000000000001,0.62185320168245,0.9903966240766486,-3.272498526746538,-0.1507975926193527,-0.08778341752490242,-0.5629868983510622,-0.010653315011999443,-0.006303124074600541,-0.04235066421847331,0,70,255.0,255.0,255.0
225,11.25,0.6143,0.986,-3.3007,-0.15133058283300213,-0.08807303144725384,-0.5650558319001374,-0.010666293533977411,-0.0052814328194565885,-0.040406677744534214,0,70,255.0,255.0,255.0
226,11.3,0.6067198657304818,0.9815896130577123,-3.3290038866089517,-0.15188023316673108,-0.08834511782226437,-0.5671113657931797,-0.011319719815180972,-0.005602022180964155,-0.041814677977150994,0,70,255.0,255.0,255.0
227,11.350000000000001,0.5991114321614256,0.9771652210599722,-3.357412309912846,-0.15246255481452026,-0.08863323366535027,-0.5692372996978525,-0.011973146096384531,-0.005922611542471721,-0.043222678209767766,0,70,255.0,255.0,255.0
228,11.4,0.5914730657271288,0.972726022533376,-3.385928789912264,-0.15307754777636953,-0.08893737897651154,-0.5714336336141563,-0.012626572377588068,-0.006243200903979276,-0.0446306784423845,0,70,255.0,255.0,255.0
229,11.450000000000001,0.5838031328618877,0.9682712160045198,-3.414556846607789,-0.15372521205227904,-0.08925755375574819,-0.573700367542091,-0.013279998658791628,-0.0065637902654868425,-0.04603867867500128,0,70,255.0,255.0,255.0
230,11.5,0.5761,0.9638,-3.4433,-0.15440554764224868,-0.0895937580030602,-0.5760375014816564,-0.013933424939994055,-0.006884379626994064,-0.047446678907616224,0,70,255.0,255.0,255.0
231,11.55,0.5683626002882319,0.959311815236226,-3.472160446750027,-0.1550845517980786,-0.08993146032963775,-0.5783656350656242,-0.013226741293202506,-0.006623713436107766,-0.04567866445109503,0,70,255.0,255.0,255.0
232,11.600000000000001,0.5605921337232308,0.9548070711888619,-3.5011350901611826,-0.15572822177156895,-0.09025612934667099,-0.580605367926766,-0.012520057646410955,-0.006363047245221468,-0.04391064999457383,0,70,255.0,255.0,255.0
233,11.65,0.5527903670141141,0.9502864195233847,-3.5302195101973233,-0.1563365575627197,-0.0905677650541599,-0.5827567000650817,-0.011813373999619431,-0.00610238105433518,-0.0421426355380527,0,70,255.0,255.0,255.0
234,11.700000000000001,0.544959066869998,0.9457505119052716,-3.55940928682231,-0.15690955917153088,-0.09086636745210451,-0.5848196314805713,-0.011106690352827882,-0.005841714863448882,-0.040374621081531496,0,70,255.0,255.0,255.0
235,11.75,0.5371,0.9412,-3.5887,-0.15744722659800248,-0.0911519365405048,-0.5867941621732348,-0.010400006706036358,-0.005581048672562705,-0.03860660662501214,0,70,255.0,255.0,255.0
236,11.8,0.5292145331165897,0.9366351259973832,-3.6180887263909405,-0.15797355964095347,-0.09144904085918393,-0.5887700939443221,-0.010653315012002909,-0.006303124074602461,-0.04043066421848052,0,70,255.0,255.0,255.0
237,11.850000000000001,0.5213024329456495,0.9320544941845799,-3.6475785294424274,-0.15851255809920278,-0.09178224894796506,-0.5908372285950828,-0.010906623317969462,-0.007025199476642217,-0.0422547218119489,0,70,255.0,255.0,255.0
238,11.9,0.5133630662164146,0.927456299373085,-3.6771739692984435,-0.15906422197275039,-0.09215156080684815,-0.592995566125517,-0.011159931623936005,-0.007747274878681947,-0.04407877940541721,0,70,255.0,255.0,255.0
239,11.950000000000001,0.5053957996581195,0.9228387363743933,-3.7068796061029734,-0.1596285512615964,-0.09255697643583324,-0.5952451065356246,-0.011413239929902558,-0.008469350280721703,-0.045902836998885595,0,70,255.0,255.0,255.0
240,12.0,0.4974,0.9182,-3.7367,-0.16020554596574066,-0.09299849583492033,-0.5975858498254056,-0.011666548235868213,-0.0091914256827611,-0.04772689459235657,0,70,255.0,255.0,255.0
241,12.05,0.4893752672454085,0.913538880774241,-3.7666382476862124,-0.1607812096381072,-0.09344037623362653,-0.5999299891570896,-0.011359998658791955,-0.008483790265486192,-0.04603867867500069,0,70,255.0,255.0,255.0
242,12.100000000000001,0.48132213449416994,0.9088565520728182,-3.796691592069112,-0.16134154583161986,-0.09384687486146895,-0.6021897176929057,-0.011053449081715697,-0.007776154848211283,-0.0443504627576448,0,70,255.0,255.0,255.0
243,12.15,0.47324136812022743,0.9041547829842753,-3.8268558126089047,-0.16188655454627873,-0.09421799171844765,-0.6043650354328541,-0.010746899504639449,-0.007068519430936399,-0.04266224684028898,0,70,255.0,255.0,255.0
244,12.200000000000001,0.46513373449752304,0.8994353425971547,-3.857126688765799,-0.1624162357820838,-0.09455372680456259,-0.6064559423769347,-0.010440349927563191,-0.00636088401366149,-0.040974030922933086,0,70,255.0,255.0,255.0
245,12.25,0.457,0.8947,-3.8875,-0.16293058953903508,-0.09485408011981379,-0.6084624385251474,-0.010133800350486721,-0.005653248596386606,-0.039285815005575486,0,70,255.0,255.0,255.0
246,12.3,0.4488403979017757,0.8899501509056525,-3.9179726828642134,-0.16346160180661792,-0.09514145420630969,-0.6104539494273247,-0.011106690352826801,-0.005841714863449069,-0.04037462108151397,0,70,255.0,255.0,255.0
247,12.350000000000001,0.44065302907766934,0.8851856975241464,-3.9485463022811302,-0.16404125857431778,-0.09543825160615871,-0.6124999006332988,-0.01207958035516688,-0.00603018113051153,-0.041463427157452444,0,70,255.0,255.0,255.0
248,12.4,0.4324354613026754,0.880406168689814,-3.9792235802659395,-0.1646695598421346,-0.09574447231936084,-0.6146002921430699,-0.013052470357506925,-0.006218647397573986,-0.042552233233390885,0,70,255.0,255.0,255.0
249,12.450000000000001,0.42418526235178733,0.8756110932369877,-4.0100072388338335,-0.16534650561006847,-0.0960601163459161,-0.6167551239566379,-0.014025360359847003,-0.006407113664636447,-0.04364103930932937,0,70,255.0,255.0,255.0
250,12.5,0.4159,0.8708,-4.0409,-0.1660720958781193,-0.0963851836858245,-0.6189643960740027,-0.014998250362186605,-0.006595579931698792,-0.04472984538526514,0,70,255.0,255.0,255.0
251,12.55,0.407578341147488,0.8659725156031487,-4.071903820856938,-0.16678038313542154,-0.096713806941135,-0.6211822131336068,-0.01333323992990183,-0.006549350280721721,-0.04398283699889997,0,70,255.0,255.0,255.0
252,12.600000000000001,0.3992233491951512,0.8611286578305956,-4.103017598806373,-0.1674054198711095,-0.09704011871389667,-0.6233626797738928,-0.011668229497617052,-0.006503120629744651,-0.04323582861253479,0,70,255.0,255.0,255.0
253,12.65,0.39083918666907064,0.8562685422564682,-4.134239466327338,-0.16794720608518324,-0.09736411900410948,-0.6255057959948602,-0.010003219065332336,-0.006456890978767582,-0.042488820226169635,0,70,255.0,255.0,255.0
254,12.700000000000001,0.3824300160953265,0.8513922844548938,-4.165567555898869,-0.16840574177764273,-0.09768580781177344,-0.6276115617965097,-0.008338208633047559,-0.0064106613277905115,-0.04174181183980446,0,70,255.0,255.0,255.0
255,12.75,0.374,0.8465,-4.197,-0.16878102694848798,-0.09800518513688852,-0.6296799771788407,-0.006673198200763286,-0.006364431676813664,-0.04099480345343931,0,70,255.0,255.0,255.0
256,12.8,0.3655518375082717,0.8415917866817526,-4.228535233708039,-0.16916086565169614,-0.09832331802915041,-0.6317291980382501,-0.00852034992756268,-0.006360884013661616,-0.04097403092293295,0,70,255.0,255.0,255.0
257,12.850000000000001,0.3570823741417245,0.8366676711534708,-4.260172902493383,-0.16963306194124428,-0.09864127353825469,-0.6337773802711341,-0.010367501654362074,-0.006357336350509568,-0.040953258392426584,0,70,255.0,255.0,255.0
258,12.9,0.34858699202104165,0.8317276622843129,-4.29191295442471,-0.17019761581713233,-0.09895905166420135,-0.6358245238774927,-0.012214653381161402,-0.00635378868735752,-0.04093248586192022,0,70,255.0,255.0,255.0
259,12.950000000000001,0.34006107326690566,0.8267717689434366,-4.323755337570691,-0.1708545272793604,-0.09927665240699045,-0.6378706288573261,-0.014061805107960797,-0.006350241024205472,-0.04091171333141386,0,70,255.0,255.0,255.0
260,13.0,0.3315,0.8218,-4.3557,-0.17160379632792844,-0.09959407576662191,-0.6399156952106341,-0.015908956834760346,-0.006346693361053424,-0.040890940800907494,0,70,255.0,255.0,255.0
261,13.05,0.3229007088194246,0.816812337669841,-4.387747244310912,-0.17235215425779363,-0.09991292094226416,-0.6419809947133901,-0.014025360359847711,-0.006407113664636422,-0.04172103930933223,0,70,255.0,255.0,255.0
262,13.100000000000001,0.31426635423794946,0.8118086575555203,-4.419898791220096,-0.17300633236391325,-0.10023478713308556,-0.6440877991415674,-0.012141763884935076,-0.006467533968219421,-0.04255113781775697,0,70,255.0,255.0,255.0
263,13.15,0.30560164524676237,0.8067888086062794,-4.452156715973826,-0.17356633064628715,-0.1005596743390861,-0.6462361084951658,-0.01025816741002251,-0.006527954271802416,-0.043381236326181676,0,70,255.0,255.0,255.0
264,13.200000000000001,0.29691129083705,0.8017526397713589,-4.48452309381837,-0.1740321491049155,-0.1008875825602658,-0.6484259227741855,-0.008374570935109876,-0.006588374575385416,-0.04421133483460642,0,70,255.0,255.0,255.0
265,13.25,0.2882,0.7967,-4.517,-0.17440378773979817,-0.10121851179662464,-0.6506572419786263,-0.006490974460198862,-0.0066487948789684115,-0.045041433343030235,0,70,255.0,255.0,255.0
266,13.3,0.2794709272140294,0.791630862638883,-4.549588589048318,-0.17477451731712937,-0.10154499820179357,-0.6528748231081971,-0.008338208633048776,-0.006410661327788466,-0.04366181183980016,0,70,255.0,255.0,255.0
267,13.350000000000001,0.2707210089064761,0.7865456986244465,-4.582286332626235,-0.17523760860310306,-0.1018595779294035,-0.6550234231626063,-0.01018544280589869,-0.00617252777660852,-0.04228219033657009,0,70,255.0,255.0,255.0
268,13.4,0.26194562699190843,0.7814451032905686,-4.615089781679992,-0.17579306159771924,-0.10216225097945442,-0.657103042141854,-0.012032676978748538,-0.005934394225428584,-0.04090256883334006,0,70,255.0,255.0,255.0
269,13.450000000000001,0.25314016338489354,0.776329671971127,-4.647995487155835,-0.1764408763009779,-0.10245301735194635,-0.6591136800459404,-0.01387991115159845,-0.005696260674248638,-0.039522947330109984,0,70,255.0,255.0,255.0
270,13.5,0.2443,0.7712,-4.681,-0.17718105271287907,-0.10273187704687929,-0.6610553368748651,-0.0157271453244483,-0.00545812712306859,-0.03814332582687996,0,70,255.0,255.0,255.0
271,13.55,0.2354219823244572,0.7660562117746267,-4.714100799495821,-0.17792577647368926,-0.1030270862505612,-0.6629837128538221,-0.014061805107959579,-0.006350241024207505,-0.038991713331401466,0,70,255.0,255.0,255.0
272,13.600000000000001,0.22650881013614452,0.7608965479466927,-4.74729907827497,-0.17858723322367503,-0.10336690114930006,-0.6649545082080053,-0.012396464891470857,-0.0072423549253464205,-0.03984010083592298,0,70,255.0,255.0,255.0
273,13.65,0.21756464678560353,0.7557187782314457,-4.780596957306208,-0.17916542296283636,-0.10375132174309583,-0.6669677229374145,-0.010731124674982195,-0.008134468826485303,-0.04068848834044446,0,70,255.0,255.0,255.0
274,13.700000000000001,0.2085936556233747,0.7505206723441322,-4.813996557558299,-0.17966034569117326,-0.10418034803194857,-0.6690233570420497,-0.009065784458493473,-0.009026582727624218,-0.041536875844965966,0,70,255.0,255.0,255.0
275,13.75,0.1996,0.7453,-4.8475,-0.1800720014086857,-0.10465398001585825,-0.671121410521911,-0.007400444242003035,-0.00991869662876288,-0.042385263349487445,0,70,255.0,255.0,255.0
276,13.8,0.19058674348814095,0.7400554902626099,-4.881109012968402,-0.18046637678811356,-0.10511465679596196,-0.6732383254765139,-0.008374570935109973,-0.008508374575385115,-0.042291334834627034,0,70,255.0,255.0,255.0
277,13.850000000000001,0.18155255054894415,0.7347897095887814,-4.91482375427389,-0.1809094585021967,-0.10550481747339678,-0.6753505440053738,-0.009348697628216912,-0.007098052522007352,-0.04219740631976662,0,70,255.0,255.0,255.0
278,13.9,0.17249498586567708,0.7295061837836481,-4.948643989095177,-0.1814012465509352,-0.10582446204816269,-0.6774580661084906,-0.010322824321323816,-0.005687730468629638,-0.04210347780490622,0,70,255.0,255.0,255.0
279,13.950000000000001,0.16341161412160643,0.7242084386523431,-4.982569482610977,-0.1819417409343291,-0.10607359052025973,-0.6795608917858643,-0.011296951014430755,-0.0042774084152518745,-0.04200954929004581,0,70,255.0,255.0,255.0
280,14.0,0.1543,0.7189,-5.0166,-0.1825309416523783,-0.10625220288968788,-0.6816590210374951,-0.012271077707536326,-0.0028670863618739384,-0.041915620775183626,0,70,255.0,255.0,255.0
281,14.05,0.14515824372297817,0.7135834271749331,-5.050735148630576,-0.18313671637385667,-0.10641828656559091,-0.6837429852401269,-0.011959911151598708,-0.003776260674246714,-0.04144294733008777,0,70,255.0,255.0,255.0
282,14.100000000000001,0.13598658766807734,0.7082574136981804,-5.084973904629476,-0.18372693276753818,-0.10662982895711255,-0.685803315770504,-0.011648744595661089,-0.00468543498661949,-0.040970273884991915,0,70,255.0,255.0,255.0
283,14.15,0.12678580975168768,0.7029196866339615,-5.1193150863130885,-0.1843015908334228,-0.10688683006425286,-0.687840012628626,-0.011337578039723482,-0.005594609298992232,-0.04049760043989607,0,70,255.0,255.0,255.0
284,14.200000000000001,0.11755668789019841,0.6975679730464949,-5.153757511997802,-0.1848606905715105,-0.10718928988701179,-0.6898530758144935,-0.011026411483785864,-0.006503783611365008,-0.04002492699480022,0,70,255.0,255.0,255.0
285,14.25,0.1083,0.6922,-5.1883,-0.18540423198180137,-0.10753720842538933,-0.6918425053281061,-0.0107152449278487,-0.007412957923737196,-0.03955225354970615,0,70,255.0,255.0,255.0
286,14.3,0.09901628161994555,0.6868140010376576,-5.2229415925093,-0.1859467577164599,-0.10790019694167342,-0.693821733562973,-0.010985784458492768,-0.007106582727626339,-0.03961687584497149,0,70,255.0,255.0,255.0
287,14.350000000000001,0.08970509877874486,0.6814102356184959,-5.25768222720821,-0.18650281042765066,-0.10824786669815196,-0.6958041929126033,-0.011256323989136837,-0.006800207531515481,-0.039681498140236825,0,70,255.0,255.0,255.0
288,14.4,0.08036577512757168,0.6759894696805058,-5.292522065652472,-0.1870723901153736,-0.10858021769482498,-0.6977898833769968,-0.011526863519780897,-0.006493832335404634,-0.039746120435502165,0,70,255.0,255.0,255.0
289,14.450000000000001,0.0709976343175987,0.6705524691616769,-5.327461269397824,-0.18765549677962873,-0.10889724993169243,-0.6997788049561534,-0.011797403050424964,-0.006187457139293777,-0.039810742730767505,0,70,255.0,255.0,255.0
290,14.5,0.0616,0.6651,-5.3625,-0.1882521304204161,-0.10919896340875435,-0.7017709576500736,-0.012067942581067914,-0.005881081943182931,-0.0398753650260355,0,70,255.0,255.0,255.0
291,14.55,0.05217262979723883,0.6596325686744365,-5.39763848133223,-0.18883625276030358,-0.10950092566771527,-0.7037700805079762,-0.01129695101442979,-0.006197408415253851,-0.040089549290066806,0,70,255.0,255.0,255.0
292,14.600000000000001,0.04271701721694158,0.6541496438278348,-5.432877186537685,-0.1893818255218591,-0.10981870425027974,-0.7057799125790803,-0.010525959447791666,-0.006513734887324771,-0.040303733554098116,0,70,255.0,255.0,255.0
293,14.65,0.033235089738025185,0.6486504346440152,-5.468216651077024,-0.1898888487050827,-0.11015229915644775,-0.707800453863386,-0.00975496788115357,-0.006830061359395681,-0.04051791781812941,0,70,255.0,255.0,255.0
294,14.700000000000001,0.02372877483940557,0.6431341503067969,-5.50365741041091,-0.19035732230997446,-0.1105017103862193,-0.7098317043608933,-0.008983976314515446,-0.007146387831466601,-0.04073210208216072,0,70,255.0,255.0,255.0
295,14.75,0.0142,0.6376,-5.5392,-0.19078724633653427,-0.11086693793959439,-0.7118736640716021,-0.008212984747876462,-0.007462714303537177,-0.04094628634619468,0,70,255.0,255.0,255.0
296,14.8,0.004649999191098344,0.6320477242645959,-5.574844482161783,-0.19122023124232584,-0.11121610038746682,-0.7138979444051267,-0.009106411483786138,-0.006503783611360356,-0.04002492699478387,0,70,255.0,255.0,255.0
297,14.850000000000001,-0.004922767646512779,0.6264791890701633,-5.610589026641055,-0.1916978874849129,-0.11151731630073043,-0.7158761567710805,-0.009999838219695814,-0.005544852919183536,-0.039103567643373055,0,70,255.0,255.0,255.0
298,14.9,-0.014520534079672803,0.6208967917434329,-5.646431330039432,-0.1922202150642954,-0.11177058567938518,-0.7178083011694639,-0.010893264955605459,-0.004585922227006749,-0.038182208291962276,0,70,255.0,255.0,255.0
299,14.950000000000001,-0.024145533675222177,0.615302929611135,-5.682369088958541,-0.19278721398047344,-0.1119759085234311,-0.7196943776002769,-0.011786691691515135,-0.003626991534829928,-0.03726084894055146,0,70,255.0,255.0,255.0
300,15.0,-0.0338,0.6097,-5.7184,-0.1933988842334469,-0.11213328483286816,-0.721534386063519,-0.012680118427423226,-0.0026680608426528085,-0.03633948958913891,0,70,255.0,255.0,255.0
301,15.05,-0.04348542656163301,0.6040893342671796,-5.754522790020639,-0.1940108222703931,-0.11230667278241684,-0.7233901418715168,-0.011797403050424326,-0.004267457139294018,-0.03789074273077235,0,70,255.0,255.0,255.0
302,15.100000000000001,-0.05320034663089208,0.598467999891511,-5.790740306898105,-0.19457862453848934,-0.11256003054679757,-0.7253234603365963,-0.010914687673425424,-0.005866853435935227,-0.0394419958724058,0,70,255.0,255.0,255.0
303,15.15,-0.06294255341933437,0.5928319983822528,-5.827056428765249,-0.19510229103773563,-0.11289335812601035,-0.7273343414587574,-0.010031972296426555,-0.00746624973257638,-0.04099324901403919,0,70,255.0,255.0,255.0
304,15.200000000000001,-0.07270984013851807,0.5871773312486628,-5.863475033754931,-0.195581821768132,-0.11330665552005521,-0.7294227852380002,-0.009149256919427654,-0.00906564602921759,-0.04254450215567264,0,70,255.0,255.0,255.0
305,15.25,-0.0825,0.5815,-5.9,-0.19601721672967837,-0.1137999227289321,-0.7315887916743246,-0.008266541542426786,-0.01066504232585852,-0.04409575529730514,0,70,255.0,255.0,255.0
306,15.3,-0.09231149294456713,0.5757973386666853,-5.9366339577556655,-0.1964484796761019,-0.11429320848286534,-0.7337574881088113,-0.008983976314514495,-0.009066387831470402,-0.042652102082158354,0,70,255.0,255.0,255.0
307,15.350000000000001,-0.10214544582992054,0.570072011363792,-5.973374545766537,-0.19691561436112984,-0.11470656151207916,-0.7358540018825405,-0.009701411086602205,-0.007467733337082282,-0.04120844886701156,0,70,255.0,255.0,255.0
308,15.4,-0.11200365224299012,0.5643280147275561,-6.010218154899574,-0.1974186207847621,-0.11503998181657356,-0.7378783329955123,-0.01041884585868989,-0.00586907884269422,-0.039764795651864825,0,70,255.0,255.0,255.0
309,15.450000000000001,-0.12188790577070675,0.5585693453942133,-6.047161176021742,-0.19795749894699882,-0.11529346939634857,-0.7398304814477269,-0.011136280630777599,-0.0042704243483061,-0.03832114243671804,0,70,255.0,255.0,255.0
310,15.5,-0.1318,0.5528,-6.0842,-0.19853224884783988,-0.11546702425140416,-0.7417104472391841,-0.011853715402863951,-0.0026717698539170387,-0.0368774892215713,0,70,255.0,255.0,255.0
311,15.55,-0.1417414016600993,0.5470229110660786,-6.121331778956703,-0.19912325902519934,-0.11562449328612273,-0.7435639056932372,-0.01178669169151396,-0.0036269915348252106,-0.037260848940550956,0,70,255.0,255.0,255.0
312,15.600000000000001,-0.15171227004942744,0.5412367546533201,-6.158556710035757,-0.19971091801699128,-0.11582972340488669,-0.7454365321332392,-0.01171966798016397,-0.0045822132157333825,-0.03764420865953061,0,70,255.0,255.0,255.0
313,15.65,-0.1617124376087056,0.5354391427075225,-6.19587575163646,-0.20029522582321574,-0.11608271460769605,-0.7473283265591903,-0.011652644268813983,-0.0055374348966415205,-0.03802756837851025,0,70,255.0,255.0,255.0
314,15.700000000000001,-0.17174173677865615,0.529627687174483,-6.2332898621581085,-0.20087618244387268,-0.11638346689455084,-0.7492392889710903,-0.011585620557463993,-0.0064926565775496915,-0.0384109280974899,0,70,255.0,255.0,255.0
315,15.75,-0.1818,0.5238,-6.2708,-0.2014537878789621,-0.11673198026545102,-0.7511694193689391,-0.011518596846113338,-0.0074478782584571634,-0.0387942878164651,0,70,255.0,255.0,255.0
316,15.8,-0.19188690041503645,0.5179542170689998,-6.3084069264175255,-0.20201848422310062,-0.11709681837264292,-0.7531068891182428,-0.011069256919427721,-0.007145646029218673,-0.03870450215567942,0,70,255.0,255.0,255.0
317,15.850000000000001,-0.20200147397237145,0.5120905700229266,-6.346110614090442,-0.20256071357090488,-0.11744654486837289,-0.7550398695845071,-0.010619916992742106,-0.006843413799980182,-0.03861471649489374,0,70,255.0,255.0,255.0
318,15.9,-0.21214259732218793,0.5062098144423537,-6.383910838554593,-0.20308047592237485,-0.11778115975264095,-0.7569683607677321,-0.010170577066056504,-0.006541181570741703,-0.03852493083410806,0,70,255.0,255.0,255.0
319,15.950000000000001,-0.22230914711466992,0.5003127059078536,-6.421807375345831,-0.20357777127751053,-0.11810066302544707,-0.7588923626679179,-0.009721237139370887,-0.006238949341503213,-0.03843514517332238,0,70,255.0,255.0,255.0
320,16.0,-0.2325,0.4944,-6.4598,-0.20405259963631192,-0.11840505468679126,-0.7608118752850644,-0.009271897212684399,-0.005936717112264733,-0.03834535951253937,0,70,255.0,255.0,255.0
321,16.05,-0.2427141966797558,0.4884722206579217,-6.497888515373196,-0.20451480408239844,-0.11870823322330558,-0.7627285378337955,-0.00921628063077624,-0.0061904243483077255,-0.03832114243670244,0,70,255.0,255.0,255.0
322,16.1,-0.25295143406108855,0.4825289652549726,-6.536072833602485,-0.20497422769938956,-0.11902409712162204,-0.7646439895287347,-0.009160664048868082,-0.006444131584350717,-0.03829692536086551,0,70,255.0,255.0,255.0
323,16.150000000000002,-0.2632115731025435,0.4765695995230626,-6.574352894145174,-0.20543087048728526,-0.11935264638174066,-0.7665582303698821,-0.009105047466959924,-0.006697838820393709,-0.03827270828502858,0,70,255.0,255.0,255.0
324,16.2,-0.27349447476266503,0.47059348919410204,-6.6127286364585744,-0.20588473244608554,-0.11969388100366139,-0.7684712603572376,-0.009049430885051769,-0.006951546056436683,-0.038248491209191646,0,70,255.0,255.0,255.0
325,16.25,-0.2838,0.4646,-6.6512,-0.20633581357579042,-0.1200478009873843,-0.7703830794908012,-0.008993814303142278,-0.007205253292478897,-0.03822427413335472,0,70,255.0,255.0,255.0
326,16.3,-0.2941283128659412,0.458588900299313,-6.689767012089693,-0.20680229944730558,-0.12039024873413495,-0.7722989595465724,-0.009665620557462926,-0.006492656577547019,-0.03841092809748706,0,70,255.0,255.0,255.0
327,16.35,-0.3044807897832761,0.45256156895718214,-6.728430051499628,-0.20730237563153672,-0.12069706664513902,-0.77422417230055,-0.010337426811783576,-0.005780059862615141,-0.03859758206161939,0,70,255.0,255.0,255.0
328,16.400000000000002,-0.31485911026764046,0.4465197874653947,-6.7671895848647186,-0.20783604212848394,-0.12096825472039646,-0.7761587177527343,-0.011009233066104225,-0.005067463147683263,-0.03878423602575173,0,70,255.0,255.0,255.0
329,16.45,-0.32526495383466936,0.4404653373157385,-6.80604607881987,-0.2084032989381471,-0.12120381295990733,-0.778102595903125,-0.011681039320424826,-0.004354866432751436,-0.038970889989884044,0,70,255.0,255.0,255.0
330,16.5,-0.3357,0.4344,-6.845,-0.2090041460605264,-0.1214037413636716,-0.7800558067517226,-0.012352845574744586,-0.0036422697178191132,-0.039157543954014606,0,70,255.0,255.0,255.0
331,16.55,-0.3461653518564802,0.42832497814482584,-6.884051436268037,-0.20960399812837927,-0.1216027718401547,-0.7819956239799065,-0.011641237139370765,-0.004318949341504484,-0.03843514517334031,0,70,255.0,255.0,255.0
332,16.6,-0.3566598068058088,0.422239158916298,-6.923198960399007,-0.21016826977446348,-0.12183563629782206,-0.7838993212690566,-0.010929628703996943,-0.0049956289651898545,-0.03771274639266602,0,70,255.0,255.0,255.0
333,16.650000000000002,-0.3671815858268973,0.41614085061535705,-6.962440766395961,-0.210696960998779,-0.12210233473667369,-0.7857668986191731,-0.010218020268623122,-0.0056723085888752255,-0.03699034761199173,0,70,255.0,255.0,255.0
334,16.7,-0.37772890989865676,0.4100283615429445,-7.00177504826194,-0.2111900718013258,-0.12240286715670956,-0.7875983560302557,-0.00950641183324935,-0.006348988212560549,-0.03626794883131749,0,70,255.0,255.0,255.0
335,16.75,-0.3883,0.4039,-7.0412,-0.2116476021821039,-0.12273723355792973,-0.7893936935023048,-0.008794803397875972,-0.007025667836245697,-0.03554555005063964,0,70,255.0,255.0,255.0
336,16.8,-0.398893479708139,0.397754387121383,-7.080714442838162,-0.21209370803917713,-0.12308666390524675,-0.7911905445338007,-0.009049430885052126,-0.006951546056435241,-0.03632849120919507,0,70,255.0,255.0,255.0
337,16.85,-0.4095095829934906,0.391591395377625,-7.120319706904346,-0.21255254527060913,-0.12343238816357327,-0.7930265426232244,-0.009304058372228282,-0.0068774242766247865,-0.037111432367750496,0,70,255.0,255.0,255.0
338,16.900000000000002,-0.4201489464247728,0.38541121007317536,-7.160017749551451,-0.21302411387639997,-0.12377440633290925,-0.7949016877705758,-0.009558685859404436,-0.006803302496814331,-0.037894373526305924,0,70,255.0,255.0,255.0
339,16.95,-0.43081220657070285,0.3792140165124841,-7.199810528132367,-0.21350841385654953,-0.12411271841325469,-0.796815979975855,-0.009813313346580574,-0.006729180717003881,-0.0386773146848613,0,70,255.0,255.0,255.0
340,17.0,-0.4415,0.373,-7.2397,-0.214005445211058,-0.12444732440460961,-0.7987694192390619,-0.010067940833756284,-0.006655058937192648,-0.0394602558434185,0,70,255.0,255.0,255.0
341,17.05,-0.4522127293109647,0.36676947336964144,-7.279687592379319,-0.2145011697149125,-0.1247705725388582,-0.8007301978848941,-0.00976103932042442,-0.006274866432750831,-0.0389708899898677,0,70,255.0,255.0,255.0
342,17.1,-0.46294986122023046,0.3605232595732011,-7.319772611983613,-0.21498154914310044,-0.12507481104788468,-0.8026665082380486,-0.009454137807092557,-0.0058946739283090134,-0.0384815241363169,0,70,255.0,255.0,255.0
343,17.150000000000002,-0.4737106284740139,0.35426230909193984,-7.359953835398247,-0.21544658349562176,-0.1253600399316891,-0.8045783502985258,-0.009147236293760694,-0.0055144814238671964,-0.0379921582827661,0,70,255.0,255.0,255.0
344,17.2,-0.48449426381853106,0.3479875724071194,-7.400230039208586,-0.2158962727724765,-0.12562625919027143,-0.8064657240663252,-0.008840334780428854,-0.005134288919425406,-0.03750279242921533,0,70,255.0,255.0,255.0
345,17.25,-0.4953,0.3417,-7.4406,-0.21633061697366468,-0.12587346882363165,-0.8083286295414474,-0.008533433267096324,-0.004754096414983255,-0.03701342657566542,0,70,255.0,255.0,255.0
346,17.3,-0.5061276030480032,0.3354005194000506,-7.481062387644566,-0.21678161310117328,-0.12610304593932029,-0.8101606639266219,-0.009506411833247089,-0.004428988212561697,-0.03626794883131551,0,70,255.0,255.0,255.0
347,17.35,-0.5169789721255894,0.3290899663295698,-7.521615445161209,-0.2172812581569894,-0.12631636764488782,-0.811955424424579,-0.010479390399397853,-0.0041038800101401395,-0.0355224710869656,0,70,255.0,255.0,255.0
348,17.400000000000002,-0.5278565396791741,0.3227691535590637,-7.562257308855571,-0.21782955214111308,-0.1265134339403343,-0.8137129110353185,-0.011452368965548618,-0.003778771807718581,-0.03477699334261569,0,70,255.0,255.0,255.0
349,17.45,-0.538762738155172,0.3164388938590387,-7.6029861150332865,-0.21842649505354422,-0.12669424482565966,-0.8154331237588405,-0.012425347531699313,-0.003453663605297046,-0.03403151559826584,0,70,255.0,255.0,255.0
350,17.5,-0.5497,0.3101,-7.6438,-0.21907208689428295,-0.126858800300864,-0.817116062595145,-0.013398326097848967,-0.003128555402875488,-0.03328603785391593,0,70,255.0,255.0,255.0
351,17.55,-0.5606696584970235,0.3037524490301556,-7.6846980570424215,-0.21970037788039373,-0.12705724370386096,-0.8188191464086148,-0.011733313346582118,-0.004809180717002738,-0.034837314684870814,0,70,255.0,255.0,255.0
352,17.6,-0.5716686502774136,0.2973928751085186,-7.725683207371555,-0.22024541822894117,-0.12733971837256428,-0.8205997940636321,-0.010068300595315268,-0.006489806031129988,-0.0363885915158257,0,70,255.0,255.0,255.0
353,17.650000000000002,-0.5826928128092919,0.2910170766718039,-7.766759329179478,-0.22070720793992527,-0.12770622430697395,-0.8224580055601973,-0.00840328784404842,-0.008170431345257238,-0.03793986834678058,0,70,255.0,255.0,255.0
354,17.7,-0.5937379835607794,0.28462085215672633,-7.807930300658265,-0.221085747013346,-0.12815676150709,-0.8243937808983101,-0.006738275092781689,-0.00985105665938437,-0.03949114517773535,0,70,255.0,255.0,255.0
355,17.75,-0.6048,0.2782,-7.8492,-0.22138103544920343,-0.12869132997291238,-0.8264071200779708,-0.005073262341514839,-0.011531681973510732,-0.04104242200869024,0,70,255.0,255.0,255.0
356,17.8,-0.6158761629639035,0.27175208447932664,-7.890570984185751,-0.22168087537725203,-0.12920397924523577,-0.8284187504389188,-0.0069203347804291755,-0.008974288919425052,-0.03942279242922877,0,70,255.0,255.0,255.0
357,17.85,-0.6269696267647579,0.2652817332363547,-7.932040525352576,-0.22207306892724635,-0.1295887588648549,-0.8303493993208938,-0.008767407219343512,-0.006416895865339372,-0.0378031628497673,0,70,255.0,255.0,255.0
358,17.900000000000002,-0.6380850090836607,0.2587953397537193,-7.973604574426526,-0.2225576160991864,-0.1298456688317697,-0.8321990667238957,-0.010614479658257847,-0.0038595028112536917,-0.03618353327030583,0,70,255.0,255.0,255.0
359,17.95,-0.6492269276017085,0.25229929751405633,-8.01525908233365,-0.2231345168930721,-0.12997470914598025,-0.8339677526479242,-0.012461552097172052,-0.0013021097571681937,-0.03456390369084448,0,70,255.0,255.0,255.0
360,18.0,-0.6604,0.2458,-8.057,-0.22380377130890358,-0.1299758798074865,-0.8356554570929798,-0.014308624536085945,0.0012552832969181527,-0.032944274111380345,0,70,255.0,255.0,255.0
361,18.05,-0.6716072896473635,0.23930161305253744,-8.098824406214575,-0.22447212061059818,-0.129982839315196,-0.8373298518357202,-0.01242534753169748,-0.0015336636052973372,-0.034031515598231206,0,70,255.0,255.0,255.0
362,18.1,-0.6828456426635565,0.2327993919460617,-8.140733891218146,-0.22504630606207335,-0.13012924616801624,-0.839058608652803,-0.010542070527309013,-0.004322610507512827,-0.03511875708508206,0,70,255.0,255.0,255.0
363,18.150000000000002,-0.6941103508560675,0.22628636431331714,-8.18273117311443,-0.22552632766332908,-0.13041510036594728,-0.8408417275442285,-0.008658793522920547,-0.0071115574097283165,-0.03620599857193292,0,70,255.0,255.0,255.0
364,18.2,-0.7053967060323852,0.21975555778704872,-8.224818970007139,-0.2259121854143654,-0.13084040190898905,-0.8426792085099962,-0.006775516518532214,-0.009900504311943607,-0.0372932400587837,0,70,255.0,255.0,255.0
365,18.25,-0.7167,0.2132,-8.267,-0.22620387931518227,-0.13140515079714166,-0.8445710515501066,-0.00489223951414175,-0.01268945121415932,-0.03838048154563012,0,70,255.0,255.0,255.0
366,18.3,-0.728017078446643,0.20661506331052296,-8.30927619095595,-0.22649464218035537,-0.13196866349398023,-0.8464698422181912,-0.006738275092781114,-0.009851056659383555,-0.037571145177756185,0,70,255.0,255.0,255.0
367,18.35,-0.739351002581018,0.20000549897939743,-8.351646309774846,-0.22687770682446037,-0.13239025646308003,-0.8483281660678822,-0.008584310671420478,-0.007012662104607789,-0.036761808809882245,0,70,255.0,255.0,255.0
368,18.400000000000002,-0.7507063874920716,0.19337840299301043,-8.394108333115767,-0.2273530732474974,-0.13266992970444103,-0.8501460230991795,-0.010430346250059841,-0.004174267549832024,-0.03595247244200831,0,70,255.0,255.0,255.0
369,18.45,-0.7620878482687495,0.18674087133774928,-8.43666023763779,-0.22792074144946634,-0.13280768321806322,-0.8519234133120831,-0.012276381828699074,-0.0013358729950564592,-0.035143136074134426,0,70,255.0,255.0,255.0
370,18.5,-0.7735,0.1801,-8.4793,-0.2285807114303673,-0.13280351700394666,-0.853660336706593,-0.01412241740733755,0.0015025215597193053,-0.03433379970626138,0,70,255.0,255.0,255.0
371,18.55,-0.7849459965660651,0.1734605337053702,-8.522026029961623,-0.22924531066798004,-0.13279850670888288,-0.8553827792915206,-0.012461552097171922,-0.001302109757168286,-0.03456390369084357,0,70,255.0,255.0,255.0
372,18.6,-0.7964231470123733,0.16681781213634747,-8.564838469682472,-0.2298268666400845,-0.1329337279796635,-0.8571167270756774,-0.010800686787006294,-0.0041067410740558774,-0.03479400767542576,0,70,255.0,255.0,255.0
373,18.650000000000002,-0.8079272991756488,0.16016482371463958,-8.607737894422513,-0.23032537934668068,-0.13320918081628846,-0.8588621800590632,-0.009139821476840667,-0.006911372390943469,-0.03502411166000795,0,70,255.0,255.0,255.0
374,18.7,-0.8194543008926156,0.15349455686195485,-8.650724879441698,-0.23074084878776854,-0.1336248652187578,-0.8606191382416782,-0.0074789561666751565,-0.00971600370783086,-0.03525421564459012,0,70,255.0,255.0,255.0
375,18.75,-0.831,0.1468,-8.6938,-0.23107327496334815,-0.13418078118707155,-0.8623876016235222,-0.005818090856507974,-0.012520635024718008,-0.03548431962916876,0,70,255.0,255.0,255.0
376,18.8,-0.8425613352890973,0.14007640186799578,-8.736963689197557,-0.23138811514772417,-0.1347413096704881,-0.864159040615721,-0.006775516518533089,-0.009900504311943921,-0.03537324005878428,0,70,255.0,255.0,255.0
377,18.85,-0.8541396093694911,0.13332805247521165,-8.780215811495264,-0.23175082661520147,-0.13517083161826596,-0.8659249256294007,-0.007732942180558205,-0.007280373599169835,-0.03526216048839981,0,70,255.0,255.0,255.0
378,18.900000000000002,-0.8657372158053361,0.12656150214842962,-8.823556089194192,-0.23216140936578,-0.13546934703040509,-0.8676852566645612,-0.00869036784258332,-0.004660242886395749,-0.035151080918015325,0,70,255.0,255.0,255.0
379,18.95,-0.8773565481607869,0.11978330121443208,-8.86698424459541,-0.23261986339945978,-0.13563685590690552,-0.8694400337212022,-0.009647793504608367,-0.002040112173621848,-0.035040001347630856,0,70,255.0,255.0,255.0
380,19.0,-0.889,0.113,-8.9105,-0.2331261887162408,-0.13567335824776725,-0.8711892567993242,-0.010605219166633262,0.0005800185391520163,-0.034928921777249045,0,70,255.0,255.0,255.0
381,19.05,-0.9006694622775464,0.10621625882264622,-8.954103213248146,-0.23365022874112407,-0.13569225460916487,-0.8729410582456089,-0.010356381828697178,-0.0013358729950564913,-0.03514313607413655,0,70,255.0,255.0,255.0
382,19.1,-0.9123648155096644,0.09942917796280482,-8.997794284336477,-0.23416182689911053,-0.1358069455472729,-0.874703570406738,-0.010107544490761093,-0.003251764529264999,-0.03535735037102406,0,70,255.0,255.0,255.0
383,19.150000000000002,-0.9240854376030094,0.09263396769164024,-9.041573748800735,-0.23466098319020018,-0.13601743106209135,-0.8764767932827113,-0.009858707152825009,-0.0051676560634735065,-0.035571564667911566,0,70,255.0,255.0,255.0
384,19.200000000000003,-0.9358307064642365,0.08582583828031698,-9.085442142176664,-0.23514769761439305,-0.13632371115362024,-0.8782607268735292,-0.009609869814888924,-0.007083547597682014,-0.03578577896479908,0,70,255.0,255.0,255.0
385,19.25,-0.9476,0.079,-9.1294,-0.2356219701716891,-0.13672578582185954,-0.8800553711791912,-0.009361032476952635,-0.00899943913189083,-0.035999993261683016,0,70,255.0,255.0,255.0
386,19.3,-0.9593928156007183,0.07215296284141874,-9.173447457809862,-0.23609096988777972,-0.13714567189285257,-0.8818367264018472,-0.009398956166671857,-0.007796003707830517,-0.03525421564455263,0,70,255.0,255.0,255.0
387,19.35,-0.971209128591853,0.06528643567356793,-9.217583051158838,-0.23656186578835628,-0.1375053861926426,-0.8835807927436465,-0.00943687985639108,-0.006592568283770205,-0.034508438027422254,0,70,255.0,255.0,255.0
388,19.400000000000002,-0.983049033782629,0.05840342708500768,-9.261804915602882,-0.23703465787341882,-0.1378049287212296,-0.8852875702045894,-0.009474803546110301,-0.005389132859709893,-0.03376266041029187,0,70,255.0,255.0,255.0
389,19.450000000000003,-0.9949126259822699,0.05150694566429816,-9.306111186697953,-0.23750934614296734,-0.1380442994786136,-0.8869570587846757,-0.009512727235829523,-0.004185697435649581,-0.033016882793161485,0,70,255.0,255.0,255.0
390,19.5,-1.0068,0.0446,-9.3505,-0.2379859305970018,-0.13822349846479454,-0.8885892584839055,-0.009550650925548965,-0.002982262011589354,-0.032271105176027604,0,70,255.0,255.0,255.0
391,19.55,-1.018711275319582,0.037684689811678176,-9.394970155512405,-0.2384658917077558,-0.13839705781942482,-0.8902240361469979,-0.009647793504612425,-0.003960112173622013,-0.03312000134767034,0,70,255.0,255.0,255.0
392,19.6,-1.0306466701229249,0.030759479342922297,-9.439523111028176,-0.23895070994746306,-0.13861950968215675,-0.8919012586186725,-0.009744936083675885,-0.004937962335654672,-0.03396889751931307,0,70,255.0,255.0,255.0
393,19.650000000000002,-1.0426064272664775,0.023821923968327278,-9.48416098878775,-0.23944038531612344,-0.1388908540529903,-0.8936209258989293,-0.009842078662739343,-0.005915812497687332,-0.034817793690955806,0,70,255.0,255.0,255.0
394,19.700000000000003,-1.054590789606687,0.01686957906248804,-9.528885911031548,-0.239934917813737,-0.13921109093192546,-0.8953830379877682,-0.009939221241802803,-0.0068936626597199905,-0.035666689862598536,0,70,255.0,255.0,255.0
395,19.75,-1.0666,0.0099,-9.5737,-0.2404343074403037,-0.13958022031896228,-0.8971875948851891,-0.0100363638208667,-0.007871512821753024,-0.03651558603423943,0,70,255.0,255.0,255.0
396,19.8,-1.0786340831209558,0.0029114779118679583,-9.618604720140523,-0.2409254632811976,-0.13995409682944818,-0.8989951290101642,-0.00960986981488911,-0.007083547597682249,-0.03578577896476352,0,70,255.0,255.0,255.0
397,19.85,-1.0906921909164484,-0.00409475304525829,-9.66359890472846,-0.24139529442179264,-0.14028857507873052,-0.9007661727816655,-0.00918337580891152,-0.006295582373611474,-0.03505597189528762,0,70,255.0,255.0,255.0
398,19.900000000000002,-1.1027732571514637,-0.011116722958318566,-9.708680729246137,-0.24184380086208876,-0.1405836550668093,-0.902500726199693,-0.008756881802933929,-0.0055076171495407,-0.03432616482581172,0,70,255.0,255.0,255.0
399,19.950000000000003,-1.114876215590986,-0.0181524619142527,-9.753848369175875,-0.24227098260208602,-0.14083933679368457,-0.9041987892642467,-0.008330387796956338,-0.004719651925469925,-0.03359635775633581,0,70,255.0,255.0,255.0
400,20.0,-1.127,-0.0252,-9.7991,-0.24267683964178438,-0.14105562025935633,-0.9058603619753264,-0.007903893790979222,-0.0039316867014000945,-0.03286655068685018,0,70,255.0,255.0,255.0
401,20.05,-1.1391435921965969,-0.03225780145915061,-9.844434163925504,-0.2430642551674545,-0.14125855486278258,-0.9075074478123274,-0.007592727235825776,-0.004185697435649653,-0.0330168827931912,0,70,255.0,255.0,255.0
402,20.1,-1.1513061662112833,-0.039326067161890334,-9.889850870057987,-0.24343611236536697,-0.14147419000292133,-0.9091620502546456,-0.0072815606806723296,-0.004439708169899211,-0.033167214899532206,0,70,255.0,255.0,255.0
403,20.150000000000002,-1.1634869441276712,-0.04640543213505481,-9.935350494227725,-0.24379241123552176,-0.1417025256797725,-0.9108241693022807,-0.006970394125518884,-0.004693718904148769,-0.03331754700587322,0,70,255.0,255.0,255.0
404,20.200000000000003,-1.175685148029373,-0.05349653140547966,-9.980933412264974,-0.24413315177791886,-0.14194356189333618,-0.9124938049552329,-0.006659227570365438,-0.004947729638398327,-0.03346787911221424,0,70,255.0,255.0,255.0
405,20.25,-1.1879,-0.0606,-10.0266,-0.24445833399255829,-0.14219729864361236,-0.914170957213502,-0.0063480610152129024,-0.005201740372648533,-0.033618211218547245,0,70,255.0,255.0,255.0
406,20.3,-1.2001315480926582,-0.06771627207526615,-10.072350624157465,-0.2448175160489838,-0.14245168371942157,-0.9158550797405306,-0.00801922124180774,-0.00497366265972001,-0.03374668986260154,0,70,255.0,255.0,255.0
407,20.35,-1.2123831442384208,-0.07484497830718159,-10.118185615039591,-0.24526025611673907,-0.14269466490958438,-0.9175456261997622,-0.009690381468402579,-0.004745584946791486,-0.033875168506655846,0,70,255.0,255.0,255.0
408,20.400000000000002,-1.2246589663378546,-0.08198554850146401,-10.164105293842981,-0.24578655419582407,-0.14292624221410072,-0.9192425965911963,-0.011361541694997417,-0.0045175072338629624,-0.034003647150710144,0,70,255.0,255.0,255.0
409,20.450000000000003,-1.2369631922915258,-0.08913741246383108,-10.21010998176425,-0.24639641028623882,-0.14314641563297065,-0.9209459909148332,-0.013032701921592255,-0.004289429520934439,-0.03413212579476444,0,70,255.0,255.0,255.0
410,20.5,-1.2493,-0.0963,-10.2562,-0.2470898243879833,-0.14335518516619417,-0.9226558091706727,-0.014703862148188085,-0.004061351808005043,-0.03426060443881873,0,70,255.0,255.0,255.0
411,20.55,-1.2616718154327715,-0.10347311023978542,-10.30237533944463,-0.2477616806366118,-0.14357471025953106,-0.9243522332255506,-0.01217038779695195,-0.004719651925470112,-0.03359635775629889,0,70,255.0,255.0,255.0
412,20.6,-1.2740740568350355,-0.11065801960938453,-10.348634669783653,-0.2483068631676785,-0.1438271503587412,-0.9260154449463026,-0.009636913445715817,-0.005377952042935182,-0.03293211107377905,0,70,255.0,255.0,255.0
413,20.650000000000002,-1.2865003905209138,-0.11785637385909095,-10.39497633040036,-0.2487253719811834,-0.1441125054638246,-0.9276454443329286,-0.007103439094479683,-0.006036252160400252,-0.03226786439125921,0,70,255.0,255.0,255.0
414,20.700000000000003,-1.2989444828045285,-0.12506981873919842,-10.441398660678045,-0.2490172070771265,-0.14443077557478123,-0.9292422313854286,-0.004569964743243549,-0.006694552277865322,-0.031603617708739366,0,70,255.0,255.0,255.0
415,20.75,-1.3114,-0.1323,-10.4879,-0.24918236845550776,-0.1447819606916111,-0.9308058061038026,-0.002036490392007595,-0.007352852395330789,-0.030939371026218687,0,70,255.0,255.0,255.0
416,20.8,-1.3238627901762565,-0.13954808696559276,-10.534479218064009,-0.2493517614045671,-0.14513747524245432,-0.9323679873572643,-0.004739227570365838,-0.006867729638398849,-0.0315478791122482,0,70,255.0,255.0,255.0
417,20.85,-1.3363374284214389,-0.14681334325528153,-10.581137305825798,-0.24965629121254435,-0.145468733655451,-0.9339605940150275,-0.007441964748724082,-0.00638260688146691,-0.03215638719827771,0,70,255.0,255.0,255.0
418,20.900000000000002,-1.3488306715784932,-0.15409455606217398,-10.627875784555584,-0.2500959578794395,-0.14577573593060103,-0.9355836260770921,-0.010144701927082327,-0.00589748412453497,-0.03276489528430722,0,70,255.0,255.0,255.0
419,20.950000000000003,-1.3613492764903654,-0.16139051257937773,-10.674696175523582,-0.25067076140525263,-0.14605848206790448,-0.9372370835434582,-0.01284743910544057,-0.0054123613676030306,-0.03337340337033673,0,70,255.0,255.0,255.0
420,21.0,-1.3739,-0.1687,-10.7216,-0.2513807017899835,-0.14631697206736133,-0.9389209664141257,-0.015550176283796624,-0.004927238610670681,-0.03398191145636442,0,70,255.0,255.0,255.0
421,21.05,-1.3864874238622031,-0.17602174189784411,-10.768588588299336,-0.2520952737451185,-0.14654738877065146,-0.940623817345403,-0.013032701921600562,-0.004289429520934087,-0.034132125794729795,0,70,255.0,255.0,255.0
422,21.1,-1.3991074294792103,-0.18335420736949057,-10.815662506913158,-0.2526839719821436,-0.14674591501945475,-0.9423341789935987,-0.0105152275594045,-0.003651620431197493,-0.034282340133095175,0,70,255.0,255.0,255.0
423,21.150000000000002,-1.411753723165116,-0.19069580189221502,-10.862822131377312,-0.2531467965010589,-0.14691255081377122,-0.9440520513587127,-0.007997753197208439,-0.0030138113414608985,-0.03443255447146055,0,70,255.0,255.0,255.0
424,21.200000000000003,-1.4244200112340146,-0.1980449309432931,-10.910067837227647,-0.2534837473018644,-0.14704729615360085,-0.9457774344407448,-0.005480278835012377,-0.0023760022517243045,-0.03458276880982592,0,70,255.0,255.0,255.0
425,21.25,-1.4371,-0.2054,-10.9574,-0.2536948243845601,-0.1471501510389436,-0.947510328239695,-0.0029628044728151615,-0.0017381931619862012,-0.03473298314818685,0,70,255.0,255.0,255.0
426,21.3,-1.449789114374932,-0.21276014544303137,-11.004818428738655,-0.25388314361496134,-0.1472649696749399,-0.949216743261118,-0.004569964743235322,-0.0028545522778649682,-0.0335236177087342,0,70,255.0,255.0,255.0
427,21.35,-1.4624896536617218,-0.22012742726675744,-11.052320666521581,-0.25415182085888366,-0.1474356062667301,-0.9508626900105684,-0.006177125013655483,-0.003970911393743735,-0.032314252269281564,0,70,255.0,255.0,255.0
428,21.400000000000002,-1.4752056357610461,-0.22750463636896787,-11.099903689935179,-0.2545008561163269,-0.14766206081431427,-0.9524481684880464,-0.007784285284075644,-0.005087270509622502,-0.03110488682982892,0,70,255.0,255.0,255.0
429,21.450000000000003,-1.4879410785735803,-0.2348945636474523,-11.147564475565853,-0.2549302493872912,-0.14794433331769238,-0.9539731786935515,-0.009391445554495805,-0.006203629625501269,-0.029895521390376274,0,70,255.0,255.0,255.0
430,21.5,-1.5007,-0.2423,-11.1953,-0.2554400006717764,-0.14828242377686435,-0.9554377206270838,-0.01099860582491452,-0.007319988741378847,-0.028686155950921055,0,70,255.0,255.0,255.0
431,21.55,-1.5134857186380701,-0.24972327633003097,-11.24310809674605,-0.25598815179503526,-0.1486487325295889,-0.9568932096101163,-0.010927439105439694,-0.007332361367603202,-0.029533403370379407,0,70,255.0,255.0,255.0
432,21.6,-1.5262987558739043,-0.25716488356348094,-11.290990027000529,-0.2565327445823204,-0.14901565991362467,-0.9583910609641217,-0.01085627238596487,-0.007344733993827558,-0.030380650789837763,0,70,255.0,255.0,255.0
433,21.650000000000002,-1.539138933790703,-0.26462485263191543,-11.33894790888198,-0.25707377903363177,-0.14938320592897167,-0.9599312746891001,-0.010785105666490043,-0.007357106620051912,-0.031227898209296116,0,70,255.0,255.0,255.0
434,21.700000000000003,-1.5520060744716684,-0.2721032144669001,-11.386983860508957,-0.25761125514896943,-0.1497513705756299,-0.9615138507850515,-0.010713938947015219,-0.007369479246276268,-0.03207514562875447,0,70,255.0,255.0,255.0
435,21.75,-1.5649,-0.2796,-11.4351,-0.2581451729283333,-0.15012015385359928,-0.9631387892519756,-0.01064277222753951,-0.007381851872499734,-0.03292239304821365,0,70,255.0,255.0,255.0
436,21.8,-1.5778200110727878,-0.2871147492368454,-11.483297984277144,-0.25864424920489715,-0.15046010020670486,-0.9647784182984258,-0.009320278835015454,-0.006216002251723546,-0.032662768809794324,0,70,255.0,255.0,255.0
437,21.85,-1.590763322842663,-0.29464503847932005,-11.531577625476313,-0.25907720081183483,-0.15074175407877166,-0.9664050661329551,-0.007997785442491396,-0.005050152630947357,-0.032403144571375005,0,70,255.0,255.0,255.0
438,21.900000000000002,-1.6037266290761445,-0.30218795310337215,-11.579938274536909,-0.2594440277491463,-0.1509651154697996,-0.9680187327555634,-0.0066752920499673395,-0.00388430301017117,-0.03214352033295568,0,70,255.0,255.0,255.0
439,21.950000000000003,-1.616706623539751,-0.3097405784849496,-11.628379282398337,-0.25974473001683157,-0.15113018437978876,-0.9696194181662507,-0.005352798657443284,-0.0027184533893949816,-0.03188389609453635,0,70,255.0,255.0,255.0
440,22.0,-1.6297,-0.3173,-11.6769,-0.25997930761489063,-0.15123696080873908,-0.9712071223650169,-0.004030305264918432,-0.0015526037686182104,-0.0316242718561206,0,70,255.0,255.0,255.0
441,22.05,-1.6427046370707798,-0.32486412672258824,-11.725499966145376,-0.260218851385376,-0.15133486664359203,-0.9727931171961792,-0.005551445554495182,-0.002363629625499509,-0.03181552139037152,0,70,255.0,255.0,255.0
442,22.1,-1.655723152755446,-0.3324341625192402,-11.77417947109423,-0.26053445217034016,-0.15147332377128903,-0.9743886745040541,-0.007072585844071931,-0.003174655482380807,-0.03200677092462244,0,70,255.0,255.0,255.0
443,22.150000000000002,-1.6687593499047222,-0.3400121349545981,-11.822938992970395,-0.2609261099697832,-0.1516523321918301,-0.9759937942886415,-0.008593726133648682,-0.003985681339262105,-0.03219802045887335,0,70,255.0,255.0,255.0
444,22.200000000000003,-1.6818170313693328,-0.34760007159330414,-11.87177900989771,-0.26139382478370504,-0.15187189190521524,-0.9776084765499415,-0.01011486642322543,-0.0047967071961434035,-0.03238926999312427,0,70,255.0,255.0,255.0
445,22.25,-1.6949,-0.3552,-11.9207,-0.2619375966121057,-0.15213200291144444,-0.9792327212879538,-0.011636006712801183,-0.005607733053024644,-0.03258051952737251,0,70,255.0,255.0,255.0
446,22.3,-1.7080110406440943,-0.3628135438728025,-11.96970215114135,-0.262496345253601,-0.15240843321892697,-0.980849112916857,-0.010713938947010414,-0.005449479246276787,-0.032075145628754055,0,70,255.0,255.0,255.0
447,22.35,-1.7211488661355556,-0.37044071144372065,-12.018784490146773,-0.26300899050680676,-0.1526769508360721,-0.9824402358508293,-0.009791871181219642,-0.005291225439528931,-0.03156977173013561,0,70,255.0,255.0,255.0
448,22.400000000000002,-1.7343111713049704,-0.37808110707823767,-12.067945753581519,-0.263475532371723,-0.15293755576287987,-0.9840060900898706,-0.008869803415428873,-0.005132971632781073,-0.031064397831517154,0,70,255.0,255.0,255.0
449,22.450000000000003,-1.7474956509829236,-0.3857343351418366,-12.117184678010846,-0.26389597084834965,-0.15319024799935024,-0.985546675633981,-0.007947735649638101,-0.004974717826033217,-0.030559023932898704,0,70,255.0,255.0,255.0
450,22.5,-1.7607,-0.3934,-12.1665,-0.26427030593668677,-0.1534350275454832,-0.9870619924831605,-0.007025667883845621,-0.004816464019284927,-0.030053650034281176,0,70,255.0,255.0,255.0
451,22.55,-1.7739224003528449,-0.4010776977862026,-12.215890629289227,-0.26462776760021894,-0.15367140048070016,-0.9885624311363811,-0.0072727986574422625,-0.004638453389394256,-0.029963896094542617,0,70,255.0,255.0,255.0
452,22.6,-1.7871629827023336,-0.4087669917058787,-12.26535616831869,-0.26499758580243105,-0.1538988728844226,-0.9900583820926149,-0.007519929431038903,-0.004460442759503586,-0.029874142154804058,0,70,255.0,255.0,255.0
453,22.650000000000002,-1.8004223648753999,-0.4164674367324535,-12.31489639270354,-0.26537976054332285,-0.1541174447566505,-0.9915498453518615,-0.007767060204635545,-0.004282432129612915,-0.029784388215065502,0,70,255.0,255.0,255.0
454,22.700000000000003,-1.8137011646989774,-0.4241785878393524,-12.364511078058927,-0.2657742918228946,-0.1543271160973839,-0.9930368209141215,-0.008014190978232185,-0.004104421499722245,-0.029694634275326943,0,70,255.0,255.0,255.0
455,22.75,-1.827,-0.4319,-12.4142,-0.266181179641146,-0.15452788690662275,-0.9945193087793942,-0.008261321751827477,-0.003926410869830699,-0.02960488033558839,0,70,255.0,255.0,255.0
456,22.8,-1.840319357944527,-0.4396316649823878,-12.463963331701745,-0.26659258434552247,-0.1547459648582721,-0.996021162537613,-0.00819486642322955,-0.004796707196143103,-0.030469269993161074,0,70,255.0,255.0,255.0
457,22.85,-1.8536592030551122,-0.447375321732766,-12.513802836578476,-0.26700066628346897,-0.15500755762623708,-0.9975662357787103,-0.008128411094631626,-0.005667003522455507,-0.03133365965073376,0,70,255.0,255.0,255.0
458,22.900000000000002,-1.8670193691934338,-0.45513314599195037,-12.563720675604335,-0.26740542545498563,-0.15531266521051768,-0.9991545285026864,-0.0080619557660337,-0.006537299848767912,-0.03219804930830644,0,70,255.0,255.0,255.0
459,22.950000000000003,-1.8803996902211704,-0.4629073135007566,-12.613719009753462,-0.26780686186007235,-0.15566128761111386,-1.000786040709541,-0.007995500437435773,-0.0074075961750803155,-0.03306243896587913,0,70,255.0,255.0,255.0
460,23.0,-1.8938,-0.4707,-12.6638,-0.2682049754987292,-0.15605342482802564,-1.0024607723992742,-0.007929045108837851,-0.008277892501391548,-0.03392682862344465,0,70,255.0,255.0,255.0
461,23.05,-1.907220167869048,-0.4785124422842467,-12.71396484390379,-0.26860189501769105,-0.15643274008621127,-1.0041209187131819,-0.00794773564963771,-0.00689471782603375,-0.032479023932858175,0,70,255.0,255.0,255.0
462,23.1,-1.9206602050772201,-0.48634212136305854,-12.764210885367412,-0.268999749063693,-0.156742896610629,-1.00570867479256,-0.00796642619043757,-0.005511543150675952,-0.031031219242271705,0,70,255.0,255.0,255.0
463,23.150000000000002,-1.9341201583508685,-0.4941855792997471,-12.81453450487914,-0.2693985376367348,-0.15698389440127888,-1.0072240406374091,-0.00798511673123743,-0.004128368475318152,-0.029583414551685235,0,70,255.0,255.0,255.0
464,23.200000000000003,-1.9476000744163444,-0.5020393581576238,-12.864932082927243,-0.26979826073681673,-0.15715573345816086,-1.0086670162477287,-0.00800380727203729,-0.002745193799960354,-0.02813560986109876,0,70,255.0,255.0,255.0
465,23.25,-1.9611,-0.5099,-12.9154,-0.27019891836393856,-0.1572584137812749,-1.0100376016235186,-0.008022497812835372,-0.0013620191246019875,-0.02668780517050351,0,70,255.0,255.0,255.0
466,23.3,-1.9746199705792822,-0.5177649658806259,-12.9659356926831,-0.2705998355837152,-0.15734707479688298,-1.0113991626096637,-0.008014190978230662,-0.0021844214997211457,-0.027774634275296264,0,70,255.0,255.0,255.0
467,23.35,-1.9881599766360096,-0.5256353928150012,-13.016540821951887,-0.27100033746176166,-0.157476855931247,-1.0128150650510483,-0.008005884143625951,-0.003006823874840304,-0.028861463380089023,0,70,255.0,255.0,255.0
468,23.400000000000002,-2.0017199974030966,-0.5335133368090634,-13.067218104879128,-0.27140042399807784,-0.15764775718436702,-1.0142853089476727,-0.007997577309021241,-0.0038292262499594627,-0.02994829248488178,0,70,255.0,255.0,255.0
469,23.450000000000003,-2.015300012113456,-0.5414008538687507,-13.117970258537577,-0.27180009519266374,-0.15785977855624297,-1.0158098942995366,-0.007989270474416532,-0.0046516286250786205,-0.031035121589674537,0,70,255.0,255.0,255.0
470,23.5,-2.0289,-0.5493,-13.1688,-0.2721993510455194,-0.15811292004687486,-1.01738882110664,-0.007980963639811378,-0.005474031000196833,-0.032121950694467216,0,70,255.0,255.0,255.0
471,23.55,-2.042519949813825,-0.5572124941932504,-13.219709185363813,-0.2725987626474504,-0.15838696072625677,-1.0189704308481495,-0.007995500437427694,-0.005487596175078613,-0.031142438965916584,0,70,255.0,255.0,255.0
472,23.6,-2.0561598883787435,-0.5651387073769383,-13.27069622682504,-0.27299890108926217,-0.15866167966438272,-1.0205030650032316,-0.00801003723504401,-0.005501161349960393,-0.03016292723736595,0,70,255.0,255.0,255.0
473,23.650000000000002,-2.0698198520367495,-0.5730786734640012,-13.321758675604364,-0.2733997663709548,-0.1589370768612528,-1.0219867235718862,-0.008024574032660325,-0.005514726524842173,-0.029183415508815317,0,70,255.0,255.0,255.0
474,23.700000000000003,-2.0834998771298374,-0.5810324263673763,-13.372894082922459,-0.27380135849252824,-0.15921315231686695,-1.0234214065541134,-0.008039110830276641,-0.0055282916997239535,-0.02820390378026468,0,70,255.0,255.0,255.0
475,23.75,-2.0972,-0.589,-13.4241,-0.2742036774539825,-0.15948990603122518,-1.0248071139499129,-0.008053647627892513,-0.005541856874605289,-0.027224392051719448,0,70,255.0,255.0,255.0
476,23.8,-2.1109202301654193,-0.5969810573463735,-13.475374765861648,-0.27460511382648084,-0.15974508229808934,-1.0261911139977342,-0.008003807272040486,-0.00466519379996194,-0.02813560986112941,0,70,255.0,255.0,255.0
477,23.85,-2.124660469849019,-0.6049737776772469,-13.526719870747948,-0.27500405818118656,-0.15995642541122138,-1.0276206749360257,-0.007953966916188458,-0.0037885307253185925,-0.029046827670539368,0,70,255.0,255.0,255.0
478,23.900000000000002,-2.1384205944499084,-0.6129759693349336,-13.578137592703426,-0.27540051051809966,-0.16012393537062122,-1.029095796764788,-0.007904126560336431,-0.0029118676506752444,-0.02995804547994933,0,70,255.0,255.0,255.0
479,23.950000000000003,-2.152200479367199,-0.6209854406617472,-13.629630209772603,-0.2757944708372202,-0.16024761217628888,-1.030616479484021,-0.007854286204484404,-0.002035204576031896,-0.03086926328935929,0,70,255.0,255.0,255.0
480,24.0,-2.166,-0.629,-13.6812,-0.27618593913854805,-0.1603274558282244,-1.0321827230937242,-0.007804445848631936,-0.0011585415013881661,-0.03178048109877096,0,70,255.0,255.0,255.0
481,24.05,-2.1798191295244993,-0.6370184764212563,-13.7328485511896,-0.27658078204662445,-0.1604247100813861,-1.0337531131609343,-0.007989270474424794,-0.002731628625078364,-0.031035121589638937,0,70,255.0,255.0,255.0
482,24.1,-2.193658232225184,-0.6450437819140752,-13.78457469018317,-0.27698486618599055,-0.16060061869073225,-1.0352862352526881,-0.008174095100217655,-0.004304715748768562,-0.03028976208050691,0,70,255.0,255.0,255.0
483,24.150000000000002,-2.2075177701636197,-0.6530798491962662,-13.836376553581943,-0.2773981915566463,-0.16085518165626295,-1.0367820893689852,-0.008358919726010513,-0.00587780287245876,-0.029544402571374886,0,70,255.0,255.0,255.0
484,24.200000000000003,-2.2213982054013703,-0.6611306109856383,-13.888252277987148,-0.2778207581585916,-0.16118839897797813,-1.0382406755098255,-0.008543744351803372,-0.007450889996148958,-0.02879904306224286,0,70,255.0,255.0,255.0
485,24.25,-2.2353,-0.6692,-13.9402,-0.27825256599182663,-0.16160027065587781,-1.0396619936752094,-0.008728568977598439,-0.0090239771198386,-0.028053683553107334,0,70,255.0,255.0,255.0
486,24.3,-2.2492232517365855,-0.6772906369686021,-13.992218229379965,-0.2786717579870233,-0.1620120773763668,-1.041068433358543,-0.008039110830268904,-0.007448291699721321,-0.028203903780232055,0,70,255.0,255.0,255.0
487,24.35,-2.2631666012502465,-0.6853998946664536,-14.04430696851938,-0.27905647707485354,-0.16234509982584994,-1.0424823840532327,-0.00734965268293937,-0.005872606279604042,-0.028354124007356776,0,70,255.0,255.0,255.0
488,24.400000000000002,-2.277128324895615,-0.6935238338800039,-14.096466592968811,-0.27940672325531724,-0.16259933800432724,-1.0439038457592786,-0.0066601945356098355,-0.004296920859486763,-0.0285043442344815,0,70,255.0,255.0,255.0
489,24.450000000000003,-2.291106699027323,-0.701658515395703,-14.14869747827883,-0.2797224965284145,-0.16277479191179864,-1.0453328184766808,-0.005970736388280301,-0.002721235439369484,-0.028654564461606222,0,70,255.0,255.0,255.0
490,24.5,-2.3051,-0.7098,-14.201,-0.2800037968941453,-0.16287146154826418,-1.0467693022054392,-0.005281278240951703,-0.0011455500192523171,-0.028804784688730933,0,70,255.0,255.0,255.0
491,24.55,-2.31910706352916,-0.717945375704336,-14.253374531290552,-0.28028418600528127,-0.16295098041314635,-1.0482131534048917,-0.005934286204488357,-0.0020352045760340014,-0.028949263289366204,0,70,255.0,255.0,255.0
492,24.6,-2.3331289627738316,-0.7260958394201121,-14.305821435739325,-0.2805972255145941,-0.16307498200586756,-1.0496642285343758,-0.006587294168025011,-0.0029248591328156857,-0.02909374189000147,0,70,255.0,255.0,255.0
493,24.650000000000002,-2.347167330253923,-0.7342536152837202,-14.358341074542825,-0.28094291542208377,-0.16324346632642792,-1.0511225275938918,-0.007240302131561666,-0.00381451368959737,-0.029238220490636742,0,70,255.0,255.0,255.0
494,24.700000000000003,-2.361223798489343,-0.7424209274315525,-14.41093380889755,-0.2813212557277503,-0.16345643337482735,-1.0525880505834397,-0.007893310095098319,-0.004704168246379054,-0.02938269909127201,0,70,255.0,255.0,255.0
495,24.75,-2.3753,-0.7506,-14.4636,-0.2817322464315936,-0.1637138831510658,-1.054060797503019,-0.008546318058635816,-0.005593822803160231,-0.029527177691903717,0,70,255.0,255.0,255.0
496,24.8,-2.3893972941467756,-0.7587926602140546,-14.516339645457837,-0.28215949799185464,-0.1639920009710485,-1.0555189530218734,-0.008543744351804694,-0.005530889996146592,-0.028799043062274154,0,70,255.0,255.0,255.0
497,24.85,-2.4035159476544306,-0.7669991476530993,-14.569151288523331,-0.2825866208667741,-0.16426697215068045,-1.0569407018092463,-0.008541170644973572,-0.005467957189132953,-0.028070908432644592,0,70,255.0,255.0,255.0
498,24.900000000000002,-2.4176559540886977,-0.7752193049851169,-14.622033108859906,-0.28301361505635203,-0.16453879668996177,-1.0583260438651378,-0.008538596938142452,-0.005405024382119314,-0.027342773803015034,0,70,255.0,255.0,255.0
499,24.950000000000003,-2.4318173070153106,-0.7834529748780898,-14.674983286130987,-0.28344048056058835,-0.16480747458889242,-1.059674979189548,-0.00853602323131133,-0.005342091575105675,-0.02661463917338547,0,70,255.0,255.0,255.0
500,25.0,-2.446,-0.7917,-14.728,-0.2838672173794831,-0.16507300584747234,-1.0609875077824764,-0.008533449524481984,-0.005279158768090708,-0.02588650454375596,0,70,255.0,255.0,255.0
501,25.05,-2.4602037598837403,-0.7999599834394467,-14.781082086878103,-0.2842778220273019,-0.16532101570265884,-1.0623030345076105,-0.007890736388268219,-0.004641235439368909,-0.02673456446161141,0,70,255.0,255.0,255.0
502,25.1,-2.474427246608451,-0.8082315699674921,-14.834231010167361,-0.28465629101830997,-0.16553712939140924,-1.0636609642286377,-0.007248023252054451,-0.00400331211064711,-0.02758262437946686,0,70,255.0,255.0,255.0
503,25.150000000000002,-2.4886688533912915,-0.816513164775814,-14.887448890017566,-0.28500262435250734,-0.16572134691372356,-1.0650612969455573,-0.006605310115840685,-0.003365388781925311,-0.02843068429732231,0,70,255.0,255.0,255.0
504,25.200000000000003,-2.5029269734494215,-0.8248031730560907,-14.940737846578514,-0.285316822029894,-0.16587366826960176,-1.06650403265837,-0.005962596979626918,-0.0027274654532035117,-0.02927874421517776,0,70,255.0,255.0,255.0
505,25.25,-2.5172,-0.8331,-14.9941,-0.28559888405047007,-0.16599409345904387,-1.0679891713670748,-0.005319883843413642,-0.002089542124481536,-0.030126804133027818,0,70,255.0,255.0,255.0
506,25.3,-2.531486866318266,-0.8414026060281586,-15.047536807029752,-0.2858812138989332,-0.1661159362183155,-1.069476908947682,-0.005973310095111204,-0.0027841682463836215,-0.029382699091269504,0,70,255.0,255.0,255.0
507,25.35,-2.5457886659117697,-0.8497121724769333,-15.101047070807235,-0.2861962150599812,-0.16627251028368223,-1.0709274412762018,-0.006626736346808767,-0.003478794368285707,-0.02863859404951119,0,70,255.0,255.0,255.0
508,25.400000000000002,-2.5601070323461412,-0.8580304359116288,-15.154628931069839,-0.28654388753361404,-0.16646381565514407,-1.0723407683526334,-0.007280162598506329,-0.004173420490187792,-0.027894489007752876,0,70,255.0,255.0,255.0
509,25.450000000000003,-2.574443599187008,-0.8663591328975496,-15.208280527554964,-0.28692423131983186,-0.166689852332701,-1.0737168901769771,-0.007933588850203892,-0.004868046612089878,-0.027150383965994566,0,70,255.0,255.0,255.0
510,25.5,-2.5888,-0.8747,-15.262,-0.28733724641863445,-0.16695062031635308,-1.0750558067492328,-0.008587015101901407,-0.0055626727339916915,-0.02640627892423275,0,70,255.0,255.0,255.0
511,25.55,-2.6031775748431962,-0.8830543924479191,-15.315785885002889,-0.2877653223769648,-0.1672232394240804,-1.0763813297016724,-0.00853602323131195,-0.005342091575100702,-0.026614639173351055,0,70,255.0,255.0,255.0
512,25.6,-2.6175764897444713,-0.8914221401247758,-15.36963830660371,-0.28819084874176565,-0.16748482947386314,-1.077717270666568,-0.008485031360722494,-0.005121510416209712,-0.026822999422469358,0,70,255.0,255.0,255.0
513,25.650000000000002,-2.631996617224148,-0.8998026915776732,-15.423557785703087,-0.28861382551303705,-0.16773539046570135,-1.0790636296439196,-0.008434039490133036,-0.004900929257318722,-0.027031359671587662,0,70,255.0,255.0,255.0
514,25.700000000000003,-2.6464378298025495,-0.9081954953537139,-15.477544843201645,-0.289034252690779,-0.16797492239959502,-1.0804204066337268,-0.008383047619543579,-0.004680348098427732,-0.027239719920705962,0,70,255.0,255.0,255.0
515,25.75,-2.6609,-0.9166,-15.5316,-0.28945213027499145,-0.1682034252755441,-1.08178760163599,-0.008332055748955458,-0.004459766939535648,-0.027448080169827804,0,70,255.0,255.0,255.0
516,25.8,-2.675382834308949,-0.9250158241801658,-15.585723652958697,-0.2898574965932059,-0.16843110608536258,-1.0831577722456154,-0.007882596979623185,-0.004647465453202851,-0.027358744215181117,0,70,255.0,255.0,255.0
517,25.85,-2.6898853751103466,-0.9334432670239645,-15.639915702777934,-0.2902403899729538,-0.1686681718208644,-1.084523476057508,-0.007433138210290911,-0.004835163966870054,-0.02726940826053443,0,70,255.0,255.0,255.0
518,25.900000000000002,-2.70440649875727,-0.9418827977776806,-15.69417592611782,-0.290600810414235,-0.16891462248204958,-1.0858847130716687,-0.006983679440958637,-0.005022862480537257,-0.027180072305887745,0,70,255.0,255.0,255.0
519,25.950000000000003,-2.718945081602796,-0.9503348856875978,-15.748504099638472,-0.29093875791704965,-0.16917045806891814,-1.087241483288097,-0.006534220671626364,-0.0052105609942044604,-0.027090736351241058,0,70,255.0,255.0,255.0
520,26.0,-2.7335,-0.9588,-15.8029,-0.29125423248139765,-0.16943567858147005,-1.0885937867067925,-0.006084761902294122,-0.005398259507871428,-0.027001400396585495,0,70,255.0,255.0,255.0
521,26.05,-2.748070287921009,-0.9672783108314186,-15.857363503162322,-0.2915566912502104,-0.1696923362344692,-1.0899475813158586,-0.006013588850216588,-0.004868046612094138,-0.027150383966058202,0,70,255.0,255.0,255.0
522,26.1,-2.7626556098141446,-0.9757687917793673,-15.911894882284562,-0.2918555913664193,-0.16992248324267945,-1.0913088251033984,-0.0059424157981390535,-0.004337833716316849,-0.02729936753553091,0,70,255.0,255.0,255.0
523,26.150000000000002,-2.7772557877467747,-0.9842701173116069,-15.966494509825639,-0.2921509328300243,-0.17012611960610088,-1.0926775180694117,-0.0058712427460615195,-0.0038076208205395584,-0.027448351105003616,0,70,255.0,255.0,255.0
524,26.200000000000003,-2.7918706437862704,-0.9927809618958979,-16.02116275824448,-0.2924427156410255,-0.17030324532473343,-1.0940536602138988,-0.0058000696939839854,-0.003277407924762269,-0.027597334674476323,0,70,255.0,255.0,255.0
525,26.25,-2.8065,-1.0013,-16.0759,-0.2927309397994227,-0.1704538603985771,-1.0954372515368591,-0.005728896641906456,-0.0027471950289850167,-0.027746318243947243,0,70,255.0,255.0,255.0
526,26.3,-2.821144014007015,-1.0098261324941609,-16.130706334392013,-0.2930357384059587,-0.1705915489767623,-1.0968119024909737,-0.006463047619531813,-0.00276034809842316,-0.027239719920641284,0,70,255.0,255.0,255.0
527,26.35,-2.835804185633078,-1.0183591658585678,-16.18558076808383,-0.2933772445613759,-0.1707298952084194,-1.0981612235289233,-0.007197198597157171,-0.0027735011678613032,-0.026733121597335326,0,70,255.0,255.0,255.0
528,26.400000000000002,-2.8504823502556342,-1.0268991329758943,-16.240522034579637,-0.29375545826567445,-0.17086889909354844,-1.0994852146507075,-0.00793134957478253,-0.002786654237299447,-0.026226523274029367,0,70,255.0,255.0,255.0
529,26.450000000000003,-2.865180343252127,-1.0354460667288141,-16.29552886738363,-0.29417037951885416,-0.17100856063214936,-1.1007838758563262,-0.008665500552407886,-0.0027998073067375903,-0.025719924950723408,0,70,255.0,255.0,255.0
530,26.5,-2.8799,-1.044,-16.3506,-0.29462200832091523,-0.1711488798242222,-1.1020572071457797,-0.009399651530033637,-0.0028129603761757327,-0.025213326627410382,0,70,255.0,255.0,255.0
531,26.55,-2.894642456050934,-1.052561159191939,-16.40573435926963,-0.29506835512595664,-0.17130146785848166,-1.1033168087202452,-0.008454220671621812,-0.0032905609942025806,-0.025170736351204325,0,70,255.0,255.0,255.0
532,26.6,-2.9094060476535475,-1.0611305447863637,-16.46093164538013,-0.29546743038807743,-0.17147793592364247,-1.1045742807809003,-0.007508789813209988,-0.0037681616122294285,-0.02512814607499827,0,70,255.0,255.0,255.0
533,26.650000000000002,-2.9241884112306935,-1.0697093507848183,-16.51619175185582,-0.2958192341072777,-0.1716782840197046,-1.105829623327745,-0.006563358954798164,-0.004245762230256276,-0.025085555798792212,0,70,255.0,255.0,255.0
534,26.700000000000003,-2.938987183205227,-1.0782987711888492,-16.57151457222101,-0.29612376628355724,-0.1719025121466681,-1.1070828363607796,-0.005617928096386339,-0.004723362848283124,-0.025042965522586155,0,70,255.0,255.0,255.0
535,26.75,-2.9538,-1.0869,-16.6269,-0.2963810269169163,-0.1721506203045329,-1.1083339198800033,-0.004672497237975026,-0.005200963466309494,-0.02500037524637122,0,70,255.0,255.0,255.0
536,26.8,-2.96862536178925,-1.095514030738084,-16.682348228529484,-0.29664284109021527,-0.17241057958930986,-1.1096008626280272,-0.005800069693983828,-0.005197407924768305,-0.025677334674580277,0,70,255.0,255.0,255.0
537,26.85,-2.9834652237527357,-1.10414105499598,-16.73786065039566,-0.29696103388631473,-0.17267036109700973,-1.1109016533474614,-0.006927642149992629,-0.0051938523832271155,-0.02635429410278933,0,70,255.0,255.0,255.0
538,26.900000000000002,-2.998322404821596,-1.1127810638848339,-16.793438957997093,-0.2973356053052146,-0.17292996482763257,-1.112236292038306,-0.00805521460600143,-0.005190296841685926,-0.027031253530998386,0,70,255.0,255.0,255.0
539,26.950000000000003,-3.0131997239269706,-1.121434048515792,-16.849084843732353,-0.2977665553469148,-0.17318939078117834,-1.1136047787005612,-0.009182787062010232,-0.005186741300144737,-0.02770821295920744,0,70,255.0,255.0,255.0
540,27.0,-3.0281,-1.1301,-16.9048,-0.29825388401141556,-0.173448638957647,-1.1150071133342265,-0.010310359518017176,-0.005183185758603326,-0.028385172387411117,0,70,255.0,255.0,255.0
541,27.05,-3.043024896792066,-1.1387787178557258,-16.960585526612434,-0.2987282805131764,-0.1736962137842804,-1.116407740767678,-0.008665500552415993,-0.004719807306733242,-0.027639924950648608,0,70,255.0,255.0,255.0
542,27.1,-3.0579714573355132,-1.1474692352297184,-17.016440153037237,-0.29912043406665717,-0.17392061968832034,-1.1177711058292914,-0.007020641586814811,-0.004256428854863157,-0.026894677513886103,0,70,255.0,255.0,255.0
543,27.150000000000002,-3.0729355694829277,-1.156170393675848,-17.072362016155836,-0.29943034467185786,-0.17412185666976673,-1.1190972085190667,-0.005375782621213628,-0.0037930504029930726,-0.026149430077123594,0,70,255.0,255.0,255.0
544,27.200000000000003,-3.0879131210868946,-1.1648810347479857,-17.128349252849613,-0.29965801232877853,-0.17429992472861963,-1.1203860488370039,-0.003730923655612446,-0.003329671951122988,-0.025404182640361084,0,70,255.0,255.0,255.0
545,27.25,-3.1029,-1.1736,-17.1844,-0.29980343703741913,-0.17445482386487907,-1.1216376267831025,-0.00208606469001138,-0.0028662934992531586,-0.02465893520358975,0,70,255.0,255.0,255.0
546,27.3,-3.117893451042486,-1.1823262978390134,-17.240512865020793,-0.2999480368570792,-0.17459656527356746,-1.122880174301255,-0.0036979280963916903,-0.0028033628482831297,-0.025042965522511913,0,70,255.0,255.0,255.0
547,27.35,-3.132896146905214,-1.191059604085148,-17.296688337455393,-0.3001732298470583,-0.17473516014970739,-1.1241419233353538,-0.005309791502772001,-0.0027404321973131013,-0.025426995841434076,0,70,255.0,255.0,255.0
548,27.400000000000002,-3.1479121172466975,-1.1997997614117755,-17.352927377379597,-0.30047901600735644,-0.17487060849329877,-1.1254228738853984,-0.00692165490915231,-0.0026775015463430724,-0.025811026160356236,0,70,255.0,255.0,255.0
549,27.450000000000003,-3.162945391725455,-1.2085466124922686,-17.4092309448692,-0.3008653953379736,-0.1750029103043417,-1.1267230259513894,-0.008533518315532621,-0.0026145708953730436,-0.0261950564792784,0,70,255.0,255.0,255.0
550,27.5,-3.178,-1.2173,-17.4656,-0.30133236783890965,-0.1751320655828361,-1.128042379533326,-0.01014538172191104,-0.0025516402444030195,-0.026579086798195206,0,70,255.0,255.0,255.0
551,27.55,-3.1930788990379897,-1.2260600907882206,-17.522035013304397,-0.30181557205850745,-0.1752775251214499,-1.1293515620272647,-0.009182787062000205,-0.0032667413001489557,-0.025788212959345802,0,70,255.0,255.0,255.0
552,27.6,-3.2081807550436348,-1.2348283484296918,-17.578534497141195,-0.3022506465451097,-0.175458739712851,-1.1306212008292607,-0.008220192402089372,-0.003981842355894892,-0.024997339120496398,0,70,255.0,255.0,255.0
553,27.650000000000002,-3.2233031615302847,-1.2436065606770526,-17.635096474325792,-0.30263759129871637,-0.17567570935703938,-1.1318512959393143,-0.0072575977421785376,-0.004696943411640828,-0.024206465281646994,0,70,255.0,255.0,255.0
554,27.700000000000003,-3.2384437120112897,-1.2523965152829424,-17.691718967673594,-0.3029764063193276,-0.17592843405401506,-1.1330418473574253,-0.0062950030822677035,-0.005412044467386764,-0.02341559144279759,0,70,255.0,255.0,255.0
555,27.75,-3.2536,-1.2612,-17.7484,-0.3032670916069431,-0.17621691380377802,-1.1341928550835938,-0.005332408422355606,-0.006127145523131539,-0.022624717603946465,0,70,255.0,255.0,255.0
556,27.8,-3.268770152805556,-1.2700181390081047,-17.805138281761618,-0.30354167490889244,-0.17650133424063416,-1.1353455775897,-0.005650923655616685,-0.005249671951114175,-0.023484182640294206,0,70,255.0,255.0,255.0
