idx,t,px,py,pz,vx,vy,vz,ax,ay,az,yaw,mode,ledr,ledg,ledb
0,0.0,7.5,10.5,0.0,-0.0005734793820709213,-0.00030646718977407617,0.0027029350976373323,0.008481752584833116,-0.005922393722660291,-0.074835221171648,0,70,255.0,255.0,255.0
1,0.05,7.499981754742246,10.49997696718117,4.130566351494395e-05,-0.00015980051575336358,-0.0006209749072939617,-0.0010566498550868275,0.008065402067869194,-0.006657914978135127,-0.0755481769373184,0,70,255.0,255.0,255.0
2,0.1,7.499983672989661,10.49993728957489,-0.00010625911531340811,0.00023306082471599807,-0.0009722586875875889,-0.004851882596094507,0.007649051550905272,-0.007393436233609963,-0.0762611327029888,0,70,255.0,255.0,255.0
3,0.15000000000000002,7.500004713865954,10.49987912837803,-0.0004444767258992323,0.0006051046393371638,-0.001360318530654958,-0.008682763125385708,0.00723270103394135,-0.0081289574890848,-0.07697408846865919,0,70,255.0,255.0,255.0
4,0.2,7.5000438364948305,10.499800644787445,-0.0009751295576567043,0.000956330928110133,-0.0017851544364960688,-0.012549291442960428,0.006816350516977428,-0.008864478744559635,-0.0776870442343296,0,70,255.0,255.0,255.0
5,0.25,7.5001,10.4997,-0.0017,0.0012867396910349064,-0.0022467664051109212,-0.016451467548818665,0.006400000000013508,-0.00960000000003447,-0.07840000000000011,0,70,255.0,255.0,255.0
6,0.30000000000000004,7.5001721635051695,10.499575355212556,-0.002620870442343297,0.001596330928111484,-0.002745154436499516,-0.020389291442960433,0.0059836494830495844,-0.010335521255509307,-0.07911295576567046,0,70,255.0,255.0,255.0
7,0.35000000000000003,7.500259286134047,10.49942487162197,-0.003739523274100769,0.0018851046393398652,-0.003280318530661852,-0.02436276312538571,0.005567298966085661,-0.011071042510984142,-0.07982591153134079,0,70,255.0,255.0,255.0
8,0.4,7.500360327010339,10.499246710425108,-0.005057740884686593,0.00215306082472005,-0.00385225868759793,-0.028371882596094508,0.005150948449121739,-0.011806563766458979,-0.08053886729701114,0,70,255.0,255.0,255.0
9,0.45,7.500474245257754,10.499039032818832,-0.006577305663514945,0.002400199484252039,-0.004460974907307749,-0.032416649855086827,0.0047345979321578155,-0.012542085021933814,-0.08125182306268147,0,70,255.0,255.0,255.0
10,0.5,7.5006,10.4988,-0.0083,0.0026265206179358317,-0.005106467189791311,-0.03649706490236266,0.004318247415193901,-0.013277606277408649,-0.08196477882835185,0,70,255.0,255.0,255.0
11,0.55,7.500736791237077,10.498528011968613,-0.01022662389414176,0.002846476803315276,-0.005774407346725461,-0.040554184373071456,0.004479999999983877,-0.013439999999957309,-0.08031999999999999,0,70,255.0,255.0,255.0
12,0.6000000000000001,7.500884782474151,10.498222423937225,-0.012354047788283523,0.0030745206179342197,-0.006450467189787043,-0.04452906490236267,0.004641752584773853,-0.013602393722505967,-0.07867522117164813,0,70,255.0,255.0,255.0
13,0.65,7.501044378092691,10.497882829921531,-0.014678159735354402,0.0033106520617926616,-0.007134646718976056,-0.04842170649023627,0.004803505169563829,-0.013764787445054627,-0.07703044234329628,0,70,255.0,255.0,255.0
14,0.7000000000000001,7.501215982474153,10.497508823937226,-0.017194847788283524,0.003554871134890603,-0.007826945934292505,-0.052232109136692295,0.004965257754353805,-0.013927181167603286,-0.07538566351494443,0,70,255.0,255.0,255.0
15,0.75,7.5014,10.4971,-0.0199,0.0038071778372280422,-0.008527364835736385,-0.055960272841730704,0.005127010339143784,-0.014089574890151918,-0.0737408846865929,0,70,255.0,255.0,255.0
16,0.8,7.501596671546526,10.496656596912995,-0.02279103398108967,0.0040577618586307585,-0.009197216176603098,-0.059697971064753774,0.0048963505169648475,-0.012704478744516566,-0.07576704423432974,0,70,255.0,255.0,255.0
17,0.8500000000000001,7.501805583969345,10.496181432629127,-0.025871485572765168,0.004296812888924527,-0.009797812710188043,-0.06353697726516368,0.004665690694785912,-0.011319382598881215,-0.07779320378206658,0,70,255.0,255.0,255.0
18,0.9,7.5020261606189,10.495677969888762,-0.02914642017389582,0.00452433092810935,-0.010329154436491218,-0.06747729144296043,0.004435030872606977,-0.009934286453245865,-0.07981936332980341,0,70,255.0,255.0,255.0
19,0.9500000000000001,7.502257824845637,10.495149671432266,-0.03262090318335099,0.004740315976185225,-0.010791241355512628,-0.07151891359814402,0.00420437105042804,-0.008549190307610515,-0.08184552287754025,0,70,255.0,255.0,255.0
20,1.0,7.5025,10.4946,-0.0363,0.004944768033152153,-0.01118407346725227,-0.07566184373071447,0.003973711228249105,-0.007164094161975193,-0.0838716824252772,0,70,255.0,255.0,255.0
21,1.05,7.502752522576819,10.49403120037941,-0.040186840181499574,0.005162475762162327,-0.011580727946851072,-0.07978993136791343,0.00473459793215782,-0.008702085021976887,-0.08125182306268149,0,70,255.0,255.0,255.0
22,1.1,7.5030168816484695,10.493440645546265,-0.04427680992065586,0.005418227826367935,-0.012054281969449961,-0.08378702603698261,0.005495484636066535,-0.01024007588197858,-0.07863196370008575,0,70,255.0,255.0,255.0
23,1.1500000000000001,7.50329497943171,10.492824490523414,-0.048563359569062346,0.005712024225768981,-0.012604735535048931,-0.08765312773792203,0.0062563713399752495,-0.011778066741980274,-0.07601210433749003,0,70,255.0,255.0,255.0
24,1.2000000000000002,7.5035887181433,10.49217889033371,-0.053039939478312564,0.006043864960365461,-0.01323208864364799,-0.09138823647073163,0.007017258043883964,-0.013316057601981967,-0.0733922449748943,0,70,255.0,255.0,255.0
25,1.25,7.5039,10.4915,-0.0577,0.006413750030157376,-0.013936341295247128,-0.09499235223541143,0.007778144747792662,-0.014854048461983752,-0.07077238561229826,0,70,255.0,255.0,255.0
26,1.3,7.504230038146195,10.490785001569368,-0.06253920529291204,0.006780335092711352,-0.014655872035986806,-0.0985983034635925,0.00688525775436638,-0.0139271811676033,-0.07346566351494442,0,70,255.0,255.0,255.0
27,1.35,7.504577289436777,10.490035185185814,-0.06756207474461146,0.007102275805594015,-0.01532905941200746,-0.10233891858690587,0.005992370760940098,-0.013000313873222848,-0.07615894141759057,0,70,255.0,255.0,255.0
28,1.4000000000000001,7.50493952165426,10.489252868017578,-0.07277534154985485,0.007379572168805362,-0.015955903423309093,-0.10621419760535157,0.0050994837675138165,-0.012073446578842396,-0.07885221932023673,0,70,255.0,255.0,255.0
29,1.4500000000000002,7.505314502581162,10.488440367232894,-0.07818573890339885,0.0076122241823453965,-0.0165364040698917,-0.11022414051892956,0.004206596774087534,-0.011146579284461944,-0.08154549722288287,0,70,255.0,255.0,255.0
30,1.5,7.5057,10.4876,-0.0838,0.007800231846214116,-0.017070561351755286,-0.11436874732763985,0.0033137097806612698,-0.01021971199008162,-0.08423877512552913,0,70,255.0,255.0,255.0
31,1.55,7.5060945248383995,10.486733593343127,-0.08962273864685226,0.007988183866991348,-0.017587783909197477,-0.1185208547777166,0.00420437105042805,-0.010469190307606074,-0.0818455228775404,0,70,255.0,255.0,255.0
32,1.6,7.506499560604424,10.485841013710482,-0.09565009110089834,0.008220668951256921,-0.018117480382515896,-0.12255329961539389,0.00509503232019483,-0.01071866862513053,-0.07945227062955168,0,70,255.0,255.0,255.0
33,1.6500000000000001,7.506917333951249,10.484921637406277,-0.10187607423151833,0.008497687099010831,-0.018659650771710532,-0.12646608184067176,0.005985693589961609,-0.010968146942654983,-0.07705901838156297,0,70,255.0,255.0,255.0
34,1.7000000000000002,7.50735007153205,10.483974840734714,-0.10829470490809222,0.008819238310253082,-0.019214295076781393,-0.1302592014535502,0.00687635485972839,-0.011217625260179437,-0.07466576613357424,0,70,255.0,255.0,255.0
35,1.75,7.5078,10.483,-0.1149,0.00918532258498367,-0.019781413297728475,-0.13393265845402919,0.007767016129495194,-0.011467103577703891,-0.07227251388558553,0,70,255.0,255.0,255.0
36,1.8,7.508268662500209,10.481996625058132,-0.121687440119679,0.009554929439318148,-0.020352992327220733,-0.13757427742554118,0.0070172580438839635,-0.011396057601986458,-0.07339224497489409,0,70,255.0,255.0,255.0
37,1.85,7.508754868145527,10.480964759972258,-0.12865836085179522,0.009887048389372068,-0.02092101905792712,-0.1412718829515186,0.006267499958272733,-0.011325011626269027,-0.07451197606420266,0,70,255.0,255.0,255.0
38,1.9000000000000001,7.509256742540741,10.479904582357317,-0.13581556152407198,0.010181679435145422,-0.021485493489847636,-0.14502547503196145,0.0055177418726615034,-0.011253965650551595,-0.07563170715351122,0,70,255.0,255.0,255.0
39,1.9500000000000002,7.509772411290637,10.478816269828252,-0.14316184146423247,0.010438822576638218,-0.022046415622982284,-0.14883505366686975,0.004767983787050273,-0.011182919674834162,-0.07675143824281978,0,70,255.0,255.0,255.0
40,2.0,7.5103,10.4777,-0.1507,0.010658477813850452,-0.022603785457331053,-0.15270061885624342,0.004018225701439115,-0.011111873699116676,-0.07787116933212834,0,70,255.0,255.0,255.0
41,2.0500000000000003,7.5108380251607665,10.47655590642435,-0.15843230087443186,0.01086409837573862,-0.02316024678192052,-0.15659003552011871,0.004206596774087558,-0.011146579284461984,-0.07770549722288286,0,70,255.0,255.0,255.0
42,2.1,7.511386566813468,10.475383946400486,-0.16635886549192083,0.011079137491259208,-0.02371844338577725,-0.16047116857853172,0.004394967846735998,-0.01118128486980729,-0.0775398251136374,0,70,255.0,255.0,255.0
43,2.15,7.511946095885786,10.474184033164452,-0.17447927967219393,0.011303595160412218,-0.02427837526890125,-0.16434401803148244,0.0045833389193844385,-0.011215990455152597,-0.07737415300439192,0,70,255.0,255.0,255.0
44,2.2,7.5125170833054025,10.472956079952276,-0.18279312923497806,0.011537471383197651,-0.024840042431292512,-0.1682085838789709,0.00477170999203288,-0.011250696040497905,-0.07720848089514645,0,70,255.0,255.0,255.0
45,2.25,7.5131,10.4717,-0.1913,0.011780766159615506,-0.025403444872951042,-0.17206486612099708,0.004960081064681321,-0.011285401625843294,-0.07704280878590053,0,70,255.0,255.0,255.0
46,2.3000000000000003,7.513695236856726,10.470415749244472,-0.1999993563825938,0.012028677057725862,-0.025966020545101613,-0.17590558049398397,0.004956354859732859,-0.011217625260179465,-0.07658576613357412,0,70,255.0,255.0,255.0
47,2.35,7.514302864600602,10.469103454425795,-0.20889017718052147,0.012276401645588792,-0.026525207398968992,-0.1797234427343545,0.0049526286547843966,-0.011149848894515636,-0.07612872348124773,0,70,255.0,255.0,255.0
48,2.4000000000000004,7.514922873916114,10.46776328498488,-0.2179713197871523,0.012523939923204302,-0.02708100543455318,-0.18351845284210877,0.004948902449835935,-0.011082072528851804,-0.07567168082892133,0,70,255.0,255.0,255.0
49,2.45,7.515555255487751,10.466395410362644,-0.22724164159585541,0.012771291890572386,-0.02763341465185417,-0.18729061081724663,0.004945176244887472,-0.011014296163187975,-0.07521463817659492,0,70,255.0,255.0,255.0
50,2.5,7.5162,10.465,-0.2367,0.013018457547693048,-0.028182435050871972,-0.19103991665976824,0.004941450039939094,-0.010946519797524312,-0.07475759552427008,0,70,255.0,255.0,255.0
51,2.5500000000000003,7.51685702741233,10.46357709659776,-0.24634547359519318,0.013261193393367359,-0.028735671037680936,-0.19477964250394555,0.004767983787033291,-0.011182919674834191,-0.07483143824282057,0,70,255.0,255.0,255.0
52,2.6,7.517525974784126,10.462126235896333,-0.25617802578599336,0.013495255926396377,-0.029300727018355392,-0.1985230604840503,0.00459451753412749,-0.011419319552144069,-0.07490528096137106,0,70,255.0,255.0,255.0
53,2.6500000000000004,7.518206408449759,10.460646826896028,-0.26619784117919704,0.013720645146780109,-0.029877602992895345,-0.20227017060008262,0.004421051281221687,-0.01165571942945395,-0.07497912367992154,0,70,255.0,255.0,255.0
54,2.7,7.518897894743594,10.459138278597145,-0.2764051043816004,0.013937361054518546,-0.03046629896130079,-0.2060209728520425,0.004247585028315886,-0.011892119306763827,-0.07505296639847203,0,70,255.0,255.0,255.0
55,2.75,7.5196,10.4576,-0.2868,0.014145403649611695,-0.031066814923571728,-0.20977546723992982,0.004074118775410168,-0.012128519184073677,-0.07512680911702074,0,70,255.0,255.0,255.0
56,2.8000000000000003,7.5203126534939555,10.456031864364483,-0.2973827492366337,0.014366549368797773,-0.031651295304185166,-0.213535849490234,0.0047717099920329,-0.011250696040463783,-0.07528848089514546,0,70,255.0,255.0,255.0
57,2.85,7.521037236262893,10.454435601988868,-0.3081537196755052,0.014622574648814985,-0.032191884527618106,-0.21730431532944436,0.005469301208655626,-0.010372872896853895,-0.07545015267327018,0,70,255.0,255.0,255.0
58,2.9000000000000004,7.521775492284851,10.452813407431007,-0.3191133154960599,0.014913479489663336,-0.03268858259387056,-0.22108086475756103,0.006166892425278358,-0.009495049753244,-0.07561182445139489,0,70,255.0,255.0,255.0
59,2.95,7.522529165537874,10.451167475248766,-0.3302619408777431,0.015239263891342822,-0.033141389502942514,-0.22486549777458387,0.006864483641901084,-0.008617226609634113,-0.07577349622951961,0,70,255.0,255.0,255.0
60,3.0,7.5233,10.4495,-0.3416,0.015599927853853444,-0.03355030525483396,-0.22865821438051295,0.007562074858523851,-0.007739403466024197,-0.07593516800764388,0,70,255.0,255.0,255.0
61,3.0500000000000003,7.524089158611843,10.447812245944302,-0.35312752945827236,0.01596060913143947,-0.033971147745565235,-0.23243695953511895,0.006865176244917125,-0.00909429616322664,-0.07521463817659532,0,70,255.0,255.0,255.0
62,3.1,7.5248954801643,10.446101756148195,-0.36484309551198607,0.01628644547834516,-0.034459734871156625,-0.23617967819817248,0.006168277631310405,-0.010449188860429073,-0.07449410834554678,0,70,255.0,255.0,255.0
63,3.1500000000000004,7.525717222410833,10.444365143379938,-0.3767448968365637,0.016577436894570512,-0.035016066631608146,-0.23988637036967364,0.005471379017703679,-0.011804081557631517,-0.07377357851449821,0,70,255.0,255.0,255.0
64,3.2,7.526552643104911,10.442599020407789,-0.3888311321074276,0.016833583380115525,-0.03564014302691978,-0.2435570360496223,0.004774480404096959,-0.01315897425483395,-0.07305304868344965,0,70,255.0,255.0,255.0
65,3.25,7.5274,10.4408,-0.4011,0.017054884934980204,-0.036331964057091534,-0.24719167523801858,0.00407758179049017,-0.014513866952036492,-0.0723325188524011,0,70,255.0,255.0,255.0
66,3.3000000000000003,7.5282579120586695,10.438965551858306,-0.4135503329302774,0.017263014105449503,-0.03704011371356144,-0.2508283123692904,0.004247585028281787,-0.013812119306759404,-0.0731329663984711,0,70,255.0,255.0,255.0
67,3.35,7.52912644307991,10.437096573418348,-0.4261834982765508,0.017479643437808383,-0.037713175987767474,-0.2545049718778657,0.004417588266073403,-0.013110371661482321,-0.07393341394454107,0,70,255.0,255.0,255.0
68,3.4000000000000004,7.530006018071815,10.435194819049235,-0.43900149715768566,0.017704772932056842,-0.03835115087970967,-0.2582216537637445,0.004587591503865019,-0.012408624016205233,-0.07473386149061106,0,70,255.0,255.0,255.0
69,3.45,7.53089706204248,10.43326204312008,-0.452006330692547,0.017938402588194888,-0.038954038389388004,-0.2619783580269268,0.004757594741656635,-0.01170687637092815,-0.07553430903668104,0,70,255.0,255.0,255.0
70,3.5,7.5318,10.4313,-0.4652,0.018180532406222506,-0.039521838516802486,-0.2657750846674126,0.004927597979448306,-0.011005128725651347,-0.07633475658275213,0,70,255.0,255.0,255.0
71,3.5500000000000003,7.532715193153479,10.429310346622469,-0.47858393882061867,0.01842733444675678,-0.040060397400184515,-0.26957779098771945,0.00494448364192267,-0.010537226609629666,-0.0757734962295208,0,70,255.0,255.0,255.0
72,3.6,7.533642747516061,10.42729435017841,-0.49215731138181096,0.018674980770414774,-0.04057556117776545,-0.2733524342903647,0.004961369304397034,-0.010069324493607989,-0.07521223587628949,0,70,255.0,255.0,255.0
73,3.6500000000000004,7.534582705301904,10.425253180423121,-0.5059187145326941,0.018923471377196483,-0.041067329849545316,-0.2770990145753484,0.004978254966871399,-0.009601422377586308,-0.07465097552305817,0,70,255.0,255.0,255.0
74,3.7,7.535535108725165,10.423188007111888,-0.5198667451223847,0.019172806267101914,-0.04153570341552409,-0.2808175318426705,0.0049951406293457625,-0.00913352026156463,-0.07408971516982685,0,70,255.0,255.0,255.0
75,3.75,7.5365,10.4211,-0.534,0.01942298544013106,-0.041980681875701774,-0.28450798609233113,0.005012026291820071,-0.008665618145543064,-0.07352845481659687,0,70,255.0,255.0,255.0
76,3.8000000000000003,7.537477315327418,10.41898986165182,-0.5483171117872486,0.019667648107528985,-0.04243029668571143,-0.2881725236798323,0.004774480404096892,-0.00931897425484293,-0.07305304868344971,0,70,255.0,255.0,255.0
77,3.85,7.538466566855846,10.416856425868003,-0.5628168561962057,0.01990043348054075,-0.04291257930118607,-0.29181329096067615,0.004536934516373714,-0.00997233036414279,-0.07257764255030255,0,70,255.0,255.0,255.0
78,3.9000000000000004,7.539467160720565,10.414698059258278,-0.5774980447115386,0.02012134155916636,-0.043427529722125706,-0.2954302879348626,0.004299388628650534,-0.010625686473442657,-0.07210223641715538,0,70,255.0,255.0,255.0
79,3.95,7.540478503056857,10.412513128432368,-0.5923594888179143,0.020330372343405803,-0.04397514794853034,-0.2990235146023916,0.004061842740927356,-0.011279042582742517,-0.07162683028400822,0,70,255.0,255.0,255.0
80,4.0,7.5415,10.4103,-0.6074,0.02052752583325909,-0.044555433980399954,-0.30259297096326343,0.0038242968532040678,-0.0119323986920426,-0.07115142415086151,0,70,255.0,255.0,255.0
81,4.05,7.54253154553685,10.408057406770247,-0.6226188140303875,0.020742073123130183,-0.045146415856973376,-0.306164114292952,0.004757594741639567,-0.01170687637089426,-0.07169430903667955,0,70,255.0,255.0,255.0
82,4.1000000000000005,7.543574985060554,10.405785546349572,-0.6380168638333669,0.021003285307423052,-0.04572612161748939,-0.30976240186693144,0.005690892630075083,-0.011481354049745915,-0.0722371939224976,0,70,255.0,255.0,255.0
83,4.15,7.544632651815832,10.403484982543766,-0.6535955066211523,0.021311162386137693,-0.046294551261947973,-0.31338783368520173,0.006624190518510582,-0.011255831728597575,-0.07278007880831563,0,70,255.0,255.0,255.0
84,4.2,7.545706879047407,10.401156279158641,-0.6693560996059584,0.021665704359274104,-0.046851704790349134,-0.31704040974776293,0.007557488406946081,-0.011030309407449234,-0.07332296369413367,0,70,255.0,255.0,255.0
85,4.25,7.5468,10.3988,-0.6853,0.022066911226832294,-0.0473975822026929,-0.320720130054615,0.008490786295381497,-0.010804787086300727,-0.07386584857994949,0,70,255.0,255.0,255.0
86,4.3,7.547913302525184,10.396416511267184,-0.7014284320912014,0.022452059399950788,-0.04794403988639027,-0.32441901914835947,0.0069151406293583295,-0.011053520261594162,-0.07408971516982801,0,70,255.0,255.0,255.0
87,4.3500000000000005,7.549043892901941,10.394005388733714,-0.7177420884703277,0.02275842528976813,-0.048502934228852324,-0.32812910157159786,0.005339494963335134,-0.011302253436887602,-0.07431358175970652,0,70,255.0,255.0,255.0
88,4.4,7.550187832016105,10.391566010566654,-0.734241528803853,0.022986008896284306,-0.04907426523007904,-0.33185037732433015,0.0037638492973119664,-0.011550986612181038,-0.07453744834958505,0,70,255.0,255.0,255.0
89,4.45,7.551341180753514,10.38909775493306,-0.7509273127582522,0.023134810219499324,-0.04965803289007042,-0.33558284640655633,0.0021882036312887987,-0.011799719787474473,-0.07476131493946356,0,70,255.0,255.0,255.0
90,4.5,7.5525,10.3866,-0.7678,0.023204829259413185,-0.05025423720882648,-0.3393265088182765,0.0006125579652656865,-0.012048452962767686,-0.0749851815293412,0,70,255.0,255.0,255.0
91,4.55,7.553661644362418,10.384072548161011,-0.7848594576048067,0.023273689277067695,-0.05083742459746423,-0.3430398091136102,0.0021418427409147676,-0.011279042582742552,-0.07354683028400855,0,70,255.0,255.0,255.0
92,4.6000000000000005,7.554828643331686,10.38151689871557,-0.8021027822853235,0.023419013533504666,-0.05138214146710074,-0.3466811918466774,0.0036711275165638765,-0.010509632202717403,-0.07210847903867589,0,70,255.0,255.0,255.0
93,4.65,7.556004820119747,10.378934975189619,-0.8195263781634368,0.023640802028724085,-0.05188838781773598,-0.3502506570174778,0.005200412292212958,-0.009740221822692269,-0.07067012779334324,0,70,255.0,255.0,255.0
94,4.7,7.557193997938539,10.376328701109113,-0.8371266493610333,0.023939054762725957,-0.052356163649369965,-0.35374820462601164,0.0067296970678620395,-0.008970811442667134,-0.0692317765480106,0,70,255.0,255.0,255.0
95,4.75,7.5584,10.3737,-0.8549,0.024313771735510283,-0.05278546896200268,-0.35717383467227887,0.008258981843511037,-0.008201401062641611,-0.06779342530267796,0,70,255.0,255.0,255.0
96,4.800000000000001,7.5596257200251475,10.37105009608876,-0.8728441374895722,0.02470918349177214,-0.05321826172375422,-0.3606057443971992,0.007557488406963043,-0.009110309407419505,-0.06948296369413313,0,70,255.0,255.0,255.0
97,4.8500000000000005,7.560870333771312,10.368377416404003,-0.8909619823883796,0.025069520576206594,-0.05369649990274464,-0.3641221310416922,0.0068559949704150615,-0.010019217752197383,-0.07117250208558829,0,70,255.0,255.0,255.0
98,4.9,7.562132087504906,10.365679688674865,-0.909257758542401,0.025394782988813643,-0.054220183498973944,-0.36772299460575797,0.0061545015338670805,-0.010928126096975261,-0.07286204047704345,0,70,255.0,255.0,255.0
99,4.95,7.563409227492331,10.362954640630486,-0.9277356897976148,0.025684970729593297,-0.05478931251244216,-0.3714083350893965,0.005453008097319098,-0.011837034441753139,-0.0745515788684986,0,70,255.0,255.0,255.0
100,5.0,7.5647,10.3602,-0.9464,0.025940083798545552,-0.05540388694314925,-0.37517815249260783,0.004751514660771061,-0.01274594278653074,-0.07624111725995286,0,70,255.0,255.0,255.0
101,5.050000000000001,7.566002675536991,10.357414267483945,-0.9652535924369054,0.02616157675584694,-0.05601752850750024,-0.3789532132975933,0.004108203631284337,-0.011799719787508475,-0.07476131493946284,0,70,255.0,255.0,255.0
102,5.1000000000000005,7.56731562158306,10.354599035668416,-0.9842940881611592,0.026350904161673988,-0.05658385892190011,-0.38265428398655416,0.0034648926017976246,-0.010853496788486228,-0.07328151261897282,0,70,255.0,255.0,255.0
103,5.15,7.568637229860634,10.35175667011092,-1.0035177876669603,0.0265080660160267,-0.05710287818634886,-0.3862813645594905,0.0028215815723109114,-0.009907273789463981,-0.07180171029848283,0,70,255.0,255.0,255.0
104,5.2,7.569965892092138,10.348889536368947,-1.0229209914485078,0.02663306231890508,-0.057574586300846504,-0.3898344550164024,0.0021782705428241987,-0.008961050790441735,-0.07032190797799281,0,70,255.0,255.0,255.0
105,5.25,7.5713,10.346,-1.0425,0.02672589307030912,-0.057998983265393024,-0.3933135553572898,0.001534959513337375,-0.008014827791418988,-0.06884210565750193,0,70,255.0,255.0,255.0
106,5.300000000000001,7.572638777826888,10.343089633975469,-1.0622518927628077,0.026836509484838903,-0.05842362424624518,-0.39676540241242764,0.0028896970678538663,-0.008970811442666852,-0.06923177654801044,0,70,255.0,255.0,255.0
107,5.3500000000000005,7.5739847798964455,10.340156840922333,-1.082176864966985,0.027014862777094507,-0.058896064409659714,-0.40023673301209084,0.004244434622370333,-0.009926795093914698,-0.06962144743851893,0,70,255.0,255.0,255.0
108,5.4,7.575341393052559,10.337199230881463,-1.1022758907897587,0.027260952947075933,-0.05941630375563664,-0.4037275471562795,0.005599172176886801,-0.010882778745162542,-0.07001111832902743,0,70,255.0,255.0,255.0
109,5.45,7.5767120041391145,10.334214413893728,-1.1225499444083549,0.027574779994783184,-0.059984342284175964,-0.4072378448449936,0.006953909731403267,-0.011838762396410388,-0.07040078921953592,0,70,255.0,255.0,255.0
110,5.5,7.5781,10.3312,-1.143,0.027956343920216255,-0.06060017999527768,-0.4107676260782331,0.008308647285919707,-0.012794746047658234,-0.0707904601100453,0,70,255.0,255.0,255.0
111,5.550000000000001,7.579507813155457,10.328154396614181,-1.1636268365118654,0.02834838530479755,-0.06121597450751297,-0.41430517705269676,0.007373008097331672,-0.011837034441753078,-0.07071157886849919,0,70,255.0,255.0,255.0
112,5.6000000000000005,7.580934058831156,10.325079200642255,-1.184430451970902,0.028693644729949428,-0.06178388343945299,-0.41783878396508306,0.006437368908743652,-0.010879322835847938,-0.07063269762695308,0,70,255.0,255.0,255.0
113,5.65,7.582376397929128,10.321976806363239,-1.2054106491740058,0.028992122195671908,-0.06230390679109776,-0.42136844681539204,0.005501729720155633,-0.0099216112299428,-0.07055381638540696,0,70,255.0,255.0,255.0
114,5.7,7.583832491351399,10.31884960805615,-1.226567230918073,0.02924381770196499,-0.06277604456244727,-0.4248941656036237,0.004566090531567615,-0.00896389962403766,-0.07047493514386086,0,70,255.0,255.0,255.0
115,5.75,7.5853,10.3157,-1.2479,0.02944873124882867,-0.06320029675350151,-0.4284159403297781,0.0036304513429796514,-0.008006188018132243,-0.07039605390231385,0,70,255.0,255.0,255.0
116,5.800000000000001,7.586777169551287,10.312529579567814,-1.2694087611897322,0.029641949295973653,-0.06362447772371586,-0.43193388937678573,0.0040982705428197165,-0.008961050790441441,-0.0703219079779898,0,70,255.0,255.0,255.0
117,5.8500000000000005,7.588264584778931,10.309336756508651,-1.2910933271494085,0.02985855830311064,-0.06409640183254567,-0.4354481311275771,0.004566089742659773,-0.009915913562750622,-0.07024776205366576,0,70,255.0,255.0,255.0
118,5.9,7.589763415230931,10.306119143665581,-1.3129535125142193,0.03009855827023963,-0.06461606907999093,-0.4389586655821523,0.00503390894249983,-0.010870776335059801,-0.07017361612934173,0,70,255.0,255.0,255.0
119,5.95,7.591274830455288,10.302874353881675,-1.3349891319193532,0.030361949197360624,-0.06518347946605163,-0.4424654927405112,0.005501728142339886,-0.011825639107368982,-0.07009947020501768,0,70,255.0,255.0,255.0
120,6.0,7.5928,10.2996,-1.3572,0.030648731084473618,-0.06579863299072782,-0.4459686126026541,0.005969547342179943,-0.01278050187967772,-0.07002532428069586,0,70,255.0,255.0,255.0
121,6.050000000000001,7.594339508639398,10.296294485114565,-1.3795861187292082,0.030923817511312887,-0.06641411459762916,-0.4494792654401601,0.0050339097313906326,-0.011838762396376143,-0.07040078921954135,0,70,255.0,255.0,255.0
122,6.1000000000000005,7.595891602053122,10.29295937332314,-1.4021482394314653,0.031152122057612686,-0.06698250923036544,-0.45300869152460826,0.004098272120601338,-0.010897022913074584,-0.07077625415838683,0,70,255.0,255.0,255.0
123,6.15,7.597453941147149,10.289597018974431,-1.424887300769118,0.031333644723373015,-0.06750381688893663,-0.4565568908559987,0.0031626345098120447,-0.009955283429773025,-0.07115171909723231,0,70,255.0,255.0,255.0
124,6.2,7.599024186827451,10.28620977641715,-1.447804241404514,0.031468385508593884,-0.06797803757334274,-0.4601238634343314,0.0022269968990227505,-0.009013543946471466,-0.07152718403607779,0,70,255.0,255.0,255.0
125,6.25,7.6006,10.2828,-1.4709,0.031556344413275296,-0.06840517128358377,-0.46370960925960647,0.0012913592882334846,-0.008071804463169907,-0.07190264897492327,0,70,255.0,255.0,255.0
126,6.300000000000001,7.602179995891126,10.279369279973924,-1.4941747638934366,0.03165478065877044,-0.06883106388576482,-0.467269048862576,0.0026460905315721286,-0.008963899624071726,-0.07047493514385576,0,70,255.0,255.0,255.0
127,6.3500000000000005,7.6037666070085805,10.275916150198789,-1.5176257151247319,0.03182095346643251,-0.06930156124599095,-0.4707571027739921,0.004000821774910748,-0.00985599478497353,-0.06904722131278829,0,70,255.0,255.0,255.0
128,6.4,7.605363220180472,10.272438380436691,-1.5412492844093095,0.032054862836261515,-0.06981666336426216,-0.47417377099385477,0.005355553018249369,-0.010748089945875334,-0.06761950748172083,0,70,255.0,255.0,255.0
129,6.45,7.606973222234909,10.26893374044973,-1.5650419024625914,0.03235650876825744,-0.07037637024057848,-0.4775190535221641,0.0067102842615879895,-0.011640185106777138,-0.06619179365065335,0,70,255.0,255.0,255.0
130,6.5,7.6086,10.2654,-1.589,0.032725891262420315,-0.07098068187493987,-0.48079295035892017,0.008065015504926665,-0.01253228026767872,-0.0647640798195881,0,70,255.0,255.0,255.0
131,6.550000000000001,7.610246107796101,10.261835594989734,-1.613121225697048,0.0331130598536023,-0.07158962985931606,-0.4840685391095354,0.007421728142352437,-0.011825639107368703,-0.0662594702050199,0,70,255.0,255.0,255.0
132,6.6000000000000005,7.611910769912558,10.258241625881702,-1.6374081000696084,0.03346806407665556,-0.07216324578567675,-0.48741889737942223,0.0067784407797782205,-0.011118997947058699,-0.06775486059045167,0,70,255.0,255.0,255.0
133,6.65,7.6135923781309645,10.2546198592788,-1.6618643615936446,0.033790903931580116,-0.07270152965402193,-0.49084402516858056,0.006135153417204005,-0.010412356786748695,-0.06925025097588346,0,70,255.0,255.0,255.0
134,6.7,7.615289324232914,10.250972061783933,-1.6864937487451206,0.03408157941837596,-0.07320448146435161,-0.4943439224770105,0.005491866054629788,-0.009705715626438691,-0.07074564136131523,0,70,255.0,255.0,255.0
135,6.75,7.617,10.2473,-1.7113,0.03434009053704309,-0.07367210121666581,-0.49791858930471206,0.004848578692055405,-0.008999074466128798,-0.07224103174674701,0,70,255.0,255.0,255.0
136,6.800000000000001,7.61872277292447,10.243605140067134,-1.7362859333183733,0.03456497992681993,-0.07412241667697997,-0.5015127946992828,0.004146996899018252,-0.009013543946437386,-0.07152718403608159,0,70,255.0,255.0,255.0
137,6.8500000000000005,7.620455913341188,10.2398877462744,-1.7614506845968365,0.034754790226944915,-0.07457345561130957,-0.5050713077083203,0.0034454151059811126,-0.009028013426745973,-0.07081333632541618,0,70,255.0,255.0,255.0
138,6.9,7.62219766729567,10.236147782448102,-1.786792469216113,0.03490952143741804,-0.07502521801965457,-0.5085941283318245,0.0027438333129439726,-0.009042482907054561,-0.0700994886147508,0,70,255.0,255.0,255.0
139,6.95,7.623946280833436,10.232385212414536,-1.8123095025569262,0.03502917355823931,-0.07547770390201501,-0.5120812565697953,0.002042251519906832,-0.009056952387363149,-0.06938564090408539,0,70,255.0,255.0,255.0
140,7.0,7.6257,10.2286,-1.838,0.035113746589408724,-0.07593091325839088,-0.515532692422233,0.00134066972686947,-0.009071421867671736,-0.06867179319342043,0,70,255.0,255.0,255.0
141,7.050000000000001,7.627458000506019,10.22479184474173,-1.8638622410294612,0.03521902043911996,-0.07640070343275222,-0.5189522820933349,0.0028702842615799026,-0.009720185106781506,-0.06811179365064994,0,70,255.0,255.0,255.0
142,7.1000000000000005,7.629223176722691,10.220959389020694,-1.8898947615430484,0.03540077501556672,-0.07690293176906904,-0.522343871787298,0.004399898796290307,-0.010368948345891266,-0.06755179410787945,0,70,255.0,255.0,255.0
143,7.15,7.630999352686355,10.217101010928792,-1.9160961615419048,0.03565901031874899,-0.07743759826734134,-0.5257074615041227,0.005929513331000713,-0.011017711585001026,-0.06699179456510897,0,70,255.0,255.0,255.0
144,7.2,7.632790352433345,10.213215088557925,-1.9424650410271747,0.03599372634866679,-0.07800470292756914,-0.5290430512438089,0.007459127865711118,-0.011666474824110786,-0.0664317950223385,0,70,255.0,255.0,255.0
145,7.25,7.6346,10.2093,-1.969,0.0364049231053201,-0.0786042457497524,-0.5323506410063565,0.008988742400421523,-0.012315238063220657,-0.06587179547956801,0,70,255.0,255.0,255.0
146,7.300000000000001,7.636430825051455,10.205354680965948,-1.9957003025637852,0.036814938316696695,-0.07920276959199549,-0.5356700769273787,0.00741186605464229,-0.011625715626502643,-0.06690564136131558,0,70,255.0,255.0,255.0
147,7.3500000000000005,7.6382801797680475,10.201380297642832,-2.022567869230973,0.03714610971078433,-0.07976681731240268,-0.5390412051424881,0.005834989708863087,-0.010936193189784641,-0.06793948724306312,0,70,255.0,255.0,255.0
148,7.4,7.640144121958913,10.19737857383674,-2.0496052846162685,0.037398437287583006,-0.08029638891097395,-0.5424640256516851,0.0042581133630838815,-0.01024667075306664,-0.06897333312481067,0,70,255.0,255.0,255.0
149,7.45,7.642018709433185,10.193351233353766,-2.0768151333343763,0.03757192104709272,-0.08079148438770933,-0.5459385384549691,0.002681237017304677,-0.009557148316348638,-0.07000717900655822,0,70,255.0,255.0,255.0
150,7.5,7.6439,10.1893,-2.1042,0.03766656098931347,-0.08125210374260881,-0.5494647435523408,0.0011043606715254728,-0.008867625879630858,-0.07104102488830755,0,70,255.0,255.0,255.0
151,7.550000000000001,7.645785099288159,10.185226231394475,-2.131761348715401,0.03774522629409928,-0.08170021819928282,-0.5529754101971506,0.0020422515199067593,-0.009056952387329112,-0.06938564090408653,0,70,255.0,255.0,255.0
152,7.6000000000000005,7.6476753042051175,10.181129820407982,-2.1594961615330623,0.037870786141304146,-0.08215779898134173,-0.5564033076427494,0.0029801423682880293,-0.009246278895027361,-0.06773025691986552,0,70,255.0,255.0,255.0
153,7.65,7.649572959477997,10.17701029372425,-2.1874002999930218,0.038043240530928085,-0.08262484608878555,-0.5597484358891371,0.003918033216669298,-0.009435605402725613,-0.06607487293564453,0,70,255.0,255.0,255.0
154,7.7,7.651480409833917,10.172867178027014,-2.215469625635322,0.03826258946297108,-0.0831013595216143,-0.5630107949363139,0.004855924065050568,-0.009624931910423863,-0.06441948895142352,0,70,255.0,255.0,255.0
155,7.75,7.6534,10.1687,-2.2437,0.03852883293743314,-0.08358733927982795,-0.5661903847842796,0.005793814913431838,-0.009814258418122446,-0.06276410496720164,0,70,255.0,255.0,255.0
156,7.800000000000001,7.655333577795911,10.164508393456149,-2.2720887025746133,0.03881215650691097,-0.0840763576108822,-0.5693722822840183,0.0055391278656814775,-0.009746474824047046,-0.06451179502234175,0,70,255.0,255.0,255.0
157,7.8500000000000005,7.657281003411485,10.16029242072524,-2.3006386846367812,0.039082745724001285,-0.08456198676223266,-0.5726415642865139,0.005284440817931122,-0.009678691229971647,-0.06625948507748182,0,70,255.0,255.0,255.0
158,7.9,7.659241640129104,10.156052251266253,-2.3293543154116434,0.03934060058870408,-0.08504422673387936,-0.5759982307917665,0.005029753770180765,-0.009610907635896249,-0.0680071751326219,0,70,255.0,255.0,255.0
159,7.95,7.661214851231149,10.15178805453818,-2.358239964124337,0.039585721101019364,-0.08552307752582228,-0.579442281799776,0.004775066722430409,-0.009543124041820849,-0.06975486518776197,0,70,255.0,255.0,255.0
160,8.0,7.6632,10.1475,-2.3873,0.03981810726094713,-0.08599853913806144,-0.5829737173105426,0.004520379674680108,-0.009475340447745007,-0.07150255524290028,0,70,255.0,255.0,255.0
161,8.05,7.6651965895282,10.143188194780924,-2.4165374409861493,0.04004614767824749,-0.08647435135716548,-0.5865114606667791,0.004601237017334304,-0.009557148316416698,-0.07000717900655411,0,70,255.0,255.0,255.0
162,8.1,7.6672046821489435,10.13885249669106,-2.4459498999198144,0.04027823096268056,-0.0869542539697031,-0.5899744352111981,0.004682094359988498,-0.009638956185088386,-0.06851180277020799,0,70,255.0,255.0,255.0
163,8.15,7.669224480005587,10.134492701210732,-2.4755336383604054,0.04051435711424634,-0.08743824697567432,-0.5933626409437998,0.004762951702642693,-0.00972076405376008,-0.06701642653386183,0,70,255.0,255.0,255.0
164,8.200000000000001,7.671256185241487,10.130108603820268,-2.505284917867332,0.040754526132944835,-0.08792633037507912,-0.5966760778645842,0.004843809045296889,-0.009802571922431771,-0.06552105029751566,0,70,255.0,255.0,255.0
165,8.25,7.6733,10.1257,-2.5352,0.04099873801877602,-0.0884185041679175,-0.5999147459735514,0.004924666387950805,-0.009884379791103237,-0.06402567406117221,0,70,255.0,255.0,255.0
166,8.3,7.675356064091289,10.121266827420147,-2.5652759334807924,0.041243252780101054,-0.08890623696045567,-0.6031258750488662,0.004855924065050476,-0.009624931910424057,-0.06441948895141608,0,70,255.0,255.0,255.0
167,8.35,7.677424267992741,10.116809592510522,-2.595512915683962,0.04148433042528107,-0.0893809973589599,-0.606356694868693,0.004787181742150149,-0.009365484029744887,-0.06481330384165992,0,70,255.0,255.0,255.0
168,8.4,7.679504439848549,10.11232894389082,-2.6259119311467365,0.041721970954316075,-0.08984278536343017,-0.6096072054330322,0.004718439419249819,-0.009106036149065709,-0.0652071187319038,0,70,255.0,255.0,255.0
169,8.450000000000001,7.681596407802903,10.107825530180746,-2.656473964406341,0.041956174367206056,-0.09029160097386649,-0.6128774067418835,0.00464969709634949,-0.008846588268386529,-0.06560093362214765,0,70,255.0,255.0,255.0
170,8.5,7.6837,10.1033,-2.6872,0.04218694066395102,-0.09072744419026882,-0.6161672987952469,0.004580954773449164,-0.008587140387707137,-0.06599474851239151,0,70,255.0,255.0,255.0
171,8.55,7.685815154106644,10.09875249553848,-2.718090825090685,0.042420841201347585,-0.09118070080100701,-0.6194650391377512,0.004775066722413471,-0.00954312404182064,-0.0659148651877782,0,70,255.0,255.0,255.0
172,8.6,7.687942245880092,10.094181133266854,-2.7491464373443373,0.04266444733619236,-0.09168175659445087,-0.6227587853140247,0.0049691786713777705,-0.010499107695934111,-0.0658349818631649,0,70,255.0,255.0,255.0
173,8.65,7.69008176060022,10.089583523225992,-2.7803666370526496,0.04291775906848536,-0.09223061157060043,-0.6260485373240676,0.005163290620342077,-0.011455091350047615,-0.06575509853855159,0,70,255.0,255.0,255.0
174,8.700000000000001,7.692234183546899,10.08495727545675,-2.811751224507308,0.04318077639822658,-0.09282726572945565,-0.62933429516788,0.005357402569306384,-0.012411075004161118,-0.06567521521393828,0,70,255.0,255.0,255.0
175,8.75,7.6944,10.0803,-2.8433,0.043453499325416,-0.09347171907101653,-0.6326160588454615,0.005551514518270573,-0.013367058658274589,-0.06559533188932498,0,70,255.0,255.0,255.0
176,8.8,7.696579319482138,10.075610390425933,-2.875012766156472,0.04371338241450561,-0.0940989598355341,-0.6358939684001323,0.004843809045313742,-0.011722571922427226,-0.06552105029750876,0,70,255.0,255.0,255.0
177,8.85,7.69877074848689,10.070891474422059,-2.9068893349386866,0.04393788022994738,-0.09464397626325927,-0.6391681638752122,0.004136103572356936,-0.010078085186579922,-0.06544676870569255,0,70,255.0,255.0,255.0
178,8.9,7.700972517750572,10.06614736320522,-2.9389295206426667,0.0441269927717413,-0.09510676835419207,-0.6424386452707016,0.0034283980994001045,-0.00843359845073256,-0.06537248711387633,0,70,255.0,255.0,255.0
179,8.950000000000001,7.7031828580095025,10.061382167992253,-2.9711331375644314,0.04428072003988739,-0.09548733610833253,-0.6457054125866001,0.0027206926264432734,-0.006789111714885197,-0.06529820552206012,0,70,255.0,255.0,255.0
180,9.0,7.7054,10.0566,-3.0035,0.04439906203438563,-0.0957856795256806,-0.6489684658229076,0.0020129871534863564,-0.005144624979037893,-0.06522392393024568,0,70,255.0,255.0,255.0
181,9.05,7.707622767964804,10.051803542757789,-3.0360301102834297,0.04451762914063122,-0.09608745985686461,-0.6522390872617174,0.0027296970963369017,-0.006926588268322734,-0.06560093362214836,0,70,255.0,255.0,255.0
182,9.1,7.7098523601723485,10.046989769044904,-3.0687242229009146,0.04467203174401932,-0.09647833835251286,-0.6555285591851224,0.003446407039187422,-0.008708551557607512,-0.06597794331405105,0,70,255.0,255.0,255.0
183,9.15,7.712090568397492,10.042154223953128,-3.101583280376685,0.044862269844549954,-0.09695831501262538,-0.6588368815931226,0.004163116982037967,-0.010490514846892354,-0.06635495300595373,0,70,255.0,255.0,255.0
184,9.200000000000001,7.71433918441509,10.037292452574237,-3.1346082252349707,0.04508834344222312,-0.09752738983720212,-0.6621640544857178,0.004879826924888512,-0.012272478136177194,-0.06673196269785643,0,70,255.0,255.0,255.0
185,9.25,7.7166,10.0324,-3.1678,0.0453502525370388,-0.09818556282624308,-0.6655100778629083,0.0055965368677389216,-0.014054441425462194,-0.06710897238975821,0,70,255.0,255.0,255.0
186,9.3,7.718874408658646,10.027473838542916,-3.20115879270981,0.04562410102296536,-0.09884720073698537,-0.6688296825530008,0.005357402569323363,-0.012411075004229376,-0.06567521521393703,0,70,255.0,255.0,255.0
187,9.35,7.721162210823714,10.02251664939832,-3.2346817734576536,0.04588599279397113,-0.09942667032666602,-0.6720775993843019,0.005118268270907812,-0.010767708582996617,-0.06424145803811589,0,70,255.0,255.0,255.0
188,9.4,7.723462808659461,10.017532540982266,-3.2683653578505933,0.046135927850056144,-0.09992397159528503,-0.6752538283568122,0.004879133972492254,-0.009124342161763797,-0.06280770086229469,0,70,255.0,255.0,255.0
189,9.450000000000001,7.7257756043301375,10.012525621710807,-3.302205961495689,0.04637390619122037,-0.1003391045428424,-0.6783583694705315,0.004639999674076695,-0.00748097574053098,-0.0613739436864735,0,70,255.0,255.0,255.0
190,9.5,7.7281,10.0075,-3.3362,0.046599927817463804,-0.10067206916933813,-0.6813912227254596,0.004400865375661089,-0.00583760931929822,-0.059940186510650584,0,70,255.0,255.0,255.0
191,9.55,7.730435597400615,10.002458703070554,-3.3703451188773332,0.046825966767515874,-0.10098773719519272,-0.6844261825262774,0.004640692626421753,-0.006789111714885201,-0.06145820552206074,0,70,255.0,255.0,255.0
192,9.600000000000001,7.732782796532795,9.997400433361816,-3.404643883268472,0.04706399708010599,-0.10135098034082665,-0.6875370432776658,0.004880519877182417,-0.007740614110472182,-0.06297622453347089,0,70,255.0,255.0,255.0
193,9.65,7.7351421969646665,9.992322812117807,-3.4391000882209424,0.04731401875523412,-0.10176179860623993,-0.6907238049796245,0.005120347127943072,-0.008692116506059128,-0.064494243544881,0,70,255.0,255.0,255.0
194,9.700000000000001,7.73751439826436,9.98722346058253,-3.4737175287822764,0.04757603179290029,-0.10222019199143258,-0.6939864676321538,0.005360174378703736,-0.00964361890164611,-0.06601226255629114,0,70,255.0,255.0,255.0
195,9.75,7.7399,9.9821,-3.5085,0.04785003619310449,-0.10272616049640455,-0.6973250312352537,0.005600001629464391,-0.01059512129723339,-0.06753028156770213,0,70,255.0,255.0,255.0
196,9.8,7.7422992017388985,9.976950549174877,-3.54345033178086,0.048112031906963316,-0.10324985048223995,-0.7006815873418927,0.0048798269248884535,-0.010352478136181783,-0.06673196269785676,0,70,255.0,255.0,255.0
197,9.850000000000001,7.7447106030451085,9.971775217154411,-3.5785674934684657,0.04833801888559334,-0.10376140831002274,-0.7039982275050394,0.004159652220312517,-0.010109834975130176,-0.0659336438280114,0,70,255.0,255.0,255.0
198,9.9,7.74713240348187,9.966574610546507,-3.613849489265639,0.04852799712899456,-0.10426083397975294,-0.7072749517246939,0.0034394775157366056,-0.009867191814078578,-0.06513532495816604,0,70,255.0,255.0,255.0
199,9.950000000000001,7.749562802612422,9.96134933595907,-3.64929432337521,0.048681966637167,-0.1047481274914306,-0.710511760000856,0.002719302811160669,-0.009624548653026971,-0.06433700608832067,0,70,255.0,255.0,255.0
200,10.0,7.752,9.9561,-3.6849,0.04879992741011063,-0.10522328884505563,-0.7137086523335258,0.0019991281065847577,-0.009381905491974818,-0.06353868721847267,0,70,255.0,255.0,255.0
201,10.05,7.754442795643792,9.950827100229944,-3.7206647539992277,0.04891790560462814,-0.10569286087586732,-0.7168794681061493,0.0027199996741152357,-0.009400975740492213,-0.06329394368646764,0,70,255.0,255.0,255.0
202,10.100000000000001,7.756892391286769,9.945530698020539,-3.756587742857673,0.04907192737752216,-0.10616338641910487,-0.7200380467021726,0.0034408712416457137,-0.009420045989009607,-0.0630492001544626,0,70,255.0,255.0,255.0
203,10.15,7.759350589107851,9.94021074569616,-3.792668354716502,0.049261992728792704,-0.10663486547476826,-0.7231843881215955,0.004161742809176167,-0.009439116237527,-0.06280445662245757,0,70,255.0,255.0,255.0
204,10.200000000000001,7.761819191285954,9.93486719558119,-3.828905977716888,0.04948810165843978,-0.10710729804285757,-0.7263184923644184,0.004882614376706644,-0.009458186486044396,-0.06255971309045254,0,70,255.0,255.0,255.0
205,10.25,7.7643,9.9295,-3.8653,0.04975025416646337,-0.1075806841233727,-0.7294403594306407,0.005603485944237263,-0.009477256734561235,-0.06231496955844662,0,70,255.0,255.0,255.0
206,10.3,7.7667944156859345,9.924109049905343,-3.9018498522222296,0.05002434567453605,-0.10805870601427789,-0.7325525402335095,0.005360174378669654,-0.009643618901646247,-0.062172262556301656,0,70,255.0,255.0,255.0
207,10.350000000000001,7.769302231807816,9.918693990763433,-3.9385551351008505,0.05028627160433034,-0.10854504601353733,-0.7356575856862709,0.0051168628131020456,-0.00980998106873126,-0.0620295555541567,0,70,255.0,255.0,255.0
208,10.4,7.77182284008673,9.913254406668852,-3.975415491868355,0.05053603195584625,-0.10903970412115101,-0.7387554957889251,0.004873551247534445,-0.009976343235816266,-0.06188684855201174,0,70,255.0,255.0,255.0
209,10.450000000000001,7.774355632243763,9.907789881716178,-4.01243056575724,0.05077362672908378,-0.10954268033711896,-0.741846270541472,0.004630239681966836,-0.010142705402901278,-0.06174414154986678,0,70,255.0,255.0,255.0
210,10.5,7.7769,9.9023,-4.0496,0.05099905592404293,-0.11005397466144114,-0.7449299099439118,0.00438692811639918,-0.010309067569986285,-0.061601434547720935,0,70,255.0,255.0,255.0
211,10.55,7.779455541612471,9.896784700148682,-4.086923837111855,0.05122471169723139,-0.11055231506701818,-0.7480303709598128,0.004639302811139138,-0.009624548653095002,-0.06241700608831434,0,70,255.0,255.0,255.0
212,10.600000000000001,7.782022681481969,9.891245338925728,-4.124403716738933,0.05146298620515685,-0.11101642952675064,-0.7511716105527434,0.004891677505879096,-0.008940029736203716,-0.06323257762890774,0,70,255.0,255.0,255.0
213,10.65,7.7846020505452325,9.885683627628437,-4.16204167781008,0.05171387944781929,-0.11144631804063854,-0.7543536287227035,0.0051440522006190445,-0.008255510819312457,-0.06404814916950113,0,70,255.0,255.0,255.0
214,10.700000000000001,7.787194279738997,9.880101277554095,-4.199839759254154,0.05197739142521875,-0.11184198060868189,-0.7575764254696934,0.0053964268953590015,-0.0075709919024211725,-0.06486372071009454,0,70,255.0,255.0,255.0
215,10.75,7.7898,9.8745,-4.2378,0.0522535221373552,-0.11220341723088066,-0.7608400007937131,0.005648801590099117,-0.006886472985530134,-0.0656792922506888,0,70,255.0,255.0,255.0
216,10.8,7.792419417864182,9.868880949499932,-4.2759235993303495,0.052516807536526204,-0.11256403371766843,-0.7640939759272415,0.004882614376740868,-0.007538186485980467,-0.06447971309044716,0,70,255.0,255.0,255.0
217,10.850000000000001,7.795051042264308,9.86324305353365,-4.314208397943426,0.052741783575029295,-0.11295723587947873,-0.7672879721027579,0.004116427163382619,-0.0081898999864308,-0.06328013393020551,0,70,255.0,255.0,255.0
218,10.9,7.797692957732341,9.857584682817402,-4.352651396891325,0.05292845025286446,-0.1133830237163115,-0.770421989320262,0.0033502399500243973,-0.00884161348688111,-0.062080554769963915,0,70,255.0,255.0,255.0
219,10.950000000000001,7.8003432488002495,9.851904208067435,-4.391249597226151,0.05307680757003173,-0.11384139722816683,-0.7734960275797542,0.0025840527366661485,-0.009493326987331444,-0.060880975609722277,0,70,255.0,255.0,255.0
220,11.0,7.803,9.8462,-4.43,0.05318685552653109,-0.11433235641504465,-0.7765100868812342,0.0018178655233079821,-0.010145040487781531,-0.05968139644947712,0,70,255.0,255.0,255.0
221,11.05,7.805661986930797,9.840470701851588,-4.468900165566749,0.05330005815666307,-0.11483955006231172,-0.7794977253312182,0.0027102396819712288,-0.010142705402901141,-0.05982414154987836,0,70,255.0,255.0,255.0
222,11.100000000000001,7.808330749460798,9.834716046939672,-4.507949891487373,0.05345787949472822,-0.11534662695533476,-0.7824925010362221,0.0036026138406344754,-0.010140370318020753,-0.05996688665027961,0,70,255.0,255.0,255.0
223,11.15,7.811008518525402,9.82893604110196,-4.54714953462462,0.05366031954072652,-0.1158535870941138,-0.7854944139962461,0.00449498799929769,-0.010138035233140363,-0.06010963175068085,0,70,255.0,255.0,255.0
224,11.200000000000001,7.813697525060004,9.823130690176164,-4.586499451841248,0.053907378294657984,-0.11636043047864882,-0.7885034642112903,0.005387362157960937,-0.010135700148259975,-0.06025237685108209,0,70,255.0,255.0,255.0
225,11.25,7.8164,9.8173,-4.626,0.05419905575652261,-0.11686715710893979,-0.7915196516813542,0.006279736316624429,-0.010133365063379807,-0.060395121951477115,0,70,255.0,255.0,255.0
226,11.3,7.819117434412629,9.811444243093707,-4.665651738402658,0.05449095983682178,-0.11735776603308472,-0.7945551227478933,0.0053964268953420975,-0.009490991902416925,-0.06102372071008607,0,70,255.0,255.0,255.0
227,11.350000000000001,7.821848359892497,9.805564758707659,-4.7054560361070905,0.054738698446056826,-0.1178162562991815,-0.7976220237523628,0.004513117474059766,-0.008848618741454043,-0.061652319468695024,0,70,255.0,255.0,255.0
228,11.4,7.824590568166051,9.799663152774757,-4.745414464610192,0.05494227158422776,-0.11824262790723011,-0.8007203546947629,0.003629808052777466,-0.008206245580491186,-0.06228091822730395,0,70,255.0,255.0,255.0
229,11.450000000000001,7.827341850959736,9.793741031227901,-4.785528595408865,0.05510167925133457,-0.11863688085723062,-0.8038501155750932,0.0027464986314951344,-0.007563872419528304,-0.0629095169859129,0,70,255.0,255.0,255.0
230,11.5,7.8301,9.7878,-4.8258,0.05521692144737727,-0.11899901514918296,-0.8070113063933542,0.0018631892102127234,-0.0069214992585655555,-0.06353811574451917,0,70,255.0,255.0,255.0
231,11.55,7.8328634754186846,9.78184112577358,-4.866229680822626,0.05532810249604967,-0.11936138580533134,-0.8101697836772096,0.0025840527366831835,-0.007573326987369865,-0.06280097560969898,0,70,255.0,255.0,255.0
232,11.600000000000001,7.83563341096921,9.775863318229693,-4.906816364084277,0.0554753267210456,-0.11975634784791996,-0.8132914039543242,0.0033049162631536436,-0.008225154716174174,-0.062063835474878794,0,70,255.0,255.0,255.0
233,11.65,7.838411608810395,9.769864947799014,-4.9475582069346125,0.055658594122365034,-0.12018390127694877,-0.8163761672246975,0.004025779789624078,-0.008876982444978459,-0.06132669534005863,0,70,255.0,255.0,255.0
234,11.700000000000001,7.841199871101052,9.763844384912225,-4.9884533665232995,0.055877904700008,-0.1206440460924178,-0.81942407348833,0.004746643316094539,-0.009528810173782768,-0.06058955520523844,0,70,255.0,255.0,255.0
235,11.75,7.844,9.7578,-5.0295,0.05613325845397448,-0.12113678229432703,-0.8224351227452213,0.005467506842565084,-0.010180637902587053,-0.05985241507041472,0,70,255.0,255.0,255.0
236,11.8,7.846813463912634,9.75173045381197,-5.070696738306841,0.05640463017898721,-0.12164469074559822,-0.8254377425432596,0.005387362157944074,-0.01013570014826004,-0.060252376851112295,0,70,255.0,255.0,255.0
237,11.850000000000001,7.8496403962306625,9.745635568373569,-5.1120441075558105,0.056671994669768896,-0.12215035230915305,-0.8284603604303327,0.005307217473323065,-0.010090762393933026,-0.06065233863180987,0,70,255.0,255.0,255.0
238,11.9,7.852480596592373,9.739515456029181,-5.153543107651358,0.05693535192631952,-0.12265376698499152,-0.8315029764064404,0.005227072788702058,-0.010045824639606016,-0.06105230041250742,0,70,255.0,255.0,255.0
239,11.950000000000001,7.855333864636057,9.733370229123198,-5.195194738497938,0.0571947019486391,-0.12315493477311365,-0.8345655904715834,0.005146928104081048,-0.010000886885279002,-0.061452262193204994,0,70,255.0,255.0,255.0
240,12.0,7.8582,9.7272,-5.237,0.05745004473672762,-0.12365385567351943,-0.8376482026257609,0.00506678341945993,-0.00995594913095188,-0.06185222397389989,0,70,255.0,255.0,255.0
241,12.05,7.861078668930782,9.72100505897854,-5.278959365950011,0.057693376788001384,-0.12413985121228047,-0.840719246149756,0.004666498631490562,-0.00948387241948973,-0.060989516985899946,0,70,255.0,255.0,255.0
242,12.100000000000001,7.863969004108144,9.714786408276032,-5.321071205692487,0.05791669459987669,-0.12460224291546841,-0.843747154324351,0.0042662138435211935,-0.009011795708027579,-0.06012680999790001,0,70,255.0,255.0,255.0
243,12.15,7.866870004820114,9.708545228084253,-5.363333362459956,0.058119998172353506,-0.12504103078308323,-0.8467319271495459,0.0038659290555518393,-0.008539718996565445,-0.0592641030099001,0,70,255.0,255.0,255.0
244,12.200000000000001,7.8697806703547215,9.702282698594981,-5.40574367948495,0.058303287505431865,-0.12545621481512495,-0.8496735646253409,0.003465644267582471,-0.008067642285103295,-0.05840139602190016,0,70,255.0,255.0,255.0
245,12.25,7.8727,9.696,-5.4483,0.05846656259911175,-0.12584779501159354,-0.8525720667517358,0.0030653594796131167,-0.007595565573641938,-0.057538689033892254,0,70,255.0,255.0,255.0
246,12.3,7.875627060364237,9.68969811027387,-5.491000997893118,0.058613862669004986,-0.12622790440527928,-0.8554772728577137,0.002826643316116114,-0.007608810173787628,-0.05866955520522234,0,70,255.0,255.0,255.0
247,12.350000000000001,7.878561187336765,9.683377198522306,-5.533848669674249,0.05874922693072337,-0.12660867602897233,-0.8584390222722582,0.0025879271526191116,-0.007622054773933318,-0.05980042137655243,0,70,255.0,255.0,255.0
248,12.4,7.881501784127173,9.677037231633806,-5.57684584250882,0.0588726553842669,-0.1269901098826726,-0.8614573149953689,0.0023492109891221176,-0.007635299374079008,-0.06093128754788247,0,70,255.0,255.0,255.0
249,12.450000000000001,7.884448253945055,9.670678176496871,-5.619995343562262,0.05898414802963558,-0.12737220596638021,-0.8645321510270463,0.002110494825625115,-0.007648543974224698,-0.06206215371921256,0,70,255.0,255.0,255.0
250,12.5,7.8874,9.6643,-5.6633,0.0590837048668294,-0.1277549642800951,-0.8676635303672902,0.0018717786621276211,-0.007661788574370609,-0.0631930198905426,0,70,255.0,255.0,255.0
251,12.55,7.89035708961227,9.657902499925983,-5.706761442477521,0.0592111725359843,-0.1281485311665873,-0.8707796624193848,0.00322692810406828,-0.008080886885317412,-0.06145226219323907,0,70,255.0,255.0,255.0
252,12.600000000000001,7.893322246544801,9.651484797634751,-5.750376515610525,0.05940639767723623,-0.12856305296862686,-0.8738087565866142,0.004582077546008939,-0.008499985196264215,-0.059711504495935534,0,70,255.0,255.0,255.0
253,12.65,7.896298858671195,9.645045845380526,-5.794140867504767,0.05966938029058519,-0.12899852968621375,-0.8767508128689783,0.00593722698794955,-0.008919083507211004,-0.05797074679863207,0,70,255.0,255.0,255.0
254,12.700000000000001,7.89929031386506,9.638584595417537,-5.838050146266008,0.06000012037603118,-0.12945496131934794,-0.8796058312664773,0.007292376429890208,-0.009338181818157806,-0.05622998910132854,0,70,255.0,255.0,255.0
255,12.75,7.9023,9.6321,-5.8821,0.06039861793357421,-0.1299323478680295,-0.8823738117791111,0.008647525871831097,-0.009757280129104595,-0.05448923140402151,0,70,255.0,255.0,255.0
256,12.8,7.905330181186684,9.625591090022205,-5.926287632196802,0.06079744718705934,-0.1304259709283846,-0.8851480774647583,0.007305644267573689,-0.009987642285099033,-0.05648139602186542,0,70,255.0,255.0,255.0
257,12.850000000000001,7.908378626484037,9.619057210938697,-5.9706164678836595,0.061129182360331595,-0.13093111209653943,-0.8880219513812978,0.00596376266331628,-0.010218004441093472,-0.058473560639709335,0,70,255.0,255.0,255.0
258,12.9,7.911441981188046,9.612497786844088,-6.015091487472113,0.06139382345339097,-0.13144777137249394,-0.8909954335287292,0.0046218810590589205,-0.0104483665970879,-0.06046572525755317,0,70,255.0,255.0,255.0
259,12.950000000000001,7.9145168905947045,9.605912241832984,-6.059717671373712,0.06159137046623748,-0.1319759487562482,-0.894068523907053,0.003279999454801512,-0.010678728753082338,-0.062457889875397084,0,70,255.0,255.0,255.0
260,13.0,7.9176,9.5993,-6.1045,0.06172182339887112,-0.13251564424780216,-0.8972412225162689,0.001938117850544152,-0.010909090909075658,-0.06445005449324093,0,70,255.0,255.0,255.0
261,13.05,7.920688585640996,9.592661139985195,-6.149441628735274,0.06182303871577534,-0.13302758511988372,-0.9004040277215803,0.0021104948256248338,-0.009568543974186008,-0.06206215371921321,0,70,255.0,255.0,255.0
262,13.100000000000001,7.9237824475190575,9.585998358610455,-6.194538412854848,0.06193287288143361,-0.1334724986452208,-0.9034474378881903,0.0022828718007055155,-0.008227997039296359,-0.05967425294518549,0,70,255.0,255.0,255.0
263,13.15,7.926882016576619,9.579315007243121,-6.239784382606782,0.062051325895845895,-0.13385038482381334,-0.9063714530160989,0.0024552487757861906,-0.006887450104406757,-0.05728635217115786,0,70,255.0,255.0,255.0
264,13.200000000000001,7.929987723756121,9.57261443725052,-6.285173568239146,0.062178397759012224,-0.13416124365566146,-0.9091760731053061,0.0026276257508668723,-0.005546903169517108,-0.054898451397130135,0,70,255.0,255.0,255.0
265,13.25,7.9331,9.5659,-6.3307,0.062314088470932574,-0.13440507514076508,-0.911861298155812,0.0028000027259474924,-0.004206356234627284,-0.05251055062309984,0,70,255.0,255.0,255.0
266,13.3,7.93621947624933,9.559173950037009,-6.376359452862103,0.06247039794982917,-0.13464768859208492,-0.9145318116489228,0.0034523764299163465,-0.005498181818166766,-0.05430998910133005,0,70,255.0,255.0,255.0
267,13.350000000000001,7.939347583439736,9.55243415461947,-6.422154680696959,0.06265932611392422,-0.13495489332258176,-0.9172922970659451,0.0041047501338852006,-0.006790007401706247,-0.056109427579560264,0,70,255.0,255.0,255.0
268,13.4,7.942485952505476,9.54567738418343,-6.468090182100763,0.06288087296321768,-0.13532668933225556,-0.9201427544068788,0.004757123837854031,-0.008081832985245683,-0.057908866057790415,0,70,255.0,255.0,255.0
269,13.450000000000001,7.94563621438081,9.538900409164926,-6.514170455669712,0.06313503849770961,-0.13576307662110632,-0.923083183671724,0.005409497541822886,-0.009373658568785165,-0.05970830453602062,0,70,255.0,255.0,255.0
270,13.5,7.9488,9.5321,-6.5604,0.06342182271739998,-0.13626405518913404,-0.9261135848604808,0.006061871245791939,-0.01066548415232349,-0.06150774301424722,0,70,255.0,255.0,255.0
271,13.55,7.9519783093616825,9.52527345986677,-6.6067821598163174,0.06370336948491472,-0.13679766051176917,-0.929164725682722,0.005199999454797154,-0.01067872875308149,-0.06053788987540062,0,70,255.0,255.0,255.0
272,13.600000000000001,7.955169618722,9.518420222911656,-6.653315664357324,0.0639418226628797,-0.13733192806444222,-0.932167373848021,0.004338127663802369,-0.010691973353839491,-0.05956803673655402,0,70,255.0,255.0,255.0
273,13.65,7.958371773401478,9.511540256023158,-6.699998088990171,0.06413718225129494,-0.1378668578471531,-0.9351215293563774,0.003476255872807615,-0.01070521795459749,-0.058598183597707444,0,70,255.0,255.0,255.0
274,13.700000000000001,7.961582618720636,9.504633526089775,-6.746827009082013,0.06428944825016045,-0.13840244985990194,-0.9380271922077916,0.00261438408181283,-0.01071846255535549,-0.057628330458860844,0,70,255.0,255.0,255.0
275,13.75,7.9648,9.4977,-6.7938,0.06439862065947624,-0.13893870410268866,-0.9408843624022634,0.0017525122908186308,-0.010731707156113046,-0.05665847732001339,0,70,255.0,255.0,255.0
276,13.8,7.968022486303946,9.490740210495915,-6.84091510787263,0.06450812411051753,-0.13944166936083005,-0.9437212856201924,0.0026276257508328306,-0.009386903169542363,-0.05681845139714312,0,70,255.0,255.0,255.0
277,13.850000000000001,7.971251541672269,9.483756953733906,-6.888172261873752,0.06466138323455953,-0.13987739441964292,-0.9465662075419777,0.0035027392108470303,-0.00804209918297168,-0.056978425474272856,0,70,255.0,255.0,255.0
278,13.9,7.974489353888619,9.47675359172394,-6.935571861938558,0.06485839803160223,-0.1402458792791272,-0.9494191281676196,0.0043778526708612,-0.0066972951964010445,-0.05713839955140259,0,70,255.0,255.0,255.0
279,13.950000000000001,7.977738110736646,9.469733486475983,-6.983114308002244,0.06509916850164565,-0.140547123939283,-0.9522800474971179,0.005252966130875399,-0.0053524912098303614,-0.05729837362853232,0,70,255.0,255.0,255.0
280,14.0,7.981,9.4627,-7.0308,0.06538369464468978,-0.14078112840011026,-0.9551489655304728,0.006128079590889901,-0.00400768722326017,-0.0574583477056585,0,70,255.0,255.0,255.0
281,14.05,7.984276545422536,9.455655298149571,-7.0786294086931685,0.06567213407300802,-0.14101966204491076,-0.958030131836514,0.005409497541839959,-0.005533658568759691,-0.057788304535988294,0,70,255.0,255.0,255.0
282,14.100000000000001,7.987566614588927,9.448596762152722,-7.126603288147678,0.06592464439887379,-0.14133449425698624,-0.9609277959840716,0.0046909154927900175,-0.007059629914259212,-0.05811826136631809,0,70,255.0,255.0,255.0
283,14.15,7.990868411044049,9.441520577081086,-7.174722463255602,0.06614122562228704,-0.14172562503633665,-0.9638419579731459,0.003972333443740101,-0.008585601259758678,-0.058448218196647875,0,70,255.0,255.0,255.0
284,14.200000000000001,7.994180138332781,9.4344229280063,-7.222987758909018,0.0663218777432478,-0.1421930543829621,-0.9667726178037365,0.0032537513946901586,-0.0101115726052582,-0.05877817502697767,0,70,255.0,255.0,255.0
285,14.25,7.9975,9.4273,-7.2714,0.06646660076175603,-0.1427367822968625,-0.9697197754758434,0.0025351693456399094,-0.01163754395075789,-0.05910813185730479,0,70,255.0,255.0,255.0
286,14.3,8.00082653200591,9.420148996905802,-7.319959257354698,0.06659533959744321,-0.1432956824595162,-0.972638187033748,0.002614384081847111,-0.010718462555389273,-0.057628330458877185,0,70,255.0,255.0,255.0
287,14.350000000000001,8.004159599972024,9.412971197655212,-7.368662585535544,0.06672803916994074,-0.14380862855240145,-0.9754826085217313,0.0026935988180543124,-0.009799381160020656,-0.056148529060449585,0,70,255.0,255.0,255.0
288,14.4,8.007499401935185,9.405768899951724,-7.41750628503904,0.06686469947924864,-0.14427562057551827,-0.978253039939793,0.002772813554261511,-0.008880299764652072,-0.054668727662022035,0,70,255.0,255.0,255.0
289,14.450000000000001,8.01084613593223,9.398544401498825,-7.466486656361692,0.0670053205253669,-0.14469665852886665,-0.9809494812879334,0.002852028290468713,-0.007961218369283454,-0.05318892626359443,0,70,255.0,255.0,255.0
290,14.5,8.0142,9.3913,-7.5156,0.06714990230829551,-0.1450717424124466,-0.9835719325661525,0.0029312430266761336,-0.007042136973914426,-0.05170912486516954,0,70,255.0,255.0,255.0
291,14.55,8.017561326553826,9.384037514227227,-7.564843961888041,0.06730650753723356,-0.14542960811704012,-0.9862011200284954,0.00333296613084611,-0.007272491209825874,-0.05345837362854094,0,70,255.0,255.0,255.0
292,14.600000000000001,8.020930985522979,9.376756847226432,-7.614221569710154,0.06748319892138013,-0.1457989915334292,-0.9889177699290067,0.0037346892350160867,-0.007502845445737323,-0.055207622391912334,0,70,255.0,255.0,255.0
293,14.65,8.024309981215216,9.369457423112022,-7.663737196588245,0.06767997646073518,-0.14617989266161385,-0.9917218822676865,0.004136412339186049,-0.007733199681648763,-0.05695687115528366,0,70,255.0,255.0,255.0
294,14.700000000000001,8.027699317938305,9.362138665998408,-7.7133952156442245,0.06789684015529873,-0.14657231150159408,-0.994613457044535,0.004538135443356026,-0.007963553917560212,-0.058706119918655056,0,70,255.0,255.0,255.0
295,14.75,8.0311,9.3548,-7.7632,0.06813379000507079,-0.14697624805336987,-0.997592494259552,0.004939858547526099,-0.008193908153470764,-0.06045536868202461,0,70,255.0,255.0,255.0
296,14.8,8.034512961778791,9.347440946185284,-7.8131544950931415,0.06838663025362522,-0.14738588507233652,-1.0005733328522766,0.005173751394651331,-0.008191572605194385,-0.058778175026957744,0,70,255.0,255.0,255.0
297,14.850000000000001,8.037938857936068,9.340061413439056,-7.86325593562385,0.06865116514453594,-0.14779540531388932,-1.0034703117622479,0.005407644241776561,-0.008189237056918009,-0.057100981371890874,0,70,255.0,255.0,255.0
298,14.9,8.04137827320395,9.332661407600185,-7.9135001286079865,0.06892739467780289,-0.1482048087780283,-1.0062834309894657,0.005641537088901784,-0.00818690150864163,-0.05542378771682407,0,70,255.0,255.0,255.0
299,14.950000000000001,8.044831792314556,9.325240934507542,-7.9638828810614175,0.0692153188534261,-0.1486140954647535,-1.0090126905339303,0.005875429936027015,-0.008184565960365254,-0.0537465940617572,0,70,255.0,255.0,255.0
300,15.0,8.0483,9.3178,-8.0144,0.06951493767140558,-0.14902326537406485,-1.0116580903956411,0.006109322783152238,-0.00818223041208821,-0.05206940040668506,0,70,255.0,255.0,255.0
301,15.05,8.05178282633101,9.310338701031633,-8.065048457739397,0.06978697144824728,-0.14942685159359997,-1.0142895485623982,0.004772028290515443,-0.007961218369317177,-0.053188926263595365,0,70,255.0,255.0,255.0
302,15.100000000000001,8.055277582732746,9.302857499017342,-8.115829887794456,0.06999214050045713,-0.14981938721099658,-1.0169769830220008,0.0034347337978786483,-0.007740206326546145,-0.05430845212050567,0,70,255.0,255.0,255.0
303,15.15,8.058780925968977,9.295356946487237,-8.166747088979811,0.07013044482803514,-0.1502008722262546,-1.0197203937744488,0.0020974393052419008,-0.00751919428377512,-0.05542797797741593,0,70,255.0,255.0,255.0
304,15.200000000000001,8.062289512803474,9.287837595971421,-8.217802860110114,0.07020188443098133,-0.15057130663937407,-1.0225197808197424,0.0007601448126051064,-0.007298182241004088,-0.05654750383432623,0,70,255.0,255.0,255.0
305,15.25,8.0658,9.2803,-8.269,0.07020645930929566,-0.15093069045035504,-1.0253751441578813,-0.0005771496800318632,-0.0070771701982328405,-0.05766702969123294,0,70,255.0,255.0,255.0
306,15.3,8.069310132897165,9.272744249688184,-8.32034047394927,0.07020948395337899,-0.1513067085532507,-1.028236472898129,0.0006981354433650069,-0.007963553917593881,-0.05678611991867547,0,70,255.0,255.0,255.0
307,15.350000000000001,8.07282201113294,9.265168590491575,-8.371822913198338,0.07027627285363215,-0.15172704584211444,-1.0310537561497488,0.001973420566761877,-0.008849937636954922,-0.055905210146117996,0,70,255.0,255.0,255.0
308,15.4,8.07633882292013,9.257570806450875,-8.423445115472768,0.07040682601005517,-0.1521917023169462,-1.033826993912741,0.003248705690158702,-0.00973632135631593,-0.055024300373560556,0,70,255.0,255.0,255.0
309,15.450000000000001,8.079863756471548,9.249948681606782,-8.475204878498136,0.07060114342264803,-0.15270067797774603,-1.0365561861871049,0.004523990813555572,-0.010622705075676971,-0.05414339060100309,0,70,255.0,255.0,255.0
310,15.5,8.0834,9.2423,-8.5271,0.07085922509141072,-0.1532539728245139,-1.0392413329728412,0.005799275936952397,-0.01150908879503798,-0.053262480828442094,0,70,255.0,255.0,255.0
311,15.55,8.086950242080324,9.234623500215628,-8.579128846463528,0.07115109273823521,-0.15379431419339887,-1.0419165598450957,0.005875429936027056,-0.010104565960360669,-0.053746594061736284,0,70,255.0,255.0,255.0
312,15.600000000000001,8.090515172735488,9.226921739016356,-8.631292059412205,0.07144676808501345,-0.15426442942054996,-1.0446159923790148,0.005951583935101714,-0.008700043125683359,-0.05423070729503047,0,70,255.0,255.0,255.0
313,15.65,8.09409498235049,9.219198227709269,-8.683590849129123,0.07174625113174538,-0.1546643185059672,-1.0473396305745986,0.00602773793417637,-0.0072955202910060975,-0.05471482052832464,0,70,255.0,255.0,255.0
314,15.700000000000001,8.09768986131033,9.211456477601455,-8.73602642589736,0.07204954187843107,-0.1549939814496506,-1.0500874744318474,0.006103891933251029,-0.005890997456328787,-0.05519893376161883,0,70,255.0,255.0,255.0
315,15.75,8.1013,9.2037,-8.7886,0.07235664032507048,-0.15525341825160008,-1.0528595239507603,0.00618004593232524,-0.004486474621651526,-0.05568304699490767,0,70,255.0,255.0,255.0
316,15.8,8.104924898781535,9.195931349449301,-8.841312140196633,0.07262614509369351,-0.15550003467316573,-1.0556172877214904,0.004600144812595896,-0.005378182240974518,-0.05462750383429479,0,70,255.0,255.0,255.0
317,15.850000000000001,8.108561297925103,9.188149253443001,-8.89416084915285,0.07281665480633008,-0.15579123647569754,-1.0583222743341898,0.003020243692866553,-0.006269889860297509,-0.0535719606736819,0,70,255.0,255.0,255.0
318,15.9,8.112205247677903,9.180351482712048,-8.947143488010752,0.07292816946298017,-0.15612702365919548,-1.0609744837888586,0.001440342573137265,-0.007161597479620469,-0.05251641751306905,0,70,255.0,255.0,255.0
319,15.950000000000001,8.115852798287134,9.172535807987396,-9.000257417912437,0.0729606890636438,-0.15650739622365958,-1.0635739160854967,-0.00013955854659207859,-0.008053305098943461,-0.051460874352456165,0,70,255.0,255.0,255.0
320,16.0,8.1195,9.1647,-9.0535,0.07291421360832097,-0.15693235416908982,-1.0661205712241042,-0.0017194596663215878,-0.008945012718265088,-0.05040533119184687,0,70,255.0,255.0,255.0
321,16.05,8.123144562793534,9.156842301987167,-9.106869792749949,0.07288832688700118,-0.15737354711393847,-1.0686862892689266,0.0006839908135304225,-0.00870270507568089,-0.05222339060104278,0,70,255.0,255.0,255.0
322,16.1,8.126790835564101,9.14896284721164,-9.160370143976401,0.07298261268967401,-0.15780262467665793,-1.0713429102842085,0.0030874412933824327,-0.008460397433096694,-0.05404145001023868,0,70,255.0,255.0,255.0
323,16.150000000000002,8.1304448269379,9.141062241442535,-9.21400559882788,0.07319707101633943,-0.15821958685724816,-1.0740904342699504,0.005490891773234444,-0.008218089790512495,-0.05585950941943459,0,70,255.0,255.0,255.0
324,16.2,8.134112545541134,9.133141090448953,-9.267780702452903,0.07353170186699744,-0.15862443365570916,-1.0769288612261518,0.007894342253086283,-0.007975782147928316,-0.05767756882863037,0,70,255.0,255.0,255.0
325,16.25,8.1378,9.1252,-9.3217,0.07398650524164807,-0.15901716507204094,-1.0798581911528131,0.010297792732938404,-0.007733474505343452,-0.0594956282378174,0,70,255.0,255.0,255.0
326,16.3,8.141511250044333,9.117239442602035,-9.375766288803574,0.0744445473583027,-0.15940577687108265,-1.0827735552027997,0.008023891933246364,-0.0078109974563244765,-0.057118933761642024,0,70,255.0,255.0,255.0
327,16.35,8.145242559818497,9.109259357710432,-9.42997537494155,0.07478889443497272,-0.15979826481767342,-1.0855700845289773,0.005749991133554324,-0.007888520407305501,-0.05474223928546664,0,70,255.0,255.0,255.0
328,16.400000000000002,8.148988244570498,9.101259551517812,-9.484321316677743,0.07501954647165815,-0.16019462891181319,-1.0882477791313465,0.0034760903338622836,-0.007966043358286526,-0.052365544809291266,0,70,255.0,255.0,255.0
329,16.45,8.152742619548329,9.093239830216792,-9.538798172275953,0.07513650346835894,-0.16059486915350205,-1.0908066390099063,0.0012021895341704052,-0.008043566309267546,-0.04998885033311605,0,70,255.0,255.0,255.0
330,16.5,8.1565,9.0852,-9.5934,0.07513976542507515,-0.16099898554273995,-1.0932466641646579,-0.0010717112655215244,-0.008121089260248127,-0.047612155856940674,0,70,255.0,255.0,255.0
331,16.55,8.160256037029137,9.077139927604689,-9.648122652035761,0.07510948367977317,-0.16140334540171974,-1.0956754899198913,-0.00013955854655792524,-0.008053305098942863,-0.049540874352395674,0,70,255.0,255.0,255.0
332,16.6,8.164011725161908,9.069059721946628,-9.702969156257405,0.07512580957041935,-0.16180431605263423,-1.0982007515998975,0.0007925941724056739,-0.0079855209376376,-0.05146959284785067,0,70,255.0,255.0,255.0
333,16.650000000000002,8.16776939478011,9.060959552486226,-9.757944334461166,0.07518874309701373,-0.1622018974954835,-1.1008224492046765,0.0017247468913692728,-0.007917736776332337,-0.05339831134330568,0,70,255.0,255.0,255.0
334,16.7,8.171531376265543,9.05283958868388,-9.813053008443282,0.07529828425955627,-0.16259608973026746,-1.103540582734228,0.002656899610332806,-0.00784995261502708,-0.05532702983876054,0,70,255.0,255.0,255.0
335,16.75,8.1753,9.0447,-9.8683,0.07545443305804703,-0.16298689275698622,-1.1063551521885524,0.00358905232929696,-0.007782168453722038,-0.05725574833421909,0,70,255.0,255.0,255.0
336,16.8,8.179077401839116,9.03654084697921,-9.923688703053385,0.07564551792260683,-0.16338084152202834,-1.109180485117624,0.0040543422530955175,-0.007975782147962065,-0.05575756882863166,0,70,255.0,255.0,255.0
337,16.85,8.182864939533864,9.028361754503052,-9.97921680002884,0.07585986728335659,-0.16378447097178245,-1.1119309090714156,0.004519632176894075,-0.008169395842202092,-0.054259389323044215,0,70,255.0,255.0,255.0
338,16.900000000000002,8.186663776309054,9.020162238537287,-10.034880545477607,0.07609748114029626,-0.16419778110624855,-1.1146064240499283,0.004984922100692632,-0.008363009536442121,-0.05276120981745678,0,70,255.0,255.0,255.0
339,16.95,8.190475075389497,9.011941815047683,-10.09067619395091,0.07635835949342584,-0.16462077192542662,-1.1172070300531611,0.005450212024491157,-0.008556623230682134,-0.05126303031186945,0,70,255.0,255.0,255.0
340,17.0,8.1943,9.0037,-10.1466,0.07664250234274536,-0.16505344342931674,-1.1197327270811153,0.005915501948289936,-0.008750236924921717,-0.04976485080628379,0,70,255.0,255.0,255.0
341,17.05,8.1981391556144,8.995436684478468,-10.2026489357507,0.0769164446298058,-0.16547328851017148,-1.122226569609602,0.0050421895341272605,-0.008043566309267136,-0.04998885033318317,0,70,255.0,255.0,255.0
342,17.1,8.201990916702634,8.987153260041163,-10.258822843627232,0.07714672129615809,-0.16585780006024345,-1.1247316121144337,0.004168877119964585,-0.0073368956936125575,-0.05021284986008255,0,70,255.0,255.0,255.0
343,17.150000000000002,8.20585309998367,8.978851493364623,-10.315122283628416,0.07733333234180226,-0.16620697807953275,-1.1272478545956104,0.003295564705801908,-0.006630225077957977,-0.05043684938698193,0,70,255.0,255.0,255.0
344,17.2,8.20972352217647,8.97053315112539,-10.371547815753065,0.07747627776673828,-0.16652082256803924,-1.1297752970531316,0.0024222522916392945,-0.005923554462303447,-0.05066084891388129,0,70,255.0,255.0,255.0
345,17.25,8.2136,8.9622,-10.4281,0.07757555757096618,-0.16679933352576307,-1.132313939486998,0.0015489398774763963,-0.0052168838466479794,-0.05088484844077534,0,70,255.0,255.0,255.0
346,17.3,8.217481175703282,8.953853215106916,-10.484779553943817,0.07768070355816227,-0.16707800443730422,-1.134873236443985,0.002656899610367096,-0.005929952614997413,-0.05148702983870131,0,70,255.0,255.0,255.0
347,17.35,8.221368993655593,8.945491605332295,-10.541587825462233,0.07784124753200289,-0.1673923287872628,-1.1374626424708683,0.0037648593432577965,-0.006643021383346845,-0.052089211236627284,0,70,255.0,255.0,255.0
348,17.400000000000002,8.225266223756261,8.937113388004216,-10.59852632000874,0.07805718949248805,-0.1677423065756389,-1.1400821575676476,0.004872819076148496,-0.007356090151696279,-0.05269139263455325,0,70,255.0,255.0,255.0
349,17.45,8.229175635904621,8.928716780450758,-10.655596543036827,0.07832852943961773,-0.16812793780243243,-1.1427317817343237,0.005980778809039118,-0.008069158920045661,-0.053293574032479175,0,70,255.0,255.0,255.0
350,17.5,8.2331,8.9203,-10.7128,0.07865526737339197,-0.16854922246764342,-1.1454115149708957,0.007088738541929707,-0.008782227688393984,-0.0538957554304087,0,70,255.0,255.0,255.0
351,17.55,8.237040941572467,8.911861655093864,-10.770137648474032,0.0789687411375525,-0.16898269374061947,-1.1480884846144526,0.005450212024491162,-0.008556623230647717,-0.05318303031186921,0,70,255.0,255.0,255.0
352,17.6,8.24099550867499,8.903401918629651,-10.827608254523849,0.07920028857584109,-0.16940488479070823,-1.1507298180020826,0.0038116855070526178,-0.008331018772901449,-0.052470305193329715,0,70,255.0,255.0,255.0
353,17.650000000000002,8.244959604991285,8.894921354618509,-10.885210036336645,0.07934990968825777,-0.1698157956179096,-1.1533355151337858,0.0021731589896140735,-0.008105414315155181,-0.05175758007479023,0,70,255.0,255.0,255.0
354,17.7,8.248929134205051,8.886420527071575,-10.942941212099626,0.07941760447480249,-0.17021542622222371,-1.1559055760095616,0.000534632472175646,-0.007879809857408928,-0.05104485495625078,0,70,255.0,255.0,255.0
355,17.75,8.2529,8.8779,-11.0008,0.07940337293547534,-0.17060377660365048,-1.1584400006294107,-0.0011038940452627877,-0.007654205399661995,-0.05033212983771129,0,70,255.0,255.0,255.0
356,17.8,8.256869458006857,8.869360164517625,-11.05878505216005,0.079388331891634,-0.17099122060020033,-1.1609648250982012,0.0005022522916095845,-0.007843554462332805,-0.050660848913911496,0,70,255.0,255.0,255.0
357,17.85,8.260840171644444,8.860800720149093,-11.116896756442385,0.0794535981646363,-0.17138813204988376,-1.1635060855208017,0.0021083986284819566,-0.008032903525003614,-0.05098956799011171,0,70,255.0,255.0,255.0
358,17.900000000000002,8.264816156278602,8.85222119352175,-11.175135934644695,0.07959917175448221,-0.17179451095270074,-1.1660637818972124,0.0037145449653543288,-0.008222252587674424,-0.05131828706631191,0,70,255.0,255.0,255.0
359,17.95,8.268801427275173,8.843621111262939,-11.233503408564669,0.07982505266117172,-0.1722103573086512,-1.168637914227433,0.005320691302226587,-0.008411601650345222,-0.051647006142512095,0,70,255.0,255.0,255.0
360,18.0,8.2728,8.835,-11.292,0.08013124088470487,-0.17263567111773526,-1.1712284825114636,0.006926837639098848,-0.008600950713016253,-0.05197572521871585,0,70,255.0,255.0,255.0
361,18.05,8.276814826400106,8.826357686835637,-11.35062614288577,0.08045393129590833,-0.17305242385856265,-1.1738122149927428,0.0059807788090390085,-0.008069158920079282,-0.051373574032452386,0,70,255.0,255.0,255.0
362,18.1,8.280844604747232,8.817695200773972,-11.40938071970662,0.08072931876560878,-0.1734425870097432,-1.1763658399147088,0.005034719978979169,-0.007537367127142309,-0.05077142284618892,0,70,255.0,255.0,255.0
363,18.150000000000002,8.284886969894309,8.80901387129449,-11.468262225084588,0.08095740329380625,-0.1738061605712769,-1.178889357277362,0.00408866114891933,-0.007005575334205338,-0.05016927165992546,0,70,255.0,255.0,255.0
364,18.2,8.288939556694254,8.800315027876673,-11.527269153641699,0.0811381848805007,-0.1741431445431637,-1.1813827670807013,0.0031426023188595577,-0.006473783541268404,-0.04956712047366204,0,70,255.0,255.0,255.0
365,18.25,8.293,8.7916,-11.5864,0.08127166352569219,-0.1744535389254037,-1.183846069324728,0.002196543488799496,-0.005941991748330766,-0.04896496928740568,0,70,255.0,255.0,255.0
366,18.3,8.29706643639272,8.782869888139833,-11.645653576296874,0.08138794292471732,-0.17475108396554728,-1.1862983149308204,0.0024546324722053018,-0.005959809857412824,-0.049124854956291486,0,70,255.0,255.0,255.0
367,18.35,8.301139009366624,8.774124876755021,-11.70502996473114,0.08151712677291273,-0.17504951991114498,-1.1887585548203572,0.0027127214556111074,-0.005977627966494881,-0.0492847406251773,0,70,255.0,255.0,255.0
368,18.400000000000002,8.305218364144164,8.765364921300295,-11.76452956501697,0.08165921507027843,-0.17534884676219678,-1.1912267889933383,0.002970810439016913,-0.0059954460755769386,-0.049444626294063106,0,70,255.0,255.0,255.0
369,18.45,8.309305145947803,8.756589977230378,-11.824152776868528,0.08181420781681441,-0.17564906451870266,-1.1937030174497631,0.0032288994224227005,-0.006013264184658995,-0.049604511962948905,0,70,255.0,255.0,255.0
370,18.5,8.3134,8.7478,-11.8839,0.08198210501252069,-0.17595017318066267,-1.1961872401896332,0.003486988405828062,-0.006031082293740164,-0.04976439763183649,0,70,255.0,255.0,255.0
371,18.55,8.317503428029006,8.738994760605035,-11.943771551926737,0.08215429700522217,-0.17626324027926407,-1.1986745252839912,0.0034006913022309724,-0.0064916016503156,-0.049727006142482114,0,70,255.0,255.0,255.0
372,18.6,8.321615357786268,8.730173292205942,-12.003767421368826,0.08232217414274379,-0.17659933334569425,-1.2011599408038816,0.003314394198633883,-0.006952121006891034,-0.04968961465312773,0,70,255.0,255.0,255.0
373,18.650000000000002,8.325735573529027,8.721334443504334,-12.063887514847552,0.08248573642508557,-0.17695845237995317,-1.203643486749304,0.0032280970950367936,-0.0074126403634664694,-0.04965222316377336,0,70,255.0,255.0,255.0
374,18.7,8.329863859514525,8.712477063201817,-12.12413173888418,0.08264498385224747,-0.17734059738204086,-1.2061251631202587,0.00314179999143971,-0.007873159720041871,-0.04961483167441898,0,70,255.0,255.0,255.0
375,18.75,8.334,8.7036,-12.1845,0.08279991642422953,-0.17774576835195735,-1.2086049699167456,0.0030555028878426205,-0.008333679076616418,-0.04957744018506638,0,70,255.0,255.0,255.0
376,18.8,8.33814385149125,8.694702269440029,-12.24499221599619,0.08295486905439622,-0.17816395491740433,-1.2110835839332141,0.0031426023188254396,-0.008393783541263345,-0.04956712047366629,0,70,255.0,255.0,255.0
377,18.85,8.3422955594883,8.685783554421205,-12.305608349793564,0.08311417665611207,-0.1785851467060837,-1.2135616819641122,0.003229701749808258,-0.008453888005910272,-0.04955680076226621,0,70,255.0,255.0,255.0
378,18.900000000000002,8.34645534173972,8.676843704682366,-12.366348375592843,0.08327783922937705,-0.1790093437179954,-1.2160392640094406,0.0033168011807910773,-0.008513992470557199,-0.04954648105086612,0,70,255.0,255.0,255.0
379,18.95,8.350623415994097,8.667882569962352,-12.427212267594745,0.08344585677419118,-0.1794365459531394,-1.2185163300691988,0.00340390061177389,-0.008574096935204122,-0.049536161339466034,0,70,255.0,255.0,255.0
380,19.0,8.3548,8.6589,-12.4882,0.08361822929055446,-0.17986675341151576,-1.220992880143387,0.00349100004275682,-0.008634201399850827,-0.04952584162807128,0,70,255.0,255.0,255.0
381,19.05,8.358985166005988,8.649896161634846,-12.549311584088512,0.0837862267771848,-0.18028094005112838,-1.2234711389831627,0.0032288994224566065,-0.007933264184654377,-0.049604511962953526,0,70,255.0,255.0,255.0
382,19.1,8.363178404260534,8.640872490109231,-12.61054717945693,0.08394111923280012,-0.1806600798299812,-1.2259533313396824,0.002966798802156393,-0.007232326969457928,-0.049683182297835776,0,70,255.0,255.0,255.0
383,19.150000000000002,8.367379059512086,8.631830737766192,-12.671906982781094,0.08408290665740045,-0.1810041727480742,-1.2284394572129462,0.00270469818185618,-0.006531389754261477,-0.04976185263271802,0,70,255.0,255.0,255.0
384,19.200000000000003,8.37158647650909,8.62277265694877,-12.73339119073684,0.08421158905098575,-0.18131321880540738,-1.2309295166029541,0.0024425975615559666,-0.005830452539065028,-0.04984052296760027,0,70,255.0,255.0,255.0
385,19.25,8.3758,8.6137,-12.795,0.08432716641355603,-0.1815872180019807,-1.2334235095097064,0.0021804969412557718,-0.005129515323867739,-0.049919193302491394,0,70,255.0,255.0,255.0
386,19.3,8.38001948448479,8.60461388402058,-12.856733447649772,0.08446022383687342,-0.18186428487807854,-1.2359118601341292,0.0031417999914397,-0.005953159720045698,-0.04961483167442004,0,70,255.0,255.0,255.0
387,19.35,8.384246823469562,8.595512885141861,-12.918590932378724,0.0846413464127,-0.18218253397398526,-1.2383849926771484,0.0041031030416236285,-0.0067768041162236566,-0.04931047004634869,0,70,255.0,255.0,255.0
388,19.400000000000002,8.388484420211936,8.586394944252852,-12.980571693282796,0.08487053414103579,-0.1825419652897009,-1.240842907138764,0.005064406091807557,-0.007600448512401616,-0.049006108418277336,0,70,255.0,255.0,255.0
389,19.450000000000003,8.39273467796954,8.577258002242562,-13.042674969457911,0.08514778702188078,-0.18294257882522544,-1.2432856035189763,0.006025709141991485,-0.008424092908579574,-0.04870174679020599,0,70,255.0,255.0,255.0
390,19.5,8.397,8.5681,-13.1049,0.08547310505523491,-0.18338437458055884,-1.2457130818177846,0.006987012192175235,-0.009247737304756587,-0.04839738516214176,0,70,255.0,255.0,255.0
391,19.55,8.401281696054843,8.558919502282828,-13.167245825312417,0.08578087787533267,-0.18382992043655785,-1.248113420480325,0.0053239006117354205,-0.008574096935203713,-0.04761616133947263,0,70,255.0,255.0,255.0
392,19.6,8.405576701861218,8.549717569323319,-13.229710691028183,0.08600549511640845,-0.18424178427407922,-1.2504746979517318,0.0036607890312956052,-0.00790045656565084,-0.046834937516803496,0,70,255.0,255.0,255.0
393,19.650000000000002,8.409880859640168,8.540495885222393,-13.292292644087741,0.08614695677846224,-0.18461996609312295,-1.2527969142320055,0.001997677450855791,-0.007226816196097967,-0.04605371369413437,0,70,255.0,255.0,255.0
394,19.700000000000003,8.414190011612746,8.53125613408098,-13.354989731431532,0.08620526286149405,-0.18496446589368903,-1.2550800693211455,0.0003345658704159756,-0.006553175826545094,-0.04527248987146524,0,70,255.0,255.0,255.0
395,19.75,8.4185,8.522,-13.4178,0.08618041336550385,-0.18527528367577745,-1.257324163219152,-0.0013285457100234987,-0.0058795354569913805,-0.04449126604879794,0,70,255.0,255.0,255.0
396,19.8,8.422808131295834,8.512728906848105,-13.480722451100569,0.08616026466179227,-0.18556803337567884,-1.2595864579445617,0.0005225975615605935,-0.005830452539064534,-0.04600052296757797,0,70,255.0,255.0,255.0
397,19.85,8.427117569085572,8.503443237564865,-13.543759903508557,0.0862326731216599,-0.18585832892968393,-1.2619242155159098,0.0023737408331446857,-0.005781369621137687,-0.047509779886358,0,70,255.0,255.0,255.0
398,19.900000000000002,8.431432941227392,8.49414311485757,-13.60691613036626,0.08639763874510674,-0.18614617033779263,-1.2643374359331974,0.004224884104728778,-0.005732286703210841,-0.049019036805138035,0,70,255.0,255.0,255.0
399,19.950000000000003,8.435758875579475,8.484828661433516,-13.670194904815977,0.08665516153213279,-0.186431557600005,-1.2668261191964238,0.00607602737631287,-0.005683203785283994,-0.050528293723918066,0,70,255.0,255.0,255.0
400,20.0,8.4401,8.4755,-13.7336,0.08700524148273801,-0.186714490716321,-1.269390265305589,0.00792717064789683,-0.005634120867356263,-0.05203755064269089,0,70,255.0,255.0,255.0
401,20.05,8.444459378761819,8.466156870324749,-13.79713397028531,0.08735406347748607,-0.18701794606072036,-1.271956747741413,0.006025709142025355,-0.006504092908617589,-0.050621746790269366,0,70,255.0,255.0,255.0
402,20.1,8.448833821796493,8.456797480417228,-13.860794494937599,0.08760781239694056,-0.18736490000718278,-1.274452439984616,0.004124247636153879,-0.007374064949878914,-0.04920594293784784,0,70,255.0,255.0,255.0
403,20.150000000000002,8.45321857545026,8.44741965534733,-13.924578034447231,0.08776648824110146,-0.18775535255570827,-1.276877342035198,0.002222786130282403,-0.008244036991140239,-0.047790139085426314,0,70,255.0,255.0,255.0
404,20.200000000000003,8.45760888606935,8.438021220184954,-13.988481049304577,0.0878300910099688,-0.1881893037062968,-1.2792314538931588,0.0003213246244109262,-0.009114009032401565,-0.04637433523300479,0,70,255.0,255.0,255.0
405,20.25,8.462,8.4286,-14.0525,0.08779862070354258,-0.18866675345894837,-1.2815147755584981,-0.0015801368814603034,-0.00998398107366305,-0.04495853138057804,0,70,255.0,255.0,255.0
406,20.3,8.466388753656888,8.419154811852897,-14.116632067758188,0.08776748142826647,-0.1891281823814526,-1.2837705510897985,0.00033456587041616405,-0.008473175826506574,-0.045272489871433313,0,70,255.0,255.0,255.0
407,20.35,8.470778343728455,8.409688440766226,-14.180877316741057,0.08783207729058419,-0.18951407104159904,-1.2860420245456416,0.0022492686222926315,-0.006962370579350098,-0.04558644836228859,0,70,255.0,255.0,255.0
408,20.400000000000002,8.475173556971573,8.40020466375311,-14.24523653184483,0.08799240829049573,-0.18982441943938763,-1.2883291959260275,0.004163971374169099,-0.005451565332193622,-0.045900406853143866,0,70,255.0,255.0,255.0
409,20.450000000000003,8.47957918014313,8.39070725782666,-14.309710497965739,0.08824847442800111,-0.1900592275748184,-1.290632065230956,0.006078674126045566,-0.0039407600850371455,-0.046214365343999135,0,70,255.0,255.0,255.0
410,20.5,8.484,8.3812,-14.3743,0.08860027570310026,-0.19021849544789132,-1.2929506324604272,0.007993376877921787,-0.0024299548378801106,-0.04652832383485084,0,70,255.0,255.0,255.0
411,20.55,8.488439206610627,8.371685482263663,-14.439005758681937,0.08895201080945528,-0.19037332441346969,-1.295281047899396,0.006076027376278631,-0.003763203785253851,-0.046688293723889635,0,70,255.0,255.0,255.0
412,20.6,8.492893603289696,8.362161556517863,-14.503828238098182,0.08920787844072814,-0.1905948158264167,-1.2976194618328163,0.0041586778746354755,-0.005096452732627592,-0.046848263612928424,0,70,255.0,255.0,255.0
413,20.650000000000002,8.497358396663447,8.35262488964023,-14.568767838173462,0.08936787859691883,-0.19088296968673243,-1.2999658742606888,0.00224132837299232,-0.006429701680001333,-0.04700823350196722,0,70,255.0,255.0,255.0
414,20.700000000000003,8.501828793358134,8.3430721485084,-14.633824958832495,0.08943201127802737,-0.19123778599441688,-1.302320285183013,0.00032397887134916377,-0.007762950627375074,-0.04716820339100601,0,70,255.0,255.0,255.0
415,20.75,8.5063,8.3335,-14.699,0.08940027648405376,-0.19165926474946993,-1.3046826945997894,-0.0015933706302938555,-0.009096199574748276,-0.04732817328004657,0,70,255.0,255.0,255.0
416,20.8,8.510768819900605,8.32390565909245,-14.764292897514071,0.08936847533390754,-0.1921145199646504,-1.3070252573126164,0.000321324624445301,-0.009114009032469639,-0.04637433523303612,0,70,255.0,255.0,255.0
417,20.85,8.515238443112768,8.314288533162319,-14.829701730866224,0.08943240894649829,-0.1925706656527169,-1.309320128123093,0.0022360198791844576,-0.009131818490191002,-0.04542049718602567,0,70,255.0,255.0,255.0
418,20.900000000000002,8.519713656374632,8.304648577685963,-14.895224115461343,0.08959207732182599,-0.19302770181366952,-1.311567307031219,0.0041507151339236145,-0.009149627947912365,-0.04446665913901522,0,70,255.0,255.0,255.0
419,20.950000000000003,8.524199246424331,8.294985748139739,-14.960857666704308,0.08984748045989065,-0.19348562844750813,-1.3137667940369946,0.006065410388662771,-0.009167437405633728,-0.04351282109200477,0,70,255.0,255.0,255.0
420,21.0,8.5287,8.2853,-15.0266,0.09019861836069225,-0.19394444555423282,-1.3159185891404197,0.00798010564340157,-0.009185246863354868,-0.042558983044992615,0,70,255.0,255.0,255.0
421,21.05,8.533219113786958,8.275591881366534,-15.092449851261787,0.09055008785492757,-0.1943685957279424,-1.3180899228501437,0.006078674126011125,-0.007780760085027996,-0.04429436534396596,0,70,255.0,255.0,255.0
422,21.1,8.537753424259229,8.265864310832853,-15.158410438436933,0.09080648577329338,-0.19472252156273562,-1.3203480256748164,0.004177242608620681,-0.006376273306701124,-0.04602974764293931,0,70,255.0,255.0,255.0
423,21.150000000000002,8.542298177838022,8.256120799615907,-15.224486099981185,0.09096781211578964,-0.1950062230586125,-1.3226928976144376,0.002275811091230237,-0.004971786528374251,-0.04776512994191265,0,70,255.0,255.0,255.0
424,21.200000000000003,8.546848620944544,8.24636485893264,-15.290681174350295,0.09103406688241639,-0.19521970021557308,-1.3251245386690078,0.00037437957383979186,-0.0035672997500473796,-0.049500512240885995,0,70,255.0,255.0,255.0
425,21.25,8.5514,8.2366,-15.357,0.09100525007317363,-0.19536295303361725,-1.3276429488385264,-0.0015270519435511831,-0.0021628129717197186,-0.05123589453985744,0,70,255.0,255.0,255.0
426,21.3,8.555949124951567,8.226828415441414,-15.423445297438791,0.09097517324636857,-0.19551509712359313,-1.330151051286799,0.00032397887134907725,-0.003922950627315272,-0.04908820339103596,0,70,255.0,255.0,255.0
427,21.35,8.560499059850317,8.217047023506261,-15.490013315386058,0.09103764796030854,-0.19575524809634878,-1.33255176917763,0.0021750096862493376,-0.005683088282910826,-0.046940512242214474,0,70,255.0,255.0,255.0
428,21.400000000000002,8.565054432273277,8.2072514238504,-15.55669868461393,0.09119267421499351,-0.19608340595188423,-1.3348451025110204,0.004026040501149598,-0.007443225938506379,-0.044792821093393,0,70,255.0,255.0,255.0
429,21.450000000000003,8.569619869797494,8.197437216129691,-15.623496035894537,0.09144025201042351,-0.19649957069019944,-1.3370310512869694,0.005877071316049858,-0.009203363594101933,-0.042645129944571515,0,70,255.0,255.0,255.0
430,21.5,8.5742,8.1876,-15.6904,0.09178038134659847,-0.19700374231129436,-1.3391096155054774,0.0077281021309494324,-0.010963501249695806,-0.04049743879574663,0,70,255.0,255.0,255.0
431,21.55,8.578797986406766,8.17773685686781,-15.757406558983062,0.09212521915959047,-0.19750701577767846,-1.3411618720026703,0.00606541038873074,-0.009167437405667275,-0.0415928210919745,0,70,255.0,255.0,255.0
432,21.6,8.583411136339507,8.167850795142101,-15.82451710001885,0.09238692238547155,-0.19792048605186108,-1.343268897614675,0.004402718646512047,-0.007371373561638743,-0.04268820338820237,0,70,255.0,255.0,255.0
433,21.650000000000002,8.588035293068863,8.157946304982492,-15.89173436156311,0.09256549102424168,-0.19824415313384233,-1.3454306923414907,0.0027400269042933533,-0.005575309717610212,-0.04378358568443024,0,70,255.0,255.0,255.0
434,21.700000000000003,8.59266629986548,8.148027876548587,-15.95906108207158,0.09266092507590089,-0.19847801702362214,-1.3476472561831179,0.0010773351620746606,-0.0037792458735816806,-0.04487896798065811,0,70,255.0,255.0,255.0
435,21.75,8.5973,8.1381,-16.0265,0.09267322454044914,-0.1986220777212005,-1.3499185891395562,-0.0005853565801444693,-0.0019831820295523883,-0.04597435027688057,0,70,255.0,255.0,255.0
436,21.8,8.601933329421362,8.128165757087352,-16.094053266628976,0.09266795011528982,-0.19876083976569048,-1.3522094607025015,0.00037437957377139096,-0.003567299750047082,-0.04566051224092895,0,70,255.0,255.0,255.0
437,21.85,8.606567594791658,8.118222595925328,-16.16172068453855,0.09271066249782628,-0.1989788076962052,-1.354484640363649,0.0013341157276872513,-0.005151417470541776,-0.04534667420497732,0,70,255.0,255.0,255.0
438,21.900000000000002,8.611205195451271,8.10826655621963,-16.22950146913365,0.09280136168805854,-0.19927598151274467,-1.3567441281229993,0.0022938518816031117,-0.006735535191036469,-0.0450328361690257,0,70,255.0,255.0,255.0
439,21.950000000000003,8.61584853074059,8.098293677675956,-16.29739483581916,0.0929400476859866,-0.19965236121530885,-1.3589879239805518,0.003253588035518972,-0.008319652911531163,-0.044718998133074075,0,70,255.0,255.0,255.0
440,22.0,8.6205,8.0883,-16.3654,0.09312672049161043,-0.20010794680389776,-1.3612160279363064,0.004213324189434764,-0.009903770632025743,-0.044405160097113594,0,70,255.0,255.0,255.0
441,22.05,8.625161495907786,8.07828251478278,-16.43351637450104,0.09333098037924765,-0.20058562515955095,-1.3634402851873484,0.003957071316054047,-0.009203363594101245,-0.044565129944564325,0,70,255.0,255.0,255.0
442,22.1,8.629832884493863,8.068242021156577,-16.501744161826945,0.09352242762321585,-0.2010282831633079,-1.3656725409307628,0.0037008184426733297,-0.008502956556176746,-0.04472509979201505,0,70,255.0,255.0,255.0
443,22.150000000000002,8.634513525126048,8.05818027013898,-16.570083761902325,0.09370106222351499,-0.20143592081516865,-1.36791279516655,0.0034445655692926127,-0.007802549518252247,-0.04488506963946578,0,70,255.0,255.0,255.0
444,22.200000000000003,8.639202777172153,8.04809901274759,-16.638535574651808,0.0938668841801451,-0.20180853811513313,-1.3701610478947095,0.0031883126959118954,-0.007102142480327749,-0.0450450394869165,0,70,255.0,255.0,255.0
445,22.25,8.6439,8.038,-16.7071,0.09401989349310619,-0.2021461350632014,-1.3724172991152417,0.0029320598225313077,-0.0064017354424033,-0.04520500933436544,0,70,255.0,255.0,255.0
446,22.3,8.648604686947493,8.027884983781526,-16.775777235366867,0.09416812836772208,-0.20244865959610134,-1.3746693985481155,0.0029973351621040765,-0.005699245873593995,-0.04487896798058663,0,70,255.0,255.0,255.0
447,22.35,8.65331686723289,8.017755719448363,-16.844566668153686,0.09431962700931659,-0.2027160596505608,-1.3769051959133003,0.0030626105016768454,-0.00499675630478469,-0.04455292662680782,0,70,255.0,255.0,255.0
448,22.400000000000002,8.65803670404454,8.007613963224442,-16.91346748325707,0.09447438941788976,-0.20294833522657982,-1.3791246912107964,0.003127885841249614,-0.004294266735975386,-0.04422688527302901,0,70,255.0,255.0,255.0
449,22.450000000000003,8.662764360570794,7.997461471333679,-16.98247886557364,0.09463241559344157,-0.20314548632415835,-1.3813278844406034,0.003193161180822383,-0.0035917771671660813,-0.043900843919250206,0,70,255.0,255.0,255.0
450,22.5,8.6675,7.9873,-17.0516,0.094793705535972,-0.2033075129432964,-1.383514775602721,0.003258436520394481,-0.0028892875983563826,-0.04357480256546964,0,70,255.0,255.0,255.0
451,22.55,8.672243756302246,7.977130350091124,-17.120829884031497,0.09495650614986896,-0.2034917364560434,-1.3856741206201866,0.0032535880354845224,-0.004479652911522814,-0.04279899813314286,0,70,255.0,255.0,255.0
452,22.6,8.676995646574584,7.966949501049968,-17.190166765558327,0.09511906433952046,-0.2037554782344487,-1.3877946754160353,0.003248739550574564,-0.006070018224689245,-0.042023193700816086,0,70,255.0,255.0,255.0
453,22.650000000000002,8.681755658695796,7.95675347696325,-17.259608705069407,0.09528138010492643,-0.20409873827851233,-1.389876439990268,0.0032438910656646057,-0.0076603835378556764,-0.04124738926848931,0,70,255.0,255.0,255.0
454,22.700000000000003,8.686523780544674,7.9465383019176885,-17.329153763053665,0.09544345344608691,-0.20452151658823428,-1.3919194143428844,0.003239042580754647,-0.009250748851022107,-0.04047158483616253,0,70,255.0,255.0,255.0
455,22.75,8.6913,7.9363,-17.3988,0.09560528436300189,-0.20502381316361454,-1.3939235984738843,0.003234194095844023,-0.010841114164188648,-0.03969578040384292,0,70,255.0,255.0,255.0
456,22.8,8.69608428784352,7.926036015853983,-17.468546428507153,0.0957658470327958,-0.20552039457972734,-1.395946118971152,0.003188312695911887,-0.009022142480323334,-0.04120503948686081,0,70,255.0,255.0,255.0
457,22.85,8.700876546468779,7.915749476351763,-17.53839586961302,0.0959241156325931,-0.20592602741164687,-1.3980441024225703,0.0031424312959797518,-0.007203170796458018,-0.04271429856987869,0,70,255.0,255.0,255.0
458,22.900000000000002,8.705676661172282,7.905444928922554,-17.608352096465314,0.09608009016239377,-0.20624071165937316,-1.4002175488281399,0.003096549896047616,-0.005384199112592703,-0.04422355765289658,0,70,255.0,255.0,255.0
459,22.950000000000003,8.710484517250519,7.895126920995563,-17.67841888221174,0.09623377062219785,-0.20646444732290617,-1.40246645818786,0.00305066849611548,-0.0035652274287273876,-0.04573281673591447,0,70,255.0,255.0,255.0
460,23.0,8.7153,7.8848,-17.7486,0.0963851570120053,-0.2065972344022459,-1.4047908305017314,0.0030047870961827927,-0.0017462557448622018,-0.047242075818934026,0,70,255.0,255.0,255.0
461,23.05,8.720123092323673,7.8744671864929465,-17.818898001939903,0.09654010571893128,-0.2067306852250466,-1.4071174034951859,0.0031931611808561993,-0.0035917771671659256,-0.045820843919242175,0,70,255.0,255.0,255.0
462,23.1,8.724954167550298,7.8641253935429765,-17.8893105559896,0.09670447313009092,-0.20695641211896249,-1.4093729148936556,0.003381535265529606,-0.0054372985894696494,-0.04439961201955032,0,70,255.0,255.0,255.0
463,23.150000000000002,8.729793696615085,7.853770007346533,-17.95983410906936,0.09687825924548424,-0.20727441508399358,-1.4115573646971409,0.0035699093502030124,-0.007282820011773373,-0.04297838011985847,0,70,255.0,255.0,255.0
464,23.200000000000003,8.734642150453249,7.8433964141000585,-18.030465108099406,0.09706146406511122,-0.20768469412013985,-1.4136707529056416,0.003758283434876419,-0.009128341434077097,-0.041557148220166616,0,70,255.0,255.0,255.0
465,23.25,8.7395,7.833,-18.1012,0.09725408758897187,-0.20818724922740126,-1.4157130795191575,0.00394665751954959,-0.010973862856380245,-0.04013591632048197,0,70,255.0,255.0,255.0
466,23.3,8.744367342861791,7.822577638174228,-18.17203596373324,0.09743373009147947,-0.2086928645200863,-1.4177282670480755,0.003239042580754393,-0.009250748851022037,-0.04047158483623612,0,70,255.0,255.0,255.0
467,23.35,8.74924278333003,7.812132149476328,-18.242973106428572,0.09757799184704731,-0.20911232411250347,-1.4197602380027812,0.002531427641959196,-0.007527634845663829,-0.04080725335199028,0,70,255.0,255.0,255.0
468,23.400000000000002,8.754124552367381,7.801667841691316,-18.314012267257283,0.0976868728556754,-0.20944562800465272,-1.4218089923832746,0.0018238127031639994,-0.00580452084030562,-0.04114292186774443,0,70,255.0,255.0,255.0
469,23.450000000000003,8.759010880936485,7.791189022604201,-18.385154285390662,0.09776037311736373,-0.20969277619653406,-1.4238745301895557,0.0011161977643688024,-0.004081406834947412,-0.04147859038349859,0,70,255.0,255.0,255.0
470,23.5,8.7639,7.7807,-18.4564,0.09779849263211228,-0.20985376868814742,-1.4259568514216245,0.00040858282557365566,-0.0023582928295882155,-0.0418142588992545,0,70,255.0,255.0,255.0
471,23.55,8.768790736229166,7.77020386081014,-18.527750143127136,0.09783697391515377,-0.21000185669460533,-1.428049528312504,0.0011306684960856175,-0.003565227428727286,-0.041892816735923336,0,70,255.0,255.0,255.0
472,23.6,8.773684299129574,7.759698808551707,-18.599205018296114,0.09791155948172085,-0.21021029143102016,-1.430146133095217,0.0018527541665975793,-0.004772162027866357,-0.041971374572592174,0,70,255.0,255.0,255.0
473,23.650000000000002,8.778582493915398,7.749181825888205,-18.670764821901525,0.09802224933181351,-0.21047907289739196,-1.4322466657697632,0.002574839837109541,-0.005979096627005427,-0.042049932409261005,0,70,255.0,255.0,255.0
474,23.700000000000003,8.783487125800816,7.738649895483135,-18.74242975033796,0.0981690434654318,-0.21080820109372073,-1.4343511263361433,0.003296925507621503,-0.007186031226144498,-0.042128490245929844,0,70,255.0,255.0,255.0
475,23.75,8.7884,7.7281,-18.8142,0.09835194188257566,-0.2111976760200064,-1.4364595147943564,0.004019011178133192,-0.00839296582528437,-0.042207048082604004,0,70,255.0,255.0,255.0
476,23.8,8.793322512221541,7.717530118585215,-18.88607546375821,0.09854637424790176,-0.211587708701491,-1.4385536197019257,0.003758283434910333,-0.007208341434098903,-0.04155714822017024,0,70,255.0,255.0,255.0
477,23.85,8.79825442015167,7.706942216316843,-18.958054820386977,0.0987277702260667,-0.21191851016341628,-1.4406152296163737,0.003497555691687474,-0.006023717042913435,-0.04090724835773647,0,70,255.0,255.0,255.0
478,23.900000000000002,8.803195071971029,7.696339254755865,-19.030136445136634,0.09889612981707051,-0.2121900804057823,-1.4426443445376995,0.0032368279484646157,-0.004839092651727966,-0.04025734849530271,0,70,255.0,255.0,255.0
479,23.950000000000003,8.808143815860259,7.6857241954632585,-19.102318713257528,0.09905145302091317,-0.2124024194285891,-1.4446409644659037,0.002976100205241757,-0.0036544682605424974,-0.03960744863286894,0,70,255.0,255.0,255.0
480,24.0,8.8131,7.6751,-19.1746,0.09919373983759468,-0.21255552723183654,-1.4466050894009865,0.0027153724620184727,-0.002469843869356003,-0.03895754877043345,0,70,255.0,255.0,255.0
481,24.05,8.818063214884667,7.664468464849001,-19.24697920184002,0.0993375290932534,-0.21271930849944326,-1.4485679928798334,0.003036197764330133,-0.004081406834912361,-0.039558590383433775,0,70,255.0,255.0,255.0
482,24.1,8.823034020263744,7.653826726180918,-19.319457300155996,0.0994973596140277,-0.21296366791532778,-1.4505609484393298,0.0033570230666417934,-0.005692969800468718,-0.0401596319964341,0,70,255.0,255.0,255.0
483,24.150000000000002,8.828013218200487,7.643170755088331,-19.39203579755197,0.09967323139991759,-0.21328860547949013,-1.4525839560794767,0.0036778483689534538,-0.007304532766025076,-0.04076067360943443,0,70,255.0,255.0,255.0
484,24.200000000000003,8.833001610758155,7.63249652266383,-19.464716196631958,0.09986514445092305,-0.2136941211919303,-1.4546370158002735,0.003998673671265114,-0.008916095731581433,-0.04136171522243476,0,70,255.0,255.0,255.0
485,24.25,8.838,7.6218,-19.5375,0.10007309876704408,-0.21418021505264825,-1.45672012760172,0.004319498973576752,-0.010527658697138564,-0.04196275683542794,0,70,255.0,255.0,255.0
486,24.3,8.84300862823979,7.6110784220187755,-19.61038852888172,0.10026350937907404,-0.21467105730073066,-1.4588224087787525,0.0032969255076214475,-0.00910603122615792,-0.04212849024586234,0,70,255.0,255.0,255.0
487,24.35,8.848025498793351,7.600334078959486,-19.68338237898905,0.10040279131780622,-0.21509081817526404,-1.4609329766263064,0.002274352041666143,-0.007684403755177276,-0.04229422365629674,0,70,255.0,255.0,255.0
488,24.400000000000002,8.853048055227015,7.589570524890808,-19.756481964655528,0.10049094458324066,-0.2154394976762484,-1.463051831144382,0.0012517785757108386,-0.006262776284196631,-0.04245995706673114,0,70,255.0,255.0,255.0
489,24.450000000000003,8.858073741107122,7.578791313881419,-19.82968770021467,0.10052796917537732,-0.21571709580368373,-1.4651789723329796,0.0002292051097555342,-0.004841148813215987,-0.042625690477165544,0,70,255.0,255.0,255.0
490,24.5,8.8631,7.568,-19.903,0.1005138650942162,-0.21592361255757003,-1.4673144001920986,-0.0007933683562002525,-0.0034195213422361093,-0.04279142388759638,0,70,255.0,255.0,255.0
491,24.55,8.868125472156166,7.557199447075893,-19.976418682633106,0.10052043339044318,-0.2161004622976399,-1.4694223720051136,0.0010561002052800457,-0.0036544682605589994,-0.041527448633001264,0,70,255.0,255.0,255.0
492,24.6,8.873153584562845,7.546389757981137,-20.0499411838878,0.1006194751147442,-0.21628905938362594,-1.4714671450553987,0.002905568766760344,-0.00388941517888189,-0.040263473378406155,0,70,255.0,255.0,255.0
493,24.650000000000002,8.87818896089144,7.535570345348432,-20.123564343825937,0.10081099026711922,-0.2164894038155281,-1.4734487193429542,0.004755037328240642,-0.00412436209720478,-0.03899949812381104,0,70,255.0,255.0,255.0
494,24.700000000000003,8.88323622481336,7.524740621810485,-20.197285002509386,0.10109497884756828,-0.21670149559334642,-1.47536709486778,0.00660450588972094,-0.004359309015527671,-0.03773552286921593,0,70,255.0,255.0,255.0
495,24.75,8.8883,7.5139,-20.2711,0.10147144085609129,-0.21692533471708086,-1.477222271629876,0.008453974451200774,-0.0045942559338501,-0.03647154761462623,0,70,255.0,255.0,255.0
496,24.8,8.893383083135543,7.503047789677646,-20.34500714058585,0.10183075705915283,-0.2171670935087156,-1.4790721032008027,0.00591867367126063,-0.0050760957315391835,-0.037521715222442624,0,70,255.0,255.0,255.0
497,24.85,8.898480962955265,7.492182889115963,-20.419008085459758,0.10206330822321737,-0.2174329442902348,-1.4809744431521203,0.0033833728913204852,-0.005557935529228266,-0.038571882830259016,0,70,255.0,255.0,255.0
498,24.900000000000002,8.903587301207216,7.481304093715458,-20.493105460040738,0.10216909434828488,-0.21772288706163845,-1.4829292914838288,0.0008480721113803408,-0.00603977532691735,-0.03962205043807541,0,70,255.0,255.0,255.0
499,24.950000000000003,8.908695759639444,7.470410198876634,-20.567301889747817,0.1021481154343554,-0.21803692182292655,-1.4849366481959279,-0.0016872286685598037,-0.006521615124606433,-0.0406722180458918,0,70,255.0,255.0,255.0
500,25.0,8.9138,7.4595,-20.6416,0.1020003714814289,-0.21837504857409906,-1.4869965132884175,-0.004222529448500323,-0.0070034549222963705,-0.04172238565370634,0,70,255.0,255.0,255.0
501,25.05,8.91889579530166,7.448572594213521,-20.7160015550235,0.10185253837295953,-0.21871916366748764,-1.4890572151916877,-0.0016907948902743805,-0.006761148813246539,-0.040705690477099654,0,70,255.0,255.0,255.0
502,25.1,8.923987363616094,7.437628285555008,-20.79050487427319,0.10183129199240146,-0.21905116345542372,-1.4910670823361274,0.0008409396679515619,-0.006518842704196707,-0.03968899530049296,0,70,255.0,255.0,255.0
503,25.150000000000002,8.9290810342797,7.426667679789736,-20.86510741601113,0.1019366323397547,-0.21937104793790732,-1.493026114721737,0.0033726742261775047,-0.006276536595146876,-0.038672300123886276,0,70,255.0,255.0,255.0
504,25.200000000000003,8.934183136628869,7.415691382682975,-20.939806638499388,0.10216855941501922,-0.21967881711493842,-1.4949343123485164,0.005904408784403447,-0.006034230486097044,-0.03765560494727958,0,70,255.0,255.0,255.0
505,25.25,8.9393,7.4047,-21.0146,0.102527073218195,-0.21997447098651704,-1.4967916752164647,0.008436143342628877,-0.005791924377047009,-0.03663890977066764,0,70,255.0,255.0,255.0
506,25.3,8.944436135657815,7.393693833468269,-21.08948583932016,0.10290308944900374,-0.2202762518213317,-1.4986510360324619,0.006604505889720654,-0.006279309015539665,-0.0377355228692185,0,70,255.0,255.0,255.0
507,25.35,8.949588782580356,7.382671968664001,-21.1644660174475,0.10318752380716707,-0.220602401888071,-1.5005652275033865,0.004772868436812431,-0.006766693654032321,-0.03883213596776936,0,70,255.0,255.0,255.0
508,25.400000000000002,8.954753361673989,7.371633187125597,-21.239543275914755,0.10338037629268498,-0.22095292118673496,-1.5025342496292389,0.0029412309839042076,-0.007254078292524978,-0.03992874906632023,0,70,255.0,255.0,255.0
509,25.450000000000003,8.95992529384508,7.360576270391462,-21.314720356254675,0.1034816469055575,-0.22132780971732352,-1.5045581024100185,0.001109593530995985,-0.007741462931017634,-0.04102536216487109,0,70,255.0,255.0,255.0
510,25.5,8.9651,7.3495,-21.39,0.10349133564578458,-0.22172706747983667,-1.506636785845726,-0.0007220439219126629,-0.008228847569509146,-0.04212197526341832,0,70,255.0,255.0,255.0
511,25.55,8.970274062067075,7.338404071913398,-21.465383887695857,0.1034791038310235,-0.22209582904718914,-1.5087066406784586,0.00023277133146960805,-0.0065216151245894175,-0.04067221804588959,0,70,255.0,255.0,255.0
512,25.6,8.97544870606248,7.327291839788985,-21.540869455936832,0.10351461277893154,-0.22237922899229562,-1.5107040076503149,0.001187586584851879,-0.004814382679669689,-0.03922246082836085,0,70,255.0,255.0,255.0
513,25.650000000000002,8.980626319024347,7.316167571707872,-21.61645308032988,0.10359786248950868,-0.22257726731515612,-1.5126288867612947,0.00214240183823415,-0.0031071502347499603,-0.03777270361083212,0,70,255.0,255.0,255.0
514,25.700000000000003,8.98580928799081,7.3050355357511725,-21.692131136481954,0.10372885296275497,-0.22268994401577064,-1.5144812780113983,0.003097217091616421,-0.0013999177898302321,-0.036322946393303385,0,70,255.0,255.0,255.0
515,25.75,8.991,7.2939,-21.7679,0.10390758419867031,-0.22271725909413914,-1.5162611814006253,0.004052032344998513,0.00030731465508848643,-0.03487318917577653,0,70,255.0,255.0,255.0
516,25.8,8.996200416073881,7.282763478878136,-21.843757009896407,0.10410849522690462,-0.22276443198991416,-1.518026401253702,0.003984408784373604,-0.0021942304860896123,-0.035735604947281285,0,70,255.0,255.0,255.0
517,25.85,9.001410793169722,7.271621472180057,-21.919703358805183,0.10430602507710768,-0.2229366821427481,-1.5198347418953535,0.003916785223748696,-0.004695775627267711,-0.03659802071878604,0,70,255.0,255.0,255.0
518,25.900000000000002,9.006630962228627,7.26046772604291,-21.995741202765757,0.10450017374927949,-0.22323400955264097,-1.5216862033255805,0.0038491616631237875,-0.00719732076844581,-0.037460436490290794,0,70,255.0,255.0,255.0
519,25.950000000000003,9.011860754191686,7.249295986603842,-22.071872697817554,0.10469094124342006,-0.2236564142195927,-1.5235807855443826,0.003781538102498879,-0.009698865909623908,-0.038322852261795555,0,70,255.0,255.0,255.0
520,26.0,9.0171,7.2381,-22.1481,0.10487832755952937,-0.22420389614360334,-1.5255184885517596,0.003713914541873975,-0.012200411050802495,-0.03918526803329492,0,70,255.0,255.0,255.0
521,26.05,9.022348273637398,7.226875612574056,-22.22442487271852,0.10504691526135186,-0.22475044299314914,-1.527475754306714,0.0030295935310254442,-0.009661462931029527,-0.039105362164872655,0,70,255.0,255.0,255.0
522,26.1,9.027604121258625,7.215627071490784,-22.30084750884245,0.10518128691263193,-0.2251700424367063,-1.529429024768247,0.0023452725201769135,-0.007122514811256558,-0.0390254562964504,0,70,255.0,255.0,255.0
523,26.150000000000002,9.032865832061153,7.204360724120486,-22.37736770860712,0.10528144251336956,-0.2254626944742748,-1.5313782999363588,0.0016609515093283832,-0.00458356669148359,-0.038945550428028136,0,70,255.0,255.0,255.0
524,26.200000000000003,9.038131695242454,7.193082917833457,-22.453985272247863,0.10534738206356477,-0.22562839910585467,-1.53332357981105,0.0009766304984798525,-0.0020446185717106213,-0.03886564455960588,0,70,255.0,255.0,255.0
525,26.25,9.0434,7.1818,-22.5307,0.10537910556321756,-0.22566715633144585,-1.5352648643923197,0.00029230948763192544,0.000494329548063277,-0.0387857386911854,0,70,255.0,255.0,255.0
526,26.3,9.048669689376524,7.170516470825638,-22.607511499229524,0.10541584372769888,-0.22568979603749004,-1.5371905815194336,0.0011772170916208983,-0.0013999177898302675,-0.038242946393369684,0,70,255.0,255.0,255.0
527,26.35,9.053942321795772,7.1592294418568025,-22.68441860582503,0.10549682727237965,-0.22580714811042887,-1.5390891590316567,0.002062124695609871,-0.003294165127723812,-0.03770015409555397,0,70,255.0,255.0,255.0
528,26.400000000000002,9.059220109526764,7.147934177475147,-22.761419962805775,0.10562205619725987,-0.22601921255026242,-1.540960596928989,0.002947032299598844,-0.005188412465617357,-0.03715736179773825,0,70,255.0,255.0,255.0
529,26.450000000000003,9.064505264838504,7.136625942062327,-22.83851421319102,0.10579153050233954,-0.2263259893569906,-1.5428048952114306,0.003831939903587817,-0.007082659803510901,-0.036614569499922534,0,70,255.0,255.0,255.0
530,26.5,9.0698,7.1253,-22.9157,0.10600525018761862,-0.22672747853061345,-1.544622053878981,0.004716847507576838,-0.008976907141403645,-0.03607177720210153,0,70,255.0,255.0,255.0
531,26.55,9.075105768856515,7.113952904123389,-22.992976330363398,0.10621770982786881,-0.22714637285688927,-1.5464339196155767,0.003781538102430657,-0.007778865909628712,-0.03640285226172715,0,70,255.0,255.0,255.0
532,26.6,9.080420991558283,7.102586361082005,-23.070343667857443,0.1063834039978617,-0.22750536512157632,-1.5482623391051538,0.0028462286972844764,-0.006580824677853779,-0.03673392732135278,0,70,255.0,255.0,255.0
533,26.650000000000002,9.085743329831796,7.091203365978925,-23.1478028401698,0.10650233269759726,-0.22780445532467467,-1.550107312347712,0.0019109192921382958,-0.005382783446078847,-0.0370650023809784,0,70,255.0,255.0,255.0
534,26.700000000000003,9.09107044540354,7.0798069139172295,-23.2253546749881,0.10657449592707553,-0.22804364346618422,-1.5519688393432518,0.0009756098869921149,-0.004184742214303914,-0.037396077440604025,0,70,255.0,255.0,255.0
535,26.75,9.0964,7.0684,-23.303,0.10659989368629647,-0.228222929546105,-1.5538469200917724,4.0300481845889635e-05,-0.0029867009825279567,-0.03772715250022607,0,70,255.0,255.0,255.0
536,26.8,9.101730435197423,7.056984712680804,-23.380739179316905,0.10662531696080632,-0.22839671253496086,-1.5557137400182668,0.0009766304985484053,-0.00396461857170555,-0.03694564455954356,0,70,255.0,255.0,255.0
537,26.85,9.107063311971094,7.045559513815179,-23.45857072274521,0.1066975567361513,-0.22861939140327556,-1.557541484547727,0.001912960515250921,-0.004942536160883143,-0.036164136618861045,0,70,255.0,255.0,255.0
538,26.900000000000002,9.112400971146053,7.034121958609152,-23.536492676515063,0.10681661301233142,-0.22889096615104917,-1.559330153680153,0.0028492905319534366,-0.005920453750060737,-0.035382628678178527,0,70,255.0,255.0,255.0
539,26.950000000000003,9.117745753547343,7.022669602268749,-23.61450308685661,0.10698248578934666,-0.22921143677828165,-1.5610797474155447,0.0037856205486559522,-0.00689837133923833,-0.034601120737496015,0,70,255.0,255.0,255.0
540,27.0,9.1231,7.0112,-23.6926,0.107195175067197,-0.229580803284973,-1.5627902657539021,0.0047219505653584015,-0.007876288928415853,-0.03381961279681178,0,70,255.0,255.0,255.0
541,27.05,9.128465290353791,6.999711445153393,-23.77078215236898,0.10740902232892066,-0.22995477700327074,-1.5645031203113222,0.003831939903587754,-0.007082659803493552,-0.03469456949999313,0,70,255.0,255.0,255.0
542,27.1,9.133840160557341,6.988205183657276,-23.849051041161722,0.10757836905755577,-0.23028906926532236,-1.5662597227039015,0.0029419292418171065,-0.00628903067857125,-0.03556952620317449,0,70,255.0,255.0,255.0
543,27.150000000000002,9.139222385583995,6.976683199584464,-23.927408853769965,0.10770321525310238,-0.23058368007112787,-1.5680600729316398,0.002051918580046459,-0.005495401553648948,-0.03644448290635584,0,70,255.0,255.0,255.0
544,27.200000000000003,9.144609740407102,6.9651474770077675,-24.005857777585472,0.10778356091556043,-0.23083860942068724,-1.5699041709945372,0.001161907918275811,-0.004701772428726646,-0.037319439609537194,0,70,255.0,255.0,255.0
545,27.25,9.15,6.9536,-24.0844,0.10781940604492996,-0.23105385731400055,-1.5717920168925934,0.0002718972565052269,-0.003908143303804623,-0.038194396312722034,0,70,255.0,255.0,255.0
546,27.3,9.155391603387413,6.942042306705624,-24.16303701120716,0.10785059372351569,-0.23125617945195368,-1.5736817787364283,0.000975609886923855,-0.004184742214320418,-0.03739607744067256,0,70,255.0,255.0,255.0
547,27.35,9.160785645799544,6.930474151555712,-24.241767512607915,0.10791696703362234,-0.2314723315354326,-1.5755316246366609,0.0016793225173424831,-0.004461341124836212,-0.03659775856862309,0,70,255.0,255.0,255.0
548,27.400000000000002,9.166183886517969,6.918894843052988,-24.3205895084051,0.10801852597524993,-0.2317023135644373,-1.5773415545932907,0.002383035147761111,-0.004737940035352007,-0.03579943969657361,0,70,255.0,255.0,255.0
549,27.450000000000003,9.171588084824263,6.907303689700176,-24.39950100280152,0.10815527054839845,-0.2319461255389678,-1.5791115686063182,0.0030867477781797393,-0.005014538945867801,-0.03500112082452413,0,70,255.0,255.0,255.0
550,27.5,9.177,6.8957,-24.4785,0.1083272007530679,-0.23220376745902407,-1.580841666675743,0.0037904604085987614,-0.005291137856384465,-0.034202801952474715,0,70,255.0,255.0,255.0
551,27.55,9.182421096096554,6.8840833280241105,-24.55758500280239,0.10851660277700098,-0.23246050518891434,-1.5825617647429906,0.0037856205487242886,-0.004978371339226002,-0.03460112073742537,0,70,255.0,255.0,255.0
552,27.6,9.187851656244483,6.872454210119872,-24.636756508406624,0.10870576280794032,-0.23270160459294667,-1.5843017787494855,0.0037807806888498162,-0.004665604822067539,-0.03499943952237602,0,70,255.0,255.0,255.0
553,27.650000000000002,9.193291668344132,6.8608134282035795,-24.716015512609662,0.10889468084588597,-0.2329270656711211,-1.5860617086952282,0.0037759408289753434,-0.004352838304909077,-0.03539775830732667,0,70,255.0,255.0,255.0
554,27.700000000000003,9.198741120295855,6.849161764191524,-24.795363011208465,0.10908335689083787,-0.2331368884234376,-1.5878415545802183,0.003771100969100871,-0.004040071787750614,-0.03579607709227732,0,70,255.0,255.0,255.0
555,27.75,9.2042,6.8375,-24.8748,0.10927179094279606,-0.23333107284989615,-1.5896413164044558,0.0037662611092267317,-0.003727305270592618,-0.036194395877224395,0,70,255.0,255.0,255.0
556,27.8,9.209668012226365,6.825828381197934,-24.954326977583293,0.1094429951684835,-0.23354179979237957,-1.5914311622916235,0.0030819079182713553,-0.00470177242874398,-0.03539943960947339,0,70,255.0,255.0,255.0
557,27.85,9.215143729222522,6.814145007964797,-25.033942453765608,0.1095799817346232,-0.23380125009277056,-1.5931812603654032,0.002397554727315979,-0.005676239586895343,-0.03460448334172239,0,70,255.0,255.0,255.0
558,27.900000000000002,9.2206254401055,6.802447444132691,-25.11364444115628,0.10968275064121512,-0.23410942375106913,-1.5948916106257958,0.001713201536360602,-0.006650706745046706,-0.03380952707397139,0,70,255.0,255.0,255.0
559,27.950000000000003,9.226111433992317,6.790733253533724,-25.193430952364633,0.10975130188825925,-0.23446632076727525,-1.5965622130728003,0.0010288483454052254,-0.007625173903198067,-0.03301457080622039,0,70,255.0,255.0,255.0
560,28.0,9.2316,6.779,-25.2733,0.10978563547575564,-0.23487194114138893,-1.5981930677064173,0.0003444951544496755,-0.008599641061348695,-0.03221961453846767,0,70,255.0,255.0,255.0
561,28.05,9.23709005499799,6.767246347184152,-25.353250286864448,0.10982341654907063,-0.23526029564156922,-1.599825586090494,0.0011667477781501017,-0.006934538945863154,-0.033081120824597944,0,70,255.0,255.0,255.0
562,28.1,9.242583026865429,6.755475358020939,-25.433283276530954,0.10990231025357065,-0.23556539503597523,-1.6015011797888772,0.001989000401850528,-0.005269436830377613,-0.03394262711072822,0,70,255.0,255.0,255.0
563,28.150000000000002,9.248080971233867,6.74369119526565,-25.51340112276524,0.11002231658925568,-0.23578723932460702,-1.603219848801567,0.0028112530255509543,-0.0036043347148920725,-0.0348041333968585,0,70,255.0,255.0,255.0
564,28.200000000000003,9.253585943734873,6.731898021673574,-25.59360597933302,0.11018343555612575,-0.23592582850746446,-1.604981593128563,0.003633505649251381,-0.0019392325994065313,-0.035665639682988776,0,70,255.0,255.0,255.0
565,28.25,9.2591,6.7201,-25.6739,0.11038566715418083,-0.23598116258454763,-1.6067864127698657,0.004455758272951416,-0.0002741304839204428,-0.03652714596911899,0,70,255.0,255.0,255.0
566,28.3,9.264624567781672,6.7082998300654575,-25.75428467495892,0.11059133863523214,-0.23604101764133953,-1.6085944933464007,0.0037711009691009057,-0.002120071787755311,-0.035796077092276224,0,70,255.0,255.0,255.0
