idx,t,px,py,pz,vx,vy,vz,ax,ay,az,yaw,mode,ledr,ledg,ledb
0,0.0,13.5,1.5,0.0,-0.002091795399238542,4.715112560968286e-05,0.0025687547416847027,0.04590154479084245,-0.006165813507315578,-0.05962505690021642,0,70,255.0,255.0,255.0
1,0.05,13.499952695365627,1.499994497440522,5.40751707006493e-05,0.00019777411634941478,-0.00027031048221951373,-0.0004023728188250364,0.04568123583267582,-0.006532650805852286,-0.05922004552017314,0,70,255.0,255.0,255.0
2,0.1,13.500019593820836,1.4999726632540293,-3.989977239913427e-05,0.0024763281840290397,-0.0006061139549755457,-0.0033532498103326113,0.04546092687450918,-0.0068994881043889945,-0.05881503414012986,0,70,255.0,255.0,255.0
3,0.15000000000000002,13.500200144593231,1.4999335803472758,-0.00028091230084924257,0.004743866803800334,-0.0009602592926584132,-0.006283876232838023,0.04524061791634255,-0.007266325402925702,-0.058410022760086576,0,70,255.0,255.0,255.0
4,0.2,13.500493796910417,1.4998763316270145,-0.0006679498861995672,0.007000389975663295,-0.0013327464952681161,-0.00919425208634127,0.04502030895817591,-0.0076331627014624105,-0.0580050113800433,0,70,255.0,255.0,255.0
5,0.25,13.5009,1.4998,-0.0012,0.009245897699617924,-0.0017235755628046542,-0.012084377370842352,0.04480000000000926,-0.007999999999999119,-0.05759999999999997,0,70,255.0,255.0,255.0
6,0.30000000000000004,13.501418203089582,1.4997036683729852,-0.0018760501138004333,0.011480389975664224,-0.0021327464952680284,-0.01495425208634127,0.04457969104184264,-0.008366837298535828,-0.057194988619956706,0,70,255.0,255.0,255.0
7,0.35000000000000003,13.502047855406767,1.4995864196527244,-0.002695087699150758,0.013703866803802188,-0.002560259292658237,-0.017803876232838026,0.04435938208367601,-0.008733674597072536,-0.05678997723991344,0,70,255.0,255.0,255.0
8,0.4,13.502788406179162,1.4994473367459709,-0.003656100227600866,0.01591632818403182,-0.0030061139549752815,-0.020633249810332613,0.04413907312550938,-0.009100511895609243,-0.056384965859870184,0,70,255.0,255.0,255.0
9,0.45,13.503639304634374,1.4992855025594782,-0.004758075170700649,0.018117774116353128,-0.003470310482219161,-0.023442372818825042,0.04391876416734276,-0.009467349194145953,-0.05597995447982692,0,70,255.0,255.0,255.0
10,0.5,13.5046,1.4991,-0.006,0.020308204600766096,-0.003952848874389877,-0.026231245258315303,0.04369845520917606,-0.009834186492682667,-0.05557494309978364,0,70,255.0,255.0,255.0
11,0.55,13.505669692276047,1.4988900290675367,-0.007381074715498919,0.022472665980994993,-0.004446703536707023,-0.029012618835809894,0.04287999999997963,-0.009920000000003173,-0.05568,0,70,255.0,255.0,255.0
12,0.6000000000000001,13.506846584552092,1.4986552581350734,-0.008901349430997837,0.02459620460076406,-0.004944848874390195,-0.03179924525831531,0.042061544790783195,-0.01000581350732368,-0.05578505690021636,0,70,255.0,255.0,255.0
13,0.65,13.508128630690116,1.4983954726688418,-0.010561086788747297,0.026678820460073308,-0.00544728488743939,-0.03459112452583153,0.04124308958158676,-0.010091627014644186,-0.055890113800432725,0,70,255.0,255.0,255.0
14,0.7000000000000001,13.509513784552091,1.4981104581350733,-0.012360549430997838,0.028720513558922738,-0.0059540115758546135,-0.03738825663835858,0.04042463437239033,-0.010177440521964693,-0.055995170700649084,0,70,255.0,255.0,255.0
15,0.75,13.511,1.4978,-0.0143,0.030721283897312338,-0.00646502893963586,-0.04019064159589644,0.039606179163193755,-0.010263254029285213,-0.05610022760086586,0,70,255.0,255.0,255.0
16,0.8,13.512586227806233,1.4974642153568682,-0.016379651024203898,0.03274094610034681,-0.006960439357904546,-0.04299527257041918,0.04118030895818483,-0.009553162701462203,-0.056085011380043445,0,70,255.0,255.0,255.0
17,0.8500000000000001,13.514275406384863,1.4971045478069829,-0.018599514576857903,0.03483931479313083,-0.007420345209782081,-0.04579914273390079,0.04275443875317591,-0.008843071373639193,-0.05606979515922104,0,70,255.0,255.0,255.0
18,0.9,13.516071471060375,1.4967227725786632,-0.020959552617409956,0.03701638997566439,-0.007844746495268465,-0.04860225208634128,0.04432856854816698,-0.008132980045816186,-0.05605457893839862,0,70,255.0,255.0,255.0
19,0.9500000000000001,13.517978357157258,1.496320664900229,-0.023459727105308012,0.039272171647947524,-0.0082336432143637,-0.05140460062774065,0.045902698343158056,-0.007422888717993174,-0.056039362717576216,0,70,255.0,255.0,255.0
20,1.0,13.52,1.4959,-0.0261,0.0416066598099802,-0.008587035367067782,-0.05420618835809891,0.04747682813814902,-0.0067127973901701665,-0.05602414649675397,0,70,255.0,255.0,255.0
21,1.05,13.522138996499017,1.4954619095049906,-0.028880321187685506,0.043939549617618236,-0.008943539031675584,-0.057006290882513425,0.045838764167372335,-0.0075473491941419005,-0.05597995447982679,0,70,255.0,255.0,255.0
22,1.1,13.524392589908452,1.4950049506369958,-0.03180059226157057,0.046190536226717434,-0.009341770286481975,-0.059804183806081594,0.04420070019659565,-0.008381900998113635,-0.05593576246289961,0,70,255.0,255.0,255.0
23,1.1500000000000001,13.52675668506838,1.4945270370165056,-0.034860702741612896,0.048359619637277806,-0.009781729131486947,-0.06259986712880339,0.04256263622581897,-0.00921645280208537,-0.05589157044597243,0,70,255.0,255.0,255.0
24,1.2000000000000002,13.52922718681887,1.4940260822640103,-0.038060542147770146,0.05044679984929934,-0.01026341556669051,-0.06539334085067884,0.040924572255042285,-0.010051004606057104,-0.05584737842904525,0,70,255.0,255.0,255.0
25,1.25,13.5318,1.4935,-0.0414,0.05245207686278203,-0.010786829592092657,-0.0681846049717079,0.03928650828426583,-0.010885556410028863,-0.0558031864121179,0,70,255.0,255.0,255.0
26,1.3,13.534472186197698,1.4929473466231695,-0.044879064225054104,0.05444485542919758,-0.011313404515392604,-0.07097956389952709,0.040424634372356265,-0.010177440521968971,-0.05599517070064917,0,70,255.0,255.0,255.0
27,1.35,13.537245433981328,1.492369249645034,-0.04849811637685982,0.05649454030001765,-0.011804573644289556,-0.07378412204177283,0.04156276046044669,-0.009469324633909081,-0.056187154989180435,0,70,255.0,255.0,255.0
28,1.4000000000000001,13.540122588666106,1.491767479355314,-0.0522576364161385,0.058601131475242256,-0.012260336978783513,-0.07659827939844513,0.042700886548537126,-0.00876120874584919,-0.056379139277711696,0,70,255.0,255.0,255.0
29,1.4500000000000002,13.543106495567258,1.491143806043729,-0.056158104303611456,0.06076462895487137,-0.012680694518874476,-0.079422035969544,0.04383901263662755,-0.0080530928577893,-0.05657112356624296,0,70,255.0,255.0,255.0
30,1.5,13.5462,1.4905,-0.0602,0.062985032738905,-0.013065646264562442,-0.0822553917550694,0.04497713872471787,-0.007344976969729411,-0.0567631078547739,0,70,255.0,255.0,255.0
31,1.55,13.549405058710192,1.489837504002331,-0.06438342191209812,0.06520902866560116,-0.0134348429067554,-0.08507545351937817,0.04398269834312829,-0.007422888717988907,-0.05603936271757655,0,70,255.0,255.0,255.0
32,1.6,13.552720074166244,1.4891564507828674,-0.06870694223099016,0.06738330257321784,-0.013807935136361332,-0.08785932802682707,0.04298825796153871,-0.007500800466248403,-0.055315617580379194,0,70,255.0,255.0,255.0
33,1.6500000000000001,13.556142560267197,1.4884566455622381,-0.07316875159383315,0.06950785446175504,-0.01418492295338024,-0.09060701527741609,0.04199381757994913,-0.007578712214507899,-0.05459187244318184,0,70,255.0,255.0,255.0
34,1.7000000000000002,13.5596700309121,1.4877378935610726,-0.07776704063778411,0.07158268433121275,-0.014565806357812124,-0.09331851527114525,0.040999377198359555,-0.007656623962767395,-0.05386812730598449,0,70,255.0,255.0,255.0
35,1.75,13.5633,1.487,-0.0825,0.07360779218159098,-0.01495058534965698,-0.09599382800801452,0.04000493681676953,-0.007734535711026835,-0.05314438216878703,0,70,255.0,255.0,255.0
36,1.8,13.567030778961534,1.4862426373675055,-0.0873664481265535,0.07563102990838713,-0.015347223857584082,-0.09867062202296033,0.040924572255076334,-0.008131004606057302,-0.05392737842904512,0,70,255.0,255.0,255.0
37,1.85,13.570863869353703,1.4854649472234958,-0.09236771469917959,0.07770024940709862,-0.01576368581026271,-0.10138656585091904,0.04184420769338313,-0.00852747350108777,-0.0547103746893032,0,70,255.0,255.0,255.0
38,1.9000000000000001,13.574801570265109,1.4846659383957335,-0.09750575720852896,0.07981545067772546,-0.01619997120769286,-0.10414165949189065,0.04276384313168993,-0.008923942396118234,-0.055493370949561284,0,70,255.0,255.0,255.0
39,1.9500000000000002,13.57884618078434,1.4838446197119808,-0.10278253314525222,0.08197663372026762,-0.016656080049874535,-0.10693590294587517,0.04368347856999673,-0.009320411291148701,-0.05627636720981937,0,70,255.0,255.0,255.0
40,2.0,13.583,1.483,-0.1082,0.0841837985347251,-0.017132012336807726,-0.10976929621287257,0.04460311400830297,-0.009716880186179194,-0.05705936347007756,0,70,255.0,255.0,255.0
41,2.0500000000000003,13.587264625443677,1.482131146527647,-0.113759585581688,0.08639485170084837,-0.01762426166290715,-0.11261005838878058,0.043839012636627435,-0.009973092857797657,-0.0565711235662425,0,70,255.0,255.0,255.0
42,2.1,13.591638848418942,1.48123736032315,-0.11946059897229154,0.08856769979838786,-0.018129321622587492,-0.11542640856949683,0.04307491126495191,-0.010229305529416116,-0.056082883662407434,0,70,255.0,255.0,255.0
43,2.15,13.596120758672372,1.4803180008548287,-0.1253018195720511,0.09070234282734355,-0.018647192215848755,-0.11821834675502131,0.04231080989327638,-0.010485518201034577,-0.05559464375857237,0,70,255.0,255.0,255.0
44,2.2,13.600708445950533,1.479372427591005,-0.13128202678120712,0.09279878078771549,-0.01917787344269095,-0.12098587294535407,0.04154670852160085,-0.010741730872653038,-0.05510640385473731,0,70,255.0,255.0,255.0
45,2.25,13.6054,1.4784,-0.1374,0.09485701367950364,-0.019721365303114063,-0.12372898714049504,0.04078260714992554,-0.010997943544271555,-0.05461816395090335,0,70,255.0,255.0,255.0
46,2.3000000000000003,13.610193919263764,1.4774007765219062,-0.1436544095466947,0.09690156328821077,-0.02023572949078982,-0.12644114442191728,0.040999377198359575,-0.009576623962758643,-0.05386812730598547,0,70,255.0,255.0,255.0
47,2.35,13.615090336970527,1.4763776114839056,-0.1500434894116543,0.09895695139933959,-0.020679027699389927,-0.1291157998710936,0.04121614724679361,-0.008155304381245745,-0.05311809066106758,0,70,255.0,255.0,255.0
48,2.4000000000000004,13.620089795045407,1.475334058184952,-0.15656536450326664,0.10102317801289014,-0.021051259928914396,-0.13175295348802402,0.04143291729522765,-0.006733984799732835,-0.0523680540161497,0,70,255.0,255.0,255.0
49,2.45,13.625192835413523,1.4742736699239989,-0.1632181597299193,0.10310024312886237,-0.021352426179363216,-0.1343526052727086,0.04164968734366168,-0.005312665218219937,-0.05161801737123181,0,70,255.0,255.0,255.0
50,2.5,13.6304,1.4732,-0.17,0.1051881467472563,-0.02158252645073639,-0.13691475522514723,0.041866457392095935,-0.003891345636707011,-0.05086798072631504,0,70,255.0,255.0,255.0
51,2.5500000000000003,13.635711697501259,1.472115347384728,-0.17690997623153343,0.10727889514630873,-0.021816820373932795,-0.13949736392355058,0.041763478570000956,-0.005480411291149087,-0.05243636720981906,0,70,255.0,255.0,255.0
52,2.6,13.641127803698945,1.471016993741228,-0.18395104338109133,0.1093644946042564,-0.022130567579851296,-0.14215839194612914,0.04166049974790598,-0.0070694769455911495,-0.054004753693323075,0,70,255.0,255.0,255.0
53,2.6500000000000004,13.646648061146,1.469900966405364,-0.1911271224148826,0.11144494512109934,-0.02252376806849191,-0.1448978392928829,0.041557520925811,-0.008658542600033226,-0.055573140176827095,0,70,255.0,255.0,255.0
54,2.7,13.65227221239537,1.468763292713,-0.1984421342991159,0.1135202466968375,-0.022996421839854623,-0.14771570596381187,0.04145454210371602,-0.010247608254475288,-0.05714152666033111,0,70,255.0,255.0,255.0
55,2.75,13.658,1.4676,-0.2059,0.11559039933147093,-0.023548528893939435,-0.150611991958916,0.04135156328162137,-0.011836673908917295,-0.05870991314383511,0,70,255.0,255.0,255.0
56,2.8000000000000003,13.663831290731192,1.4664082339391822,-0.21350328552717182,0.1176628561265515,-0.024112989013478803,-0.15350539988388034,0.041546708521600965,-0.0107417308726573,-0.05702640385473704,0,70,255.0,255.0,255.0
57,2.85,13.669766448233688,1.4651896135511822,-0.22124913706398044,0.11974507018363102,-0.02462270198120517,-0.15631463234438972,0.04174185376158055,-0.009646787836397316,-0.055342894565638984,0,70,255.0,255.0,255.0
58,2.9000000000000004,13.675805960370587,1.4639468761935919,-0.22913334583720327,0.12183704150270956,-0.025077667797118536,-0.15903968934044424,0.04193699900156014,-0.008551844800137324,-0.05365938527654092,0,70,255.0,255.0,255.0
59,2.95,13.681950315004991,1.4626827592240006,-0.23715170307361733,0.12393877008378705,-0.025477886461218898,-0.1616805708720438,0.04213214424153973,-0.00745690176387734,-0.05197587598744286,0,70,255.0,255.0,255.0
60,3.0,13.6882,1.4614,-0.2453,0.1260502559268635,-0.025823357973506263,-0.16423727693918846,0.042327289481519204,-0.006361958727617328,-0.05029236669834414,0,70,255.0,255.0,255.0
61,3.0500000000000003,13.694555139573973,1.4601005168585441,-0.2535752816597794,0.12814968034749305,-0.026163223572152085,-0.1667850365409279,0.04164968734366172,-0.0072326652182154935,-0.051618017371232804,0,70,255.0,255.0,255.0
62,3.1,13.701014403366301,1.4587829520540427,-0.26197960836298684,0.1302152246612297,-0.026546624495327815,-0.16939907867631177,0.04097208520580424,-0.008103371708813652,-0.052943668044121456,0,70,255.0,255.0,255.0
63,3.1500000000000004,13.707576097371646,1.4574451288202692,-0.2705162942363047,0.13224688886807345,-0.02697356074303345,-0.17207940334534005,0.04029448306794676,-0.008974078199411817,-0.054269318717010115,0,70,255.0,255.0,255.0
64,3.2,13.714238527584659,1.456084870390997,-0.2791886534064149,0.13424467296802436,-0.027444032315268995,-0.17482601054801275,0.03961688093008928,-0.009844784690009975,-0.05559496938989877,0,70,255.0,255.0,255.0
65,3.25,13.721,1.4547,-0.288,0.13620857696108238,-0.027958039212034446,-0.1776389002843299,0.0389392787922318,-0.010715491180608022,-0.05692062006278609,0,70,255.0,255.0,255.0
66,3.3000000000000003,13.727859350972924,1.453288898626642,-0.2969523878337106,0.13817042248348035,-0.028482116697911636,-0.18044245395240788,0.039534542103686614,-0.010247608254479483,-0.055221526660331435,0,70,255.0,255.0,255.0
67,3.35,13.734817538301108,1.4518521782326475,-0.306042829484072,0.14016203117145104,-0.028982800037482395,-0.18316105295036306,0.04012980541514142,-0.009779725328350947,-0.0535224332578768,0,70,255.0,255.0,255.0
68,3.4000000000000004,13.741876050142828,1.450391008525332,-0.3152670772175783,0.1421834030249945,-0.029460089230746733,-0.18579469727819556,0.04072506872659623,-0.009311842402222405,-0.051823339855422146,0,70,255.0,255.0,255.0
69,3.45,13.749036374656367,1.448906559212011,-0.3246208833007229,0.14423453804411068,-0.029913984277704638,-0.18834338693590527,0.041320332038051036,-0.00884395947609387,-0.05012424645296751,0,70,255.0,255.0,255.0
70,3.5,13.7563,1.4474,-0.3341,0.1463154362287996,-0.030344485178356116,-0.19080712192349225,0.04191559534950606,-0.008376076549965389,-0.04842515305051265,0,70,255.0,255.0,255.0
71,3.5500000000000003,13.76366825653433,1.4458726886348887,-0.3437015670053782,0.14841662971857664,-0.030740309636202185,-0.19326914764944114,0.04213214424157368,-0.007456901763877356,-0.05005587598744246,0,70,255.0,255.0,255.0
72,3.6,13.771141843429266,1.4443267350153683,-0.35342827370072494,0.150528650652957,-0.031090175354743853,-0.1958127095222365,0.04234869313364129,-0.00653772697778933,-0.051686598924372266,0,70,255.0,255.0,255.0
73,3.6500000000000004,13.778721302057036,1.442764437078403,-0.36328419689338265,0.15265149903194075,-0.03139408233398112,-0.19843780754187837,0.0425652420257089,-0.005618552191701298,-0.05331732186130208,0,70,255.0,255.0,255.0
74,3.7,13.786407173789872,1.4411880927609584,-0.3732734133906936,0.15478517485552787,-0.03165203057391398,-0.2011444417083667,0.04278179091777652,-0.0046993774056132715,-0.054948044798231885,0,70,255.0,255.0,255.0
75,3.75,13.7942,1.4396,-0.3834,0.15692967812371839,-0.03186402007454245,-0.20393261202170157,0.04299833980984369,-0.0037802026195252747,-0.05657876773516057,0,70,255.0,255.0,255.0
76,3.8000000000000003,13.802099622889747,1.4380011468338023,-0.3936669441447769,0.1590430586422166,-0.03210864475728074,-0.206736955449828,0.04153688093008458,-0.006004784690006083,-0.055594969389896096,0,70,255.0,255.0,255.0
77,3.85,13.810103087981823,1.4363872817058798,-0.4040728757130284,0.16108336621672686,-0.03246449854354306,-0.20949210896069118,0.04007542205032548,-0.00822936676048687,-0.054611171044631625,0,70,255.0,255.0,255.0
78,3.9000000000000004,13.818206741629021,1.4347528431610561,-0.4146153352088917,0.16305060084724915,-0.03293158143332942,-0.21219807255429118,0.03861396317056637,-0.010453948830967678,-0.05362737269936714,0,70,255.0,255.0,255.0
79,3.95,13.826406930184147,1.4330922697441548,-0.4252918631365032,0.1649447625337835,-0.03350989342663983,-0.2148548462306279,0.03715250429080727,-0.012678530901448467,-0.05264357435410267,0,70,255.0,255.0,255.0
80,4.0,13.8347,1.4314,-0.4361,0.16676585127632987,-0.034199434523474265,-0.2174624299897014,0.03569104541104817,-0.014903112971929255,-0.051659776008837976,0,70,255.0,255.0,255.0
81,4.05,13.843083651906676,1.4296723240299012,-0.44703785641551447,0.16859513571255672,-0.03488911133467483,-0.22005503055124653,0.03748033203802618,-0.012683959476093472,-0.05204424645296841,0,70,255.0,255.0,255.0
82,4.1000000000000005,13.851561004643447,1.4279129381611124,-0.45810582344716155,0.17051388448013252,-0.035467830471083615,-0.22266685463499827,0.039269618665004224,-0.01046480598025765,-0.052428716897098854,0,70,255.0,255.0,255.0
83,4.15,13.860136531426877,1.4261273902773728,-0.46930486227105117,0.17252209757905715,-0.03593559193270061,-0.22529790224095644,0.04105890529198223,-0.008245652484421868,-0.052813187341229285,0,70,255.0,255.0,255.0
84,4.2,13.86881470547354,1.4243212282624222,-0.4806359340632939,0.1746197750093307,-0.036292395719525805,-0.22794817336912118,0.042848191918960235,-0.0060264989885860844,-0.053197657785359724,0,70,255.0,255.0,255.0
85,4.25,13.8776,1.4225,-0.4921,0.17680691677095317,-0.03653824183155921,-0.23061766801949243,0.0446374785459378,-0.0038073454927503025,-0.053582128229489934,0,70,255.0,255.0,255.0
86,4.3,13.886495369483551,1.4206679570465925,-0.5036976301931652,0.17899239850754686,-0.03675090990401841,-0.2332829223451855,0.04278179091781028,-0.004699377405617563,-0.053028044798232664,0,70,255.0,255.0,255.0
87,4.3500000000000005,13.895497693444396,1.418824165649671,-0.515427830498326,0.18108509586273422,-0.037008179572120964,-0.23592047249931572,0.040926103289682714,-0.0055914093184848395,-0.052473961366975394,0,70,255.0,255.0,255.0
88,4.4,13.904602332663467,1.416966395729453,-0.527289215706904,0.18308500883651516,-0.037310050835866894,-0.23853031848188305,0.03907041566155519,-0.0064834412313521,-0.051919877935718124,0,70,255.0,255.0,255.0
89,4.45,13.913804647921692,1.4150924172061567,-0.5392804006103215,0.18499213742888973,-0.037656523695256176,-0.24111246029288752,0.037214728033427666,-0.007375473144219361,-0.051365794504460854,0,70,255.0,255.0,255.0
90,4.5,13.9231,1.4132,-0.5514,0.18680648163985794,-0.03804759815028883,-0.2436668979323291,0.0353590404053008,-0.008267505057086677,-0.050811711073203814,0,70,255.0,255.0,255.0
91,4.55,13.932485270159118,1.4112870477837292,-0.563646822811825,0.18861927025726064,-0.03847524904925222,-0.24620528006801173,0.03715250429080749,-0.00883853090144887,-0.050723574354101866,0,70,255.0,255.0,255.0
92,4.6000000000000005,13.941963421578965,1.4093519992402046,-0.5760204545595354,0.1905217320689387,-0.03893145124043372,-0.2487392553677393,0.03894596817631421,-0.009409556745811072,-0.05063543763499991,0,70,255.0,255.0,255.0
93,4.65,13.951538937919251,1.4073934268048152,-0.5885206749013331,0.1925138670748921,-0.03941620472383333,-0.2512688238315117,0.0407394320618209,-0.009980582590173263,-0.050547300915897965,0,70,255.0,255.0,255.0
94,4.7,13.961216302839691,1.4054099029129508,-0.6011472634954206,0.19459567527512078,-0.039929509499451045,-0.25379398545932913,0.04253289594732759,-0.010551608434535455,-0.05045916419679601,0,70,255.0,255.0,255.0
95,4.75,13.971,1.4034,-0.6139,0.19676715666962483,-0.04047136556728687,-0.25631474025119133,0.04432635983283384,-0.011122634278897647,-0.05037102747769362,0,70,255.0,255.0,255.0
96,4.800000000000001,13.980893149879975,1.4013630518184912,-0.6267790785595351,0.19894652046341885,-0.04099609389897386,-0.2588559573827677,0.04284819191892562,-0.009866498988581378,-0.0512776577853587,0,70,255.0,255.0,255.0
97,4.8500000000000005,13.990893420239747,1.3993014373895112,-0.6397863512635332,0.20105197586151743,-0.04145801546614501,-0.2614425060297272,0.04137002400501742,-0.00861036369826513,-0.052184288093023765,0,70,255.0,255.0,255.0
98,4.9,14.00099711565953,1.3972182970512856,-0.6529240846877641,0.2030835228639206,-0.04185713026880036,-0.26407438619207,0.03989185609110922,-0.007354228407948884,-0.05309091840068883,0,70,255.0,255.0,255.0
99,4.95,14.011200540719544,1.3951167711420398,-0.6661945454079966,0.2050411614706283,-0.0421934383069399,-0.2667515978697961,0.038413688177201026,-0.006098093117632637,-0.053997548708353896,0,70,255.0,255.0,255.0
100,5.0,14.0215,1.393,-0.6796,0.2069248916816407,-0.042466939580563634,-0.2694741410629054,0.036935520263293053,-0.0048419578273165564,-0.05490417901601985,0,70,255.0,255.0,255.0
101,5.050000000000001,14.031892530320983,1.3908703449423054,-0.6931416629500357,0.20877864788905962,-0.042724375354852046,-0.27217889040091753,0.03721472803346222,-0.005455473144219666,-0.053285794504463156,0,70,255.0,255.0,255.0
102,5.1000000000000005,14.042378097462047,1.3887270512017509,-0.7068165403863321,0.21064636448498691,-0.0430124868949856,-0.27480272051335175,0.03749393580363139,-0.006068988461122766,-0.05166740999290649,0,70,255.0,255.0,255.0
103,5.15,14.052957399442622,1.3865685849900429,-0.7206205863476111,0.21252804146942272,-0.04333127420096432,-0.2773456314002081,0.03777314357380055,-0.006682503778025865,-0.05004902548134983,0,70,255.0,255.0,255.0
104,5.2,14.063631134282131,1.3843934125188904,-0.7345497548725932,0.21442367884236696,-0.04368073727278819,-0.2798076230614867,0.03805235134396972,-0.007296019094928965,-0.048430640969793166,0,70,255.0,255.0,255.0
105,5.25,14.0744,1.3822,-0.7486,0.2163332766038197,-0.04406087611045721,-0.28218869549718745,0.038331559114139546,-0.007909534411831953,-0.04681225645823739,0,70,255.0,255.0,255.0
106,5.300000000000001,14.085264728836098,1.3799867684122862,-0.7627686696403235,0.21825888798035578,-0.044474404681616515,-0.2845724810135633,0.038692895947302346,-0.008631608434539861,-0.04853916419679412,0,70,255.0,255.0,255.0
107,5.3500000000000005,14.096226189912063,1.3777519578034862,-0.7770586871911386,0.22020256619854997,-0.0449240369539112,-0.28704261191686686,0.03905423278046514,-0.009353682457247756,-0.05026607193535081,0,70,255.0,255.0,255.0
108,5.4,14.107285286569981,1.3754937629885429,-0.7914743699217922,0.22216431125840228,-0.04540977292734129,-0.28959908820709834,0.03941556961362794,-0.01007575647995565,-0.051992979673907515,0,70,255.0,255.0,255.0
109,5.45,14.118442922151932,1.3732103787823997,-0.8060200351016306,0.22414412315991275,-0.04593161260190676,-0.29224190988425763,0.03977690644679073,-0.010797830502663544,-0.05371988741246421,0,70,255.0,255.0,255.0
110,5.5,14.1297,1.3709,-0.8207,0.22614200190308137,-0.04648955597760763,-0.2949710769483447,0.04013824327995286,-0.011519904525371272,-0.05544679515102047,0,70,255.0,255.0,255.0
111,5.550000000000001,14.141057354334627,1.3685617814085493,-0.8355172584886719,0.22815380018951012,-0.04702600591868272,-0.2977071855448291,0.04033368817719625,-0.009938093117632284,-0.05399754870835414,0,70,255.0,255.0,255.0
112,5.6000000000000005,14.152515542889697,1.366198717584305,-0.8504695108491142,0.230175370720801,-0.04748336528937086,-0.3003708318191801,0.040529133074439644,-0.008356281709893327,-0.05254830226568784,0,70,255.0,255.0,255.0
113,5.65,14.164075054277456,1.3638147630557855,-0.8655531339652208,0.23220671349695407,-0.047861634089672055,-0.30296201577139786,0.04072457797168303,-0.006774470302154367,-0.05109905582302153,0,70,255.0,255.0,255.0
114,5.7,14.175736377110141,1.3614138723515108,-0.880764504720885,0.2342478285179693,-0.0481608123195863,-0.30548073740148224,0.04092002286892642,-0.005192658894415408,-0.04964980938035523,0,70,255.0,255.0,255.0
115,5.75,14.1875,1.359,-0.8961,0.23629871578384673,-0.0483808999791136,-0.30792699670943335,0.041115467766169145,-0.003610847486676505,-0.04820056293768715,0,70,255.0,255.0,255.0
116,5.800000000000001,14.199365853825391,1.356575705953516,-0.9115566964049907,0.23832591126160096,-0.04860557164365364,-0.31034277680712047,0.039972351343999464,-0.0053760190949249135,-0.04843064096979504,0,70,255.0,255.0,255.0
117,5.8500000000000005,14.21133163852914,1.3541379718592943,-0.9271344694124055,0.24029595091824668,-0.048918501888606095,-0.3127700608064129,0.038829234921829804,-0.007141190703173291,-0.04866071900190292,0,70,255.0,255.0,255.0
118,5.9,14.223394496320196,1.351682384788315,-0.9428338942173253,0.24220883475378394,-0.04931969071397097,-0.3152088487073107,0.03768611849966014,-0.008906362311421669,-0.0488907970340108,0,70,255.0,255.0,255.0
119,5.95,14.2355515694075,1.349204531811557,-0.9586555460148302,0.2440645627682127,-0.049809138119748256,-0.317659140509814,0.03654300207749048,-0.010671533919670045,-0.04912087506611869,0,70,255.0,255.0,255.0
120,6.0,14.2478,1.3467,-0.9746,0.24586313496153298,-0.050386844105937974,-0.32012093621392257,0.03539988565532082,-0.012436705527918479,-0.04935095309822479,0,70,255.0,255.0,255.0
121,6.050000000000001,14.26013763036381,1.3441657947773868,-0.9906679558913668,0.24764655476408515,-0.05096770750670253,-0.32260170722668974,0.03593690644676558,-0.010797830502663397,-0.04987988741246171,0,70,255.0,255.0,255.0
122,6.1000000000000005,14.272565102993735,1.3416045949785174,-1.0068606115012644,0.24945682560620955,-0.05146662715620432,-0.32510892495516874,0.03647392723821033,-0.009158955477408342,-0.05040882172669861,0,70,255.0,255.0,255.0
123,6.15,14.285083760441756,1.3390204977909543,-1.0231792891654787,0.2512939474879062,-0.05188360305444336,-0.32764258939935964,0.03701094802965508,-0.007520080452153288,-0.05093775604093551,0,70,255.0,255.0,255.0
124,6.2,14.297694945259853,1.3364176004022608,-1.0396253112197955,0.253157920409175,-0.052218635201419644,-0.33020270055926226,0.037547968821099835,-0.005881205426898233,-0.05146669035517242,0,70,255.0,255.0,255.0
125,6.25,14.3104,1.3338,-1.0562,0.2550487443700162,-0.05247172359713318,-0.33278925843487683,0.038084989612544806,-0.0042423304016430685,-0.051995624669408436,0,70,255.0,255.0,255.0
126,6.300000000000001,14.323200424719372,1.331170714936936,-1.0729042800295439,0.25697586968205394,-0.052707598329534755,-0.33537839428612093,0.03900002286896483,-0.00519265889441969,-0.05156980938035431,0,70,255.0,255.0,255.0
127,6.3500000000000005,14.33609834949592,1.328528448226636,-1.089737484582538,0.2589487466569127,-0.05299098948657516,-0.3379462393729123,0.03991505612538485,-0.006142987387196296,-0.05114399409130019,0,70,255.0,255.0,255.0
128,6.4,14.349096061912778,1.3258708240478678,-1.1066985491207606,0.2609673752945924,-0.05332189706825438,-0.34049279369525093,0.040830089381804865,-0.007093315879972901,-0.05071817880224607,0,70,255.0,255.0,255.0
129,6.45,14.362195849553093,1.3231954665794001,-1.1237864091059888,0.2630317555950932,-0.05370032107457244,-0.3430180572531369,0.04174512263822488,-0.008043644372749507,-0.05029236351319195,0,70,255.0,255.0,255.0
130,6.5,14.3754,1.3205,-1.141,0.26514188755841495,-0.05412626150552933,-0.3455220300465701,0.042660155894645335,-0.008993972865526112,-0.04986654822413872,0,70,255.0,255.0,255.0
131,6.550000000000001,14.3887094707587,1.317782545474869,-1.15833812399046,0.2672179665077173,-0.054569899175159246,-0.3479967156288266,0.040383002077447265,-0.008751533919670325,-0.04912087506612063,0,70,255.0,255.0,255.0
132,6.6000000000000005,14.402119899022592,1.315043212114939,-1.1757990501685844,0.2691801877661597,-0.05500141489749637,-0.3504341175531822,0.03810584826024923,-0.008509094973814543,-0.04837520190810255,0,70,255.0,255.0,255.0
133,6.65,14.415625591907135,1.3122826060175743,-1.1933809143514793,0.27102855133374215,-0.05542080867254069,-0.3528342358196369,0.035828694443051194,-0.008266656027958761,-0.04762952875008448,0,70,255.0,255.0,255.0
134,6.7,14.429220856527786,1.3095013332801397,-1.2110818523562497,0.27276305721046484,-0.05582808050029224,-0.3551970704281906,0.033551540625853166,-0.008024217082102979,-0.0468838555920664,0,70,255.0,255.0,255.0
135,6.75,14.4429,1.3067,-1.2289,0.27438370539632745,-0.05622323038075099,-0.35752262137884355,0.0312743868086538,-0.007781778136247086,-0.04613818243404788,0,70,255.0,255.0,255.0
136,6.800000000000001,14.456659292245835,1.3038791031635877,-1.2468344240086189,0.27600826428707154,-0.05661280496982951,-0.35986674319857404,0.03370796882110868,-0.007801205426893676,-0.047626690355169754,0,70,255.0,255.0,255.0
137,6.8500000000000005,14.470502854413718,1.3010387033136082,-1.2648879147431253,0.27775450227843834,-0.05700335092344037,-0.36228529041436053,0.03614155083356352,-0.007820632717540266,-0.0491151982762916,0,70,255.0,255.0,255.0
138,6.9,14.484436770458686,1.2981787518818348,-1.2830641934733225,0.2796224193704279,-0.05739486824158354,-0.36477826302620314,0.038575132846018365,-0.007840060008186855,-0.050603706197413445,0,70,255.0,255.0,255.0
139,6.95,14.49846712433577,1.295299200300041,-1.3013669814690132,0.28161201556304016,-0.05778735692425905,-0.3673456610341019,0.041008714858473204,-0.007859487298833446,-0.05209221411853529,0,70,255.0,255.0,255.0
140,7.0,14.5126,1.2924,-1.3198,0.2837232908562752,-0.058180816971466875,-0.3699874844380566,0.043442296870927155,-0.007878914589479868,-0.053580722039655804,0,70,255.0,255.0,255.0
141,7.050000000000001,14.526839760257973,1.2894810418707798,-1.3383657799750668,0.28585297634400403,-0.05857888094552262,-0.37263231157687776,0.041745122638225204,-0.008043644372749495,-0.052212363513187636,0,70,255.0,255.0,255.0
142,7.1000000000000005,14.54118388332254,1.2865419746306284,-1.357062090858916,0.2878978031200977,-0.05898518140874183,-0.3752087207893754,0.04004794840552329,-0.008208374156019117,-0.05084400498671949,0,70,255.0,255.0,255.0
143,7.15,14.55562812625812,1.2835823864550866,-1.3758855117552318,0.28985777118455636,-0.05939971836112452,-0.3777167120755497,0.038350774172821366,-0.00837310393928874,-0.04947564646025134,0,70,255.0,255.0,255.0
144,7.2,14.570168246129136,1.2806018655196965,-1.3948326217676987,0.29173288053737984,-0.0598224918026707,-0.38015628543540053,0.03665359994011945,-0.008537833722558364,-0.0481072879337832,0,70,255.0,255.0,255.0
145,7.25,14.5848,1.2776,-1.4139,0.2935231311785682,-0.06025350173338036,-0.382527440868928,0.03495642570741797,-0.008702563505827876,-0.04673892940731594,0,70,255.0,255.0,255.0
146,7.300000000000001,14.59952006672228,1.274576729353292,-1.433084856091116,0.2952838303368999,-0.06067167124807874,-0.38486801049391267,0.03547154062584853,-0.008024217082107179,-0.04688385559207138,0,70,255.0,255.0,255.0
147,7.3500000000000005,14.61432881229612,1.2715333981638786,-1.452386921821212,0.2970702852411531,-0.06105592344159108,-0.3872158264281351,0.03598665554427907,-0.007345870658386492,-0.04702878177682681,0,70,255.0,255.0,255.0
148,7.4,14.629227524508826,1.2684717022978191,-1.4718065595057501,0.29888249589132776,-0.06140625831391738,-0.3895708886715954,0.036501770462709617,-0.006667524234665807,-0.04717370796158225,0,70,255.0,255.0,255.0
149,7.45,14.644217491147687,1.2653933376211735,-1.491344131460192,0.30072046228742405,-0.061722675865057655,-0.3919331972242933,0.03701688538114017,-0.005989177810945121,-0.047318634146337676,0,70,255.0,255.0,255.0
150,7.5,14.6593,1.2623,-1.511,0.3025841844294418,-0.062005176095011896,-0.3943027520862291,0.037532000299568935,-0.005310831387224213,-0.04746356033109489,0,70,255.0,255.0,255.0
151,7.550000000000001,14.674475972852914,1.259192840716052,-1.5307747956604703,0.3044517023083939,-0.06228643406216334,-0.39669564644747,0.03716871485851509,-0.005939487298833499,-0.048252214118539714,0,70,255.0,255.0,255.0
152,7.6000000000000005,14.689744867492971,1.2560708327138572,-1.5506702218562367,0.30630105591529333,-0.06259912482489526,-0.3991279734980831,0.036805429417461254,-0.006568143210442774,-0.049040867905984525,0,70,255.0,255.0,255.0
153,7.65,14.705105775706574,1.2529324043536363,-1.570688250221768,0.30813224525014005,-0.06294324838320761,-0.40159973323806847,0.03644214397640741,-0.007196799122052049,-0.04982952169342934,0,70,255.0,255.0,255.0
154,7.7,14.720557789280118,1.24977598399561,-1.5908308523915329,0.30994527031293406,-0.06331880473710046,-0.404110925667426,0.03607885853535357,-0.007825455033661324,-0.050618175480874154,0,70,255.0,255.0,255.0
155,7.75,14.7361,1.2466,-1.6111,0.3117401311036754,-0.06372579388657375,-0.4066615507861559,0.03571557309430151,-0.008454110945270377,-0.0514068292683203,0,70,255.0,255.0,255.0
156,7.800000000000001,14.751732041866072,1.243403107782499,-1.631496761267004,0.3135493604295351,-0.06415059250326936,-0.40919740371620844,0.03665359994008634,-0.008537833722554013,-0.050027287933778974,0,70,255.0,255.0,255.0
157,7.8500000000000005,14.767455717731991,1.240184870980692,-1.6520185907538423,0.315405491097684,-0.06457957725882915,-0.41166427957953383,0.03759162678587114,-0.008621556499837648,-0.04864774659923768,0,70,255.0,255.0,255.0
158,7.9,14.783273372664878,1.2369450802876354,-1.6726620396071785,0.3173085231081222,-0.06501274815325313,-0.4140621783761322,0.038529653631655954,-0.00870527927712128,-0.047268205264696384,0,70,255.0,255.0,255.0
159,7.95,14.799187351731844,1.2336835263963855,-1.6934236589736764,0.3192584564608496,-0.06545010518654128,-0.41639110010600344,0.03946768047744076,-0.008789002054404915,-0.04588866393015509,0,70,255.0,255.0,255.0
160,8.0,14.8152,1.2304,-1.7143,0.32125529115586626,-0.06589164835869361,-0.4186510447691477,0.04040570732322646,-0.008872724831688328,-0.04450912259561601,0,70,255.0,255.0,255.0
161,8.05,14.831312659682805,1.227094728153951,-1.7352885592715148,0.32323885597347446,-0.06631119592475944,-0.4208987386876966,0.03893688538110085,-0.007909177810944764,-0.04539863414633897,0,70,255.0,255.0,255.0
162,8.1,14.847522661579063,1.2237696833633747,-1.7563906151283952,0.3251489796939763,-0.0666825661397881,-0.4231909081837816,0.037468063438975296,-0.006945630790201236,-0.0462881456970619,0,70,255.0,255.0,255.0
163,8.15,14.863826333633918,1.2204272744958227,-1.7776083913495184,0.32698566231737203,-0.06700575900377956,-0.4255275532574028,0.03599924149684969,-0.005982083769457674,-0.047177657247784846,0,70,255.0,255.0,255.0
164,8.200000000000001,14.880220003792514,1.2170699104188474,-1.7989441117137617,0.32874890384366134,-0.06728077451673387,-0.42790867390856013,0.03453041955472408,-0.00501853674871411,-0.04806716879850781,0,70,255.0,255.0,255.0
165,8.25,14.8967,1.2137,-1.8204,0.33043870427284444,-0.06750761267865098,-0.43033427013725356,0.03306159761259986,-0.0040549897279701375,-0.04895668034923162,0,70,255.0,255.0,255.0
166,8.3,14.913263719402709,1.2103187796016968,-1.841977801646938,0.3321192156765443,-0.06775662379769176,-0.4327756415330063,0.03415885853539297,-0.005905455033661337,-0.048698175480875065,0,70,255.0,255.0,255.0
167,8.35,14.929912835951756,1.2069227955658095,-1.8636773487325766,0.33385459012638374,-0.0680981581820171,-0.435204087685341,0.03525611945818605,-0.007755920339352471,-0.048439670612518526,0,70,255.0,255.0,255.0
168,8.4,14.94665009279945,1.2035074217290735,-1.8854979949947481,0.33564482762236286,-0.06853221583162701,-0.4376196085942581,0.036353380380979156,-0.009606385645043672,-0.04818116574416198,0,70,255.0,255.0,255.0
169,8.450000000000001,14.963478233098094,1.200068031928225,-1.9074390941712798,0.3374899281644817,-0.06905879674652148,-0.44002220425975735,0.03745064130377227,-0.01145685095073487,-0.04792266087580543,0,70,255.0,255.0,255.0
170,8.5,14.9804,1.1966,-1.9295,0.33938989175274015,-0.06967790092670048,-0.4424118746818386,0.03854790222656668,-0.013307316256425672,-0.047664156007449776,0,70,255.0,255.0,255.0
171,8.55,14.997417262706358,1.193100553439262,-1.9516802341407362,0.3412922813203413,-0.07027830888447135,-0.4447986951802787,0.03754768047747968,-0.010709002054408863,-0.04780866393015195,0,70,255.0,255.0,255.0
172,8.6,15.01452839461391,1.1895743343733878,-1.9739799899412964,0.34314465980048814,-0.07074880113214137,-0.4471927410748538,0.03654745872839272,-0.008110687852392148,-0.04795317185285412,0,70,255.0,255.0,255.0
173,8.65,15.031730895168282,1.1860278385878829,-1.99639962867149,0.3449470271931806,-0.07108937766971056,-0.44959401236556407,0.03554723697930572,-0.005512373650375339,-0.048097679775556304,0,70,255.0,255.0,255.0
174,8.700000000000001,15.049022263815104,1.1824675618682519,-2.0189395116011224,0.3466993834984187,-0.0713000384971789,-0.4520025090524095,0.034547015230218726,-0.002914059448358531,-0.04824218769825848,0,70,255.0,255.0,255.0
175,8.75,15.0664,1.1789,-2.0416,0.34840172871620245,-0.07138078361454642,-0.45441823113539,0.03354679348113088,-0.0003157452463415922,-0.048386695620961095,0,70,255.0,255.0,255.0
176,8.8,15.08386242977186,1.1753294066412556,-2.06438126179012,0.350103659042098,-0.0714661406644228,-0.45682957774587685,0.034530419554690196,-0.003098536748714182,-0.04806716879851213,0,70,255.0,255.0,255.0
177,8.85,15.101411185592603,1.1717510669406392,-2.0872826915022356,0.3518547706716714,-0.07169063728941784,-0.4592249480152412,0.03551404562824948,-0.005881328251086673,-0.04774764197606318,0,70,255.0,255.0,255.0
178,8.9,15.11904872652742,1.168158023919395,-2.1103034903192914,0.35365506360492294,-0.07205427348953147,-0.46160434194348315,0.03649767170180881,-0.008664119753459263,-0.047428115153614225,0,70,255.0,255.0,255.0
179,8.950000000000001,15.136777511641492,1.1645433205987674,-2.1334428594242323,0.3555045378418524,-0.07255704926476378,-0.46396775953060265,0.03748129777536813,-0.011446911255831853,-0.04710858833116526,0,70,255.0,255.0,255.0
180,9.0,15.1546,1.1609,-2.1567,0.3574031933824597,-0.07319896461511466,-0.46631520077659966,0.03846492384892786,-0.014229702758204121,-0.046789061508714536,0,70,255.0,255.0,255.0
181,9.05,15.172517818206206,1.1572234199957163,-2.1800739186987856,0.3593010825112773,-0.07384112845783804,-0.4686349938362129,0.03745064130377365,-0.011456850950730284,-0.046002660875813714,0,70,255.0,255.0,255.0
182,9.1,15.190529263015673,1.1535181978640558,-2.20356284404976,0.361148257512837,-0.07434464971018769,-0.47091546686418106,0.03643635875861949,-0.008683999143256547,-0.04521626024291293,0,70,255.0,255.0,255.0
183,9.15,15.208631798722037,1.149791265734537,-2.2271648100513426,0.3629447183871392,-0.07470952837216367,-0.47315661986050417,0.035422076213465284,-0.005911147335782709,-0.044429859610012105,0,70,255.0,255.0,255.0
184,9.200000000000001,15.226822889618933,1.1460495557366788,-2.2508778507019507,0.36469046513418363,-0.07493576444376597,-0.4753584528251823,0.03440779366831108,-0.0031382955283088734,-0.04364345897711129,0,70,255.0,255.0,255.0
185,9.25,15.2451,1.1423,-2.2747,0.36638549775397034,-0.07502335792499457,-0.47752096575821523,0.03339351112315825,-0.0003654437208349126,-0.04285705834421183,0,70,255.0,255.0,255.0
186,9.3,15.263461497403314,1.1385473133758794,-2.2986302634147386,0.3680840109128039,-0.07510534550422451,-0.4797024469092768,0.03454701523018448,-0.002914059448362752,-0.044402187698251994,0,70,255.0,255.0,255.0
187,9.35,15.281909362344704,1.134787341603138,-2.3226715322987226,0.36984019927698875,-0.07531476386983084,-0.48196118452804043,0.03570051933721067,-0.005462675175890501,-0.0459473170522921,0,70,255.0,255.0,255.0
188,9.4,15.300446478584435,1.131013713142457,-2.346827669475338,0.37165406284652497,-0.07565161302181356,-0.48429717861450605,0.036854023444236904,-0.008011290903418341,-0.04749244640633227,0,70,255.0,255.0,255.0
189,9.450000000000001,15.31907572988278,1.127220056454517,-2.3711025377679693,0.3735256016214125,-0.07611589296017268,-0.4867104291686737,0.03800752755126313,-0.01055990663094618,-0.04903757576037243,0,70,255.0,255.0,255.0
190,9.5,15.3378,1.1234,-2.3955,0.3754548156016513,-0.07670760368490817,-0.48920093619054333,0.03916103165828755,-0.013108522358473707,-0.050582705114412096,0,70,255.0,255.0,255.0
191,9.55,15.356620992180538,1.1195489265007659,-2.4200226276422607,0.3773708738374935,-0.07732148952526571,-0.4916912185266824,0.03748129777540112,-0.011446911255827374,-0.04902858833115083,0,70,255.0,255.0,255.0
192,9.600000000000001,15.375535687605515,1.1156692357233922,-2.44466782675535,0.3792029453791914,-0.07785229481049091,-0.49410379502365853,0.035801563892514696,-0.00978530015318104,-0.04747447154788955,0,70,255.0,255.0,255.0
193,9.65,15.394539886940223,1.1117650816956357,-2.4694317120473075,0.380951030226745,-0.07830001954058381,-0.4964386656814714,0.03412183000962833,-0.008123689050534766,-0.045920354764628336,0,70,255.0,255.0,255.0
194,9.700000000000001,15.413629390849954,1.1078406184452525,-2.4943103982261774,0.38261512838015427,-0.0786646637155444,-0.4986958305001213,0.0324420961267419,-0.006462077947888432,-0.04436623798136706,0,70,255.0,255.0,255.0
195,9.75,15.4328,1.1039,-2.5193,0.38419523983941917,-0.07894622733537265,-0.500875289479608,0.030762362243856423,-0.004800466845241713,-0.042812121198103625,0,70,255.0,255.0,255.0
196,9.8,15.452048933874536,1.0999465806210569,-2.5443976260162198,0.3857764937372235,-0.07919269639471141,-0.5030366789839888,0.03248779366831711,-0.005058295528308502,-0.043643458977128104,0,70,255.0,255.0,255.0
197,9.850000000000001,15.471379087233244,1.095980515503293,-2.569604360679882,0.38744401920625093,-0.0794520568882035,-0.505239635377321,0.034213225092777806,-0.005316124211375291,-0.04447479675615258,0,70,255.0,255.0,255.0
198,9.9,15.490794773654681,1.0920011600750006,-2.5949222823354336,0.3891978162465013,-0.07972430881584894,-0.5074841586596041,0.03593865651723843,-0.005573952894442071,-0.045306134535177026,0,70,255.0,255.0,255.0
199,9.950000000000001,15.510300306717413,1.088007869764472,-2.6203534693273243,0.39103788485797475,-0.08000945217764771,-0.5097702488308385,0.03766408794169912,-0.00583178157750886,-0.046137472314201504,0,70,255.0,255.0,255.0
200,10.0,15.5299,1.084,-2.6459,0.3929642250406712,-0.08030748697359982,-0.5120979058910242,0.03938951936616064,-0.006089610260575418,-0.046968810093225954,0,70,255.0,255.0,255.0
201,10.05,15.54959687232132,1.0799767510150067,-2.671563668292863,0.3948991512136068,-0.08062772489588799,-0.5144500655373642,0.038007527551262556,-0.006719906630950732,-0.04711757576036888,0,70,255.0,255.0,255.0
202,10.100000000000001,15.569388763461514,1.0759367022634359,-2.6973451305251266,0.3967649777957975,-0.0809794776366949,-0.5168096634670611,0.03662553573636447,-0.007350203001326046,-0.04726634142751181,0,70,255.0,255.0,255.0
203,10.15,15.589272218441051,1.0718782780043619,-2.723244758610958,0.39856170478724323,-0.08136274519602059,-0.5191766996801154,0.03524354392146644,-0.007980499371701337,-0.04741510709465473,0,70,255.0,255.0,255.0
204,10.200000000000001,15.609243782280393,1.0677999024968587,-2.749262924464527,0.4002893321879441,-0.08177752757386503,-0.5215511741765266,0.033861552106568354,-0.008610795742076651,-0.04756387276179766,0,70,255.0,255.0,255.0
205,10.25,15.6293,1.0637,-2.7754,0.40194785999790006,-0.08222382477022824,-0.5239330869562951,0.03247956029166943,-0.009241092112451943,-0.047712638428943244,0,70,255.0,255.0,255.0
206,10.3,15.649437976840193,1.0595776153189165,-2.8016557008123315,0.4035709014083603,-0.08266440402173675,-0.5262830588665529,0.03244209612674176,-0.00838207794788811,-0.04628623798136198,0,70,255.0,255.0,255.0
207,10.350000000000001,15.6696570589207,1.0554342754429633,-2.8280271172196163,0.4051920696105743,-0.08306203256501707,-0.5285617107544314,0.03240463196181409,-0.007523063783324278,-0.044859837533780714,0,70,255.0,255.0,255.0
208,10.4,15.689957152581112,1.051272127907552,-2.8545106832207345,0.40681136460454176,-0.08341671040006918,-0.5307690426199309,0.03236716779688642,-0.006664049618760475,-0.0434334370861995,0,70,255.0,255.0,255.0
209,10.450000000000001,15.710338164161017,1.0470933202480937,-2.88110283281457,0.4084287863902629,-0.08372843752689312,-0.5329050544630514,0.03232970363195875,-0.005805035454196642,-0.04200703663861824,0,70,255.0,255.0,255.0
210,10.5,15.7308,1.0429,-2.9078,0.41004433496773757,-0.08399721394548884,-0.5349697462837927,0.03229223946703064,-0.00494602128963284,-0.0405806361910388,0,70,255.0,255.0,255.0
211,10.55,15.751343220317919,1.0386935877093268,-2.9345999284578133,0.4116972431529552,-0.08426665901716728,-0.537041698996424,0.033824087941674574,-0.005831781577504515,-0.04229747231421064,0,70,255.0,255.0,255.0
212,10.600000000000001,15.771971000855691,1.0344725959647099,-2.9615056005964124,0.4134267437619051,-0.08458039210323931,-0.5391994935152139,0.03535593641631851,-0.00671754186537619,-0.04401430843738248,0,70,255.0,255.0,255.0
213,10.65,15.792687171234505,1.0302348103654295,-2.988521308506104,0.41523283679458706,-0.08493841320370489,-0.5414431298401622,0.036887784890962394,-0.007603302153247832,-0.04573114456055426,0,70,255.0,255.0,255.0
214,10.700000000000001,15.813495561075547,1.0259780165107661,-3.0156513442771975,0.4171155222510013,-0.08534072231856409,-0.5437726079712691,0.03841963336560633,-0.008489062441119508,-0.047447980683726104,0,70,255.0,255.0,255.0
215,10.75,15.8344,1.0217,-3.0429,0.4190748001311477,-0.08578731944781685,-0.5461879279085349,0.039951481840250214,-0.009374822728991261,-0.04916481680689877,0,70,255.0,255.0,255.0
216,10.8,15.855402741888136,1.0173992338437758,-3.0702701853564167,0.4210161259798188,-0.08623695990959356,-0.5486061451477521,0.03770155210659324,-0.008610795742076604,-0.04756387276179017,0,70,255.0,255.0,255.0
217,10.850000000000001,15.876499737656538,1.0130769406981963,-3.0977592803947385,0.42284495534180705,-0.08664839902202452,-0.550944315184714,0.03545162237293627,-0.007846768755161949,-0.04596292871668157,0,70,255.0,255.0,255.0
218,10.9,15.897685362480871,1.0087350306307292,-3.1253632827548508,0.42456128821711236,-0.08702163678510975,-0.5532024380194204,0.03320169263927937,-0.00708274176824732,-0.044361984671573026,0,70,255.0,255.0,255.0
219,10.950000000000001,15.918953991536805,1.0043754137088412,-3.1530781900766423,0.42616512460573497,-0.08735667319884925,-0.5553805136518712,0.0309517629056224,-0.006318714781332663,-0.04276104062646443,0,70,255.0,255.0,255.0
220,11.0,15.9403,1.0,-3.1809,0.4276564645076747,-0.08765350826324302,-0.5574785420820668,0.028701833171964175,-0.005554687794417812,-0.04116009658135855,0,70,255.0,255.0,255.0
221,11.05,15.961719412129542,0.9956102769155699,-3.2088257301165206,0.42913425292777285,-0.08793750134445849,-0.5595577204125665,0.030409703631962007,-0.005805035454200817,-0.04200703663862787,0,70,255.0,255.0,255.0
222,11.100000000000001,15.98321484851816,0.9912060412425042,-3.2368564778246385,0.4306974348708709,-0.08823401180866311,-0.5616792457459298,0.03211757409195984,-0.006055383113983822,-0.04285397669589719,0,70,255.0,255.0,255.0
223,11.15,16.004790578842012,0.9867866671116536,-3.264994360474495,0.43234601033696884,-0.08854303965585686,-0.5638431180821561,0.03382544455195761,-0.006305730773766817,-0.04370091675316648,0,70,255.0,255.0,255.0
224,11.200000000000001,16.026450872777243,0.9823515286538688,-3.293241495416235,0.4340799793260667,-0.0888645848860398,-0.5660493374212463,0.03553331501195544,-0.006556078433549822,-0.0445478568104358,0,70,255.0,255.0,255.0
225,11.25,16.0482,0.9779,-3.3216,0.43589934183816437,-0.08919864749921184,-0.5682979037631998,0.037241185471954985,-0.006806426093332596,-0.045394796867706866,0,70,255.0,255.0,255.0
226,11.3,16.070041209593704,0.9734316584939444,-3.3500716941775015,0.4377428623091027,-0.08953303471257305,-0.5705709732019856,0.036499633365577634,-0.0065690624411155,-0.04552798068372308,0,70,255.0,255.0,255.0
227,11.350000000000001,16.091973668270825,0.968946894331786,-3.378657208306713,0.4395493051747222,-0.08985555374332341,-0.572850701831572,0.03575808125920028,-0.006331698788898403,-0.045661164499739296,0,70,255.0,255.0,255.0
228,11.4,16.11399552215109,0.9644463009226557,-3.407356875347172,0.4413186704350227,-0.09016620459146289,-0.5751370896519594,0.03501652915282295,-0.006094335136681315,-0.04579434831575551,0,70,255.0,255.0,255.0
229,11.450000000000001,16.13610491735424,0.9599304716756833,-3.4361710282584217,0.44305095809000444,-0.09046498725699154,-0.5774301366631477,0.0342749770464456,-0.005856971484464219,-0.045927532131771726,0,70,255.0,255.0,255.0
230,11.5,16.1583,0.9554,-3.4651,0.44474616813966733,-0.09075190173990931,-0.5797298428651366,0.03353342494006961,-0.005619607832246687,-0.04606071594779326,0,70,255.0,255.0,255.0
231,11.55,16.180578949495644,0.950855089108652,-3.494143493173475,0.44640629783580865,-0.09105035980524885,-0.581998386779493,0.0328717629055835,-0.006318714781334599,-0.044681040626463345,0,70,255.0,255.0,255.0
232,11.600000000000001,16.202940078398555,0.9462943814303507,-3.5232986889485156,0.4480333444302257,-0.09138377321804278,-0.584197946927783,0.032210100871097394,-0.007017821730422511,-0.04330136530513343,0,70,255.0,255.0,255.0
233,11.65,16.225381732553636,0.9417161291977235,-3.552562138136818,0.44962730792291844,-0.0917521419782911,-0.5863285233100064,0.031548438836611306,-0.007716928679510398,-0.04192168998380356,0,70,255.0,255.0,255.0
234,11.700000000000001,16.247902257805816,0.9371185846433974,-3.581930391550082,0.45118818831388685,-0.09215546608599381,-0.5883901159261633,0.0308867768021252,-0.008416035628598311,-0.04054201466247364,0,70,255.0,255.0,255.0
235,11.75,16.2705,0.9325,-3.6114,0.452715985603131,-0.09259374554115091,-0.5903827247762539,0.03022511476763956,-0.009115142577686086,-0.03916233934114821,0,70,255.0,255.0,255.0
236,11.8,16.293174192423717,0.9278591850714469,-3.6409687331286023,0.45426394634762285,-0.0930335260664318,-0.5923794796800435,0.03169331501203294,-0.008476078433549618,-0.040707856810437114,0,70,255.0,255.0,255.0
237,11.850000000000001,16.31592761813496,0.9231971799468102,-3.67063923589923,0.45588531710433433,-0.09344135338450589,-0.5944535104572977,0.03316151525642632,-0.007837014289413151,-0.042253374279726016,0,70,255.0,255.0,255.0
238,11.9,16.33876394763435,0.9185155822864498,-3.700415372105556,0.4575800978732654,-0.09381722749537312,-0.5966048171080162,0.03462971550081965,-0.007197950145276705,-0.04379889174901487,0,70,255.0,255.0,255.0
239,11.950000000000001,16.361686851422498,0.9138159897507263,-3.7303010055412558,0.45934828865441624,-0.09416114839903354,-0.5988333996321991,0.036097915745213024,-0.006558886001140238,-0.04534440921830377,0,70,255.0,255.0,255.0
240,12.0,16.3847,0.9091,-3.7603,0.46118988944778677,-0.09447311609548714,-0.6011392580298466,0.037566115989607685,-0.005919821857003793,-0.046889926687595285,0,70,255.0,255.0,255.0
241,12.05,16.40780588080948,0.9043689706055597,-3.790415174312121,0.4630339167736897,-0.09476753592902384,-0.6034596945003309,0.03619497704651031,-0.005856971484464068,-0.04592753213177348,0,70,255.0,255.0,255.0
242,12.100000000000001,16.43100224906158,0.899623298782408,-3.820645167454571,0.46480938715243786,-0.09505881324393356,-0.6057320112430239,0.03482383810341295,-0.005794121111924342,-0.04496513757595168,0,70,255.0,255.0,255.0
243,12.15,16.454285676908942,0.8948631416564767,-3.8509875734409595,0.46651630058403104,-0.09534694804021628,-0.607956208257926,0.033452699160315624,-0.00573127073938462,-0.044002743020129916,0,70,255.0,255.0,255.0
244,12.200000000000001,16.4776527365042,0.8900886563536968,-3.8814399862849003,0.4681546570684694,-0.09563194031787202,-0.610132285545037,0.03208156021721826,-0.005668420366844893,-0.04304034846430811,0,70,255.0,255.0,255.0
245,12.25,16.5011,0.8853,-3.912,0.4697244566057528,-0.09591379007690076,-0.6122602431043568,0.030710421274120492,-0.005605569994305171,-0.04207795390848812,0,70,255.0,255.0,255.0
246,12.3,16.524624684338352,0.8804969325063143,-3.942665769622918,0.4712643865576555,-0.09621633021747336,-0.614373742318631,0.03088677680198906,-0.006496035628598408,-0.042462014662480216,0,70,255.0,255.0,255.0
247,12.350000000000001,16.548226585618707,0.8756776249235572,-3.973437694282492,0.47281313428595173,-0.09656339363976062,-0.6165064445706049,0.031063132329857628,-0.007386501262891646,-0.042846075416472305,0,70,255.0,255.0,255.0
248,12.4,16.571906144729887,0.8708398510876431,-4.004316734130606,0.4743706997906413,-0.09695498034376251,-0.6186583498602782,0.031239487857726192,-0.008276966897184851,-0.04323013617046439,0,70,255.0,255.0,255.0
249,12.450000000000001,16.59566380256071,0.8659813848344858,-4.035303849319148,0.4759370830717244,-0.0973910903294791,-0.6208294581876512,0.031415843385594756,-0.009167432531478089,-0.04361419692445648,0,70,255.0,255.0,255.0
250,12.5,16.6195,0.8611,-4.0664,0.47751228412920077,-0.09787172359691033,-0.6230197695527238,0.03159219891346332,-0.010057898165771184,-0.043998257678445896,0,70,255.0,255.0,255.0
251,12.55,16.643415381837116,0.8561944993691825,-4.0976057471962095,0.47910853699566797,-0.09833514320108307,-0.6252053362251424,0.03225791574522284,-0.008478886001137775,-0.04342440921830039,0,70,255.0,255.0,255.0
252,12.600000000000001,16.667411408463593,0.851267801523362,-4.128920055415464,0.4807380757037231,-0.09871961219702412,-0.6273622104745539,0.03292363257698236,-0.006899873836504367,-0.04285056075815488,0,70,255.0,255.0,255.0
253,12.65,16.691489744171513,0.8463238539929506,-4.160341490036615,0.4824009002533662,-0.0990251305847335,-0.6294903923009579,0.03358934940874186,-0.005320861671871013,-0.042276712298009396,0,70,255.0,255.0,255.0
254,12.700000000000001,16.715652053252956,0.8413666043083593,-4.19186861643851,0.48409701064459726,-0.09925169836421123,-0.6315898817043547,0.034255066240501376,-0.0037418495072376046,-0.04170286383786389,0,70,255.0,255.0,255.0
255,12.75,16.7399,0.8364,-4.2235,0.4858264068774163,-0.09939931553545726,-0.6336606786847443,0.03492078307226176,-0.0021628373426040293,-0.04112901537771663,0,70,255.0,255.0,255.0
256,12.8,16.764234588313183,0.8314266700169554,-4.255234441592246,0.4875494654596566,-0.09954709697819356,-0.6357169127807955,0.03400156021735013,-0.0037484203668471943,-0.04112034846433019,0,70,255.0,255.0,255.0
257,12.850000000000001,16.78865418052692,0.8264439689829937,-4.287071684055653,0.48922656289915134,-0.09977415757214199,-0.6377727135311774,0.033082337362438506,-0.005334003391090359,-0.04111168155094376,0,70,255.0,255.0,255.0
258,12.9,16.813156478584055,0.8214479329405543,-4.319011705722935,0.4908576991959005,-0.10008049731730258,-0.6398280809358898,0.03216311450752691,-0.006919586415333467,-0.04110301463755732,0,70,255.0,255.0,255.0
259,12.950000000000001,16.837739184427466,0.8164345979320765,-4.351054484926813,0.492442874349904,-0.10046611621367534,-0.641883014994933,0.031243891652615277,-0.008505169439576632,-0.041094347724170886,0,70,255.0,255.0,255.0
260,13.0,16.8624,0.8114,-4.3832,0.493982088361162,-0.10093101426126022,-0.6439375157083068,0.030324668797704568,-0.010090752463819852,-0.04108568081078534,0,70,255.0,255.0,255.0
261,13.05,16.887137464910133,0.8063412205629956,-4.41544848643481,0.49552560116574107,-0.10141246888614268,-0.6460070126516871,0.031415843385458525,-0.009167432531478234,-0.041694196924426496,0,70,255.0,255.0,255.0
262,13.100000000000001,16.91195346942873,0.8012595225446626,-4.447801208361931,0.49712367269970786,-0.10184775751440805,-0.6481069354007496,0.03250701797321248,-0.008244112599136617,-0.042302713038067645,0,70,255.0,255.0,255.0
263,13.15,16.93685074149226,0.7961572142448318,-4.480259687071646,0.4987763029630623,-0.10223688014605634,-0.6502372839554938,0.0335981925609664,-0.007320792666795033,-0.04291122915170878,0,70,255.0,255.0,255.0
264,13.200000000000001,16.961832009037195,0.7910366039633339,-4.512825443854242,0.5004834919558045,-0.10257983678108755,-0.6523980583159205,0.034689367148720354,-0.006397472734453416,-0.043519745265349935,0,70,255.0,255.0,255.0
265,13.25,16.9869,0.7859,-4.5455,0.5022452396779343,-0.10287662741950168,-0.654589258482029,0.03578054173647427,-0.005474152802111387,-0.04412826137899373,0,70,255.0,255.0,255.0
266,13.3,17.012056352046276,0.7807492477310618,-4.578284412668516,0.5039961298773588,-0.1031550274772354,-0.6567830366124504,0.03425506624050152,-0.00566184950723714,-0.043622863837859065,0,70,255.0,255.0,255.0
267,13.350000000000001,17.037298341758156,0.7755843408383554,-4.611177882496628,0.5056707463019845,-0.1034428123702254,-0.6589515448658149,0.03272959074452877,-0.0058495462123628935,-0.0431174662967244,0,70,255.0,255.0,255.0
268,13.4,17.062622155446896,0.7704048100801183,-4.64417914599048,0.5072690889518116,-0.10373998209847168,-0.6610947832421227,0.031204115248556076,-0.006037242917488641,-0.04261206875558975,0,70,255.0,255.0,255.0
269,13.450000000000001,17.088023979423756,0.7652101862145875,-4.677286939656223,0.50879115782684,-0.10404653666197426,-0.663212751741374,0.029678639752583325,-0.006224939622614394,-0.04210667121445509,0,70,255.0,255.0,255.0
270,13.5,17.1135,0.76,-4.7105,0.5102369529270699,-0.10436247606073312,-0.6653054503635683,0.028153164256608854,-0.006412636327739918,-0.04160127367331867,0,70,255.0,255.0,255.0
271,13.55,17.139047526904754,0.754773788512757,-4.743817062891125,0.5116738793248041,-0.10468742120491605,-0.6673728408985063,0.029323891652755858,-0.00658516943957679,-0.04109434772420357,0,70,255.0,255.0,255.0
272,13.600000000000001,17.164668363538645,0.7495311141019151,-4.77723686165156,0.5131693420923455,-0.10502099300469081,-0.6694148851359887,0.03049461904890286,-0.006757702551413663,-0.04058742177508846,0,70,255.0,255.0,255.0
273,13.65,17.190365436720153,0.7442715454346948,-4.810758128966433,0.5147233412296943,-0.1053631914600574,-0.6714315830760151,0.03166534644504982,-0.006930235663250529,-0.04008049582597337,0,70,255.0,255.0,255.0
274,13.700000000000001,17.216141673267774,0.7389946511783162,-4.84437959752087,0.5163358767368506,-0.10571401657101587,-0.673422934718586,0.03283607384119683,-0.007102768775087402,-0.03957356987685826,0,70,255.0,255.0,255.0
275,13.75,17.242,0.7337,-4.8781,0.5180069486138141,-0.10607346833756613,-0.6753889400637011,0.0340068012373429,-0.007275301886923491,-0.03906664392774406,0,70,255.0,255.0,255.0
276,13.8,17.267942340334702,0.7283875982179099,-4.911918535766986,0.5196763528234624,-0.10641528770310056,-0.6773575997935279,0.03276936714858783,-0.006397472734453046,-0.03967974526532655,0,70,255.0,255.0,255.0
277,13.850000000000001,17.29396660408727,0.7230592027539835,-4.945836270897136,0.5212838853286729,-0.10671321561101145,-0.6793569145902337,0.03153193305983276,-0.0055196435819826,-0.040292846602909035,0,70,255.0,255.0,255.0
278,13.9,17.320069697672498,0.7177170081811024,-4.97985473814379,0.5228295461294457,-0.10696725206129881,-0.6813868844538188,0.030294498971077735,-0.0046418144295121855,-0.040905947940491495,0,70,255.0,255.0,255.0
279,13.950000000000001,17.346248527505143,0.7123632090721475,-5.0139754702602986,0.5243133352257807,-0.10717739705396266,-0.6834475093842829,0.029057064882322667,-0.0037639852770417403,-0.04151904927807398,0,70,255.0,255.0,255.0
280,14.0,17.3725,0.707,-5.0482,0.525735252617678,-0.10734365058900297,-0.6855387893816262,0.027819630793565864,-0.0028861561245712153,-0.04213215061565645,0,70,255.0,255.0,255.0
281,14.05,17.39882231175644,0.7016286186156031,-5.082529594040934,0.5271727093813317,-0.10752342798268257,-0.6876447599273794,0.029678639752582142,-0.0043049396226125785,-0.04210667121447127,0,70,255.0,255.0,255.0
282,14.100000000000001,17.425218820112264,0.6962464748821497,-5.116964454759904,0.5287031165929362,-0.10777414455126423,-0.6897494565030733,0.03153764871159842,-0.005723723120653942,-0.04208119181328609,0,70,255.0,255.0,255.0
283,14.15,17.451694172589868,0.6908500218408951,-5.151504518458407,0.5303264742524915,-0.10809580029474795,-0.6918528791087081,0.03339665767061463,-0.007142506618695254,-0.04205571241210091,0,70,255.0,255.0,255.0
284,14.200000000000001,17.478253016711648,0.6854357125330934,-5.18614972143794,0.5320427823599976,-0.10848839521313376,-0.6939550277442834,0.03525566662963091,-0.008561290116736616,-0.04203023301091573,0,70,255.0,255.0,255.0
285,14.25,17.5049,0.68,-5.2209,0.5338520409154546,-0.1089519293064216,-0.6960559024097995,0.03711467558864534,-0.009980073614777596,-0.04200475360972877,0,70,255.0,255.0,255.0
286,14.3,17.531638012639533,0.674540327319677,-5.2557550880692805,0.5356488096512022,-0.10942700036616827,-0.6981433604969641,0.034756073841260324,-0.009022768775088882,-0.041493569876853965,0,70,255.0,255.0,255.0
287,14.350000000000001,17.558462915463668,0.6690580977174162,-5.290713910063253,0.5373276482995806,-0.1098542061839305,-0.7002052593974849,0.032397472093875314,-0.008065463935400169,-0.040982386143979165,0,70,255.0,255.0,255.0
288,14.4,17.58536881196803,0.6635557044553171,-5.325775188022585,0.5388885568605898,-0.11023354675970828,-0.702241599111362,0.03003887034649038,-0.00710815909571149,-0.04047120241110438,0,70,255.0,255.0,255.0
289,14.450000000000001,17.612349805648268,0.6580355407954783,-5.3609376439879455,0.5403315353342296,-0.11056502209350165,-0.7042523796385954,0.027680268599105367,-0.006150854256022777,-0.03996001867822957,0,70,255.0,255.0,255.0
290,14.5,17.6394,0.6525,-5.3962,0.5416565837205003,-0.11084863218531056,-0.706237600979185,0.025321666851722213,-0.00519354941633432,-0.039448834945353006,0,70,255.0,255.0,255.0
291,14.55,17.666515237685434,0.6469508721056887,-5.431561253681948,0.5429680520138516,-0.11112057055264496,-0.7082137980847699,0.027137064882327547,-0.005683985277041599,-0.03959904927804399,0,70,255.0,255.0,255.0
292,14.600000000000001,17.693698318033075,0.6413875342481847,-5.4670215049870885,0.5443702902087332,-0.11141703071301473,-0.7101975059069895,0.02895246291293288,-0.0061744211377488785,-0.03974926361073497,0,70,255.0,255.0,255.0
293,14.65,17.720953779538,0.6358087603378366,-5.502581129451257,0.5458632983051448,-0.11173801266641985,-0.7121887244458435,0.03076786094353815,-0.00666485699845614,-0.039899477943425944,0,70,255.0,255.0,255.0
294,14.700000000000001,17.74828616069528,0.6302133242849922,-5.538240502610283,0.547447076303087,-0.11208351641286035,-0.714187453701332,0.032583258974143485,-0.00715529285916342,-0.040049692276116926,0,70,255.0,255.0,255.0
295,14.75,17.7757,0.6246,-5.574,0.5491216242025592,-0.11245354195233619,-0.7161936936734552,0.034398657004748756,-0.007645728719870459,-0.04019990660880879,0,70,255.0,255.0,255.0
296,14.8,17.803198636618728,0.618968184257568,-5.609859897202934,0.5508149822934187,-0.11281071742325131,-0.7182014471639488,0.03333566662963426,-0.006641290116734319,-0.040110233010936726,0,70,255.0,255.0,255.0
297,14.850000000000001,17.83078061240403,0.613319765289844,-5.645820069988398,0.5524551908655226,-0.11311767096400963,-0.720204716974549,0.032272676254519767,-0.005636851513598178,-0.040020559413064656,0,70,255.0,255.0,255.0
298,14.9,17.858443269879967,0.6076572541933364,-5.681880294172392,0.5540422499188707,-0.11337440257461112,-0.7222035031052553,0.031209685879405306,-0.004632412910462073,-0.03993088581519259,0,70,255.0,255.0,255.0
299,14.950000000000001,17.886183951570608,0.6019831620645523,-5.718040345570924,0.5555761594534632,-0.11358091225505583,-0.7241978055560682,0.03014669550429081,-0.003627974307325933,-0.03984121221732053,0,70,255.0,255.0,255.0
300,15.0,17.914,0.5963,-5.7543,0.5570569194692998,-0.11373720000534372,-0.7261876243269872,0.02908370512917635,-0.0026235357041896057,-0.039751538619449356,0,70,255.0,255.0,255.0
301,15.05,17.941889415839658,0.5906091908640393,-5.790659157506315,0.558524018812505,-0.11390855975434915,-0.7281804132594297,0.02960026859903345,-0.004230854256027339,-0.03996001867824664,0,70,255.0,255.0,255.0
302,15.100000000000001,17.969852832350806,0.5849078045924385,-5.8271182150593255,0.5600169463292032,-0.11416028543094647,-0.730183626194812,0.030116832068890546,-0.0058381728078650726,-0.040168498737043916,0,70,255.0,255.0,255.0
303,15.15,17.99789154094214,0.5791918228888182,-5.863677693859178,0.5615357020193942,-0.11449237703513565,-0.732197263133134,0.030633395538747624,-0.00744549135970275,-0.04037697879584119,0,70,255.0,255.0,255.0
304,15.200000000000001,18.026006833022308,0.5734572274567984,-5.900338115106021,0.5630802858830779,-0.11490483456691673,-0.7342213240743961,0.031149959008604722,-0.009052809911540484,-0.04058545885463847,0,70,255.0,255.0,255.0
305,15.25,18.0542,0.5677,-5.9371,0.5646506979202546,-0.11539765802628968,-0.736255809018598,0.031666522478460024,-0.010660128463377827,-0.04079393891343486,0,70,255.0,255.0,255.0
306,15.3,18.08247170002265,0.5619174522862747,-5.973963472771807,0.5662089424565697,-0.11589104355935316,-0.7382768997983363,0.0306632589741472,-0.009075292859160932,-0.04004969227609968,0,70,255.0,255.0,255.0
307,15.350000000000001,18.11082005819274,0.5561122163404013,-6.010927069774303,0.5677170238176693,-0.11630518731220578,-0.7402607782462081,0.02965999546983437,-0.007490457254944038,-0.0393054456387645,0,70,255.0,255.0,255.0
308,15.4,18.139242566351502,0.5502882542513909,-6.047988930390896,0.5691749420035532,-0.11664008928484755,-0.7422074443622129,0.02865673196552158,-0.005905621650727199,-0.038561199001429354,0,70,255.0,255.0,255.0
309,15.450000000000001,18.167736716340176,0.5444495281082534,-6.085147194004994,0.5705826970142215,-0.1168957494772785,-0.7441168981463508,0.027653468461208752,-0.004320786046510305,-0.03781695236409417,0,70,255.0,255.0,255.0
310,15.5,18.1963,0.5386,-6.1224,0.5719402888496741,-0.11707216788949859,-0.7459891395986222,0.026650204956894186,-0.0027359504422936887,-0.03707270572675725,0,70,255.0,255.0,255.0
311,15.55,18.224930984069744,0.5327425999908617,-6.15974615140646,0.5733122113612038,-0.11723126600823904,-0.7478639875472243,0.028226695504294973,-0.0036279743073239015,-0.03792121221732431,0,70,255.0,255.0,255.0
312,15.600000000000001,18.253632534878246,0.526876130045955,-6.197187105843466,0.5747629584001036,-0.11743496532023098,-0.7497812608203547,0.02980318605169576,-0.004519998172354114,-0.038769718707891365,0,70,255.0,255.0,255.0
313,15.65,18.282408593651873,0.5209983601056177,-6.234724984577238,0.5762925299663734,-0.11768326582547443,-0.7517409594180134,0.0313796765990965,-0.005412022037384296,-0.039618225198458396,0,70,255.0,255.0,255.0
314,15.700000000000001,18.31126310161701,0.5151070601101867,-6.272361908874009,0.5779009260600133,-0.11797616752396942,-0.7537430833402005,0.03295616714649728,-0.006304045902414509,-0.040466731689025454,0,70,255.0,255.0,255.0
315,15.75,18.3402,0.5092,-6.3101,0.5795881466810231,-0.11831367041571589,-0.7557876325869158,0.03453265769389802,-0.0071960697674444685,-0.04131523817958982,0,70,255.0,255.0,255.0
316,15.8,18.369221963698383,0.5032753477502782,-6.3479407216023525,0.5812782120985872,-0.11867189240769054,-0.7578351500127716,0.03306995900866807,-0.007132809911541392,-0.040585458854638455,0,70,255.0,255.0,255.0
317,15.850000000000001,18.39832660229429,0.4973328634757773,-6.385882906851841,0.58289514258189,-0.11902695140687004,-0.7598461784723797,0.03160726032343813,-0.007069550055638317,-0.0398556795296871,0,70,255.0,255.0,255.0
318,15.9,18.427510259041,0.4913727053261377,-6.423924731300153,0.5844389381309311,-0.11937884741325437,-0.7618207179657402,0.030144561638208237,-0.007006290199735243,-0.03912590020473576,0,70,255.0,255.0,255.0
319,15.950000000000001,18.45676927719181,0.48539503145099855,-6.462064370498978,0.5859095987457108,-0.11972758042684356,-0.7637587684928533,0.02868186295297829,-0.006943030343832167,-0.0383961208797844,0,70,255.0,255.0,255.0
320,16.0,18.4861,0.4794,-6.5003,0.5873071244262288,-0.12007315044763758,-0.7656603300537187,0.027219164267745732,-0.006879770487929537,-0.03766634155482951,0,70,255.0,255.0,255.0
321,16.05,18.515499561136725,0.47338800900802536,-6.538630162184134,0.5886789402444527,-0.12040116436099862,-0.7675474124016913,0.027653468461207538,-0.006240786046511495,-0.03781695236407554,0,70,255.0,255.0,255.0
322,16.1,18.54496825594461,0.4673604160509345,-6.577054866749178,0.5900724712723496,-0.12069722905228875,-0.7694420252901263,0.028087772654669343,-0.005601801605093453,-0.037967563173321575,0,70,255.0,255.0,255.0
323,16.150000000000002,18.574507170184127,0.4613188185898308,-6.615574490222155,0.5914877175099196,-0.12096134452150797,-0.7713441687190236,0.028522076848131146,-0.00496281716367541,-0.03811817398256761,0,70,255.0,255.0,255.0
324,16.2,18.60411738961576,0.4552648140858184,-6.654189409130087,0.5929246789571626,-0.12119351076865627,-0.773253842688383,0.02895638104159292,-0.004323832722257413,-0.038268784791813636,0,70,255.0,255.0,255.0
325,16.25,18.6338,0.4492,-6.6929,0.5943833556140788,-0.1213937277937337,-0.7751710471982048,0.029390685235054725,-0.003684848280838704,-0.03841939560105967,0,70,255.0,255.0,255.0
326,16.3,18.663555791754714,0.44312541621761986,-6.731706629661115,0.5958460269236162,-0.121595450148315,-0.7770952003804574,0.029116167146438516,-0.004384045902413202,-0.03854673168904608,0,70,255.0,255.0,255.0
327,16.35,18.69338437392729,0.4370398723204837,-6.770609626151454,0.5972949723287228,-0.12183213238397503,-0.7790257203671095,0.02884164905782231,-0.005083243523987699,-0.038674067777032486,0,70,255.0,255.0,255.0
328,16.400000000000002,18.723285060222512,0.43094162031453753,-6.809609307811234,0.5987301918293985,-0.12210377450071377,-0.7809626071581608,0.0285671309692061,-0.005782441145562197,-0.038801403865018895,0,70,255.0,255.0,255.0
329,16.45,18.753257164345154,0.42482891220572794,-6.848705992980674,0.6001516854256432,-0.12241037649853123,-0.7829058607536113,0.02829261288058991,-0.0064816387671366455,-0.0389287399530053,0,70,255.0,255.0,255.0
330,16.5,18.7833,0.4187,-6.8879,0.6015594531174574,-0.12275193837742744,-0.7848554811534613,0.028018094791973702,-0.0071808363887108095,-0.03905607604098993,0,70,255.0,255.0,255.0
331,16.55,18.813413271844432,0.4125535261214947,-6.927191319171408,0.6029769520610813,-0.12310503504574105,-0.7867917860764806,0.02868186295297673,-0.006943030343833341,-0.038396120879782274,0,70,255.0,255.0,255.0
332,16.6,18.843598248346243,0.4063896946671298,-6.966578628645015,0.6044276394127551,-0.12344624141181078,-0.7886950932414396,0.02934563111397976,-0.006705224298955874,-0.03773616571857461,0,70,255.0,255.0,255.0
333,16.650000000000002,18.87385658892584,0.4002091001520175,-7.006060278532919,0.6059115151724792,-0.12377555747563665,-0.7905654026483382,0.03000939927498279,-0.006467418254078407,-0.037076210557366956,0,70,255.0,255.0,255.0
334,16.7,18.904189953003623,0.3940123370912704,-7.045634618947212,0.6074285793402533,-0.12409298323721861,-0.7924027142971761,0.030673167435985773,-0.006229612209200956,-0.03641625539615934,0,70,255.0,255.0,255.0
335,16.75,18.9346,0.3878,-7.0853,0.6089788319160776,-0.12439851869655673,-0.7942070281879539,0.03133693559698614,-0.005991806164323044,-0.0357563002349508,0,70,255.0,255.0,255.0
336,16.8,18.96508792086757,0.3815724792964008,-7.125055293653257,0.6105341648320437,-0.12470440966872123,-0.7960096553136227,0.030876381041656124,-0.006243832722256818,-0.0363487847918016,0,70,255.0,255.0,255.0
337,16.85,18.99565303268774,0.37532934901099607,-7.164901459268495,0.6120664700202432,-0.1250229019687824,-0.7978419066671341,0.03041582648632611,-0.006495859280190593,-0.0369412693486524,0,70,255.0,255.0,255.0
338,16.900000000000002,19.02629418407413,0.3690699790773908,-7.204839978057103,0.6135757474806763,-0.1253539955967403,-0.7997037822484879,0.029955271930996098,-0.006747885838124367,-0.0375337539055032,0,70,255.0,255.0,255.0
339,16.95,19.057010223640347,0.3627937394291907,-7.2448723312304715,0.6150619972133429,-0.12569769055259486,-0.8015952820576844,0.02949471737566612,-0.006999912396058124,-0.03812623846235396,0,70,255.0,255.0,255.0
340,17.0,19.0878,0.3565,-7.285,0.6165252192182429,-0.12605398683634608,-0.8035164060947233,0.02903416282033433,-0.007251938953991788,-0.03871872301920476,0,70,255.0,255.0,255.0
341,17.05,19.118662244685297,0.3501885566929013,-7.325224306215566,0.6179583886107642,-0.12639732627937428,-0.8054575926690285,0.028292612880521508,-0.006481638767135623,-0.03892873995300477,0,70,255.0,255.0,255.0
342,17.1,19.149595220902796,0.34386090928888474,-7.365545934281015,0.619354480506295,-0.12670215071305965,-0.8074092800900239,0.027551062940708682,-0.005711338580279457,-0.03913875688680478,0,70,255.0,255.0,255.0
343,17.150000000000002,19.180597074777644,0.3375189835384175,-7.405965409238681,0.6207134949048352,-0.12696846013740223,-0.809371468357709,0.02680951300089586,-0.004941038393423292,-0.03934877382060478,0,70,255.0,255.0,255.0
344,17.2,19.21166595243499,0.33116470519196717,-7.446483256130897,0.6220354318063847,-0.12719625455240197,-0.8113441574720843,0.026067963061083086,-0.004170738206567182,-0.03955879075440478,0,70,255.0,255.0,255.0
345,17.25,19.2428,0.3248,-7.4871,0.6233202912109433,-0.12738553395805896,-0.8133273474331496,0.025326413121271152,-0.003400438019710794,-0.0397688076882039,0,70,255.0,255.0,255.0
346,17.3,19.273998300391245,0.31842609393199334,-7.52781548148448,0.624624280724875,-0.12757828521378173,-0.815279974010259,0.0268331674359944,-0.004309612209200799,-0.03833625539617012,0,70,255.0,255.0,255.0
347,17.35,19.30526368370108,0.31204141383346373,-7.56862680360745,0.6260036079545428,-0.12781649517897906,-0.8171609729727667,0.028339921750717645,-0.005218786398690804,-0.036903703104136334,0,70,255.0,255.0,255.0
348,17.400000000000002,19.336599916815295,0.3056436867689374,-7.60953038498818,0.6274582728999468,-0.12810016385365083,-0.8189703443206727,0.029846676065440888,-0.006127960588180808,-0.03547115081210255,0,70,255.0,255.0,255.0
349,17.45,19.368010766619673,0.299230639802941,-7.65052264424594,0.6289882755610868,-0.12842929123779712,-0.8207080880539768,0.03135343038016403,-0.0070371347776707486,-0.03403859852006887,0,70,255.0,255.0,255.0
350,17.5,19.3995,0.2928,-7.6916,0.6305936159379633,-0.1288038773314179,-0.8223742041726796,0.03286018469488816,-0.007946308967161198,-0.03260604622803598,0,70,255.0,255.0,255.0
351,17.55,19.431070153749715,0.28635026757912474,-7.732760167846518,0.6322004884897288,-0.12917753286549838,-0.8240465112899391,0.03141471737572876,-0.006999912396058225,-0.03428623846234589,0,70,255.0,255.0,255.0
352,17.6,19.462718844292876,0.2798830353772592,-7.774006051289191,0.6337350876755361,-0.12950386857102375,-0.8258028280189142,0.029969250056569367,-0.006053515824955253,-0.035966430696655796,0,70,255.0,255.0,255.0
353,17.650000000000002,19.49444245796117,0.27340066938583135,-7.815341850808606,0.6351974134953857,-0.12978288444799393,-0.8276431543596048,0.02852378273740997,-0.0051071192538522815,-0.037646622930965705,0,70,255.0,255.0,255.0
354,17.7,19.52623738108631,0.2669055355962694,-7.856771766885345,0.6365874659492771,-0.13001458049640896,-0.8295674903120107,0.027078315418250676,-0.0041607226827493765,-0.039326815165275496,0,70,255.0,255.0,255.0
355,17.75,19.5581,0.2604,-7.8983,0.6379052450372106,-0.13019895671626888,-0.8315758358761324,0.025632848099086836,-0.003214326111646182,-0.041007007399584516,0,70,255.0,255.0,255.0
356,17.8,19.590027484609884,0.25388563575150735,-7.939929447129455,0.6391977653162131,-0.13038358332422426,-0.8335899808299821,0.026067963061013274,-0.004170738206567983,-0.039558790754403876,0,70,255.0,255.0,255.0
357,17.85,19.622020139127425,0.24736084465749833,-7.981657791235794,0.640512041343312,-0.1306160305369257,-0.8355317149515729,0.02650307802293971,-0.005127150301489785,-0.03811057410922323,0,70,255.0,255.0,255.0
358,17.900000000000002,19.65407905134002,0.24082323568773553,-8.023481411777407,0.6418480731185071,-0.13089629835437325,-0.8374010382409045,0.026938192984866147,-0.0060835623964115865,-0.03666235746404259,0,70,255.0,255.0,255.0
359,17.95,19.686205309035074,0.23427041781198216,-8.06539668821268,0.6432058606417985,-0.13122438677656684,-0.839197950697977,0.02737330794679255,-0.0070399744913333204,-0.035214140818862046,0,70,255.0,255.0,255.0
360,18.0,19.7184,0.2277,-8.1074,0.6445854039131863,-0.13160029580350657,-0.8409224523227907,0.027808422908715436,-0.007996386586255344,-0.033765924173682293,0,70,255.0,255.0,255.0
361,18.05,19.75066390781074,0.22111038941484534,-8.149488443635668,0.6459684502454102,-0.13197613383760473,-0.8426175653901345,0.027513430380241562,-0.0070371347776709255,-0.03403859852006975,0,70,255.0,255.0,255.0
362,18.1,19.782996599197435,0.2145031859927465,-8.191661983767638,0.6473367469512106,-0.13230400928127367,-0.8443263121747978,0.02721843785176769,-0.006077882969086507,-0.034311272866457194,0,70,255.0,255.0,255.0
363,18.150000000000002,19.815397336678753,0.20788078786322498,-8.233921302081772,0.6486902940305871,-0.1325839221345134,-0.8460486926767803,0.026923445323293813,-0.005118631160502089,-0.03458394721284465,0,70,255.0,255.0,255.0
364,18.2,19.84786538277338,0.20124559315580262,-8.276267080263935,0.6500290914835398,-0.13281587239732387,-0.8477847068960821,0.02662845279481996,-0.004159379351917738,-0.034856621559232075,0,70,255.0,255.0,255.0
365,18.25,19.8804,0.1946,-8.3187,0.6513531393100691,-0.13299986006970516,-0.8495343548327036,0.02633346026634875,-0.0032001275433324317,-0.03512929590561864,0,70,255.0,255.0,255.0
366,18.3,19.913000884147152,0.18794560658911072,-8.361220778327874,0.6526884337021824,-0.13318388132535716,-0.8512997576094756,0.027078315418181387,-0.004160722682747955,-0.035486815165266535,0,70,255.0,255.0,255.0
367,18.35,19.945669464082847,0.18128081137151456,-8.403830273693664,0.6540609708518873,-0.13341593233797996,-0.8530830363492303,0.02782317057001402,-0.005121317822163479,-0.03584433442491442,0,70,255.0,255.0,255.0
368,18.400000000000002,19.97840760194497,0.17460321285936303,-8.446529379895516,0.6554707507591838,-0.1336960131075735,-0.8548841910519672,0.028568025721846656,-0.006081912961579002,-0.036201853684562316,0,70,255.0,255.0,255.0
369,18.45,20.011217159871393,0.16791040956480802,-8.489318990731578,0.6569177734240719,-0.13402412363413785,-0.8567032217176864,0.029312880873679236,-0.007042508100994457,-0.03655937294421018,0,70,255.0,255.0,255.0
370,18.5,20.0441,0.1612,-8.5322,0.6584020388465517,-0.13440026391767296,-0.8585401283463882,0.03005773602551365,-0.008003103240409981,-0.03691689220386163,0,70,255.0,255.0,255.0
371,18.55,20.07705735560066,0.1544703842287112,-8.57517324305283,0.6598858149458575,-0.13477634086096654,-0.8603914041719567,0.029293307946718618,-0.00703997449133372,-0.037134140818877094,0,70,255.0,255.0,255.0
372,18.6,20.110087944471186,0.14772316852119405,-8.618239321457708,0.6613313696412235,-0.13510426136680634,-0.8622535424282759,0.028528879867923584,-0.006076845742257459,-0.03735138943389256,0,70,255.0,255.0,255.0
373,18.650000000000002,20.143189855541387,0.14096076069932126,-8.661398778336173,0.6627387029326499,-0.1353840254351923,-0.864126543115346,0.027764451789128553,-0.005113716993181198,-0.03756863804890803,0,70,255.0,255.0,255.0
374,18.7,20.17636117774105,0.134185568584966,-8.704652156809754,0.6641078148201364,-0.13561563306612445,-0.8660104062331666,0.027000023710333575,-0.0041505882441050055,-0.03778588666392348,0,70,255.0,255.0,255.0
375,18.75,20.2096,0.1274,-8.748,0.6654387053036833,-0.1357990842596028,-0.8679051317817382,0.02623559563154121,-0.003187459495029188,-0.038003135278940725,0,70,255.0,255.0,255.0
376,18.8,20.242904893450206,0.12060565649604396,-8.791442249460802,0.6667603065143458,-0.1359827552307765,-0.8697746257026933,0.026628452794958162,-0.0041593793519186266,-0.036776621559261875,0,70,255.0,255.0,255.0
377,18.85,20.276276358032405,0.1138009145437081,-8.834976440475502,0.6681015505831792,-0.13621502219479467,-0.8715827939376645,0.027021309958375116,-0.005131299208808065,-0.03555010783958302,0,70,255.0,255.0,255.0
378,18.900000000000002,20.309715375889496,0.10698334434335022,-8.878599506759803,0.6694624375101834,-0.1364958851516573,-0.8733296364866516,0.027414167121792073,-0.006103219065697505,-0.03432359411990417,0,70,255.0,255.0,255.0
379,18.95,20.343222929164394,0.10015051609532857,-8.922308382029401,0.6708429672953584,-0.1368253441013644,-0.8750151533496549,0.027807024285209,-0.007075138922586874,-0.0330970804002254,0,70,255.0,255.0,255.0
380,19.0,20.3768,0.0933,-8.9661,0.6722431399387041,-0.13720339904391599,-0.8766393445266741,0.028199881448625064,-0.008047058779475202,-0.031870566680543,0,70,255.0,255.0,255.0
381,19.05,20.410447070598504,0.08643018978711246,-9.009972159103961,0.6736329589967618,-0.1375806382159277,-0.8782540930172915,0.027392880873684067,-0.007042508100993258,-0.03271937294415058,0,70,255.0,255.0,255.0
382,19.1,20.444162623399198,0.07954277330397243,-9.053926116640286,0.6749824280260726,-0.13790764985401532,-0.8799112818210892,0.026585880298743068,-0.006037957422511313,-0.03356817920775817,0,70,255.0,255.0,255.0
383,19.150000000000002,20.477944640900635,0.07264026192727614,-9.097963994624626,0.6762915470266363,-0.13818443395817884,-0.8816109109380674,0.02577887972380207,-0.005033406744029368,-0.03441698547136575,0,70,255.0,255.0,255.0
384,19.200000000000003,20.511791105601386,0.06572516703371974,-9.142087915072645,0.6775603159984528,-0.13841099052841827,-0.8833529803682258,0.024971879148861075,-0.004028856065547424,-0.03526579173497333,0,70,255.0,255.0,255.0
385,19.25,20.5457,0.0588,-9.1863,0.6787887349415224,-0.1385873195647336,-0.8851374901115646,0.0241648785739228,-0.003024305387065551,-0.03611459799858263,0,70,255.0,255.0,255.0
386,19.3,20.579670024155767,0.05186638435550562,-9.230601914123351,0.6800198574986273,-0.13876669190551286,-0.8869370022281274,0.02508002371027215,-0.004150588244104874,-0.035865886663930084,0,70,255.0,255.0,255.0
387,19.35,20.61370274837081,0.04492239224040098,-9.274993492963368,0.6812967373125497,-0.13900237838914412,-0.8887240787779577,0.0259951688466215,-0.005276871101144197,-0.035617175329277544,0,70,255.0,255.0,255.0
388,19.400000000000002,20.64780046050797,0.03796520794754348,-9.319474114741706,0.6826193743832895,-0.1392943790156273,-0.8904987197610552,0.026910313982970852,-0.00640315395818352,-0.035368463994624996,0,70,255.0,255.0,255.0
389,19.450000000000003,20.681965448430088,0.03099201576979052,-9.36404315768003,0.6839877687108467,-0.13964269378496247,-0.8922609251774203,0.027825459119320203,-0.007529436815222843,-0.035119752659972456,0,70,255.0,255.0,255.0
390,19.5,20.7162,0.024,-9.4087,0.6854019202952214,-0.1400473226971496,-0.8940106950270524,0.028740604255667712,-0.008655719672261641,-0.034871041325321706,0,70,255.0,255.0,255.0
391,19.55,20.750505632778427,0.016987472790864457,-9.453444184402624,0.6868156110087433,-0.14044059416202082,-0.8957578980701927,0.027807024285206858,-0.007075138922586643,-0.03501708040028806,0,70,255.0,255.0,255.0
392,19.6,20.78488078311757,0.009957257734422449,-9.49827591150625,0.6881826227237421,-0.14075483658940827,-0.8975124030670812,0.026873444314746003,-0.005494558172911645,-0.03516311947525442,0,70,255.0,255.0,255.0
393,19.650000000000002,20.819323117067494,0.0029133062825481603,-9.543195546408564,0.6895029554402179,-0.14099004997931197,-0.8992742100177182,0.02593986434428515,-0.003913977423236647,-0.03530915855022077,0,70,255.0,255.0,255.0
394,19.700000000000003,20.853830300678283,-0.00414043011288422,-9.588203454207251,0.6907766091581707,-0.14114623433173193,-0.9010433189221034,0.025006284373824298,-0.002333396673561649,-0.035455197625187125,0,70,255.0,255.0,255.0
395,19.75,20.8884,-0.0112,-9.6333,0.6920035838776003,-0.14122338964666814,-0.9028197297802368,0.024072704403365286,-0.0007528159238874288,-0.035601236700151695,0,70,255.0,255.0,255.0
396,19.8,20.923030644730527,-0.01826267551896406,-9.678485348266154,0.693229698466406,-0.141294931446404,-0.9045914054911133,0.0249718791488638,-0.0021088560655479344,-0.03526579173490471,0,70,255.0,255.0,255.0
397,19.85,20.957723719158928,-0.025330623178091982,-9.72375886101164,0.6945007717924868,-0.1414342752532229,-0.9063463089537274,0.025871053894362308,-0.0034648962072084395,-0.03493034676965773,0,70,255.0,255.0,255.0
398,19.900000000000002,20.992481471222067,-0.032407233077737935,-9.769119699624056,0.6958168038558423,-0.14164142106712488,-0.9080844401680791,0.02677022863986082,-0.004820936348868945,-0.034594901804410744,0,70,255.0,255.0,255.0
399,19.950000000000003,21.027306148856802,-0.039495895318256063,-9.81456702549098,0.6971777946564728,-0.14191636888810985,-0.9098057991341685,0.027669403385359333,-0.00617697649052945,-0.03425945683916376,0,70,255.0,255.0,255.0
400,20.0,21.0622,-0.0466,-9.8601,0.6985837441943781,-0.14225911871617783,-0.9115103858519955,0.028568578130856892,-0.007533016632188749,-0.03392401187391769,0,70,255.0,255.0,255.0
401,20.05,21.097164588299464,-0.05372237071500883,-9.90571762253277,0.6999935951256324,-0.1426356800523631,-0.9131884799653438,0.027825459119319253,-0.0075294368152218905,-0.033199752660011926,0,70,255.0,255.0,255.0
402,20.1,21.13219874024672,-0.060863565022055706,-9.95141824444719,0.70136629010631,-0.14301206239770003,-0.9148303611179968,0.027082340107781613,-0.007525856998255032,-0.03247549344610617,0,70,255.0,255.0,255.0
403,20.150000000000002,21.16730059804425,-0.06802357397159822,-9.997200055095226,0.7027018291364107,-0.14338826575218863,-0.9164360293099544,0.02633922109624397,-0.007522277181288173,-0.0317512342322004,0,70,255.0,255.0,255.0
404,20.200000000000003,21.202468303894523,-0.07520238861409398,-10.043061243828841,0.7040002122159346,-0.14376429011582884,-0.9180054845412168,0.02559610208470633,-0.007518697364321314,-0.031026975018294635,0,70,255.0,255.0,255.0
405,20.25,21.2377,-0.0824,-10.089,0.7052614393448814,-0.14414013548862073,-0.9195387268117838,0.024852983073167856,-0.007515117547354455,-0.030302715804388924,0,70,255.0,255.0,255.0
406,20.3,21.27299420207163,-0.08961584162100125,-10.135015361602772,0.7065079210310563,-0.14448234834414367,-0.9210866746475235,0.025006284373824354,-0.006173396673562185,-0.0316151976251952,0,70,255.0,255.0,255.0
407,20.35,21.308350919854192,-0.09684711673368641,-10.181109761199604,0.7077620677822638,-0.14475747515597695,-0.9227002465743034,0.025159585674480848,-0.004831675799769914,-0.03292767944600147,0,70,255.0,255.0,255.0
408,20.400000000000002,21.34377053660094,-0.10409047103587099,-10.227286479995053,0.7090238795985043,-0.14496551592412066,-0.9243794425921237,0.025312886975137346,-0.0034899549259776435,-0.03424016126680775,0,70,255.0,255.0,255.0
409,20.450000000000003,21.379253435565126,-0.11134255022537053,-10.27354879919367,0.7102933564797776,-0.1451064706485747,-0.9261242627009842,0.02546618827579384,-0.002148234052185373,-0.03555264308761402,0,70,255.0,255.0,255.0
410,20.5,21.4148,-0.1186,-10.3199,0.7115704984260836,-0.1451803393293392,-0.9279347069008849,0.025619489576447663,-0.0008065131783931978,-0.03686512490841043,0,70,255.0,255.0,255.0
411,20.55,21.45041060341403,-0.1258606628009868,-10.366342531056153,0.7128547207501288,-0.14525892657106224,-0.9297608214445733,0.025749403385362513,-0.0023369764905292406,-0.03617945683912271,0,70,255.0,255.0,255.0
412,20.6,21.486085580336518,-0.13312716804319985,-10.4128755107544,0.7141454387646199,-0.1454140369783921,-0.9315526525847971,0.025879317194277367,-0.0038674398026652835,-0.03549378876983498,0,70,255.0,255.0,255.0
413,20.650000000000002,21.521825255552,-0.14040334188491965,-10.459497224924576,0.7154426524695566,-0.14564567055132877,-0.9333102003215568,0.026009231003192218,-0.005397903114801326,-0.03480812070054726,0,70,255.0,255.0,255.0
414,20.700000000000003,21.557629953844984,-0.1476930104844264,-10.506205959396501,0.716746361864939,-0.14595382728987227,-0.935033464654852,0.02613914481210707,-0.006928366426937369,-0.03412245263125953,0,70,255.0,255.0,255.0
415,20.75,21.5935,-0.155,-10.553,0.7180565669507672,-0.1463385071940225,-0.9367224455846825,0.026269058621021912,-0.008458829739071971,-0.033436784561967414,0,70,255.0,255.0,255.0
416,20.8,21.629435384272256,-0.16232710717505225,-10.599877714172628,0.7193531959684122,-0.1467379453716073,-0.9383820395741891,0.025596102084775287,-0.0075186973643207675,-0.03294697501829091,0,70,255.0,255.0,255.0
417,20.85,21.665434758799726,-0.16967301109351532,-10.646837795782801,0.7206161771592449,-0.14709037693045457,-0.9400171430865116,0.02492314554852866,-0.006578564989569564,-0.0324571654746144,0,70,255.0,255.0,255.0
418,20.900000000000002,21.701496441191072,-0.1770353614244523,-10.69387902030666,0.7218455105232651,-0.1473958018705643,-0.9416277561216505,0.024250189012282035,-0.00563843261481836,-0.03196735593093789,0,70,255.0,255.0,255.0
419,20.950000000000003,21.737618749054942,-0.18441180783692632,-10.741000163220347,0.723041196060473,-0.14765422019193644,-0.9432138786796055,0.02357723247603541,-0.004698300240067157,-0.031477546387261385,0,70,255.0,255.0,255.0
420,21.0,21.7738,-0.1918,-10.7882,0.7242032337708686,-0.147865631894571,-0.9447755107603766,0.022904275939787055,-0.003758167865315576,-0.030987736843584912,0,70,255.0,255.0,255.0
421,21.05,21.810039059496944,-0.19919810849880482,-10.835477812253343,0.7253644953762565,-0.1480612919425085,-0.9463430202586568,0.023546188275727794,-0.004068234052185331,-0.03171264308761935,0,70,255.0,255.0,255.0
422,21.1,21.846336984464575,-0.2066063875827401,-10.882834906114404,0.7265578525984413,-0.14827245529978952,-0.9479467750691385,0.024188100611668536,-0.004378300239055086,-0.03243754933165379,0,70,255.0,255.0,255.0
423,21.150000000000002,21.882695379683735,-0.21402561241727305,-10.930273093848795,0.7277833054374233,-0.14849912196641402,-0.9495867751918221,0.024830012947609274,-0.004688366425924842,-0.03316245557568823,0,70,255.0,255.0,255.0
424,21.200000000000003,21.919115849935267,-0.2214565581678708,-10.977794187722125,0.7290408538932024,-0.14874129194238203,-0.9512630206267074,0.025471925283550016,-0.004998432612794597,-0.03388736181972267,0,70,255.0,255.0,255.0
425,21.25,21.9556,-0.2289,-11.0254,0.7303304979657782,-0.1489989652276935,-0.9529755113737944,0.026113837619488045,-0.0053084987996638855,-0.03461226806375617,0,70,255.0,255.0,255.0
426,21.3,21.99214917773998,-0.23635645882972905,-11.073091836814006,0.7316368225265664,-0.1492568868583585,-0.9546938793911706,0.026139144812038672,-0.005008366426936602,-0.03412245263129047,0,70,255.0,255.0,255.0
427,21.35,22.028763703341983,-0.24382543857552547,-11.12086897975959,0.732944412446982,-0.14949980187038717,-0.9563877566369234,0.026164452004589302,-0.004708234054209317,-0.033632637198824776,0,70,255.0,255.0,255.0
428,21.400000000000002,22.065443640074,-0.2513061889064574,-11.168730204298171,0.7342532677270254,-0.14972771026377943,-0.9580571431110532,0.02618975919713993,-0.004408101681482033,-0.033142821766359076,0,70,255.0,255.0,255.0
429,21.450000000000003,22.102189051204014,-0.258797959491593,-11.21667428589117,0.7355633883666962,-0.14994061203853534,-0.9597020388135595,0.026215066389690556,-0.00410796930875475,-0.032653006333893383,0,70,255.0,255.0,255.0
430,21.5,22.139,-0.2663,-11.2647,0.7368747743659942,-0.1501385071946549,-0.9613224437444425,0.026240373582236742,-0.0038078369360279307,-0.03216319090142861,0,70,255.0,255.0,255.0
431,21.55,22.17587622954315,-0.27381205618227955,-11.312806040490635,0.7381682145174544,-0.1503511606240573,-0.9629134621766597,0.025497232476165966,-0.004698300240067845,-0.031477546387261406,0,70,255.0,255.0,255.0
432,21.6,22.21281620216749,-0.2813358581151593,-11.360990774847238,0.7394244976136108,-0.1506083372186617,-0.9644701983831687,0.02475409137009519,-0.005588763544107759,-0.030791901873094198,0,70,255.0,255.0,255.0
433,21.650000000000002,22.249818060020257,-0.2888736319568993,-11.409252488958526,0.7406436236544639,-0.15091003697846808,-0.9659926523639694,0.024010950264024413,-0.006479226848147673,-0.030106257358926997,0,70,255.0,255.0,255.0
434,21.700000000000003,22.286879945248682,-0.2964276038657597,-11.45758946871321,0.7418255926400134,-0.15125625990347646,-0.9674808241190614,0.023267809157953637,-0.007369690152187586,-0.029420612844759792,0,70,255.0,255.0,255.0
435,21.75,22.324,-0.304,-11.506,0.7429704045702592,-0.15164700599368683,-0.9689347136484451,0.022524668051882912,-0.008260153456227437,-0.028734968330593524,0,70,255.0,255.0,255.0
436,21.8,22.361177104087425,-0.31159211644115326,-11.554483201223457,0.7441223194036435,-0.1520264706454124,-0.9704042719022025,0.023551925283485545,-0.006918432612794615,-0.030047361819698377,0,70,255.0,255.0,255.0
437,21.85,22.39841308798806,-0.31920152896383863,-11.603041520851463,0.7453255970986078,-0.15233884925496632,-0.9719394498304149,0.02457918251508818,-0.005576711769361793,-0.03135975530880323,0,70,255.0,255.0,255.0
438,21.900000000000002,22.43571051984498,-0.3268248832659473,-11.651678239867742,0.7465802376551524,-0.15258414182234856,-0.9735402474330828,0.02560643974669081,-0.00423499092592897,-0.032672148797908085,0,70,255.0,255.0,255.0
439,21.950000000000003,22.473071967801268,-0.3344588250453708,-11.700396639256011,0.7478862410732768,-0.1527623483475592,-0.9752066647102058,0.026633696978293445,-0.002893270082496148,-0.03398454228701294,0,70,255.0,255.0,255.0
440,22.0,22.5105,-0.3421,-11.7492,0.7492436073529817,-0.1528734688305982,-0.976938701661784,0.02766095420989867,-0.0015515492390636432,-0.03529693577611237,0,70,255.0,255.0,255.0
441,22.05,22.547996154107157,-0.34974587805310786,-11.798090754615542,0.7505905078679697,-0.15296695679429367,-0.978685450214534,0.026215066389620546,-0.002187969308754054,-0.034573006333887504,0,70,255.0,255.0,255.0
442,22.1,22.58555784588028,-0.3573972260294877,-11.84706794174692,0.7518651139919438,-0.1530922657614736,-0.9803960022951728,0.024769178569342423,-0.0028243893784444655,-0.03384907689166263,0,70,255.0,255.0,255.0
443,22.150000000000002,22.623181460599834,-0.36505563497931354,-11.896129751570527,0.7530674257249039,-0.1532493957321381,-0.9820703579037003,0.0233232907490643,-0.003460809448134877,-0.033125147449437765,0,70,255.0,255.0,255.0
444,22.200000000000003,22.660863383546257,-0.3727226959527598,-11.945274374262757,0.7541974430668503,-0.15343834670628712,-0.9837085170401166,0.021877402928786177,-0.004097229517825288,-0.0324012180072129,0,70,255.0,255.0,255.0
445,22.25,22.6986,-0.3804,-11.9945,0.7552551660177825,-0.15365911868392063,-0.9853104797044216,0.020431515108508158,-0.004733649587515654,-0.03167728856498542,0,70,255.0,255.0,255.0
446,22.3,22.736388679483962,-0.38808917134641585,-12.043804980314379,0.7562996491244476,-0.15391370217741318,-0.9868859272396652,0.021347809158094058,-0.005449690152186647,-0.03134061284475464,0,70,255.0,255.0,255.0
447,22.35,22.77423072849082,-0.3957919669182121,-12.093188312160867,0.757389946933592,-0.15420408769913932,-0.9884445409888972,0.022264103207679957,-0.00616573071685764,-0.031003937124523862,0,70,255.0,255.0,255.0
448,22.400000000000002,22.812128437755696,-0.40351017681680057,-12.142649153850169,0.7585260594452157,-0.15453027524909896,-0.9899863209521176,0.023180397257265856,-0.006881771281528634,-0.030667261404293086,0,70,255.0,255.0,255.0
449,22.450000000000003,22.850084098013717,-0.41124559114359277,-12.192186663692981,0.7597079866593186,-0.15489226482729215,-0.9915112671293265,0.024096691306851756,-0.007597811846199627,-0.030330585684062307,0,70,255.0,255.0,255.0
450,22.5,22.8881,-0.419,-12.2418,0.7609357285759007,-0.15529005643371888,-0.9930193795205239,0.025012985356434037,-0.008313852410869016,-0.029993909963830667,0,70,255.0,255.0,255.0
451,22.55,22.926177927957003,-0.4267742365612295,-12.291488524126947,0.7621788956342673,-0.15566623449605305,-0.9945228408267951,0.024713696978229824,-0.006733270082497644,-0.03014454228701933,0,70,255.0,255.0,255.0
452,22.6,22.964317640156445,-0.4345653062976652,-12.341252409609616,0.7634070982737238,-0.15596338344196867,-0.9960338337492258,0.024414408600025608,-0.005152687754126272,-0.03029517461020799,0,70,255.0,255.0,255.0
453,22.650000000000002,23.002518388377396,-0.44236925775348623,-12.391092033028809,0.7646203364942699,-0.15618150327146568,-0.997552358287816,0.024115120221821395,-0.003572105425754901,-0.030445806933396654,0,70,255.0,255.0,255.0
454,22.700000000000003,23.04077942439889,-0.45018213947287167,-12.441007770965335,0.765818610295906,-0.15632059398454415,-0.9990784144425656,0.02381583184361718,-0.0019915230973835286,-0.030596439256585315,0,70,255.0,255.0,255.0
455,22.75,23.0791,-0.458,-12.491,0.7670019196786315,-0.156380655581204,-1.0006120022134746,0.023516543465410322,-0.00041094076901115884,-0.030747071579778407,0,70,255.0,255.0,255.0
456,22.8,23.11747960868804,-0.46582028240866696,-12.541068923177827,0.7681847683384847,-0.1564453598383749,-1.0021427094531503,0.023797402928713754,-0.0021772295178244224,-0.030481218007252404,0,70,255.0,255.0,255.0
457,22.85,23.1559187108834,-0.47364600789112843,-12.591214049400671,0.7693816599715029,-0.15659837853298644,-1.0036601240142,0.02407826239201719,-0.003943518266637686,-0.030215364434726402,0,70,255.0,255.0,255.0
458,22.900000000000002,23.194418008734747,-0.4814815921692565,-12.641434714034604,0.7705925945776865,-0.15683971166503868,-1.005164245896623,0.02435912185532062,-0.0057098070154509495,-0.0299495108622004,0,70,255.0,255.0,255.0
459,22.950000000000003,23.232978204390726,-0.48933145096492314,-12.691730252445693,0.771817572157035,-0.15716935923453157,-1.00665507510042,0.024639981318624053,-0.007476095764264213,-0.029683657289674398,0,70,255.0,255.0,255.0
460,23.0,23.2716,-0.4972,-12.7421,0.7730565927095487,-0.15758732124146507,-1.0081326116255904,0.024920840781922138,-0.009242384513076463,-0.029417803717148416,0,70,255.0,255.0,255.0
461,23.05,23.310283637290837,-0.5050902338041036,-12.792543783161745,0.7742820310117697,-0.158008326150447,-1.0096263213606198,0.024096691306916884,-0.007597811846199742,-0.030330585684027526,0,70,255.0,255.0,255.0
462,23.1,23.34902751630995,-0.5129994621378224,-12.843063392787704,0.7754662618402405,-0.15834710242608505,-1.0111656701939933,0.02327254183191163,-0.00595323917932302,-0.03124336765090663,0,70,255.0,255.0,255.0
463,23.150000000000002,23.387829576683632,-0.5209235735694898,-12.893661110832788,0.776609285194961,-0.1586036500683793,-1.0127506581257104,0.022448392356906377,-0.004308666512446298,-0.03215614961778574,0,70,255.0,255.0,255.0
464,23.200000000000003,23.426687758038213,-0.5288584566674382,-12.944339219251916,0.7777111010759311,-0.15877796907732972,-1.0143812851557719,0.02162424288190112,-0.0026640938455695772,-0.03306893158466485,0,70,255.0,255.0,255.0
465,23.25,23.4656,-0.5368,-12.9951,0.7787717094831509,-0.15887005945293622,-1.016057551284177,0.02080009340689326,-0.0010195211786923064,-0.03398171355154034,0,70,255.0,255.0,255.0
466,23.3,23.5045650421486,-0.5447451823749198,-13.045944744175193,0.7798391076144154,-0.15894533555983809,-1.0177200051043793,0.02189583184368883,-0.0019915230973820337,-0.03251643925654759,0,70,255.0,255.0,255.0
467,23.35,23.543584823876802,-0.552695343557583,-13.096870779448528,0.7809612926675198,-0.15906921176267444,-1.0193091952098319,0.022991570280484406,-0.002963525016071761,-0.03105116496155485,0,70,255.0,255.0,255.0
468,23.400000000000002,23.582662084530718,-0.5606529135527863,-13.147874442634265,0.7821382646424639,-0.15924168806144526,-1.0208251216005348,0.02408730871727998,-0.003935526934761488,-0.0295858906665621,0,70,255.0,255.0,255.0
469,23.450000000000003,23.621799563456417,-0.5686203223653267,-13.198952070546671,0.7833700235392479,-0.15946276445615057,-1.022267784276488,0.02518304715407555,-0.0049075288534512155,-0.028120616371569356,0,70,255.0,255.0,255.0
470,23.5,23.661,-0.5766,-13.2501,0.7846565693578715,-0.1597324409467904,-1.0236371832376916,0.026278785590870157,-0.005879530772140651,-0.026655342076576716,0,70,255.0,255.0,255.0
471,23.55,23.70026499411477,-0.5845938366962182,-13.301315640137487,0.7859295385306071,-0.16001833161020051,-1.0249976582218487,0.024639981318553314,-0.00555609576426281,-0.027763657289713722,0,70,255.0,255.0,255.0
472,23.6,23.739591588182837,-0.592601563631847,-13.352600689418196,0.7871205674897269,-0.16028805052321668,-1.026413548966663,0.023001177046236474,-0.005232660756384968,-0.02887197250285073,0,70,255.0,255.0,255.0
473,23.650000000000002,23.778975685193515,-0.6006223722193669,-13.403957918630164,0.7882296562352308,-0.160541597685839,-1.027884855472134,0.021362372773919634,-0.004909225748507126,-0.029980287715987732,0,70,255.0,255.0,255.0
474,23.700000000000003,23.818413188136134,-0.608655453871258,-13.455390098561423,0.7892568047671188,-0.1607789730980674,-1.0294115777382618,0.01972356850160279,-0.004585790740629285,-0.03108860292912474,0,70,255.0,255.0,255.0
475,23.75,23.8579,-0.6167,-13.5069,0.7902020130853911,-0.16100017675990191,-1.0309937157650464,0.018084764229286066,-0.00426235573275191,-0.03219691814226522,0,70,255.0,255.0,255.0
476,23.8,23.89743338139233,-0.6247554708402082,-13.558489495274864,0.7911467382631692,-0.16122133799936,-1.0325773620082197,0.01970424288183603,-0.004584093845571418,-0.031148931584669255,0,70,255.0,255.0,255.0
477,23.85,23.937016023391863,-0.6328224019150303,-13.610156862878691,0.7921724373735747,-0.16145858614445907,-1.0341086089235134,0.021323721534385998,-0.004905831958390925,-0.030100945027073292,0,70,255.0,255.0,255.0
478,23.900000000000002,23.97665197469523,-0.6409015975697484,-13.661899482845087,0.7932791104166077,-0.16171192119519912,-1.035587456510927,0.022943200186935967,-0.0052275700712104325,-0.02905295846947733,0,70,255.0,255.0,255.0
479,23.950000000000003,24.016345283999065,-0.6489938621496444,-13.713714735207654,0.7944667573922684,-0.1619813431515801,-1.0370139047704612,0.024562678839485933,-0.00554930818402994,-0.028004971911881366,0,70,255.0,255.0,255.0
480,24.0,24.0561,-0.6571,-13.7656,0.7957353783005563,-0.16226685201360208,-1.0383879537021152,0.026182157492032232,-0.005871046296849425,-0.02695698535428548,0,70,255.0,255.0,255.0
481,24.05,24.09591908031592,-0.6652202799429499,-13.817553578763055,0.7970195084167107,-0.16253631639235955,-1.0397648937452617,0.025183047154142442,-0.00490752885344897,-0.028120616371568746,0,70,255.0,255.0,255.0
482,24.1,24.135801118249727,-0.6733528287080334,-13.869577459067042,0.7982536830159705,-0.16275760489894697,-1.041200015339272,0.024183936816252655,-0.003944011410048515,-0.029284247388852012,0,70,255.0,255.0,255.0
483,24.150000000000002,24.17574361602557,-0.681495237501642,-13.9216745499895,0.799437902098336,-0.1629307175333644,-1.042693318484147,0.023184826478362865,-0.00298049396664806,-0.030447878406135283,0,70,255.0,255.0,255.0
484,24.200000000000003,24.215744075867608,-0.6896450975301672,-13.97384776060797,0.8005721656638068,-0.16305565429561178,-1.0442448031798857,0.022185716140473075,-0.002016976523247605,-0.031611509423418546,0,70,255.0,255.0,255.0
485,24.25,24.2558,-0.6978,-14.0261,0.8016564737123832,-0.16313241518568916,-1.0458544694264889,0.021186605802585134,-0.0010534590798472188,-0.03277514044070706,0,70,255.0,255.0,255.0
486,24.3,24.295909497344,-0.705958609387993,-14.078432989672914,0.8027272280699879,-0.16322539643120113,-1.0474510630107354,0.021643568501599837,-0.0026657907406318466,-0.031088602929161244,0,70,255.0,255.0,255.0
487,24.35,24.336073103609248,-0.7141238832528377,-14.130843700853147,0.8038208305625433,-0.16339899425975235,-1.0489633297194052,0.02210053120061454,-0.004278122401416474,-0.029402065417615426,0,70,255.0,255.0,255.0
488,24.400000000000002,24.3762919612025,-0.7222998524236859,-14.183327917196927,0.8049372811900494,-0.16365320867134278,-1.0503912695524973,0.02255749389962924,-0.005890454062201103,-0.02771552790606961,0,70,255.0,255.0,255.0
489,24.450000000000003,24.416567212530506,-0.7304905477296895,-14.235881422360473,0.8060765799525063,-0.16398803966597247,-1.051734882510012,0.023014456598643943,-0.00750278572298573,-0.02602899039452379,0,70,255.0,255.0,255.0
490,24.5,24.4569,-0.7387,-14.2885,0.8072387268499138,-0.16440348724364134,-1.0529941685919493,0.023471419297661278,-0.009115117383770244,-0.024342452882969212,0,70,255.0,255.0,255.0
491,24.55,24.497290930308093,-0.7469308825050786,-14.341180862545299,0.8083915793033426,-0.16481809788283636,-1.0542548542118189,0.02264267883948906,-0.007469308184029687,-0.02608497191181416,0,70,255.0,255.0,255.0
492,24.6,24.537738467313286,-0.7551804382806175,-14.393926937520375,0.8095029947338628,-0.1651504180620443,-1.0556026657831308,0.021813938381316844,-0.005823498984289131,-0.02782749094065911,0,70,255.0,255.0,255.0
493,24.650000000000002,24.578240539164433,-0.7634445528036169,-14.446742581222804,0.8105729731414744,-0.16540044778126528,-1.0570376033058848,0.020985197923144624,-0.004177689784548574,-0.02957000996950406,0,70,255.0,255.0,255.0
494,24.700000000000003,24.61879507401039,-0.7717191115510776,-14.499632149950157,0.8116015145261772,-0.1655681870404992,-1.0585596667800812,0.020156457464972407,-0.0025318805848080174,-0.03131252899834901,0,70,255.0,255.0,255.0
495,24.75,24.6594,-0.78,-14.5526,0.8125886188879715,-0.16565363583974607,-1.0601688562057199,0.019327717006798473,-0.0008860713850684654,-0.03305504802719916,0,70,255.0,255.0,255.0
496,24.8,24.700053981423633,-0.788284260591693,-14.605649160145902,0.8135784547166517,-0.1657262120374539,-1.0617855201419857,0.020265716140408875,-0.0020169765232459,-0.0316115094234245,0,70,255.0,255.0,255.0
497,24.85,24.740758627137613,-0.7965735636246941,-14.658777349065362,0.8146151905020124,-0.16585533349207066,-1.0633300071480625,0.021203715274019277,-0.003147881661423334,-0.03016797081964984,0,70,255.0,255.0,255.0
498,24.900000000000002,24.78151628213978,-0.8048707363618488,-14.711980957911875,0.8156988262440537,-0.16604100020359627,-1.0648023172239507,0.022141714407629683,-0.004278786799600768,-0.02872443221587518,0,70,255.0,255.0,255.0
499,24.950000000000003,24.822329291427963,-0.8131786060660026,-14.765256377838924,0.8168293619427753,-0.16628321217203076,-1.06620245036965,0.023079713541240086,-0.005409691937778203,-0.027280893612100517,0,70,255.0,255.0,255.0
500,25.0,24.8632,-0.8215,-14.8186,0.8180067975981777,-0.1665819693973741,-1.0675304065851607,0.024017712674849534,-0.0065405970759557785,-0.02583735500833484,0,70,255.0,255.0,255.0
501,25.05,24.904129943997386,-0.8298368751281501,-14.872008896871098,0.8191826018300169,-0.16688505396734762,-1.068827065220233,0.023014456598713182,-0.005582785722985615,-0.0260289903945548,0,70,255.0,255.0,255.0
502,25.1,24.94511742413627,-0.8381877072206076,-14.925482866218179,0.8203082432580491,-0.16714024796967267,-1.0701333056246163,0.022011200522576827,-0.004624974370015451,-0.026220625780774758,0,70,255.0,255.0,255.0
503,25.150000000000002,24.986159932276465,-0.84655010174899,-14.979022387129715,0.8213837218822746,-0.1673475514043492,-1.0714491277983107,0.021007944446440475,-0.0036671630170452864,-0.02641226116699472,0,70,255.0,255.0,255.0
504,25.200000000000003,25.027254960277773,-0.8549216641849152,-15.032627938694167,0.8224090377026931,-0.1675069642713772,-1.0727745317413158,0.020004688370304124,-0.0027093516640751226,-0.026603896553214677,0,70,255.0,255.0,255.0
505,25.25,25.0684,-0.8633,-15.0863,0.8233841907193049,-0.1676184865707567,-1.0741095174536317,0.01900143229416784,-0.0017515403111050265,-0.026795531939429296,0,70,255.0,255.0,255.0
506,25.3,25.109593442586824,-0.8716834388957075,-15.140039252369714,0.8243631379632834,-0.16772557209315458,-1.0754662189770763,0.02015645746497194,-0.002531880584810564,-0.027472528998358225,0,70,255.0,255.0,255.0
507,25.35,25.150837276317304,-0.880073207492877,-15.193847186061925,0.8253998364658021,-0.16787167462923777,-1.0768567703534675,0.021311482635776036,-0.0033122208585161014,-0.028149526057287152,0,70,255.0,255.0,255.0
508,25.400000000000002,25.192134388754376,-0.8884712566421928,-15.247725493569279,0.826494286226861,-0.1680567941790062,-1.0782811715828051,0.022466507806580133,-0.00409256113222164,-0.02882652311621608,0,70,255.0,255.0,255.0
509,25.450000000000003,25.233487667460967,-0.8968795371943394,-15.301675867384423,0.8276464872464602,-0.16828093074245992,-1.0797394226650892,0.02362153297738423,-0.004872901405927176,-0.029503520175145008,0,70,255.0,255.0,255.0
510,25.5,25.2749,-0.9053,-15.3557,0.8288564395245994,-0.1685440843195989,-1.0812315236003196,0.024776558148186467,-0.005653241679632215,-0.030180517234077442,0,70,255.0,255.0,255.0
511,25.55,25.31637308565533,-0.9137341692890205,-15.40979889365005,0.8300528463168351,-0.16882065766003418,-1.0827160588714733,0.023079713541239475,-0.005409691937778179,-0.02920089361206911,0,70,255.0,255.0,255.0
512,25.6,25.357903870594512,-0.9221818628078855,-15.46397078953413,0.8311644108787235,-0.16908505351337674,-1.0841516129615265,0.021382868934292483,-0.0051661421959241435,-0.028221269990060777,0,70,255.0,255.0,255.0
513,25.650000000000002,25.39948811270603,-0.9306424716822401,-15.518213238593185,0.8321911332102644,-0.1693372718796266,-1.0855381858704793,0.01968602432734549,-0.004922592454070108,-0.027241646368052444,0,70,255.0,255.0,255.0
514,25.700000000000003,25.441121569878366,-0.9391153870377301,-15.572523791768162,0.833133013311458,-0.16957731275878377,-1.0868757775983318,0.0179891797203985,-0.004679042712216072,-0.02626202274604411,0,70,255.0,255.0,255.0
515,25.75,25.4828,-0.9476,-15.6269,0.8339900511823041,-0.16980517615084822,-1.088164388145084,0.016292335113448964,-0.004435492970362276,-0.025282399124037624,0,70,255.0,255.0,255.0
516,25.8,25.524520614791864,-0.9560958839482111,-15.681340373030089,0.834849476769398,-0.1700317972667091,-1.089461545537016,0.018084688370308504,-0.004629351664072881,-0.02660389655324453,0,70,255.0,255.0,255.0
517,25.85,25.566286441304655,-0.9646033412755824,-15.73584725580156,0.835798520019335,-0.17026811131725553,-1.0908247778004085,0.01987704162716804,-0.0048232103577834865,-0.027925393982451432,0,70,255.0,255.0,255.0
518,25.900000000000002,25.60810196042151,-0.9731228566288485,-15.790423952057987,0.8368371809321149,-0.17051411830248747,-1.092254084935261,0.021669394884027582,-0.005017069051494091,-0.02924689141165834,0,70,255.0,255.0,255.0
519,25.950000000000003,25.64997165302558,-0.981654914654743,-15.845073765542946,0.8379654595077377,-0.17076981822240492,-1.0937494669415744,0.02346174814088712,-0.005210927745204696,-0.030568388840865244,0,70,255.0,255.0,255.0
520,26.0,25.6919,-0.9902,-15.8998,0.8391833557462036,-0.17103521107700795,-1.095310923819348,0.02525410139774742,-0.005404786438915066,-0.031889886270066725,0,70,255.0,255.0,255.0
521,26.05,25.733890055177216,-0.9987582949181354,-15.9546044142296,0.8404052466055801,-0.171292153273129,-1.0968457589804772,0.023621532977315573,-0.004872901405926681,-0.0295035201751087,0,70,255.0,255.0,255.0
522,26.1,25.775939164186877,-1.0073287720897857,-16.00948258725964,0.8415455090439352,-0.17152250121760063,-1.0982612758368588,0.021988964556883726,-0.004341016372938296,-0.027117154080150672,0,70,255.0,255.0,255.0
523,26.150000000000002,25.818043245607925,-1.0159101018023684,-16.064428553174878,0.8426041430612686,-0.17172625491042282,-1.0995574743884924,0.02035639613645188,-0.0038091313399499114,-0.024730787985192647,0,70,255.0,255.0,255.0
524,26.200000000000003,25.86019821801932,-1.0245009543433006,-16.119436346060073,0.8435811486575804,-0.17190341435159565,-1.100734354635378,0.018723827716020033,-0.0032772463069615262,-0.02234442189023462,0,70,255.0,255.0,255.0
525,26.25,25.9024,-1.0331,-16.1745,0.8444765258328705,-0.17205397954111895,-1.1017919165775159,0.01709125929558386,-0.002745361273972069,-0.019958055795269658,0,70,255.0,255.0,255.0
526,26.3,25.94464556449927,-1.0417061363792477,-16.229615570051514,0.8453535368082717,-0.17219158964077377,-1.1028514185410498,0.0179891797204638,-0.0027590427122205167,-0.022422022746087258,0,70,255.0,255.0,255.0
527,26.35,25.98693610194785,-1.0503191703652761,-16.284787195159897,0.8462754438049169,-0.17232988381234102,-1.1040341188521248,0.01888710014534374,-0.002772724150468964,-0.024885989696904857,0,70,255.0,255.0,255.0
528,26.400000000000002,26.029273857146787,-1.0589391361616807,-16.34002103524252,0.8472422468228061,-0.17246886205582068,-1.1053400175107404,0.01978502057022368,-0.0027864055887174117,-0.027349956647722457,0,70,255.0,255.0,255.0
529,26.450000000000003,26.07166107489715,-1.0675660679720569,-16.395323250216766,0.8482539458619393,-0.17260852437121274,-1.1067691145168967,0.02068294099510362,-0.0028000870269658594,-0.029813923598540057,0,70,255.0,255.0,255.0
530,26.5,26.1141,-1.0762,-16.4507,0.8493105409223164,-0.17274887075851722,-1.108321409870594,0.0215808614199835,-0.0028137684652127515,-0.03227789054935215,0,70,255.0,255.0,255.0
531,26.55,26.15659248682569,-1.0848411595648741,-16.50615570556434,0.8503886061613383,-0.17290148816377757,-1.1098925668553496,0.02154174814089327,-0.003290927745200418,-0.030568388840864432,0,70,255.0,255.0,255.0
532,26.6,26.199138828021738,-1.0934905464491111,-16.56168783210078,0.8514647157364058,-0.17307796353303725,-1.1113782487546806,0.02150263486180304,-0.003768087025188085,-0.028858887132376717,0,70,255.0,255.0,255.0
533,26.650000000000002,26.241738925804935,-1.1021493535509115,-16.617292105855054,0.8525388696475187,-0.17327829686629637,-1.1127784555685873,0.021463521582712808,-0.004245246305175752,-0.027149385423889,0,70,255.0,255.0,255.0
534,26.700000000000003,26.284392682392088,-1.1108187737684747,-16.672964253072884,0.853611067894677,-0.17350248816355485,-1.1140931872970694,0.021424408303622574,-0.004722405585163418,-0.025439883715401283,0,70,255.0,255.0,255.0
535,26.75,26.3271,-1.1195,-16.7287,0.854681310477881,-0.17375053742481267,-1.1153224439401273,0.021385295024533235,-0.0051995648651499415,-0.023730382006910133,0,70,255.0,255.0,255.0
536,26.8,26.369860488197965,-1.1281940253612561,-16.784496007691132,0.855732038546393,-0.17401045770411544,-1.116522314037553,0.020643827715944942,-0.0051972463069607676,-0.024264421890124774,0,70,255.0,255.0,255.0
537,26.85,26.41267258596522,-1.1369010438382798,-16.840352676436993,0.8567456932494755,-0.17427026205550877,-1.1177488861291398,0.019902360407356646,-0.0051949277487715936,-0.024798461773339414,0,70,255.0,255.0,255.0
538,26.900000000000002,26.455534439633492,-1.1456210496346755,-16.89627134133729,0.8577222745871286,-0.1745299504789926,-1.119002160214887,0.019160893098768353,-0.00519260919058242,-0.02533250165655405,0,70,255.0,255.0,255.0
539,26.950000000000003,26.49844419553451,-1.1543540369540477,-16.952253337491722,0.8586617825593523,-0.17478952297456699,-1.1202821362947952,0.018419425790180056,-0.0051902906323932465,-0.02586654153976869,0,70,255.0,255.0,255.0
540,27.0,26.5414,-1.1631,-17.0083,0.8595642171661465,-0.17504897954223195,-1.1215888143688642,0.0176779584815856,-0.00518797207420385,-0.02640058142298507,0,70,255.0,255.0,255.0
541,27.05,26.584400760382458,-1.1718587389901016,-17.064412263671127,0.8604752396530655,-0.17529668101976126,-1.1228981769944058,0.018762940995174143,-0.004720087026969149,-0.02597392359868244,0,70,255.0,255.0,255.0
542,27.1,26.6274484281174,-1.1806292781977703,-17.12058946215125,0.8614405112656639,-0.17552098824492887,-1.1241862067287325,0.019847923508762685,-0.004252201979734447,-0.02554726577437981,0,70,255.0,255.0,255.0
543,27.150000000000002,26.67054571566112,-1.1894104479103886,-17.176830528795815,0.8624600320039417,-0.17572190121773473,-1.125452903571844,0.02093290602235123,-0.003784316932499745,-0.025120607950077183,0,70,255.0,255.0,255.0
544,27.200000000000003,26.713695335469893,-1.1982010784153383,-17.233134396960256,0.8635338018678991,-0.17589941993817884,-1.12669826752374,0.02201788853593977,-0.0033164318852650435,-0.024693950125774553,0,70,255.0,255.0,255.0
545,27.25,26.7569,-1.207,-17.2895,0.8646618208575356,-0.17605354440626123,-1.1279222985844213,0.0231028710495238,-0.0028485468380308188,-0.024267292301471954,0,70,255.0,255.0,255.0
546,27.3,26.800161270272213,-1.2158062186783387,-17.345926937624352,0.8657750028413643,-0.17619481821684096,-1.1291649779848414,0.02142440830362344,-0.0028024055851589838,-0.02543988371533141,0,70,255.0,255.0,255.0
547,27.35,26.843476101565184,-1.2246194433706403,-17.402417474957996,0.866804261687898,-0.17633378496477714,-1.1304662869559545,0.019745945557723084,-0.002756264332287149,-0.02661247512919086,0,70,255.0,255.0,255.0
548,27.400000000000002,26.88684029772205,-1.2334395587237728,-17.458974543479464,0.8677495973971368,-0.1764704446500697,-1.1318262254977605,0.01806748281182273,-0.002710123079415314,-0.027785066543050314,0,70,255.0,255.0,255.0
549,27.450000000000003,26.930249662585943,-1.2422664493846036,-17.515601074667288,0.8686110099690802,-0.17660479727271866,-1.1332447936102594,0.01638902006592237,-0.0026639818265434797,-0.028957657956909764,0,70,255.0,255.0,255.0
550,27.5,26.9737,-1.2511,-17.5723,0.8693884994037288,-0.17673684283272403,-1.1347219912934516,0.014710557320015916,-0.002617840573671204,-0.030130249370770912,0,70,255.0,255.0,255.0
551,27.55,27.0171885585287,-1.2599403862965446,-17.629072785831458,0.870168748981482,-0.17688404611287564,-1.136169911066215,0.0164994257901123,-0.003270290632393245,-0.027786541539765574,0,70,255.0,255.0,255.0
552,27.6,27.060718365621874,-1.2687889483196704,-17.685915038016766,0.8710384419827399,-0.17706387189596337,-1.1375006454474283,0.018288294260208688,-0.003922740691115286,-0.025442833708760236,0,70,255.0,255.0,255.0
553,27.650000000000002,27.1042938934507,-1.2776473171945235,-17.742820897286343,0.8719975784075028,-0.17727632018198716,-1.138714194437091,0.020077162730305076,-0.0045751907498373275,-0.0230991258777549,0,70,255.0,255.0,255.0
554,27.700000000000003,27.147919614186353,-1.2865171240462514,-17.799784504370614,0.8730461582557706,-0.1775213909709471,-1.1398105580352038,0.02186603120040146,-0.0052276408085593674,-0.020755418046749564,0,70,255.0,255.0,255.0
555,27.75,27.1916,-1.2954,-17.8568,0.874184181527543,-0.17779908426284308,-1.1407897362417658,0.02365489967049239,-0.005880090867281584,-0.018411710215739063,0,70,255.0,255.0,255.0
556,27.8,27.235338095612995,-1.3042970361354838,-17.913863519049823,0.8753260012327038,-0.17807699733165677,-1.1417713777503056,0.02201788853593649,-0.005236431885265338,-0.020853950125850354,0,70,255.0,255.0,255.0
557,27.85,27.279131235947325,-1.313207163350681,-17.970979172974957,0.8763859703811367,-0.17832272745136962,-1.142875131254351,0.02038087740138059,-0.004592772903249091,-0.02329619003596164,0,70,255.0,255.0,255.0
558,27.900000000000002,27.322975328475167,-1.322128772498136,-18.028153067375182,0.8773640889728418,-0.17853627462198166,-1.144100996753902,0.018743866266824692,-0.003949113921232844,-0.025738429946072932,0,70,255.0,255.0,255.0
559,27.950000000000003,27.36686628066867,-1.3310602544303944,-18.085391307850276,0.8782603570078191,-0.1787176388434929,-1.1454489742489582,0.01710685513226879,-0.003305454939216598,-0.02818066985618422,0,70,255.0,255.0,255.0
560,28.0,27.4108,-1.34,-18.1427,0.8790747744860685,-0.17886682011590332,-1.14691906373952,0.01546984399770679,-0.002661795957200841,-0.030622909766282902,0,70,255.0,255.0,255.0
561,28.05,27.45477345901933,-1.3489466691615206,-18.200083537969267,0.8798712460876609,-0.1789999645604969,-1.1484085779325963,0.016389020065986783,-0.002663981826543438,-0.028957657956772187,0,70,255.0,255.0,255.0
562,28.1,27.498787890588822,-1.3578999982776079,-18.25753947008342,0.8807136764926673,-0.17913321829855766,-1.149814829535197,0.017308196134266776,-0.0026661676958860347,-0.02729240614726147,0,70,255.0,255.0,255.0
563,28.150000000000002,27.54284559264865,-1.3668599928129346,-18.315063633212944,0.8816020657010876,-0.17926658133008552,-1.1511378185473224,0.01822737220254677,-0.0026683535652286317,-0.025627154337750754,0,70,255.0,255.0,255.0
564,28.200000000000003,27.58694886313899,-1.3758266582321745,-18.372651864228317,0.8825364137129219,-0.17940005365508055,-1.1523775449689724,0.019146548270826767,-0.002670539434571229,-0.023961902528240035,0,70,255.0,255.0,255.0
565,28.25,27.6311,-1.3848,-18.4303,0.8835167205281702,-0.17953363527354269,-1.1535340088001464,0.020065724339101365,-0.0026727253039153798,-0.022296650718722333,0,70,255.0,255.0,255.0
