t,lat,lon,alt,vx,vy,vz,ax,ay,az,yaw,mode,ledr,ledg,ledb
10.0,35.72377766698273,51.27508508999999,1450.0000726990402,7.495193892776786,-2.708388901809086,-0.0,5.664923641290817e-07,-1.5732766200926337e-08,0.0,340.2,70.0,0.0,255.0,0.0
10.05,35.72378104459931,51.27508359327479,1450.0000726981089,7.4951939211014045,-2.708388902595724,-0.0,2.8324616607733333e-07,-2.359889705871865e-08,0.0,339.69388888888886,70.0,0.0,255.0,0.0
10.100000000000001,35.72378442221589,51.27508209654946,1450.0000726999715,7.495193921101404,-2.7083889041689755,-0.0,-7.081153796661965e-08,-3.1464431060612696e-08,0.0,339.18777777777774,70.0,0.0,255.0,0.0
10.150000000000002,35.72378779983242,51.275080599824,1450.0000726990402,7.495193914020251,-2.7083889057421673,-0.0,-2.124346423215684e-07,8.364372305891266e-08,0.0,338.6816666666666,70.0,0.0,255.0,0.0
10.200000000000003,35.723791177448966,51.27507910309841,1450.0000726971775,7.49519389985794,-2.708388895804603,-0.0,-1.4162313277665817e-07,2.6091267812944352e-08,0.0,338.1755555555555,70.0,0.0,255.0,0.0
10.250000000000004,35.72379455506547,51.27507760637271,1450.0000726971775,7.495193899857938,-2.7083889031330406,-0.0,2.832462371316069e-07,-1.465681869206037e-07,0.0,337.6694444444444,70.0,0.0,255.0,0.0
10.300000000000004,35.72379793268196,51.27507610964687,1450.0000726990402,7.495193928182562,-2.708388910461422,-0.0,7.081155217747437e-08,2.609346338999785e-08,0.0,337.1633333333333,70.0,0.0,255.0,0.0
10.350000000000005,35.72380131029842,51.2750746129209,1450.0000726981089,7.495193906939093,-2.708388900523694,-0.0,-2.832462513424616e-07,8.364804671145976e-08,0.0,336.6572222222222,70.0,0.0,255.0,0.0
10.400000000000006,35.72380468791487,51.27507311619482,1450.0000726971775,7.495193899857938,-2.708388902096617,-0.0,1.4162314698751288e-07,-3.1457858540306916e-08,0.0,336.15111111111105,70.0,0.0,255.0,0.0
10.450000000000006,35.72380806553129,51.2750716194686,1450.0000726981089,7.495193921101407,-2.70838890366948,-0.0,2.8324620870989747e-07,2.609677807186017e-08,0.0,335.6449999999999,70.0,0.0,255.0,0.0
10.500000000000007,35.72381144314771,51.27507012274226,1450.0000726971775,7.495193928182559,-2.7083888994869394,-0.0,-2.1243469916498725e-07,2.6097772831690236e-08,0.0,335.1388888888888,70.0,0.0,255.0,0.0
10.550000000000008,35.7238148207641,51.275068626015795,1450.0000726981089,7.495193899857938,-2.7083889010597026,-0.0,-4.2486924201057263e-07,-8.900817860535426e-08,0.0,334.6327777777777,70.0,0.0,255.0,0.0
10.600000000000009,35.723818198380464,51.27506712928919,1450.0000726971775,7.495193885695635,-2.7083889083877573,-0.0,2.1243472758669668e-07,-3.145348870248199e-08,0.0,334.12666666666655,70.0,0.0,255.0,0.0
10.65000000000001,35.723821575996794,51.275065632562466,1450.0000726981089,7.495193921101411,-2.7083889042050515,-0.0,3.5405768983309827e-07,8.365468318061176e-08,0.0,333.6205555555554,70.0,0.0,255.0,0.0
10.70000000000001,35.72382495361312,51.27506413583562,1450.0000726971775,7.495193921101404,-2.708388900022289,-0.0,-2.1243479864097026e-07,2.610214266951516e-08,0.0,333.11444444444436,70.0,0.0,255.0,0.0
10.75000000000001,35.72382833122941,51.27506263910865,1450.0000726981089,7.495193899857931,-2.7083889015948373,-0.0,-1.4162310435494874e-07,-3.145032678730786e-08,0.0,332.60833333333323,70.0,0.0,255.0,0.0
10.800000000000011,35.723831708845694,51.275061142381546,1450.0000726981089,7.495193906939093,-2.7083889031673216,-0.0,1.416232464634959e-07,-3.144908333752028e-08,0.0,332.1022222222221,70.0,0.0,255.0,0.0
10.850000000000012,35.72383508646195,51.275059645654316,1450.0000726971775,7.4951939140202555,-2.7083889047397456,-0.0,7.081148112320079e-08,-3.144801752341664e-08,0.0,331.596111111111,70.0,0.0,255.0,0.0
10.900000000000013,35.723838464078206,51.27505814892696,1450.0000726981089,7.495193914020241,-2.7083889063121234,-0.0,-1.416231754092223e-07,8.366001225112996e-08,0.0,331.08999999999986,70.0,0.0,255.0,0.0
10.950000000000014,35.72384184169443,51.27505665219948,1450.0000726990402,7.495193899857938,-2.7083888963737444,-0.0,7.105427357601002e-14,2.610768490285409e-08,0.0,330.58388888888874,70.0,0.0,255.0,0.0
11.000000000000014,35.72384521931062,51.27505515547188,1450.0000726990402,7.495193914020248,-2.708388903701355,-0.0,2.124346565324231e-07,-8.899821324348522e-08,0.0,330.0777777777776,70.0,0.0,255.0,0.0
11.050000000000015,35.7238485969268,51.27505365874414,1450.0000726971775,7.495193921101404,-2.7083889052735657,-0.0,-7.081141006892722e-08,2.610978100392458e-08,0.0,329.5716666666665,70.0,0.0,255.0,0.0
11.100000000000016,35.72385197454297,51.27505216201629,1450.0000726981089,7.495193906939107,-2.7083889010903768,-0.0,-7.081155217747437e-08,-3.144261739862486e-08,0.0,329.06555555555536,70.0,0.0,255.0,0.0
11.150000000000016,35.7238553521591,51.2750506652883,1450.0000726971775,7.495193914020248,-2.7083889084178274,-0.0,7.081141006892722e-08,-3.144144500311086e-08,0.0,328.5594444444443,70.0,0.0,255.0,0.0
11.200000000000017,35.72385872977521,51.27504916856019,1450.0000726981089,7.495193914020248,-2.7083889042345213,-0.0,0.0,8.366658477143574e-08,0.0,328.05333333333317,70.0,0.0,255.0,0.0
11.250000000000018,35.72386210739132,51.27504767183194,1450.0000726990402,7.495193914020248,-2.708388900051169,-0.0,-7.081155217747437e-08,2.6114115314612718e-08,0.0,327.54722222222205,70.0,0.0,255.0,0.0
11.300000000000018,35.7238654850074,51.27504617510359,1450.0000726971775,7.495193906939093,-2.7083889016231097,-0.0,-7.081141006892722e-08,-3.143817650652636e-08,0.0,327.0411111111109,70.0,0.0,255.0,0.0
11.35000000000002,35.72386886262345,51.275044678375096,1450.0000726971775,7.495193906939107,-2.7083889031949866,-0.0,0.0,-3.143711069242272e-08,0.0,326.5349999999998,70.0,0.0,255.0,0.0
11.40000000000002,35.72387224023949,51.27504318164648,1450.0000726971775,7.495193906939093,-2.708388904766821,-0.0,-1.4210854715202004e-13,-3.1436115932592656e-08,0.0,326.0288888888887,70.0,0.0,255.0,0.0
11.45000000000002,35.7238756178555,51.27504168491773,1450.0000726962462,7.495193906939093,-2.708388906338598,-0.0,7.081155217747437e-08,8.367209147763788e-08,0.0,325.52277777777755,70.0,0.0,255.0,0.0
11.500000000000021,35.723878995471495,51.27504018818886,1450.0000726962462,7.495193914020248,-2.7083888963996117,-0.0,7.081155217747437e-08,2.6119693075088435e-08,0.0,325.0166666666664,70.0,0.0,255.0,0.0
11.550000000000022,35.72388237308747,51.27503869145987,1450.0000726971775,7.495193914020248,-2.708388903726629,-0.0,0.0,-8.898631165266124e-08,0.0,324.5105555555553,70.0,0.0,255.0,0.0
11.600000000000023,35.723885750703424,51.27503719473075,1450.0000726981089,7.495193914020248,-2.708388905298243,-0.0,-1.4162310435494874e-07,2.612189575756929e-08,0.0,324.00444444444423,70.0,0.0,255.0,0.0
11.650000000000023,35.72388912831936,51.275035698001496,1450.0000726981089,7.495193899857938,-2.7083889011144393,-0.0,-7.081155217747437e-08,8.367628367977886e-08,0.0,323.4983333333331,70.0,0.0,255.0,0.0
11.700000000000024,35.72389250593526,51.27503420127212,1450.0000726971775,7.495193906939093,-2.7083888969306145,-0.0,7.081155217747437e-08,-3.1429721047970816e-08,0.0,322.992222222222,70.0,0.0,255.0,0.0
11.750000000000025,35.72389588355115,51.275032704542625,1450.0000726981089,7.495193906939093,-2.7083889042574114,-0.0,7.081169428602152e-08,-1.4653494417871116e-07,0.0,322.48611111111086,70.0,0.0,255.0,0.0
11.800000000000026,35.72389926116703,51.27503120781299,1450.0000726981089,7.495193914020263,-2.708388911584109,-0.0,1.4162296224640158e-07,2.6126656393898884e-08,0.0,321.97999999999973,70.0,0.0,255.0,0.0
11.850000000000026,35.72390263878288,51.275029711083235,1450.0000726990402,7.495193921101389,-2.7083889016447458,-0.0,-7.081183639456867e-08,8.368040482764627e-08,0.0,321.4738888888886,70.0,0.0,255.0,0.0
11.900000000000027,35.72390601639871,51.27502821435335,1450.0000726999715,7.495193906939079,-2.7083889032160684,-0.0,-1.4162282013785443e-07,-3.142559990010341e-08,0.0,320.9677777777775,70.0,0.0,255.0,0.0
11.950000000000028,35.72390939401452,51.27502671762335,1450.0000726971775,7.495193906939107,-2.7083889047873058,-0.0,7.081183639456867e-08,2.6129498564841924e-08,0.0,320.46166666666636,70.0,0.0,255.0,0.0
12.000000000000028,35.72391277163032,51.27502522089321,1450.0000726990402,7.495193914020263,-2.7083889006031185,-0.0,7.081155217747437e-08,2.613063543321914e-08,0.0,319.95555555555524,70.0,0.0,255.0,0.0
12.05000000000003,35.72391614924609,51.275023724162956,1450.0000726971775,7.495193914020263,-2.708388902174242,-0.0,-1.4162338857204304e-07,2.613170124732278e-08,0.0,319.44944444444417,70.0,0.0,255.0,0.0
12.10000000000003,35.72391952686183,51.275022227432565,1450.0000726981089,7.495193899857924,-2.7083888979899484,-0.0,-2.8421709430404007e-13,-3.1420483992405934e-08,0.0,318.94333333333304,70.0,0.0,255.0,0.0
12.15000000000003,35.72392290447755,51.27502073070207,1450.0000726990402,7.495193914020234,-2.7083889053162906,-0.0,2.832464929269918e-07,-8.897288239495538e-08,0.0,318.4372222222219,70.0,0.0,255.0,0.0
12.200000000000031,35.72392628209326,51.27501923397141,1450.0000726971775,7.495193928182573,-2.7083889068872367,-0.0,2.8421709430404007e-13,2.61348986896337e-08,0.0,317.9311111111108,70.0,0.0,255.0,0.0
12.250000000000032,35.72392965970895,51.27501773724065,1450.0000726990402,7.495193914020263,-2.7083889027028007,-0.0,-2.832464929269918e-07,8.368893134047539e-08,0.0,317.42499999999967,70.0,0.0,255.0,0.0
12.300000000000033,35.72393303732463,51.275016240509764,1450.0000726981089,7.495193899857924,-2.7083888985183435,-0.0,7.081155217747437e-08,2.6136817155020253e-08,0.0,316.91888888888855,70.0,0.0,255.0,0.0
12.350000000000033,35.72393641494026,51.27501474377875,1450.0000726981089,7.495193921101418,-2.708388900089119,-0.0,7.081212061166298e-08,-1.4652187019237317e-07,0.0,316.4127777777774,70.0,0.0,255.0,0.0
12.400000000000034,35.7239397925559,51.275013247047596,1450.0000726981089,7.495193906939136,-2.7083889131705305,-0.0,-2.832467771440861e-07,-3.1414231216331245e-08,0.0,315.9066666666663,70.0,0.0,255.0,0.0
12.450000000000035,35.723943170171495,51.275011750316324,1450.0000726971775,7.49519389277674,-2.708388903230542,-0.0,2.124338038811402e-07,1.4124729830200522e-07,0.0,315.4005555555552,70.0,0.0,255.0,0.0
12.500000000000036,35.72394654778708,51.27501025358493,1450.0000726971775,7.495193928182516,-2.7083888990458007,-0.0,2.832467771440861e-07,2.614186200844415e-08,0.0,314.8944444444441,70.0,0.0,255.0,0.0
12.550000000000036,35.72394992540266,51.27500875685341,1450.0000726990402,7.495193921101418,-2.708388900616356,-0.0,-2.124340880982345e-07,-3.14108206111996e-08,0.0,314.388333333333,70.0,0.0,255.0,0.0
12.600000000000037,35.72395330301819,51.27500726012176,1450.0000726981089,7.495193906939107,-2.7083889021868828,-0.0,-2.124346565324231e-07,-3.141011006846384e-08,0.0,313.88222222222186,70.0,0.0,255.0,0.0
12.650000000000038,35.723956680633705,51.275005763389984,1450.0000726981089,7.495193899857952,-2.708388903757367,-0.0,-7.081155217747437e-08,-3.140897320008662e-08,0.0,313.37611111111073,70.0,0.0,255.0,0.0
12.700000000000038,35.723960058249205,51.27500426665807,1450.0000726981089,7.495193899857952,-2.70838890532778,-0.0,7.081155217747437e-08,-3.14075521146151e-08,0.0,312.8699999999996,70.0,0.0,255.0,0.0
12.750000000000039,35.7239634358647,51.27500276992605,1450.0000726990402,7.495193906939107,-2.708388906898122,-0.0,1.4162282013785443e-07,2.614683580759447e-08,0.0,312.3638888888885,70.0,0.0,255.0,0.0
12.80000000000004,35.72396681348015,51.275001273193894,1450.0000726981089,7.495193914020234,-2.7083889027130965,-0.0,-2.8421709430404007e-13,1.412547590007307e-07,0.0,311.85777777777736,70.0,0.0,255.0,0.0
12.85000000000004,35.72397019109559,51.27499977646161,1450.0000726971775,7.495193906939079,-2.7083888927726463,-0.0,2.8421709430404007e-13,-3.140385729238915e-08,0.0,311.35166666666623,70.0,0.0,255.0,0.0
12.900000000000041,35.72397356871101,51.27499827972921,1450.0000726971775,7.495193914020263,-2.7083889058534822,-0.0,2.124349407495174e-07,-2.040630420196976e-07,0.0,310.8455555555551,70.0,0.0,255.0,0.0
12.950000000000042,35.72397694632642,51.274996782996666,1450.0000726990402,7.495193928182573,-2.7083889131789505,-0.0,-7.081183639456867e-08,8.370435011784139e-08,0.0,310.33944444444404,70.0,0.0,255.0,0.0
13.000000000000043,35.723980323941795,51.27499528626401,1450.0000726990402,7.495193906939079,-2.7083888974830472,-0.0,-2.124349407495174e-07,1.412585959315038e-07,0.0,309.8333333333329,70.0,0.0,255.0,0.0
13.050000000000043,35.72398370155716,51.27499378953123,1450.0000726990402,7.495193906939079,-2.708388899053091,-0.0,7.081183639456867e-08,-8.895312930690125e-08,0.0,309.3272222222218,70.0,0.0,255.0,0.0
13.100000000000044,35.72398707917249,51.27499229279831,1450.0000726981089,7.495193914020263,-2.70838890637836,-0.0,7.081183639456867e-08,-8.895185032997688e-08,0.0,308.82111111111067,70.0,0.0,255.0,0.0
13.150000000000045,35.72399045678782,51.274990796065275,1450.0000726981089,7.495193914020263,-2.708388907948276,-0.0,-2.8421709430404007e-13,2.6155362320423592e-08,0.0,308.31499999999954,70.0,0.0,255.0,0.0
13.200000000000045,35.7239938344031,51.2749892993321,1450.0000726971775,7.495193914020234,-2.708388903762824,-0.0,-1.4162310435494874e-07,1.4126300129646552e-07,0.0,307.8088888888884,70.0,0.0,255.0,0.0
13.250000000000046,35.72399721201838,51.27498780259881,1450.0000726971775,7.495193899857952,-2.708388893821976,-0.0,-1.4162282013785443e-07,2.6157636057178024e-08,0.0,307.3027777777773,70.0,0.0,255.0,0.0
13.300000000000047,35.72400058963363,51.2749863058654,1450.0000726981089,7.495193899857952,-2.7083889011470603,-0.0,2.124340880982345e-07,-1.4650069601884752e-07,0.0,306.79666666666617,70.0,0.0,255.0,0.0
13.350000000000048,35.724003967248876,51.27498480913186,1450.0000726990402,7.495193921101361,-2.7083889084720454,-0.0,2.124343723153288e-07,-3.1393057042805594e-08,0.0,306.29055555555504,70.0,0.0,255.0,0.0
13.400000000000048,35.72400734486409,51.27498331239818,1450.0000726990402,7.495193921101389,-2.708388904286366,-0.0,-1.4162253592076013e-07,2.616090455376252e-08,0.0,305.7844444444439,70.0,0.0,255.0,0.0
13.450000000000049,35.72401072247929,51.274981815664376,1450.0000726990402,7.495193906939107,-2.708388905855955,-0.0,-7.081126796038006e-08,2.616218353068689e-08,0.0,305.27833333333285,70.0,0.0,255.0,0.0
13.50000000000005,35.72401410009446,51.27498031893045,1450.0000726971775,7.495193914020263,-2.7083889016701477,-0.0,0.0,2.616289407342265e-08,0.0,304.7722222222217,70.0,0.0,255.0,0.0
13.55000000000005,35.724017477709616,51.2749788221964,1450.0000726971775,7.495193906939107,-2.7083889032396655,-0.0,-7.081155217747437e-08,-3.138907800348534e-08,0.0,304.2661111111106,70.0,0.0,255.0,0.0
13.600000000000051,35.724020855324746,51.274977325462224,1450.0000726990402,7.495193906939107,-2.7083889048090555,-0.0,-7.081155217747437e-08,8.371898729819804e-08,0.0,303.7599999999995,70.0,0.0,255.0,0.0
13.650000000000052,35.72402423293986,51.274975828727925,1450.0000726981089,7.495193899857952,-2.708388894867767,-0.0,0.0,2.6166304678554297e-08,0.0,303.25388888888835,70.0,0.0,255.0,0.0
13.700000000000053,35.72402761055494,51.2749743319935,1450.0000726962462,7.495193906939107,-2.708388902192425,-0.0,2.124340880982345e-07,-1.464921695060184e-07,0.0,302.74777777777723,70.0,0.0,255.0,0.0
13.750000000000053,35.724030988170036,51.274972835258936,1450.0000726971775,7.495193921101361,-2.7083889095169837,-0.0,-5.684341886080801e-13,-3.138438842142932e-08,0.0,302.2416666666661,70.0,0.0,255.0,0.0
13.800000000000054,35.724034365785066,51.27497133852425,1450.0000726981089,7.4951939069390505,-2.708388905330864,-0.0,-7.081098374328576e-08,1.412763594998978e-07,0.0,301.735555555555,70.0,0.0,255.0,0.0
13.850000000000055,35.724037743400096,51.27496984178944,1450.0000726971775,7.495193914020263,-2.708388895389348,-0.0,1.4162367278913734e-07,2.617071004351601e-08,0.0,301.22944444444386,70.0,0.0,255.0,0.0
13.900000000000055,35.72404112101513,51.27496834505452,1450.0000726981089,7.495193921101418,-2.708388902713793,-0.0,0.0,-1.4648819046669814e-07,0.0,300.7233333333328,70.0,0.0,255.0,0.0
13.950000000000056,35.7240444986301,51.27496684831945,1450.0000726971775,7.495193914020263,-2.708388910038167,-0.0,-1.4162310435494874e-07,2.6173267997364746e-08,0.0,300.21722222222166,70.0,0.0,255.0,0.0
14.000000000000057,35.72404787624508,51.274965351584264,1450.0000726962462,7.495193906939107,-2.708388900096466,-0.0,7.081155217747437e-08,8.372765591957432e-08,0.0,299.71111111111054,70.0,0.0,255.0,0.0
14.050000000000058,35.724051253860026,51.27496385484895,1450.0000726990402,7.495193921101418,-2.7083889016654012,-0.0,7.081098374328576e-08,-3.1378277753901784e-08,0.0,299.2049999999994,70.0,0.0,255.0,0.0
14.100000000000058,35.724054631474964,51.274962358113505,1450.0000726981089,7.495193914020206,-2.708388903234294,-0.0,-3.5405776088737184e-07,-3.137742510261887e-08,0.0,298.6988888888883,70.0,0.0,255.0,0.0
14.150000000000059,35.724058009089866,51.27496086137794,1450.0000726981089,7.495193885695642,-2.7083889048031438,-0.0,-2.124340880982345e-07,2.617710492813785e-08,0.0,298.19277777777717,70.0,0.0,255.0,0.0
14.20000000000006,35.72406138670474,51.27495936464224,1450.0000726981089,7.495193892776797,-2.7083889006165833,-0.0,3.5405719245318323e-07,2.6178668122156523e-08,0.0,297.68666666666604,70.0,0.0,255.0,0.0
14.25000000000006,35.72406476431961,51.27495786790644,1450.0000726971775,7.495193921101361,-2.708388902185277,-0.0,2.8324620870989747e-07,-8.892612868294236e-08,0.0,297.1805555555549,70.0,0.0,255.0,0.0
14.300000000000061,35.72406814193445,51.27495637117048,1450.0000726990402,7.495193921101418,-2.708388909509196,-0.0,-1.4162253592076013e-07,-3.137216708637425e-08,0.0,296.6744444444438,70.0,0.0,255.0,0.0
14.350000000000062,35.724071519549284,51.27495487443441,1450.0000726990402,7.495193906939107,-2.7083889053224937,-0.0,-7.081155217747437e-08,8.373419291274331e-08,0.0,296.1683333333327,70.0,0.0,255.0,0.0
14.400000000000063,35.72407489716409,51.27495337769821,1450.0000726981089,7.495193914020263,-2.708388901135777,-0.0,1.4162253592076013e-07,2.6182362944382476e-08,0.0,295.6622222222216,70.0,0.0,255.0,0.0
14.450000000000063,35.72407827477887,51.274951880961886,1450.0000726990402,7.495193921101361,-2.7083889027042574,-0.0,-7.081155217747437e-08,-3.13690406983369e-08,0.0,295.1561111111105,70.0,0.0,255.0,0.0
14.500000000000064,35.724081652393636,51.274950384225434,1450.0000726990402,7.495193906939107,-2.708388904272681,-0.0,-2.124335196640459e-07,8.373859827770502e-08,0.0,294.64999999999935,70.0,0.0,255.0,0.0
14.550000000000065,35.72408503000839,51.274948887488854,1450.0000726971775,7.495193899858009,-2.7083888943303975,-0.0,-5.684341886080801e-13,2.6185915658061276e-08,0.0,294.1438888888882,70.0,0.0,255.0,0.0
14.600000000000065,35.7240884076231,51.27494739075217,1450.0000726981089,7.4951939069390505,-2.7083889016540894,-0.0,1.4162253592076013e-07,-1.4647255852651142e-07,0.0,293.6377777777771,70.0,0.0,255.0,0.0
14.650000000000066,35.72409178523779,51.27494589401532,1450.0000726971775,7.495193914020263,-2.7083889089776534,-0.0,1.4162367278913734e-07,-3.136392479063943e-08,0.0,293.131666666666,70.0,0.0,255.0,0.0
14.700000000000067,35.724095162852485,51.27494439727837,1450.0000726981089,7.495193921101418,-2.708388904790482,-0.0,-1.4162367278913734e-07,2.618961048028723e-08,0.0,292.62555555555485,70.0,0.0,255.0,0.0
14.750000000000068,35.72409854046715,51.27494290054128,1450.0000726962462,7.495193899857895,-2.7083889063586923,-0.0,-1.4162310435494874e-07,2.6189326263192925e-08,0.0,292.11944444444373,70.0,0.0,255.0,0.0
14.800000000000068,35.72410191808178,51.27494140380407,1450.0000726981089,7.495193906939107,-2.7083889021715493,-0.0,2.124352249666117e-07,2.61911736743059e-08,0.0,291.61333333333266,70.0,0.0,255.0,0.0
14.850000000000069,35.724105295696404,51.27493990706674,1450.0000726981089,7.495193921101418,-2.708388903739575,-0.0,-5.684341886080801e-13,8.374627213925123e-08,0.0,291.10722222222154,70.0,0.0,255.0,0.0
14.90000000000007,35.724108673311015,51.274938410329284,1450.0000726971775,7.4951939069390505,-2.708388893796922,-0.0,-7.081155217747437e-08,8.374684057343984e-08,0.0,290.6011111111104,70.0,0.0,255.0,0.0
14.95000000000007,35.724112050925584,51.274936913591695,1450.0000726981089,7.495193914020263,-2.708388895364891,-0.0,7.081268904585158e-08,-1.4646474255641806e-07,0.0,290.0949999999993,70.0,0.0,255.0,0.0
15.000000000000071,35.724115428540145,51.27493541685398,1450.0000726962462,7.495193914020319,-2.7083889084433963,-0.0,-7.081155217747437e-08,-8.891049674275564e-08,0.0,289.58888888888816,70.0,0.0,255.0,0.0
15.050000000000072,35.724118806154685,51.27493392011613,1450.0000726990402,7.495193906939107,-2.7083889042559406,-0.0,7.081098374328576e-08,8.375053539566579e-08,0.0,289.08277777777704,70.0,0.0,255.0,0.0
15.100000000000072,35.7241221837692,51.27493242337817,1450.0000726990402,7.495193921101418,-2.7083889000683428,-0.0,-5.684341886080801e-13,-3.1355114060716005e-08,0.0,288.5766666666659,70.0,0.0,255.0,0.0
15.150000000000073,35.724125561383715,51.274930926640074,1450.0000726981089,7.4951939069390505,-2.708388907391452,-0.0,-2.124352249666117e-07,-8.89079387889069e-08,0.0,288.0705555555548,70.0,0.0,255.0,0.0
15.200000000000074,35.72412893899817,51.27492942990185,1450.0000726981089,7.495193899857895,-2.7083889089591366,-0.0,1.4162367278913734e-07,8.375423021789175e-08,0.0,287.56444444444367,70.0,0.0,255.0,0.0
15.250000000000075,35.72413231661264,51.274927933163504,1450.0000726990402,7.495193921101418,-2.708388899016029,-0.0,7.081268904585158e-08,8.375451443498605e-08,0.0,287.0583333333326,70.0,0.0,255.0,0.0
15.300000000000075,35.72413569422707,51.274926436425034,1450.0000726990402,7.495193906939164,-2.708388900583685,-0.0,-2.124346565324231e-07,-3.135141923849005e-08,0.0,286.5522222222215,70.0,0.0,255.0,0.0
15.350000000000076,35.724139071841485,51.27492493968643,1450.0000726990402,7.495193899857952,-2.708388902151171,-0.0,1.4162196748657152e-07,-3.134914550173562e-08,0.0,286.04611111111035,70.0,0.0,255.0,0.0
15.400000000000077,35.72414244945589,51.27492344294771,1450.0000726971775,7.495193921101361,-2.7083889037185997,-0.0,1.4162253592076013e-07,-3.134857706754701e-08,0.0,285.5399999999992,70.0,0.0,255.0,0.0
15.450000000000077,35.72414582707026,51.274921946208856,1450.0000726990402,7.495193914020206,-2.7083889052860286,-0.0,-2.124346565324231e-07,2.6205668746115407e-08,0.0,285.0338888888881,70.0,0.0,255.0,0.0
15.500000000000078,35.7241492046846,51.27492044946988,1450.0000726990402,7.495193899857895,-2.708388901098033,-0.0,1.1368683772161603e-12,2.6207658265775535e-08,0.0,284.527777777777,70.0,0.0,255.0,0.0
15.550000000000079,35.724152582298935,51.27491895273078,1450.0000726981089,7.495193914020319,-2.7083889026652628,-0.0,2.124352249666117e-07,-3.1344598028226756e-08,0.0,284.02166666666585,70.0,0.0,255.0,0.0
15.60000000000008,35.72415595991324,51.27491745599154,1450.0000726999715,7.495193921101418,-2.7083889042324927,-0.0,-1.1368683772161603e-12,-3.134488224532106e-08,0.0,283.5155555555547,70.0,0.0,255.0,0.0
15.65000000000008,35.724159337527546,51.274915959252176,1450.0000726990402,7.495193914020206,-2.708388905799751,-0.0,-1.4162310435494874e-07,2.6209079351247055e-08,0.0,283.0094444444436,70.0,0.0,255.0,0.0
15.700000000000081,35.72416271514181,51.2749144625127,1450.0000726971775,7.495193906939107,-2.7083889016115847,-0.0,-7.081098374328576e-08,2.6211353088001488e-08,0.0,282.50333333333253,70.0,0.0,255.0,0.0
15.750000000000082,35.72416609275607,51.27491296577309,1450.0000726990402,7.495193906939107,-2.7083889031786157,-0.0,7.081155217747437e-08,-3.134005055471789e-08,0.0,281.9972222222214,70.0,0.0,255.0,0.0
15.800000000000082,35.7241694703703,51.274911469033356,1450.0000726990402,7.495193914020263,-2.70838890474559,-0.0,-5.684341886080801e-13,2.6213342607661616e-08,0.0,281.4911111111103,70.0,0.0,255.0,0.0
15.850000000000083,35.72417284798451,51.2749099722935,1450.0000726981089,7.4951939069390505,-2.7083889005572814,-0.0,-5.684341886080801e-13,2.6213342607661616e-08,0.0,280.98499999999916,70.0,0.0,255.0,0.0
15.900000000000084,35.724176225598704,51.27490847555351,1450.0000726981089,7.495193914020206,-2.7083889021242555,-0.0,1.4162367278913734e-07,-3.1337492600869155e-08,0.0,280.47888888888804,70.0,0.0,255.0,0.0
15.950000000000085,35.72417960321287,51.27490697881339,1450.0000726981089,7.495193921101418,-2.7083889036910307,-0.0,-1.4162253592076013e-07,-3.133578729830333e-08,0.0,279.9727777777769,70.0,0.0,255.0,0.0
16.000000000000085,35.72418298082702,51.274905482073144,1450.0000726981089,7.495193899857952,-2.7083889052578343,-0.0,-1.4162253592076013e-07,2.621703742988757e-08,0.0,279.4666666666658,70.0,0.0,255.0,0.0
16.050000000000086,35.724186358441145,51.27490398533278,1450.0000726962462,7.495193906939164,-2.708388901069327,-0.0,7.081155217747437e-08,2.6218742732453393e-08,0.0,278.96055555555466,70.0,0.0,255.0,0.0
16.100000000000087,35.72418973605526,51.27490248859228,1450.0000726971775,7.495193906939107,-2.70838890263596,-0.0,-5.684341886080801e-13,-8.888548563845688e-08,0.0,278.45444444444354,70.0,0.0,255.0,0.0
16.150000000000087,35.72419311366932,51.27490099185165,1450.0000726990402,7.495193906939107,-2.7083889099578755,-0.0,0.0,-3.133152404188877e-08,0.0,277.94833333333247,70.0,0.0,255.0,0.0
16.200000000000088,35.724196491283394,51.27489949511091,1450.0000726971775,7.495193906939107,-2.7083889057691124,-0.0,-5.684341886080801e-13,8.377497806577594e-08,0.0,277.44222222222135,70.0,0.0,255.0,0.0
16.25000000000009,35.72419986889744,51.27489799837004,1450.0000726971775,7.4951939069390505,-2.7083889015803777,-0.0,7.081155217747437e-08,2.622215333758504e-08,0.0,276.9361111111102,70.0,0.0,255.0,0.0
16.30000000000009,35.72420324651147,51.27489650162904,1450.0000726990402,7.495193914020263,-2.708388903146897,-0.0,5.684341886080801e-13,2.622414285724517e-08,0.0,276.4299999999991,70.0,0.0,255.0,0.0
16.35000000000009,35.72420662412546,51.27489500488791,1450.0000726981089,7.495193906939107,-2.7083888989579634,-0.0,-5.684341886080801e-13,2.6225848159810994e-08,0.0,275.923888888888,70.0,0.0,255.0,0.0
16.40000000000009,35.72421000173945,51.274893508146654,1450.0000726990402,7.495193914020206,-2.7083889005243122,-0.0,7.081098374328576e-08,-8.88795170794765e-08,0.0,275.41777777777685,70.0,0.0,255.0,0.0
16.45000000000009,35.724213379353415,51.27489201140528,1450.0000726990402,7.495193914020206,-2.708388907845915,-0.0,-1.4162253592076013e-07,-3.132583970000269e-08,0.0,274.9116666666657,70.0,0.0,255.0,0.0
16.500000000000092,35.72421675696736,51.27489051466377,1450.0000726971775,7.495193899857952,-2.708388903656896,-0.0,7.081212061166298e-08,1.4133490822132444e-07,0.0,274.40555555555466,70.0,0.0,255.0,0.0
16.550000000000093,35.72422013458128,51.27488901792214,1450.0000726981089,7.495193921101418,-2.7083888937124243,-0.0,2.8324620870989747e-07,2.6230111416225554e-08,0.0,273.8994444444435,70.0,0.0,255.0,0.0
16.600000000000094,35.724223512195195,51.27488752118039,1450.0000726971775,7.495193928182573,-2.708388901033885,-0.0,-2.124346565324231e-07,-1.4642949963672436e-07,0.0,273.3933333333324,70.0,0.0,255.0,0.0
16.650000000000095,35.724226889809074,51.27488602443851,1450.0000726990402,7.495193899857952,-2.7083889083553743,-0.0,-2.124340880982345e-07,2.623181671879138e-08,0.0,272.8872222222213,70.0,0.0,255.0,0.0
16.700000000000095,35.724230267422925,51.27488452769649,1450.0000726990402,7.495193906939164,-2.7083888984107034,-0.0,1.4162310435494874e-07,2.6234374672640115e-08,0.0,272.38111111111016,70.0,0.0,255.0,0.0
16.750000000000096,35.724233645036776,51.27488303095436,1450.0000726981089,7.495193914020263,-2.708388905731937,-0.0,-1.1368683772161603e-12,-8.88724116521189e-08,0.0,271.87499999999903,70.0,0.0,255.0,0.0
16.800000000000097,35.72423702265059,51.274881534212085,1450.0000726971775,7.4951939069390505,-2.7083889072979446,-0.0,-1.4162310435494874e-07,2.623409045554581e-08,0.0,271.3688888888879,70.0,0.0,255.0,0.0
16.850000000000097,35.72424040026439,51.2748800374697,1450.0000726990402,7.495193899857952,-2.7083889031085278,-0.0,7.081155217747437e-08,2.623693262648885e-08,0.0,270.8627777777768,70.0,0.0,255.0,0.0
16.900000000000098,35.72424377787817,51.27487854072719,1450.0000726990402,7.495193914020206,-2.7083889046742513,-0.0,2.124346565324231e-07,2.6238069494866068e-08,0.0,270.35666666666566,70.0,0.0,255.0,0.0
16.9500000000001,35.72424715549194,51.274877043984546,1450.0000726971775,7.495193921101418,-2.708388900484721,-0.0,-1.4162196748657152e-07,8.379089422305697e-08,0.0,269.8505555555546,70.0,0.0,255.0,0.0
17.0000000000001,35.72425053310567,51.27487554724177,1450.0000726971775,7.495193899858009,-2.708388896295162,-0.0,-7.081212061166298e-08,-3.131418679913622e-08,0.0,269.3444444444434,70.0,0.0,255.0,0.0
17.0500000000001,35.72425391071938,51.27487405049888,1450.0000726981089,7.495193914020206,-2.7083889036161395,-0.0,2.124340880982345e-07,-1.464186993871408e-07,0.0,268.83833333333234,70.0,0.0,255.0,0.0
17.1000000000001,35.72425728833308,51.27487255375586,1450.0000726971775,7.495193921101418,-2.708388910937032,-0.0,-7.081098374328576e-08,-3.131049197691027e-08,0.0,268.3322222222212,70.0,0.0,255.0,0.0
17.1500000000001,35.72426066594676,51.274871057012696,1450.0000726981089,7.495193906939107,-2.7083889067471887,-0.0,-1.4162424122332595e-07,8.379629434784874e-08,0.0,267.8261111111101,70.0,0.0,255.0,0.0
17.200000000000102,35.72426404356042,51.27486956026943,1450.0000726971775,7.495193906938994,-2.7083889025574024,-0.0,1.4162310435494874e-07,8.379657856494305e-08,0.0,267.31999999999897,70.0,0.0,255.0,0.0
17.250000000000103,35.72426742117405,51.27486806352603,1450.0000726971775,7.495193921101418,-2.708388898367531,-0.0,1.1368683772161603e-12,2.6244890705129365e-08,0.0,266.81388888888785,70.0,0.0,255.0,0.0
17.300000000000104,35.724270798787664,51.27486656678251,1450.0000726981089,7.495193906939107,-2.7083888999329133,-0.0,-2.124352249666117e-07,-8.886047453415813e-08,0.0,266.3077777777767,70.0,0.0,255.0,0.0
17.350000000000104,35.72427417640126,51.27486507003885,1450.0000726971775,7.495193899857895,-2.7083889072535783,-0.0,7.081212061166298e-08,-8.885905344868661e-08,0.0,265.8016666666656,70.0,0.0,255.0,0.0
17.400000000000105,35.72427755401484,51.274863573295065,1450.0000726962462,7.495193914020319,-2.7083889088188187,-0.0,1.4162424122332595e-07,8.380141025554622e-08,0.0,265.29555555555453,70.0,0.0,255.0,0.0
17.450000000000106,35.72428093162838,51.27486207655115,1450.0000726990402,7.495193914020319,-2.7083888988734373,-0.0,-7.081212061166298e-08,8.380254712392343e-08,0.0,264.78944444444335,70.0,0.0,255.0,0.0
17.500000000000107,35.724284309241916,51.27486057980713,1450.0000726971775,7.495193906939107,-2.708388900438564,-0.0,-1.1368683772161603e-12,-8.885507440936635e-08,0.0,264.2833333333323,70.0,0.0,255.0,0.0
17.550000000000107,35.72428768685543,51.27485908306297,1450.0000726981089,7.495193914020206,-2.7083889077589447,-0.0,1.4162310435494874e-07,-3.1301681246986846e-08,0.0,263.77722222222116,70.0,0.0,255.0,0.0
17.600000000000108,35.724291064468936,51.27485758631868,1450.0000726971775,7.495193921101418,-2.708388903568732,-0.0,-1.4162310435494874e-07,1.4135821402305737e-07,0.0,263.27111111111003,70.0,0.0,255.0,0.0
17.65000000000011,35.724294442082396,51.27485608957427,1450.0000726962462,7.495193899857895,-2.7083888936231233,-0.0,-1.4162310435494874e-07,2.625370143505279e-08,0.0,262.7649999999989,70.0,0.0,255.0,0.0
17.70000000000011,35.72429781969585,51.27485459282975,1450.0000726962462,7.495193906939107,-2.708388900943362,-0.0,1.4162424122332595e-07,-1.464047727495199e-07,0.0,262.2588888888878,70.0,0.0,255.0,0.0
17.75000000000011,35.72430119730929,51.274853096085074,1450.0000726981089,7.495193914020319,-2.7083889082636006,-0.0,-1.1368683772161603e-12,-3.1297417990572285e-08,0.0,261.75277777777666,70.0,0.0,255.0,0.0
17.80000000000011,35.724304574922684,51.27485159934028,1450.0000726981089,7.495193906938994,-2.7083889040731037,-0.0,-1.1368683772161603e-12,2.6257680474373046e-08,0.0,261.24666666666553,70.0,0.0,255.0,0.0
17.85000000000011,35.72430795253608,51.27485010259536,1450.0000726981089,7.495193914020206,-2.7083889056378325,-0.0,1.4162424122332595e-07,2.625938577693887e-08,0.0,260.74055555555447,70.0,0.0,255.0,0.0
17.900000000000112,35.724311330149455,51.274848605850316,1450.0000726981089,7.495193921101418,-2.708388901447165,-0.0,-7.081098374328576e-08,2.6259669994033175e-08,0.0,260.2344444444433,70.0,0.0,255.0,0.0
17.950000000000113,35.7243147077628,51.274847109105146,1450.0000726971775,7.495193906939107,-2.7083889030118655,-0.0,-2.124352249666117e-07,2.6258248908561654e-08,0.0,259.7283333333322,70.0,0.0,255.0,0.0
18.000000000000114,35.724318085376126,51.274845612359854,1450.0000726981089,7.495193899857895,-2.7083888988213403,-0.0,7.081098374328576e-08,8.381363159060129e-08,0.0,259.2222222222211,70.0,0.0,255.0,0.0
18.050000000000114,35.72432146298942,51.27484411561444,1450.0000726981089,7.495193914020206,-2.7083888946305024,-0.0,1.4162424122332595e-07,-8.884143198883976e-08,0.0,258.71611111110997,70.0,0.0,255.0,0.0
18.100000000000115,35.724324840602705,51.27484261886889,1450.0000726971775,7.495193914020319,-2.7083889077054835,-0.0,-7.081098374328576e-08,-8.884228464012267e-08,0.0,258.20999999999884,70.0,0.0,255.0,0.0
18.150000000000116,35.72432821821598,51.274841122123206,1450.0000726981089,7.495193906939107,-2.708388903514731,-0.0,-1.4162424122332595e-07,2.626222794788191e-08,0.0,257.7038888888877,70.0,0.0,255.0,0.0
18.200000000000117,35.72433159582923,51.27483962537742,1450.0000726971775,7.495193899857895,-2.7083889050792607,-0.0,0.0,-8.884114777174545e-08,0.0,257.1977777777766,70.0,0.0,255.0,0.0
18.250000000000117,35.72433497344243,51.27483812863147,1450.0000726981089,7.495193906939107,-2.7083889123988456,-0.0,2.124352249666117e-07,2.6268764941050904e-08,0.0,256.69166666666547,70.0,0.0,255.0,0.0
18.300000000000118,35.724338351055636,51.27483663188543,1450.0000726990402,7.495193921101418,-2.708388902452384,-0.0,0.0,1.989280917769065e-07,0.0,256.1855555555544,70.0,0.0,255.0,0.0
18.35000000000012,35.72434172866885,51.27483513513924,1450.0000726990402,7.495193906939107,-2.7083888925060364,-0.0,-2.124352249666117e-07,-3.1285480872611515e-08,0.0,255.67944444444325,70.0,0.0,255.0,0.0
18.40000000000012,35.724345106281994,51.27483363839295,1450.0000726971775,7.495193899857895,-2.7083889055809323,-0.0,1.4162310435494874e-07,-2.039425339717127e-07,0.0,255.17333333333215,70.0,0.0,255.0,0.0
18.45000000000012,35.72434848389514,51.2748321416465,1450.0000726971775,7.495193921101418,-2.70838891290029,-0.0,2.1243636183498893e-07,2.6272459763276856e-08,0.0,254.66722222222103,70.0,0.0,255.0,0.0
18.50000000000012,35.72435186150828,51.27483064489994,1450.0000726971775,7.4951939211015315,-2.7083889029536863,-0.0,-1.4162310435494874e-07,1.4137782500256435e-07,0.0,254.1611111111099,70.0,0.0,255.0,0.0
18.55000000000012,35.72435523912137,51.27482914815325,1450.0000726981089,7.495193906939107,-2.7083888987625073,-0.0,-7.081325748004019e-08,2.6273028197465464e-08,0.0,253.65499999999878,70.0,0.0,255.0,0.0
18.600000000000122,35.72435861673445,51.27482765140645,1450.0000726962462,7.495193914020206,-2.7083889003263835,-0.0,7.081098374328576e-08,-8.88306317392562e-08,0.0,253.14888888888765,70.0,0.0,255.0,0.0
18.650000000000123,35.72436199434751,51.274826154659515,1450.0000726962462,7.495193914020206,-2.7083889076455705,-0.0,0.0,2.6275017717125593e-08,0.0,252.64277777777653,70.0,0.0,255.0,0.0
18.700000000000124,35.724365371960566,51.27482465791245,1450.0000726971775,7.495193914020206,-2.7083888976988817,-0.0,1.1368683772161603e-12,1.4138294091026182e-07,0.0,252.1366666666654,70.0,0.0,255.0,0.0
18.750000000000124,35.72436874957358,51.27482316116526,1450.0000726990402,7.495193914020319,-2.7083888935072764,-0.0,-7.081098374328576e-08,-8.882750535121886e-08,0.0,251.6305555555543,70.0,0.0,255.0,0.0
18.800000000000125,35.72437212718658,51.27482166441794,1450.0000726990402,7.495193906939107,-2.7083889065816322,-0.0,-1.1368683772161603e-12,-1.4638175116488128e-07,0.0,251.12444444444318,70.0,0.0,255.0,0.0
18.850000000000126,35.72437550479956,51.27482016767049,1450.0000726990402,7.495193914020206,-2.7083889081454515,-0.0,0.0,2.6278144105162937e-08,0.0,250.6183333333321,70.0,0.0,255.0,0.0
18.900000000000126,35.72437888241251,51.27481867092292,1450.0000726971775,7.495193906939107,-2.708388903953818,-0.0,-7.081098374328576e-08,8.38352320897684e-08,0.0,250.11222222222096,70.0,0.0,255.0,0.0
18.950000000000127,35.724382260025436,51.274817174175226,1450.0000726981089,7.495193906939107,-2.7083888997619283,-0.0,7.081212061166298e-08,-3.126899628114188e-08,0.0,249.60611111110984,70.0,0.0,255.0,0.0
19.000000000000128,35.72438563763836,51.274815677427405,1450.0000726999715,7.495193914020319,-2.7083889070807174,-0.0,0.0,-3.12704173666134e-08,0.0,249.09999999999872,70.0,0.0,255.0,0.0
19.05000000000013,35.72438901525126,51.27481418067944,1450.0000726981089,7.495193906939107,-2.70838890288897,-0.0,-7.081212061166298e-08,8.383608474105131e-08,0.0,248.5938888888876,70.0,0.0,255.0,0.0
19.10000000000013,35.72439239286413,51.27481268393137,1450.0000726981089,7.495193906939107,-2.708388898697109,-0.0,7.081098374328576e-08,-8.882011570676696e-08,0.0,248.08777777777647,70.0,0.0,255.0,0.0
19.15000000000013,35.72439577047698,51.27481118718317,1450.0000726990402,7.495193914020206,-2.7083889117709816,-0.0,7.081098374328576e-08,-3.1266438327293145e-08,0.0,247.58166666666534,70.0,0.0,255.0,0.0
19.20000000000013,35.72439914808982,51.27480969043483,1450.0000726971775,7.495193914020206,-2.708388901823753,-0.0,-7.081098374328576e-08,1.4139260429146816e-07,0.0,247.07555555555425,70.0,0.0,255.0,0.0
19.25000000000013,35.72440252570264,51.27480819368638,1450.0000726971775,7.495193906939107,-2.708388897631721,-0.0,-7.081098374328576e-08,-3.126388037344441e-08,0.0,246.56944444444312,70.0,0.0,255.0,0.0
19.300000000000132,35.72440590331544,51.2748066969378,1450.0000726971775,7.495193906939107,-2.708388904950141,-0.0,-1.1368683772161603e-12,-8.88158524503524e-08,0.0,246.06333333333203,70.0,0.0,255.0,0.0
19.350000000000133,35.72440928092821,51.2748052001891,1450.0000726990402,7.495193906938994,-2.7083889065133064,-0.0,-1.1368683772161603e-12,2.6290649657312315e-08,0.0,245.5572222222209,70.0,0.0,255.0,0.0
19.400000000000134,35.72441265854096,51.274803703440256,1450.0000726990402,7.495193906938994,-2.708388902321076,-0.0,2.2737367544323206e-12,8.384432703678613e-08,0.0,245.05111111110978,70.0,0.0,255.0,0.0
19.450000000000134,35.724416036153684,51.274802206691305,1450.0000726990402,7.495193906939221,-2.7083888981288737,-0.0,7.081325748004019e-08,-3.125961711702985e-08,0.0,244.54499999999865,70.0,0.0,255.0,0.0
19.500000000000135,35.724419413766405,51.27480070994222,1450.0000726971775,7.495193914020319,-2.7083889054470376,-0.0,7.081098374328576e-08,-8.881045232556062e-08,0.0,244.03888888888753,70.0,0.0,255.0,0.0
19.550000000000136,35.72442279137909,51.274799213193,1450.0000726990402,7.495193914020319,-2.708388907009919,-0.0,-1.1368683772161603e-12,8.384830607610638e-08,0.0,243.5327777777764,70.0,0.0,255.0,0.0
19.600000000000136,35.72442616899177,51.27479771644366,1450.0000726971775,7.495193914020206,-2.708388897062207,-0.0,7.080984687490854e-08,2.629519713082118e-08,0.0,243.02666666666528,70.0,0.0,255.0,0.0
19.650000000000137,35.72442954660442,51.274796219694196,1450.0000726971775,7.495193921101304,-2.7083889043803993,-0.0,-1.4162310435494874e-07,-3.125705916318111e-08,0.0,242.52055555555418,70.0,0.0,255.0,0.0
19.700000000000138,35.724432924217055,51.2747947229446,1450.0000726971775,7.495193899857895,-2.708388900187913,-0.0,-1.4162196748657152e-07,2.6299176170141436e-08,0.0,242.01444444444306,70.0,0.0,255.0,0.0
19.75000000000014,35.72443630182966,51.27479322619489,1450.0000726990402,7.495193906939107,-2.7083889017504816,-0.0,2.832473455782747e-07,-8.880647328624036e-08,0.0,241.50833333333196,70.0,0.0,255.0,0.0
19.80000000000014,35.724439679442256,51.274791729445035,1450.0000726981089,7.49519392818263,-2.7083889090685602,-0.0,7.081212061166298e-08,-3.1253080123860855e-08,0.0,241.00222222222084,70.0,0.0,255.0,0.0
19.85000000000014,35.72444305705481,51.27479023269507,1450.0000726971775,7.495193914020319,-2.7083889048757896,-0.0,-2.8324620870989747e-07,2.630144990689587e-08,0.0,240.4961111111097,70.0,0.0,255.0,0.0
19.90000000000014,35.72444643466737,51.274788735944966,1450.0000726981089,7.495193899858009,-2.7083889064384152,-0.0,-7.081212061166298e-08,2.6302586775273085e-08,0.0,239.9899999999986,70.0,0.0,255.0,0.0
19.95000000000014,35.724449812279886,51.274787239194744,1450.0000726971775,7.495193906939107,-2.708388902245531,-0.0,2.1243295122985728e-07,2.630656581459334e-08,0.0,239.48388888888746,70.0,0.0,255.0,0.0
20.000000000000142,35.7244531898924,51.274785742444394,1450.0000726981089,7.495193921101304,-2.7083889038077587,-0.0,-7.081325748004019e-08,2.6305428946216125e-08,0.0,238.97777777777634,70.0,0.0,255.0,0.0
20.050000000000143,35.724456567504895,51.27478424569392,1450.0000726981089,7.495193899857782,-2.708388899614988,-0.0,-2.8324507184152026e-07,2.6304860512027517e-08,0.0,238.47166666666521,70.0,0.0,255.0,0.0
20.100000000000144,35.72445994511736,51.27478274894331,1450.0000726981089,7.495193892776797,-2.7083889011772726,-0.0,2.1243749870336615e-07,-8.879908364178846e-08,0.0,237.96555555555412,70.0,0.0,255.0,0.0
20.150000000000144,35.7244633227298,51.27478125219259,1450.0000726971775,7.4951939211015315,-2.7083889084948964,-0.0,2.8324507184152026e-07,-3.124569047940895e-08,0.0,237.459444444443,70.0,0.0,255.0,0.0
20.200000000000145,35.724466700342234,51.27477975544172,1450.0000726971775,7.495193921101304,-2.7083889043018416,-0.0,-2.1243636183498893e-07,8.386280114791589e-08,0.0,236.9533333333319,70.0,0.0,255.0,0.0
20.250000000000146,35.72447007795463,51.27477825869075,1450.0000726990402,7.495193899857895,-2.7083889001086163,-0.0,-2.1243295122985728e-07,2.6310544853913598e-08,0.0,236.44722222222077,70.0,0.0,255.0,0.0
20.300000000000146,35.72447345556701,51.274776761939634,1450.0000726981089,7.495193899858009,-2.708388901670787,-0.0,2.124352249666117e-07,-3.12422798742773e-08,0.0,235.94111111110965,70.0,0.0,255.0,0.0
20.350000000000147,35.72447683317937,51.2747752651884,1450.0000726981089,7.495193921101418,-2.7083889032328443,-0.0,2.8324620870989747e-07,-3.1238300834957045e-08,0.0,235.43499999999852,70.0,0.0,255.0,0.0
20.400000000000148,35.72448021079172,51.27477376843704,1450.0000726981089,7.49519392818263,-2.7083889047946172,-0.0,-7.081212061166298e-08,2.6314523893233854e-08,0.0,234.9288888888874,70.0,0.0,255.0,0.0
20.45000000000015,35.72448358840404,51.27477227168555,1450.0000726981089,7.495193914020206,-2.708388900601392,-0.0,-3.5405832932156045e-07,2.631281859066803e-08,0.0,234.42277777777628,70.0,0.0,255.0,0.0
20.50000000000015,35.72448696601634,51.27477077493395,1450.0000726990402,7.495193892776797,-2.7083889021633354,-0.0,-7.080984687490854e-08,2.631622919579968e-08,0.0,233.91666666666515,70.0,0.0,255.0,0.0
20.55000000000015,35.72449034362863,51.2747692781822,1450.0000726981089,7.495193906939221,-2.708388897969769,-0.0,2.8324507184152026e-07,-3.123602709820261e-08,0.0,233.41055555555405,70.0,0.0,255.0,0.0
20.60000000000015,35.72449372124088,51.274767781430334,1450.0000726971775,7.495193921101304,-2.708388905286938,-0.0,-1.1368683772161603e-12,-1.463411081203958e-07,0.0,232.90444444444293,70.0,0.0,255.0,0.0
20.65000000000015,35.724497098853114,51.274766284678336,1450.0000726981089,7.495193906939107,-2.70838891260388,-0.0,-7.080984687490854e-08,2.6319639800931327e-08,0.0,232.39833333333183,70.0,0.0,255.0,0.0
20.700000000000152,35.72450047646534,51.274764787926216,1450.0000726990402,7.495193914020319,-2.708388902654974,-0.0,-1.1368683772161603e-12,1.4142585769150173e-07,0.0,231.8922222222207,70.0,0.0,255.0,0.0
20.750000000000153,35.72450385407754,51.27476329117397,1450.0000726990402,7.495193906938994,-2.708388898461294,-0.0,-7.081325748004019e-08,8.387360139749944e-08,0.0,231.38611111110959,70.0,0.0,255.0,0.0
20.800000000000153,35.724507231689714,51.2747617944216,1450.0000726981089,7.495193906938994,-2.708388894267614,-0.0,2.124352249666117e-07,-8.878373591869604e-08,0.0,230.87999999999846,70.0,0.0,255.0,0.0
20.850000000000154,35.72451060930188,51.274760297669104,1450.0000726971775,7.495193928182516,-2.7083889073396676,-0.0,2.1243636183498893e-07,-8.8780893747753e-08,0.0,230.37388888888734,70.0,0.0,255.0,0.0
20.900000000000155,35.72451398691403,51.27475880091647,1450.0000726971775,7.49519392818263,-2.7083889031457034,-0.0,-3.5405719245318323e-07,8.387814887100831e-08,0.0,229.8677777777762,70.0,0.0,255.0,0.0
20.950000000000156,35.72451736452615,51.27475730416373,1450.0000726971775,7.495193892776797,-2.7083888989518528,-0.0,-2.8324620870989747e-07,-8.87814621819416e-08,0.0,229.3616666666651,70.0,0.0,255.0,0.0
21.000000000000156,35.72452074213823,51.274755807410855,1450.0000726990402,7.495193899858009,-2.7083889120238496,-0.0,1.4162310435494874e-07,-3.1226363716996275e-08,0.0,228.855555555554,70.0,0.0,255.0,0.0
21.050000000000157,35.72452411975032,51.27475431065784,1450.0000726971775,7.495193906939107,-2.708388902074489,-0.0,7.081098374328576e-08,1.4143381577014225e-07,0.0,228.34944444444287,70.0,0.0,255.0,0.0
21.100000000000158,35.72452749736236,51.27475281390472,1450.0000726971775,7.495193906939107,-2.708388897880468,-0.0,2.124352249666117e-07,-3.1223521546053234e-08,0.0,227.84333333333177,70.0,0.0,255.0,0.0
21.15000000000016,35.7245308749744,51.274751317151456,1450.0000726981089,7.49519392818263,-2.7083889051968413,-0.0,-1.1368683772161603e-12,-8.877464097167831e-08,0.0,227.33722222222065,70.0,0.0,255.0,0.0
21.20000000000016,35.72453425258642,51.27474982039807,1450.0000726981089,7.495193906938994,-2.708388906757932,-0.0,-2.832473455782747e-07,2.6329871616326272e-08,0.0,226.83111111110952,70.0,0.0,255.0,0.0
21.25000000000016,35.724537630198405,51.27474832364456,1450.0000726990402,7.495193899857895,-2.708388902563854,-0.0,7.081212061166298e-08,8.38849700812716e-08,0.0,226.3249999999984,70.0,0.0,255.0,0.0
21.30000000000016,35.72454100781037,51.274746826890926,1450.0000726981089,7.495193914020206,-2.708388898369435,-0.0,2.124352249666117e-07,-3.1217268769978546e-08,0.0,225.81888888888727,70.0,0.0,255.0,0.0
21.35000000000016,35.72454438542234,51.274745330137165,1450.0000726990402,7.495193921101418,-2.708388905685581,-0.0,-1.4162196748657152e-07,-8.877236723492388e-08,0.0,225.31277777777615,70.0,0.0,255.0,0.0
21.400000000000162,35.72454776303429,51.27474383338328,1450.0000726971775,7.495193899858009,-2.708388907246672,-0.0,-2.124352249666117e-07,8.388610694964882e-08,0.0,224.80666666666502,70.0,0.0,255.0,0.0
21.450000000000163,35.72455114064617,51.27474233662925,1450.0000726981089,7.495193899857895,-2.7083888972969703,-0.0,2.124352249666117e-07,2.6337261260778178e-08,0.0,224.30055555555393,70.0,0.0,255.0,0.0
21.500000000000163,35.724554518258074,51.27474083987513,1450.0000726971775,7.4951939211015315,-2.7083889046129457,-0.0,1.4162310435494874e-07,-3.121328973065829e-08,0.0,223.7944444444428,70.0,0.0,255.0,0.0
21.550000000000164,35.724557895869935,51.27473934312084,1450.0000726990402,7.495193914020206,-2.7083889004182993,-0.0,-1.4162537809170317e-07,2.6338966563344002e-08,0.0,223.2883333333317,70.0,0.0,255.0,0.0
21.600000000000165,35.7245612734818,51.27473784636646,1450.0000726990402,7.495193906938994,-2.708388901979049,-0.0,1.4162424122332595e-07,-8.87672513272264e-08,0.0,222.78222222222058,70.0,0.0,255.0,0.0
21.650000000000166,35.724564651093615,51.274736349611935,1450.0000726971775,7.49519392818263,-2.7083889092950244,-0.0,7.081212061166298e-08,8.389406502828933e-08,0.0,222.27611111110946,70.0,0.0,255.0,0.0
21.700000000000166,35.724568028705455,51.27473485285729,1450.0000726990402,7.495193914020206,-2.7083888935896425,-0.0,-2.8324620870989747e-07,8.389520189666655e-08,0.0,221.76999999999833,70.0,0.0,255.0,0.0
21.750000000000167,35.724571406317224,51.27473335610252,1450.0000726990402,7.495193899858009,-2.708388900905504,-0.0,0.0,-1.4631666545028565e-07,0.0,221.2638888888872,70.0,0.0,255.0,0.0
21.800000000000168,35.72457478392899,51.274731859347625,1450.0000726971775,7.495193914020206,-2.708388908221309,-0.0,7.081098374328576e-08,2.6343514036852866e-08,0.0,220.75777777777608,70.0,0.0,255.0,0.0
21.85000000000017,35.724578161540734,51.27473036259259,1450.0000726971775,7.495193906939107,-2.708388898271153,-0.0,-1.4162196748657152e-07,2.6346924641984515e-08,0.0,220.25166666666496,70.0,0.0,255.0,0.0
21.90000000000017,35.724581539152474,51.274728865837446,1450.0000726971775,7.495193899858009,-2.7083889055866166,-0.0,7.081098374328576e-08,-1.4631154954258818e-07,0.0,219.74555555555386,70.0,0.0,255.0,0.0
21.95000000000017,35.72458491676418,51.274727369082164,1450.0000726962462,7.495193914020206,-2.7083889129023078,-0.0,1.4162196748657152e-07,2.63457877736073e-08,0.0,219.23944444444274,70.0,0.0,255.0,0.0
22.00000000000017,35.72458829437586,51.27472587232676,1450.0000726990402,7.495193914020206,-2.708388902952038,-0.0,0.0,1.9900824099750025e-07,0.0,218.73333333333164,70.0,0.0,255.0,0.0
22.05000000000017,35.72459167198752,51.274724375571225,1450.0000726981089,7.495193914020206,-2.7083888930014837,-0.0,1.1368683772161603e-12,-3.120078417850891e-08,0.0,218.22722222222052,70.0,0.0,255.0,0.0
22.100000000000172,35.72459504959917,51.274722878815574,1450.0000726981089,7.495193914020319,-2.7083889060721162,-0.0,-1.4162310435494874e-07,-1.4630984424002236e-07,0.0,217.7211111111094,70.0,0.0,255.0,0.0
22.150000000000173,35.724598427210786,51.27472138205978,1450.0000726990402,7.495193899857895,-2.708388907632468,-0.0,-7.081212061166298e-08,2.634862994455034e-08,0.0,217.21499999999827,70.0,0.0,255.0,0.0
22.200000000000173,35.724601804822406,51.27471988530388,1450.0000726971775,7.495193906939107,-2.7083889034372532,-0.0,2.1243636183498893e-07,2.6355451154813636e-08,0.0,216.70888888888715,70.0,0.0,255.0,0.0
22.250000000000174,35.72460518243398,51.27471838854783,1450.0000726981089,7.4951939211015315,-2.708388904996923,-0.0,1.4162310435494874e-07,8.390941275138175e-08,0.0,216.20277777777602,70.0,0.0,255.0,0.0
22.300000000000175,35.72460856004556,51.27471689179167,1450.0000726971775,7.495193921101418,-2.708388895046312,-0.0,-2.1243749870336615e-07,2.6352608983870596e-08,0.0,215.6966666666649,70.0,0.0,255.0,0.0
22.350000000000176,35.72461193765709,51.274715395035386,1450.0000726990402,7.495193899857782,-2.708388902361662,-0.0,-1.4162424122332595e-07,-1.4630472833232488e-07,0.0,215.1905555555538,70.0,0.0,255.0,0.0
22.400000000000176,35.72461531526861,51.27471389827897,1450.0000726990402,7.495193906938994,-2.708388909676785,-0.0,1.4162537809170317e-07,-3.1193394534057006e-08,0.0,214.68444444444268,70.0,0.0,255.0,0.0
22.450000000000177,35.72461869288012,51.27471240152242,1450.0000726981089,7.495193914020319,-2.7083889054810015,-0.0,1.1368683772161603e-12,1.4146678495308151e-07,0.0,214.17833333333158,70.0,0.0,255.0,0.0
22.500000000000178,35.72462207049159,51.274710904765755,1450.0000726971775,7.495193906939107,-2.7083888955301063,-0.0,-7.081212061166298e-08,2.6358861759945285e-08,0.0,213.67222222222046,70.0,0.0,255.0,0.0
22.55000000000018,35.724625448103055,51.274709408008974,1450.0000726981089,7.495193906939107,-2.7083889028451154,-0.0,7.081098374328576e-08,-1.462996124246274e-07,0.0,213.16611111110933,70.0,0.0,255.0,0.0
22.60000000000018,35.724628825714504,51.274707911252044,1450.0000726990402,7.495193914020206,-2.7083889101600676,-0.0,7.081098374328576e-08,-3.119168923149118e-08,0.0,212.6599999999982,70.0,0.0,255.0,0.0
22.65000000000018,35.72463220332591,51.27470641449499,1450.0000726999715,7.495193914020206,-2.7083889059642843,-0.0,2.2737367544323206e-12,8.391680239583366e-08,0.0,212.15388888888708,70.0,0.0,255.0,0.0
22.70000000000018,35.72463558093731,51.27470491773781,1450.0000726981089,7.495193914020433,-2.7083889017683873,-0.0,-1.4162196748657152e-07,8.391452865907922e-08,0.0,211.64777777777596,70.0,0.0,255.0,0.0
22.75000000000018,35.72463895854869,51.27470342098052,1450.0000726971775,7.495193899858009,-2.7083888975728314,-0.0,-7.081439434841741e-08,-3.1188278626359534e-08,0.0,211.14166666666486,70.0,0.0,255.0,0.0
22.800000000000182,35.72464233616003,51.274701924223095,1450.0000726981089,7.495193906938994,-2.708388904887215,-0.0,2.1243295122985728e-07,-3.118373115285067e-08,0.0,210.63555555555374,70.0,0.0,255.0,0.0
22.850000000000183,35.72464571377138,51.27470042746555,1450.0000726990402,7.495193921101304,-2.7083889006912045,-0.0,1.1368683772161603e-12,2.6363977667642757e-08,0.0,210.1294444444426,70.0,0.0,255.0,0.0
22.900000000000183,35.72464909138269,51.274698930707864,1450.0000726990402,7.495193906939107,-2.7083889022508174,-0.0,-1.4162196748657152e-07,-8.873769274941878e-08,0.0,209.6233333333315,70.0,0.0,255.0,0.0
22.950000000000184,35.72465246899399,51.27469743395005,1450.0000726990402,7.495193906939107,-2.708388909564974,-0.0,1.4162196748657152e-07,2.6374209483037703e-08,0.0,209.11722222222036,70.0,0.0,255.0,0.0
23.000000000000185,35.72465584660525,51.274695937192114,1450.0000726990402,7.495193921101304,-2.7083888996133965,-0.0,1.4162424122332595e-07,8.392362360609695e-08,0.0,208.61111111110927,70.0,0.0,255.0,0.0
23.050000000000185,35.72465922421653,51.27469444043407,1450.0000726981089,7.4951939211015315,-2.7083889011726114,-0.0,-2.1243295122985728e-07,-8.873655588104157e-08,0.0,208.10499999999814,70.0,0.0,255.0,0.0
23.100000000000186,35.72466260182777,51.27469294367588,1450.0000726962462,7.495193899858009,-2.708388908487052,-0.0,-2.1243636183498893e-07,-3.1181457416096237e-08,0.0,207.59888888888702,70.0,0.0,255.0,0.0
23.150000000000187,35.724665979438974,51.274691446917565,1450.0000726981089,7.495193899857895,-2.708388904290757,-0.0,2.124352249666117e-07,8.392760264541721e-08,0.0,207.0927777777759,70.0,0.0,255.0,0.0
23.200000000000188,35.724669357050175,51.27468995015912,1450.0000726990402,7.4951939211015315,-2.708388900094292,-0.0,1.4162310435494874e-07,2.6375914785603527e-08,0.0,206.5866666666648,70.0,0.0,255.0,0.0
23.25000000000019,35.724672734661354,51.274688453400564,1450.0000726971775,7.495193914020206,-2.7083889016531657,-0.0,-2.1243636183498893e-07,-3.1178615245153196e-08,0.0,206.08055555555367,70.0,0.0,255.0,0.0
23.30000000000019,35.7246761122725,51.27468695664187,1450.0000726990402,7.495193899857895,-2.7083889032121533,-0.0,-7.081098374328576e-08,2.6375914785603527e-08,0.0,205.57444444444255,70.0,0.0,255.0,0.0
23.35000000000019,35.724679489883634,51.27468545988306,1450.0000726971775,7.495193906939107,-2.7083888990155742,-0.0,1.4162310435494874e-07,2.6378756956546567e-08,0.0,205.06833333333142,70.0,0.0,255.0,0.0
23.40000000000019,35.72468286749474,51.27468396312412,1450.0000726981089,7.495193914020206,-2.7083889005742776,-0.0,1.4162424122332595e-07,-8.872632406564662e-08,0.0,204.5622222222203,70.0,0.0,255.0,0.0
23.45000000000019,35.72468624510583,51.27468246636505,1450.0000726971775,7.4951939211015315,-2.7083889078882066,-0.0,-1.4162196748657152e-07,-3.117122560070129e-08,0.0,204.0561111111092,70.0,0.0,255.0,0.0
23.500000000000192,35.724689622716895,51.27468096960585,1450.0000726990402,7.495193899858009,-2.7083889036914,-0.0,-1.4162537809170317e-07,2.6382167561678216e-08,0.0,203.54999999999808,70.0,0.0,255.0,0.0
23.550000000000193,35.724693000327946,51.27467947284653,1450.0000726990402,7.495193906938994,-2.70838890524999,-0.0,2.8324393497314304e-07,-3.11717940348899e-08,0.0,203.04388888888695,70.0,0.0,255.0,0.0
23.600000000000193,35.72469637793899,51.27467797608707,1450.0000726981089,7.4951939281824025,-2.7083889068085796,-0.0,7.081212061166298e-08,2.6382735995866824e-08,0.0,202.53777777777583,70.0,0.0,255.0,0.0
23.650000000000194,35.724699755549985,51.2746764793275,1450.0000726990402,7.495193914020206,-2.7083889026117163,-0.0,-2.8324507184152026e-07,8.393840289500076e-08,0.0,202.03166666666473,70.0,0.0,255.0,0.0
23.700000000000195,35.724703133160986,51.2746749825678,1450.0000726990402,7.495193899857895,-2.7083888984147393,-0.0,-7.080984687490854e-08,2.6385009732621256e-08,0.0,201.5255555555536,70.0,0.0,255.0,0.0
23.750000000000195,35.72470651077196,51.27467348580798,1450.0000726971775,7.495193906939221,-2.7083888999732153,-0.0,7.081325748004019e-08,-8.872007128957193e-08,0.0,201.01944444444248,70.0,0.0,255.0,0.0
23.800000000000196,35.72470988838288,51.274671989048024,1450.0000726981089,7.495193906939221,-2.7083889072867464,-0.0,7.080871000653133e-08,-3.116326752206078e-08,0.0,200.51333333333136,70.0,0.0,255.0,0.0
23.850000000000197,35.72471326599381,51.27467049228794,1450.0000726981089,7.495193914020092,-2.708388903089542,-0.0,7.080871000653133e-08,8.394181350013241e-08,0.0,200.00722222222024,70.0,0.0,255.0,0.0
23.900000000000198,35.72471664360473,51.27466899552774,1450.0000726999715,7.495193914020092,-2.708388898892565,-0.0,-7.080871000653133e-08,2.6388988771941513e-08,0.0,199.50111111110914,70.0,0.0,255.0,0.0
23.9500000000002,35.72472002121562,51.27466749876741,1450.0000726981089,7.495193906939221,-2.708388900450643,-0.0,-7.080871000653133e-08,-8.871381851349724e-08,0.0,198.99499999999802,70.0,0.0,255.0,0.0
24.0000000000002,35.72472339882648,51.274666002006946,1450.0000726981089,7.495193906939221,-2.708388907763947,-0.0,-2.2737367544323206e-12,-8.871381851349724e-08,0.0,198.4888888888869,70.0,0.0,255.0,0.0
24.0500000000002,35.724726776437315,51.274664505246356,1450.0000726990402,7.495193906938994,-2.708388909322025,-0.0,7.081098374328576e-08,8.394749784201849e-08,0.0,197.98277777777577,70.0,0.0,255.0,0.0
24.1000000000002,35.72473015404814,51.27466300848565,1450.0000726990402,7.495193914020319,-2.708388899369197,-0.0,7.081325748004019e-08,8.39480662762071e-08,0.0,197.47666666666467,70.0,0.0,255.0,0.0
24.1500000000002,35.724733531658956,51.274661511724815,1450.0000726981089,7.495193914020319,-2.7083889009272184,-0.0,-2.2737367544323206e-12,-3.115928848274052e-08,0.0,196.97055555555355,70.0,0.0,255.0,0.0
24.200000000000202,35.724736909269744,51.27466001496384,1450.0000726971775,7.495193914020092,-2.708388902485126,-0.0,-1.4162424122332595e-07,-3.115701474598609e-08,0.0,196.46444444444242,70.0,0.0,255.0,0.0
24.250000000000203,35.7247402868805,51.274658518202756,1450.0000726990402,7.495193899857895,-2.70838890404292,-0.0,-7.080871000653133e-08,-3.115474100923166e-08,0.0,195.9583333333313,70.0,0.0,255.0,0.0
24.300000000000203,35.72474366449124,51.274657021441534,1450.0000726971775,7.495193906939221,-2.7083889056006,-0.0,1.4162424122332595e-07,2.6400357455713674e-08,0.0,195.45222222222017,70.0,0.0,255.0,0.0
24.350000000000204,35.72474704210196,51.27465552468019,1450.0000726971775,7.495193914020319,-2.708388901402884,-0.0,7.080871000653133e-08,2.6400357455713674e-08,0.0,194.94611111110908,70.0,0.0,255.0,0.0
24.400000000000205,35.72475041971267,51.27465402791872,1450.0000726971775,7.495193914020092,-2.7083889029605643,-0.0,-2.2737367544323206e-12,-3.115360414085444e-08,0.0,194.43999999999795,70.0,0.0,255.0,0.0
24.450000000000205,35.72475379732334,51.27465253115712,1450.0000726981089,7.495193914020092,-2.7083889045182445,-0.0,4.547473508864641e-12,2.6400925889902283e-08,0.0,193.93388888888683,70.0,0.0,255.0,0.0
24.500000000000206,35.724757174934005,51.2746510343954,1450.0000726990402,7.495193914020547,-2.7083889003204717,-0.0,-7.080871000653133e-08,2.640490492922254e-08,0.0,193.4277777777757,70.0,0.0,255.0,0.0
24.550000000000207,35.72476055254466,51.27464953763356,1450.0000726971775,7.495193906939221,-2.708388901877754,-0.0,-7.081553121679462e-08,2.640490492922254e-08,0.0,192.9216666666646,70.0,0.0,255.0,0.0
24.600000000000207,35.72476393015526,51.274648040871575,1450.0000726990402,7.495193906938994,-2.7083888976799813,-0.0,7.080871000653133e-08,-3.114848823315697e-08,0.0,192.41555555555348,70.0,0.0,255.0,0.0
24.650000000000208,35.724767307765866,51.27464654410949,1450.0000726971775,7.495193914020092,-2.708388904992603,-0.0,2.124352249666117e-07,-1.4625072708440712e-07,0.0,191.90944444444236,70.0,0.0,255.0,0.0
24.70000000000021,35.72477068537644,51.27464504734724,1450.0000726981089,7.495193928182516,-2.708388912305054,-0.0,-7.080871000653133e-08,8.395943495997926e-08,0.0,191.40333333333123,70.0,0.0,255.0,0.0
24.75000000000021,35.724774062987,51.27464355058489,1450.0000726990402,7.495193906939221,-2.7083888965966594,-0.0,-3.5405719245318323e-07,1.4151339655654738e-07,0.0,190.8972222222201,70.0,0.0,255.0,0.0
24.80000000000021,35.72477744059754,51.27464205382241,1450.0000726981089,7.495193892776797,-2.7083888981537143,-0.0,7.081098374328576e-08,-8.869392331689596e-08,0.0,190.391111111109,70.0,0.0,255.0,0.0
24.85000000000021,35.724780818208046,51.274640557059804,1450.0000726981089,7.495193914020319,-2.7083889054660517,-0.0,2.1243295122985728e-07,-8.86961970536504e-08,0.0,189.8849999999979,70.0,0.0,255.0,0.0
24.90000000000021,35.72478419581856,51.27463906029707,1450.0000726971775,7.495193914020092,-2.708388907023334,-0.0,-2.2737367544323206e-12,2.6411157705297228e-08,0.0,189.37888888888676,70.0,0.0,255.0,0.0
24.950000000000212,35.72478757342901,51.274637563534206,1450.0000726990402,7.495193914020092,-2.708388902824936,-0.0,-1.416196937498171e-07,8.396568773605395e-08,0.0,188.87277777777564,70.0,0.0,255.0,0.0
25.000000000000213,35.72479095103948,51.27463606677122,1450.0000726971775,7.495193899858123,-2.7083888986267652,-0.0,2.2737367544323206e-12,-3.1140530154516455e-08,0.0,188.36666666666454,70.0,0.0,255.0,0.0
25.050000000000214,35.72479432864992,51.27463457000811,1450.0000726990402,7.495193914020319,-2.708388905938989,-0.0,2.1243295122985728e-07,-8.868823897500988e-08,0.0,187.86055555555342,70.0,0.0,255.0,0.0
25.100000000000215,35.72479770626033,51.27463307324487,1450.0000726971775,7.495193921101418,-2.708388907495589,-0.0,-7.081325748004019e-08,2.6418547349749133e-08,0.0,187.3544444444423,70.0,0.0,255.0,0.0
25.150000000000215,35.72480108387072,51.274631576481504,1450.0000726981089,7.495193906938994,-2.708388903297134,-0.0,-1.4162424122332595e-07,2.641684204718331e-08,0.0,186.84833333333117,70.0,0.0,255.0,0.0
25.200000000000216,35.7248044614811,51.27463007971801,1450.0000726981089,7.495193906938994,-2.708388904853905,-0.0,7.081325748004019e-08,2.6418547349749133e-08,0.0,186.34222222222004,70.0,0.0,255.0,0.0
25.250000000000217,35.72480783909145,51.27462858295439,1450.0000726971775,7.495193914020319,-2.7083889006552795,-0.0,7.081325748004019e-08,2.641911578393774e-08,0.0,185.83611111110895,70.0,0.0,255.0,0.0
25.300000000000217,35.72481121670178,51.27462708619065,1450.0000726990402,7.495193914020319,-2.7083889022119934,-0.0,0.0,-3.113257207587594e-08,0.0,185.32999999999782,70.0,0.0,255.0,0.0
25.350000000000218,35.72481459431209,51.274625589426776,1450.0000726999715,7.495193914020319,-2.7083889037685367,-0.0,-1.4162424122332595e-07,8.397307738050586e-08,0.0,184.8238888888867,70.0,0.0,255.0,0.0
25.40000000000022,35.7248179719224,51.27462409266278,1450.0000726981089,7.495193899857895,-2.7083888938146856,-0.0,0.0,2.6421389520692173e-08,0.0,184.31777777777558,70.0,0.0,255.0,0.0
25.45000000000022,35.724821349532654,51.27462259589866,1450.0000726971775,7.495193914020319,-2.7083889011263977,-0.0,1.4162424122332595e-07,-1.4623253719037166e-07,0.0,183.81166666666448,70.0,0.0,255.0,0.0
25.50000000000022,35.72482472714292,51.27462109913441,1450.0000726962462,7.495193914020319,-2.7083889084379393,-0.0,-1.4162424122332595e-07,-3.112688773398986e-08,0.0,183.30555555555335,70.0,0.0,255.0,0.0
25.55000000000022,35.72482810475312,51.27461960237003,1450.0000726990402,7.495193899857895,-2.7083889042390865,-0.0,7.080871000653133e-08,8.397933015658055e-08,0.0,182.79944444444223,70.0,0.0,255.0,0.0
25.60000000000022,35.724831482363335,51.274618105605526,1450.0000726990402,7.49519392110119,-2.7083889000400063,-0.0,2.124352249666117e-07,-3.1125750865612645e-08,0.0,182.2933333333311,70.0,0.0,255.0,0.0
25.650000000000222,35.724834859973534,51.2746166088409,1450.0000726971775,7.495193921101418,-2.7083889073516616,-0.0,-2.1243067749310285e-07,-8.867914402799215e-08,0.0,181.78722222221998,70.0,0.0,255.0,0.0
25.700000000000223,35.724838237583704,51.27461511207614,1450.0000726981089,7.495193899858123,-2.7083889089079207,-0.0,-7.081325748004019e-08,8.39833091959008e-08,0.0,181.28111111110888,70.0,0.0,255.0,0.0
25.750000000000224,35.72484161519384,51.27461361531126,1450.0000726962462,7.495193914020092,-2.7083888989533307,-0.0,2.1243295122985728e-07,8.398444606427802e-08,0.0,180.77499999999776,70.0,0.0,255.0,0.0
25.800000000000225,35.72484499280399,51.27461211854625,1450.0000726981089,7.495193921101418,-2.708388900509476,-0.0,-1.4162196748657152e-07,-3.112347712885821e-08,0.0,180.26888888888664,70.0,0.0,255.0,0.0
25.850000000000225,35.72484837041409,51.274610621781115,1450.0000726971775,7.495193899857895,-2.7083889020656784,-0.0,-1.4162424122332595e-07,-3.112120339210378e-08,0.0,179.7627777777755,70.0,0.0,255.0,0.0
25.900000000000226,35.72485174802418,51.27460912501586,1450.0000726971775,7.495193906938994,-2.7083889036215965,-0.0,2.1243749870336615e-07,2.6435031941218767e-08,0.0,179.25666666666442,70.0,0.0,255.0,0.0
25.950000000000227,35.72485512563424,51.27460762825047,1450.0000726971775,7.495193921101645,-2.708388899422175,-0.0,-7.080871000653133e-08,-3.1117224352783523e-08,0.0,178.7505555555533,70.0,0.0,255.0,0.0
26.000000000000227,35.72485850324429,51.274606131484965,1450.0000726962462,7.495193899858123,-2.708388906733319,-0.0,-1.4162651496008039e-07,-8.86683437784086e-08,0.0,178.24444444444217,70.0,0.0,255.0,0.0
26.050000000000228,35.72486188085429,51.27460463471931,1450.0000726981089,7.495193906938994,-2.7083889082890096,-0.0,3.540549187164288e-07,8.39901304061641e-08,0.0,177.73833333333104,70.0,0.0,255.0,0.0
26.10000000000023,35.72486525846431,51.274603137953555,1450.0000726971775,7.4951939352636145,-2.708388898334306,-0.0,0.0,2.6435600375407375e-08,0.0,177.23222222221992,70.0,0.0,255.0,0.0
26.15000000000023,35.72486863607429,51.27460164118766,1450.0000726981089,7.495193906938994,-2.7083889056454495,-0.0,-3.5405719245318323e-07,-8.866720691003138e-08,0.0,176.72611111110882,70.0,0.0,255.0,0.0
26.20000000000023,35.72487201368426,51.27460014442163,1450.0000726971775,7.495193899857895,-2.7083889072010265,-0.0,2.2737367544323206e-12,2.6441853151482064e-08,0.0,176.2199999999977,70.0,0.0,255.0,0.0
26.25000000000023,35.724875391294184,51.27459864765549,1450.0000726981089,7.495193906939221,-2.7083889030012642,-0.0,7.081325748004019e-08,1.4154750260786386e-07,0.0,175.71388888888657,70.0,0.0,255.0,0.0
26.30000000000023,35.72487876890412,51.27459715088922,1450.0000726971775,7.495193906939221,-2.7083888930462763,-0.0,-2.2737367544323206e-12,2.6441284717293456e-08,0.0,175.20777777777545,70.0,0.0,255.0,0.0
26.350000000000232,35.72488214651401,51.27459565412283,1450.0000726981089,7.495193906938994,-2.7083889003571358,-0.0,7.080871000653133e-08,-2.037677404587157e-07,0.0,174.70166666666435,70.0,0.0,255.0,0.0
26.400000000000233,35.724885524123906,51.274594157356304,1450.0000726990402,7.495193914020092,-2.7083889134230503,-0.0,7.081325748004019e-08,-3.110926627414301e-08,0.0,174.19555555555323,70.0,0.0,255.0,0.0
26.450000000000234,35.72488890173377,51.27459266058964,1450.0000726981089,7.495193914020319,-2.7083889034680624,-0.0,-7.080871000653133e-08,1.415503447788069e-07,0.0,173.6894444444421,70.0,0.0,255.0,0.0
26.500000000000234,35.72489227934361,51.274591163822876,1450.0000726962462,7.495193906939221,-2.708388899268016,-0.0,-7.081325748004019e-08,2.644924279593397e-08,0.0,173.18333333333098,70.0,0.0,255.0,0.0
26.550000000000235,35.72489565695342,51.27458966705596,1450.0000726990402,7.495193906938994,-2.708388900823138,-0.0,-2.2737367544323206e-12,-3.110358193225693e-08,0.0,172.67722222221985,70.0,0.0,255.0,0.0
26.600000000000236,35.72489903456321,51.274588170288936,1450.0000726971775,7.495193906938994,-2.708388902378374,-0.0,7.081325748004019e-08,2.6449811230122577e-08,0.0,172.17111111110876,70.0,0.0,255.0,0.0
26.650000000000237,35.72490241217299,51.27458667352178,1450.0000726981089,7.495193914020319,-2.708388898178157,-0.0,7.081325748004019e-08,-3.110415036644554e-08,0.0,171.66499999999763,70.0,0.0,255.0,0.0
26.700000000000237,35.72490578978276,51.2745851767545,1450.0000726990402,7.495193914020319,-2.708388905488789,-0.0,0.0,-8.865640666044783e-08,0.0,171.1588888888865,70.0,0.0,255.0,0.0
26.750000000000238,35.72490916739249,51.27458367998708,1450.0000726981089,7.495193914020319,-2.7083889070437976,-0.0,-7.081325748004019e-08,8.400661499763373e-08,0.0,170.65277777777538,70.0,0.0,255.0,0.0
26.80000000000024,35.72491254500221,51.27458218321955,1450.0000726981089,7.495193906938994,-2.7083888970881276,-0.0,-2.2737367544323206e-12,8.400604656344512e-08,0.0,170.1466666666643,70.0,0.0,255.0,0.0
26.85000000000024,35.7249159226119,51.27458068645189,1450.0000726981089,7.495193914020092,-2.708388898643193,-0.0,2.2737367544323206e-12,-1.4620525234931847e-07,0.0,169.64055555555316,70.0,0.0,255.0,0.0
26.90000000000024,35.724919300221586,51.27457918968411,1450.0000726971775,7.495193906939221,-2.708388911708653,-0.0,-2.1243067749310285e-07,-1.4620127330999821e-07,0.0,169.13444444444204,70.0,0.0,255.0,0.0
26.95000000000024,35.72492267783123,51.27457769291618,1450.0000726990402,7.495193892777024,-2.7083889132633203,-0.0,2.8324393497314304e-07,1.415639871993335e-07,0.0,168.62833333333091,70.0,0.0,255.0,0.0
27.00000000000024,35.72492605544086,51.27457619614814,1450.0000726971775,7.4951939352636145,-2.708388897552254,-0.0,2.8324393497314304e-07,1.4156171346257906e-07,0.0,168.1222222222198,70.0,0.0,255.0,0.0
27.050000000000242,35.724929433050484,51.27457469937998,1450.0000726981089,7.495193921101418,-2.708388899107149,-0.0,-4.24868176196469e-07,-3.1095623853616416e-08,0.0,167.6161111111087,70.0,0.0,255.0,0.0
27.100000000000243,35.72493281066007,51.274573202611684,1450.0000726971775,7.495193892776797,-2.7083889006618165,-0.0,-7.081325748004019e-08,-3.109221324848477e-08,0.0,167.10999999999757,70.0,0.0,255.0,0.0
27.150000000000244,35.724936188269645,51.274571705843265,1450.0000726962462,7.495193914020092,-2.7083889022163703,-0.0,2.8324620870989747e-07,-8.864390110829845e-08,0.0,166.60388888888644,70.0,0.0,255.0,0.0
27.200000000000244,35.724939565879204,51.27457020907472,1450.0000726981089,7.495193921101418,-2.7083889095262066,-0.0,2.2737367544323206e-12,2.6462316782271955e-08,0.0,166.09777777777532,70.0,0.0,255.0,0.0
27.250000000000245,35.724942943488735,51.27456871230604,1450.0000726981089,7.495193914020319,-2.7083888995701386,-0.0,-1.4162196748657152e-07,1.4156910310703097e-07,0.0,165.59166666666422,70.0,0.0,255.0,0.0
27.300000000000246,35.72494632109825,51.27456721553725,1450.0000726981089,7.495193906939221,-2.7083888953692963,-0.0,7.081098374328576e-08,-8.86404905031668e-08,0.0,165.0855555555531,70.0,0.0,255.0,0.0
27.350000000000247,35.724949698707725,51.27456571876832,1450.0000726990402,7.495193921101418,-2.7083889084341877,-0.0,-2.2737367544323206e-12,-8.86404905031668e-08,0.0,164.57944444444198,70.0,0.0,255.0,0.0
27.400000000000247,35.724953076317206,51.27456422199926,1450.0000726990402,7.495193906938994,-2.7083889042333453,-0.0,-2.8324620870989747e-07,8.401684681302868e-08,0.0,164.07333333333085,70.0,0.0,255.0,0.0
27.450000000000248,35.72495645392666,51.27456272523009,1450.0000726971775,7.495193892776797,-2.708388900032503,-0.0,2.2737367544323206e-12,-3.108652890659869e-08,0.0,163.56722222221973,70.0,0.0,255.0,0.0
27.50000000000025,35.724959831536076,51.27456122846079,1450.0000726981089,7.495193906939221,-2.708388907341998,-0.0,2.8324620870989747e-07,-8.863537459546933e-08,0.0,163.06111111110863,70.0,0.0,255.0,0.0
27.55000000000025,35.72496320914549,51.274559731691355,1450.0000726962462,7.495193921101418,-2.7083889088960404,-0.0,-2.2737367544323206e-12,2.64725485976669e-08,0.0,162.5549999999975,70.0,0.0,255.0,0.0
27.60000000000025,35.724966586754896,51.27455823492179,1450.0000726971775,7.495193906938994,-2.7083889046947434,-0.0,-2.124352249666117e-07,8.402309958910337e-08,0.0,162.04888888888638,70.0,0.0,255.0,0.0
27.65000000000025,35.72496996436424,51.274556738152114,1450.0000726990402,7.495193899857895,-2.7083889004937305,-0.0,1.4162424122332595e-07,2.6468569558346644e-08,0.0,161.54277777777526,70.0,0.0,255.0,0.0
27.70000000000025,35.724973341973595,51.2745552413823,1450.0000726990402,7.495193921101418,-2.7083889020478864,-0.0,2.8324620870989747e-07,-3.1078002393769566e-08,0.0,161.03666666666416,70.0,0.0,255.0,0.0
27.750000000000252,35.724976719582926,51.27455374461236,1450.0000726981089,7.495193928182516,-2.7083889036015307,-0.0,-1.4162196748657152e-07,2.647595920279855e-08,0.0,160.53055555555304,70.0,0.0,255.0,0.0
27.800000000000253,35.72498009719224,51.2745522478423,1450.0000726981089,7.495193906939221,-2.7083888994002905,-0.0,-3.5405719245318323e-07,2.6470843295101076e-08,0.0,160.0244444444419,70.0,0.0,255.0,0.0
27.850000000000254,35.72498347480152,51.27455075107212,1450.0000726981089,7.495193892776797,-2.7083889009544464,-0.0,-2.2737367544323206e-12,-8.862969025358325e-08,0.0,159.5183333333308,70.0,0.0,255.0,0.0
27.900000000000254,35.72498685241079,51.274549254301796,1450.0000726990402,7.495193906938994,-2.7083889082632595,-0.0,2.8324620870989747e-07,-3.1069475880940445e-08,0.0,159.01222222221966,70.0,0.0,255.0,0.0
27.950000000000255,35.724990230020026,51.27454775753135,1450.0000726971775,7.495193921101418,-2.708388904061394,-0.0,7.081098374328576e-08,8.403048923355527e-08,0.0,158.50611111110857,70.0,0.0,255.0,0.0
28.000000000000256,35.72499360762926,51.274546260760786,1450.0000726971775,7.495193914020092,-2.7083888998602106,-0.0,-1.4162196748657152e-07,2.647595920279855e-08,0.0,157.99999999999744,70.0,0.0,255.0,0.0
28.050000000000257,35.724996985238455,51.27454476399009,1450.0000726981089,7.495193906939221,-2.708388901413798,-0.0,-7.080871000653133e-08,-3.106833901256323e-08,0.0,157.49388888888632,70.0,0.0,255.0,0.0
28.100000000000257,35.725000362847645,51.27454326721927,1450.0000726981089,7.495193906939221,-2.7083889029670445,-0.0,7.080871000653133e-08,2.6481075110496022e-08,0.0,156.9877777777752,70.0,0.0,255.0,0.0
28.150000000000258,35.725003740456806,51.27454177044833,1450.0000726971775,7.495193914020092,-2.7083888987656906,-0.0,-2.2737367544323206e-12,-3.107288648607209e-08,0.0,156.4816666666641,70.0,0.0,255.0,0.0
28.20000000000026,35.725007118065946,51.27454027367725,1450.0000726981089,7.495193906938994,-2.708388906074333,-0.0,-7.081098374328576e-08,-8.862116374075413e-08,0.0,155.97555555555297,70.0,0.0,255.0,0.0
28.25000000000026,35.72501049567505,51.274538776906056,1450.0000726981089,7.495193906938994,-2.708388907627807,-0.0,1.4162424122332595e-07,2.648448571562767e-08,0.0,155.46944444444185,70.0,0.0,255.0,0.0
28.30000000000026,35.72501387328416,51.27453728013472,1450.0000726981089,7.495193921101418,-2.7083889034258846,-0.0,2.2737367544323206e-12,2.648789632075932e-08,0.0,154.96333333333072,70.0,0.0,255.0,0.0
28.35000000000026,35.72501725089325,51.27453578336326,1450.0000726962462,7.495193906939221,-2.7083889049790173,-0.0,-1.4162424122332595e-07,2.648732788657071e-08,0.0,154.4572222222196,70.0,0.0,255.0,0.0
28.40000000000026,35.72502062850231,51.27453428659169,1450.0000726981089,7.495193906938994,-2.7083889007771518,-0.0,-2.2737367544323206e-12,2.648789632075932e-08,0.0,153.9511111111085,70.0,0.0,255.0,0.0
28.450000000000262,35.72502400611135,51.27453278981999,1450.0000726971775,7.495193906938994,-2.7083889023302277,-0.0,7.081553121679462e-08,2.649073849170236e-08,0.0,153.44499999999738,70.0,0.0,255.0,0.0
28.500000000000263,35.72502738372037,51.274531293048156,1450.0000726981089,7.495193914020547,-2.708388898128078,-0.0,7.081325748004019e-08,-3.106492840743158e-08,0.0,152.93888888888625,70.0,0.0,255.0,0.0
28.550000000000264,35.725030761329364,51.2745297962762,1450.0000726990402,7.495193914020319,-2.7083889054367205,-0.0,-7.081553121679462e-08,-8.861491096467944e-08,0.0,152.43277777777513,70.0,0.0,255.0,0.0
28.600000000000264,35.72503413893835,51.274528299504105,1450.0000726962462,7.495193906938994,-2.708388906989569,-0.0,0.0,2.6494717531022616e-08,0.0,151.92666666666403,70.0,0.0,255.0,0.0
28.650000000000265,35.725037516547296,51.2745268027319,1450.0000726971775,7.495193914020319,-2.7083889027872488,-0.0,7.081098374328576e-08,8.404470008827047e-08,0.0,151.4205555555529,70.0,0.0,255.0,0.0
28.700000000000266,35.72504089415624,51.27452530595956,1450.0000726971775,7.495193914020092,-2.708388898585099,-0.0,-1.4162651496008039e-07,2.6495854399399832e-08,0.0,150.91444444444178,70.0,0.0,255.0,0.0
28.750000000000266,35.72504427176516,51.2745238091871,1450.0000726981089,7.495193899857668,-2.7083889001376633,-0.0,-1.4162196748657152e-07,-8.860695288603893e-08,0.0,150.40833333333066,70.0,0.0,255.0,0.0
28.800000000000267,35.725047649374034,51.27452231241451,1450.0000726990402,7.495193899857895,-2.7083889074457943,-0.0,1.4162878869683482e-07,-3.10592440655455e-08,0.0,149.90222222221954,70.0,0.0,255.0,0.0
28.850000000000268,35.725051026982904,51.2745208156418,1450.0000726981089,7.495193914020547,-2.7083889032435877,-0.0,2.1243749870336615e-07,2.6497559701965656e-08,0.0,149.39611111110844,70.0,0.0,255.0,0.0
28.90000000000027,35.72505440459177,51.27451931886895,1450.0000726981089,7.495193921101645,-2.7083889047960383,-0.0,-2.2737367544323206e-12,-3.104730694758473e-08,0.0,148.88999999999731,70.0,0.0,255.0,0.0
28.95000000000027,35.72505778220061,51.27451782209599,1450.0000726990402,7.495193914020319,-2.7083889063483184,-0.0,-1.4162651496008039e-07,2.6500401872908697e-08,0.0,148.3838888888862,70.0,0.0,255.0,0.0
29.00000000000027,35.72506115980943,51.27451632532288,1450.0000726971775,7.495193906938994,-2.708388902145998,-0.0,-1.4162424122332595e-07,2.6494717531022616e-08,0.0,147.87777777777507,70.0,0.0,255.0,0.0
29.05000000000027,35.725064537418234,51.27451482854966,1450.0000726962462,7.495193899857895,-2.7083889036988467,-0.0,7.081325748004019e-08,2.6503812478040345e-08,0.0,147.37166666666397,70.0,0.0,255.0,0.0
29.10000000000027,35.72506791502698,51.274513331776305,1450.0000726971775,7.495193914020319,-2.708388899495617,-0.0,1.4162424122332595e-07,2.6507223083171993e-08,0.0,146.86555555555285,70.0,0.0,255.0,0.0
29.150000000000272,35.72507129263574,51.27451183500285,1450.0000726971775,7.495193914020319,-2.7083889010481244,-0.0,-7.081325748004019e-08,-8.860297384671867e-08,0.0,146.35944444444172,70.0,0.0,255.0,0.0
29.200000000000273,35.725074670244474,51.274510338229234,1450.0000726981089,7.495193906938994,-2.7083889083559143,-0.0,7.080871000653133e-08,-3.1049012250150554e-08,0.0,145.8533333333306,70.0,0.0,255.0,0.0
29.250000000000274,35.72507804785319,51.27450884145551,1450.0000726981089,7.49519392110119,-2.7083889041530256,-0.0,1.4162424122332595e-07,8.406004781136289e-08,0.0,145.34722222221947,70.0,0.0,255.0,0.0
29.300000000000274,35.72508142546189,51.27450734468165,1450.0000726971775,7.495193921101418,-2.7083888999499095,-0.0,-1.416196937498171e-07,8.406345841649454e-08,0.0,144.84111111110838,70.0,0.0,255.0,0.0
29.350000000000275,35.72508480307055,51.274505847907676,1450.0000726971775,7.495193906939221,-2.7083888957466797,-0.0,-2.8324620870989747e-07,-3.104446477664169e-08,0.0,144.33499999999725,70.0,0.0,255.0,0.0
29.400000000000276,35.725088180679194,51.27450435113358,1450.0000726981089,7.495193892776797,-2.708388903054356,-0.0,7.080871000653133e-08,-1.461512511014007e-07,0.0,143.82888888888613,70.0,0.0,255.0,0.0
29.450000000000276,35.72509155828782,51.27450285435934,1450.0000726981089,7.495193914020092,-2.708388910361805,-0.0,2.8324620870989747e-07,2.6510633688303642e-08,0.0,143.322777777775,70.0,0.0,255.0,0.0
29.500000000000277,35.72509493589644,51.27450135758497,1450.0000726981089,7.495193921101418,-2.7083889004032926,-0.0,-1.4162196748657152e-07,8.406914275838062e-08,0.0,142.8166666666639,70.0,0.0,255.0,0.0
29.550000000000278,35.725098313505036,51.2744998608105,1450.0000726981089,7.495193899857895,-2.7083889019548906,-0.0,-1.4162424122332595e-07,-8.859160516294651e-08,0.0,142.31055555555278,70.0,0.0,255.0,0.0
29.60000000000028,35.72510169111359,51.27449836403588,1450.0000726971775,7.495193906938994,-2.708388909262453,-0.0,2.1243749870336615e-07,-3.104219103988726e-08,0.0,141.80444444444166,70.0,0.0,255.0,0.0
29.65000000000028,35.72510506872214,51.27449686726114,1450.0000726981089,7.495193921101645,-2.7083889050591097,-0.0,1.4162424122332595e-07,8.407255336351227e-08,0.0,141.29833333333053,70.0,0.0,255.0,0.0
29.70000000000028,35.72510844633066,51.27449537048628,1450.0000726981089,7.495193921101418,-2.708388900855198,-0.0,-1.4162878869683482e-07,2.6516318030189723e-08,0.0,140.7922222222194,70.0,0.0,255.0,0.0
29.75000000000028,35.72511182393917,51.274493873711286,1450.0000726971775,7.495193906938766,-2.708388902407478,-0.0,-2.1243295122985728e-07,-3.104105417151004e-08,0.0,140.2861111111083,70.0,0.0,255.0,0.0
29.80000000000028,35.72511520154765,51.274492376936166,1450.0000726971775,7.495193899858123,-2.708388903959303,-0.0,7.081553121679462e-08,2.652313924045302e-08,0.0,139.7799999999972,70.0,0.0,255.0,0.0
29.850000000000282,35.72511857915612,51.27449088016093,1450.0000726981089,7.495193914020319,-2.708388899755164,-0.0,2.1243295122985728e-07,2.6524276108830236e-08,0.0,139.27388888888606,70.0,0.0,255.0,0.0
29.900000000000283,35.72512195676456,51.27448938338556,1450.0000726981089,7.495193921101418,-2.7083889013068756,-0.0,7.081098374328576e-08,-3.103536982962396e-08,0.0,138.76777777777494,70.0,0.0,255.0,0.0
29.950000000000284,35.725125334373,51.27448788661006,1450.0000726990402,7.495193921101418,-2.708388902858701,-0.0,-2.124352249666117e-07,-3.103195922449231e-08,0.0,138.26166666666384,70.0,0.0,255.0,0.0
30.000000000000284,35.725128711981405,51.274486389834436,1450.0000726981089,7.495193899857895,-2.7083889044100715,-0.0,-2.8324393497314304e-07,2.6524276108830236e-08,0.0,137.75555555555272,70.0,0.0,255.0,0.0
30.050000000000285,35.72513208958978,51.274484893058684,1450.0000726971775,7.495193892777024,-2.7083889002062733,-0.0,2.1243295122985728e-07,2.6524276108830236e-08,0.0,137.2494444444416,70.0,0.0,255.0,0.0
30.100000000000286,35.725135467198136,51.27448339628281,1450.0000726981089,7.49519392110119,-2.708388901757644,-0.0,2.1243295122985728e-07,-3.102854861936066e-08,0.0,136.74333333333047,70.0,0.0,255.0,0.0
30.150000000000286,35.72513884480648,51.27448189950681,1450.0000726990402,7.495193914020319,-2.708388903309128,-0.0,-1.416196937498171e-07,-3.102854861936066e-08,0.0,136.23722222221934,70.0,0.0,255.0,0.0
30.200000000000287,35.7251422224148,51.27448040273068,1450.0000726981089,7.495193906939221,-2.7083889048604988,-0.0,7.080871000653133e-08,-3.102286427747458e-08,0.0,135.73111111110825,70.0,0.0,255.0,0.0
30.250000000000288,35.72514560002311,51.27447890595442,1450.0000726981089,7.49519392110119,-2.7083889064114146,-0.0,0.0,2.653223418747075e-08,0.0,135.22499999999712,70.0,0.0,255.0,0.0
30.30000000000029,35.7251489776314,51.27447740917805,1450.0000726981089,7.495193906939221,-2.7083889022072754,-0.0,-2.1243295122985728e-07,2.65288235823391e-08,0.0,134.718888888886,70.0,0.0,255.0,0.0
30.35000000000029,35.725152355239636,51.274475912401535,1450.0000726999715,7.495193899857895,-2.7083889037585323,-0.0,7.081098374328576e-08,-3.10240011458518e-08,0.0,134.21277777777487,70.0,0.0,255.0,0.0
30.40000000000029,35.72515573284789,51.27447441562491,1450.0000726990402,7.495193914020319,-2.7083889053096755,-0.0,1.4162196748657152e-07,2.653223418747075e-08,0.0,133.70666666666378,70.0,0.0,255.0,0.0
30.45000000000029,35.72515911045609,51.27447291884814,1450.0000726981089,7.495193914020092,-2.708388901105309,-0.0,-1.4162424122332595e-07,2.6533371055847965e-08,0.0,133.20055555555265,70.0,0.0,255.0,0.0
30.50000000000029,35.72516248806429,51.27447142207126,1450.0000726981089,7.495193899857895,-2.7083889026563384,-0.0,-1.416196937498171e-07,-3.1021727409097366e-08,0.0,132.69444444444153,70.0,0.0,255.0,0.0
30.550000000000292,35.72516586567248,51.274469925294234,1450.0000726990402,7.495193899858123,-2.7083889042074816,-0.0,2.1243295122985728e-07,2.6535644792602398e-08,0.0,132.1883333333304,70.0,0.0,255.0,0.0
30.600000000000293,35.725169243280625,51.274468428517096,1450.0000726981089,7.49519392110119,-2.708388900002774,-0.0,2.1243295122985728e-07,2.6541329134488478e-08,0.0,131.68222222221928,70.0,0.0,255.0,0.0
30.650000000000293,35.72517262088878,51.27446693173984,1450.0000726981089,7.495193921101418,-2.7083889015533487,-0.0,-1.416196937498171e-07,-3.1016043067211285e-08,0.0,131.17611111110818,70.0,0.0,255.0,0.0
30.700000000000294,35.725175998496894,51.27446543496245,1450.0000726971775,7.495193906939221,-2.708388903104378,-0.0,-1.4162196748657152e-07,2.653450792422518e-08,0.0,130.66999999999706,70.0,0.0,255.0,0.0
30.750000000000295,35.725179376104975,51.27446393818493,1450.0000726981089,7.495193906939221,-2.708388898899898,-0.0,1.4162196748657152e-07,-3.101149559370242e-08,0.0,130.16388888888594,70.0,0.0,255.0,0.0
30.800000000000296,35.72518275371305,51.27446244140729,1450.0000726990402,7.495193921101418,-2.7083889062055277,-0.0,7.081098374328576e-08,-3.100922185694799e-08,0.0,129.6577777777748,70.0,0.0,255.0,0.0
30.850000000000296,35.725186131321124,51.27446094462951,1450.0000726971775,7.495193914020319,-2.70838890200082,-0.0,-2.1243295122985728e-07,2.6539055397734046e-08,0.0,129.15166666666371,70.0,0.0,255.0,0.0
30.900000000000297,35.72518950892914,51.274459447851626,1450.0000726990402,7.495193899858123,-2.708388903551622,-0.0,-1.4162424122332595e-07,-8.856432032189332e-08,0.0,128.6455555555526,70.0,0.0,255.0,0.0
30.950000000000298,35.72519288653715,51.274457951073586,1450.0000726981089,7.495193899857895,-2.708388910857252,-0.0,1.416196937498171e-07,2.654701347637456e-08,0.0,128.13944444444147,70.0,0.0,255.0,0.0
31.0000000000003,35.725196264145154,51.27445645429543,1450.0000726990402,7.495193914020092,-2.708388900896921,-0.0,2.8324620870989747e-07,8.409870133618824e-08,0.0,127.63333333333034,70.0,0.0,255.0,0.0
31.0500000000003,35.72519964175312,51.27445495751717,1450.0000726971775,7.495193928182516,-2.708388902447382,-0.0,-7.081098374328576e-08,-3.100922185694799e-08,0.0,127.12722222221922,70.0,0.0,255.0,0.0
31.1000000000003,35.72520301936108,51.27445346073876,1450.0000726981089,7.495193906938994,-2.708388903997843,-0.0,-2.8324620870989747e-07,-3.1006948120193556e-08,0.0,126.62111111110812,70.0,0.0,255.0,0.0
31.1500000000003,35.72520639696901,51.27445196396023,1450.0000726981089,7.495193899857895,-2.7083889055480768,-0.0,1.4162424122332595e-07,2.654928721312899e-08,0.0,126.114999999997,70.0,0.0,255.0,0.0
31.2000000000003,35.725209774576925,51.27445046718158,1450.0000726962462,7.495193921101418,-2.7083889013429143,-0.0,7.081098374328576e-08,8.410097507294267e-08,0.0,125.60888888888587,70.0,0.0,255.0,0.0
31.250000000000302,35.725213152184814,51.274448970402794,1450.0000726971775,7.495193906938994,-2.7083888971379793,-0.0,-2.124352249666117e-07,-3.1001263778307475e-08,0.0,125.10277777777475,70.0,0.0,255.0,0.0
31.300000000000303,35.72521652979267,51.27444747362389,1450.0000726981089,7.495193899857895,-2.7083889044430407,-0.0,2.1243749870336615e-07,-8.854954103298951e-08,0.0,124.59666666666365,70.0,0.0,255.0,0.0
31.350000000000303,35.72521990740053,51.27444597684485,1450.0000726981089,7.4951939281827435,-2.7083889059929334,-0.0,2.1243749870336615e-07,2.6551560949883424e-08,0.0,124.09055555555253,70.0,0.0,255.0,0.0
31.400000000000304,35.725223285008354,51.27444448006569,1450.0000726981089,7.495193921101645,-2.7083889017878846,-0.0,-2.832484824466519e-07,2.6550424081506208e-08,0.0,123.5844444444414,70.0,0.0,255.0,0.0
31.450000000000305,35.72522666261617,51.274442983286406,1450.0000726981089,7.495193899857895,-2.708388903337891,-0.0,-1.4162651496008039e-07,-3.0997853173175827e-08,0.0,123.07833333333028,70.0,0.0,255.0,0.0
31.500000000000306,35.72523004022395,51.27444148650699,1450.0000726971775,7.495193906938994,-2.70838890488767,-0.0,1.4162424122332595e-07,-3.099444256804418e-08,0.0,122.57222222221915,70.0,0.0,255.0,0.0
31.550000000000306,35.72523341783172,51.27443998972745,1450.0000726999715,7.495193914020319,-2.708388906437335,-0.0,2.2737367544323206e-12,8.41100700199604e-08,0.0,122.06611111110806,70.0,0.0,255.0,0.0
31.600000000000307,35.72523679543948,51.27443849294778,1450.0000726971775,7.495193906939221,-2.708388896476663,-0.0,-7.081553121679462e-08,8.410893315158319e-08,0.0,121.55999999999693,70.0,0.0,255.0,0.0
31.650000000000308,35.72524017304719,51.27443699616799,1450.0000726971775,7.495193906938766,-2.708388898026442,-0.0,-4.547473508864641e-12,-8.854840416461229e-08,0.0,121.05388888888581,70.0,0.0,255.0,0.0
31.70000000000031,35.7252435506549,51.27443549938807,1450.0000726990402,7.495193906938766,-2.7083889053315033,-0.0,7.081780495354906e-08,-3.099103196291253e-08,0.0,120.54777777777468,70.0,0.0,255.0,0.0
31.75000000000031,35.725246928262585,51.274434002608025,1450.0000726971775,7.495193914020547,-2.708388901125545,-0.0,7.081553121679462e-08,-3.09887582261581e-08,0.0,120.04166666666359,70.0,0.0,255.0,0.0
31.80000000000031,35.72525030587025,51.27443250582786,1450.0000726981089,7.495193914020319,-2.708388908430379,-0.0,-7.081553121679462e-08,-8.854385669110343e-08,0.0,119.53555555555246,70.0,0.0,255.0,0.0
31.85000000000031,35.72525368347789,51.27443100904756,1450.0000726990402,7.495193906938994,-2.7083889099799308,-0.0,-7.081098374328576e-08,8.411575436184648e-08,0.0,119.02944444444134,70.0,0.0,255.0,0.0
31.90000000000031,35.72525706108553,51.27442951226713,1450.0000726981089,7.495193906939221,-2.7083889000188037,-0.0,7.081098374328576e-08,1.4167198969516903e-07,0.0,118.52333333333021,70.0,0.0,255.0,0.0
31.950000000000312,35.72526043869313,51.27442801548657,1450.0000726971775,7.495193914020092,-2.708388895812732,-0.0,7.081098374328576e-08,-3.0986484489403665e-08,1.8189894035458306e-11,118.01722222221909,70.0,0.0,255.0,0.0
32.00000000000031,35.72526381630072,51.2744265187059,1450.0000726971775,7.495193914020319,-2.708388903117452,1.8189894035458565e-12,2.2595258997171186e-12,-1.460944076825399e-07,-2.5849394142283217e-24,117.511111111108,70.0,0.0,255.0,0.0
32.05000000000031,35.72526719390827,51.2744250219251,1450.0000726971775,7.495193914020319,-2.7083889104221726,-0.0,-7.082007869030349e-08,-3.0983073884272017e-08,-1.818989403546089e-11,117.0049999999969,70.0,0.0,255.0,0.0
32.100000000000314,35.725270571515814,51.274423525144165,1450.0000726981089,7.495193906938312,-2.7083889062157596,-0.0,-2.2737367544323206e-12,8.412484930886421e-08,0.0,116.49888888888574,70.0,0.0,255.0,0.0
32.15000000000032,35.72527394912333,51.274422028363105,1450.0000726971775,7.495193914020092,-2.7083889020096876,-0.0,7.082689990056679e-08,2.6566340238787234e-08,0.0,115.99277777777459,70.0,0.0,255.0,0.0
32.200000000000315,35.72527732673084,51.274420531581924,1450.0000726981089,7.4951939140210015,-2.7083889035591255,-0.0,-1.416196937498171e-07,8.412257557210978e-08,0.0,115.48666666666352,70.0,0.0,255.0,0.0
32.25000000000031,35.725280704338324,51.274419034800616,1450.0000726971775,7.495193899858123,-2.70838889359743,-0.0,7.079734132275917e-08,8.41305336507503e-08,0.0,114.98055555555243,70.0,0.0,255.0,0.0
32.30000000000032,35.72528408194577,51.27441753801919,1450.0000726971775,7.495193921100736,-2.708388895146072,-0.0,1.4162424122332595e-07,-8.85347617440857e-08,0.0,114.47444444444127,70.0,0.0,255.0,0.0
32.35000000000032,35.725287459553215,51.27441604123763,1450.0000726981089,7.495193914020547,-2.7083889024509062,-0.0,-7.080188879626803e-08,-1.4608872334065381e-07,0.0,113.96833333333012,70.0,0.0,255.0,0.0
32.40000000000032,35.725290837160635,51.27441454445594,1450.0000726981089,7.495193914020547,-2.7083889097549445,-0.0,-4.547473508864641e-12,-8.852680366544519e-08,0.0,113.46222222221903,70.0,0.0,255.0,0.0
32.450000000000315,35.72529421476804,51.274413047674116,1450.0000726981089,7.495193914020092,-2.7083889113035866,-0.0,-7.082007869030349e-08,8.413167051912751e-08,0.0,112.95611111110796,70.0,0.0,255.0,0.0
32.50000000000032,35.7252975923754,51.274411550892175,1450.0000726971775,7.495193906938539,-2.7083889013417775,-0.0,-7.081098374328576e-08,1.4168222151056398e-07,0.0,112.4499999999968,70.0,0.0,255.0,0.0
32.550000000000324,35.725300969982776,51.274410054110106,1450.0000726990402,7.495193906938994,-2.7083888971353645,-0.0,-7.080188879626803e-08,-3.0975115805631503e-08,0.0,111.94388888888565,70.0,0.0,255.0,0.0
32.60000000000032,35.72530434759009,51.274408557327924,1450.0000726990402,7.49519389985835,-2.708388904439289,-0.0,2.2737367544323206e-12,-8.852452992869075e-08,0.0,111.43777777777456,70.0,0.0,255.0,0.0
32.65000000000032,35.725307725197425,51.27440706054559,1450.0000726962462,7.495193906939221,-2.7083889059878175,-0.0,7.080188879626803e-08,2.658225639606826e-08,0.0,110.93166666666349,70.0,0.0,255.0,0.0
32.70000000000032,35.725311102804696,51.274405563763146,1450.0000726981089,7.495193906938539,-2.7083889017810634,-0.0,7.081098374328576e-08,2.6581119527691044e-08,0.0,110.42555555555234,70.0,0.0,255.0,0.0
32.75000000000033,35.72531448041199,51.274404066980566,1450.0000726971775,7.495193914020319,-2.7083889033297055,-0.0,7.082462616381235e-08,-3.0971705200499855e-08,0.0,109.91944444444118,70.0,0.0,255.0,0.0
32.800000000000324,35.725317858019245,51.274402570197886,1450.0000726981089,7.4951939140210015,-2.708388904878234,-0.0,-7.081553121679462e-08,2.6583393264445476e-08,0.0,109.41333333333009,70.0,0.0,255.0,0.0
32.85000000000032,35.72532123562647,51.27440107341504,1450.0000726981089,7.495193906938766,-2.708388900671366,-0.0,7.079734132275917e-08,2.6589077606331557e-08,0.0,108.90722222221902,70.0,0.0,255.0,0.0
32.900000000000325,35.72532461323368,51.274399576632106,1450.0000726971775,7.495193921100736,-2.708388902219326,-0.0,2.12442046176875e-07,-8.851429811329581e-08,0.0,108.40111111110787,70.0,0.0,255.0,0.0
32.95000000000033,35.72532799084088,51.274398079849014,1450.0000726971775,7.495193928182971,-2.708388909522796,-0.0,-2.1242158254608512e-07,2.6581119527691044e-08,0.0,107.89499999999671,70.0,0.0,255.0,0.0
33.00000000000033,35.72533136844807,51.27439658306581,1450.0000726962462,7.495193899858577,-2.708388899561214,-0.0,-3.540617399266921e-07,8.413735486101359e-08,0.0,107.38888888888562,70.0,0.0,255.0,0.0
33.050000000000324,35.725334746055196,51.27439508628248,1450.0000726981089,7.495193892776797,-2.7083889011090605,-0.0,1.4161059880279936e-07,-8.850520316627808e-08,0.0,106.88277777777455,70.0,0.0,255.0,0.0
33.10000000000033,35.72533812366235,51.27439358949903,1450.0000726981089,7.495193914019637,-2.7083889084117345,-0.0,2.8324620870989747e-07,-3.0962610253482126e-08,0.0,106.3766666666634,70.0,0.0,255.0,0.0
33.15000000000033,35.72534150126944,51.27439209271544,1450.0000726971775,7.495193921101418,-2.7083889042053215,-0.0,1.3642420526593924e-11,8.413394425588194e-08,0.0,105.87055555555222,70.0,0.0,255.0,0.0
33.20000000000033,35.72534487887654,51.27439059593173,1450.0000726981089,7.4951939140210015,-2.70838889999834,-0.0,-1.4162651496008039e-07,2.6593625079840422e-08,0.0,105.36444444444115,70.0,0.0,255.0,0.0
33.25000000000033,35.72534825648361,51.274389099147896,1450.0000726971775,7.495193906938766,-2.708388901545959,-0.0,-7.082689990056679e-08,-3.0953515306464396e-08,0.0,104.85833333333005,70.0,0.0,255.0,0.0
33.30000000000033,35.72535163409066,51.27438760236393,1450.0000726990402,7.495193906938312,-2.7083889030936916,-0.0,4.547473508864641e-12,-3.095578904321883e-08,0.0,104.3522222222189,70.0,0.0,255.0,0.0
33.350000000000335,35.72535501169769,51.27438610557984,1450.0000726981089,7.495193906939221,-2.708388904641538,-0.0,1.3642420526593924e-11,-3.095578904321883e-08,0.0,103.84611111110775,70.0,0.0,255.0,0.0
33.40000000000033,35.725358389304695,51.27438460879562,1450.0000726981089,7.495193906939676,-2.7083889061892705,-0.0,7.081098374328576e-08,2.659703568497207e-08,0.0,103.33999999999668,70.0,0.0,255.0,0.0
33.45000000000033,35.725361766911675,51.27438311201128,1450.0000726971775,7.495193914020319,-2.7083889019818344,-0.0,-1.3642420526593924e-11,8.414986041316297e-08,0.0,102.83388888888558,70.0,0.0,255.0,0.0
33.500000000000334,35.72536514451865,51.274381615226815,1450.0000726981089,7.495193906938312,-2.7083888977742845,-0.0,-2.2737367544323206e-12,-3.095237843808718e-08,0.0,102.32777777777443,70.0,0.0,255.0,0.0
33.55000000000034,35.72536852212559,51.27438011844222,1450.0000726981089,7.495193914020092,-2.708388905077072,-0.0,7.082462616381235e-08,-8.850861377140973e-08,0.0,101.82166666666328,70.0,0.0,255.0,0.0
33.600000000000335,35.725371899732515,51.2743786216575,1450.0000726981089,7.495193914020774,-2.708388906625146,-0.0,2.2737367544323206e-12,2.6603856895235367e-08,0.0,101.31555555555221,70.0,0.0,255.0,0.0
33.65000000000033,35.72537527733942,51.27437712487265,1450.0000726981089,7.495193914020319,-2.7083889024166865,-0.0,7.080188879626803e-08,2.6610678105498664e-08,0.0,100.80944444444111,70.0,0.0,255.0,0.0
33.70000000000034,35.725378654946326,51.274375628087675,1450.0000726990402,7.495193921100963,-2.708388903964078,-0.0,-1.4162196748657152e-07,8.41521341499174e-08,0.0,100.30333333332996,70.0,0.0,255.0,0.0
33.75000000000034,35.72538203255318,51.27437413130257,1450.0000726971775,7.495193899858123,-2.708388894001473,-0.0,-2.1242613001959398e-07,2.660044629010372e-08,0.0,99.7972222222188,70.0,0.0,255.0,0.0
33.80000000000034,35.725385410160015,51.27437263451736,1450.0000726981089,7.49519389985835,-2.7083889013040334,-0.0,7.081098374328576e-08,-1.4605120668420568e-07,0.0,99.29111111110774,70.0,0.0,255.0,0.0
33.850000000000335,35.725388787766846,51.274371137732,1450.0000726971775,7.495193906939221,-2.7083889086065938,-0.0,7.080188879626803e-08,-3.0942146622692235e-08,0.0,98.78499999999664,70.0,0.0,255.0,0.0
33.90000000000034,35.725392165373655,51.27436964094652,1450.0000726981089,7.495193906938539,-2.708388904398248,-0.0,7.081098374328576e-08,2.6610678105498664e-08,0.0,98.27888888888549,70.0,0.0,255.0,0.0
33.950000000000344,35.72539554298042,51.27436814416092,1450.0000726990402,7.495193914020319,-2.708388905945526,-0.0,7.082462616381235e-08,2.6604993763612583e-08,0.0,97.77277777777434,70.0,0.0,255.0,0.0
34.00000000000034,35.72539892058718,51.27436664737518,1450.0000726981089,7.4951939140210015,-2.7083889017377487,-0.0,-2.2737367544323206e-12,2.6608404368744232e-08,0.0,97.26666666666327,70.0,0.0,255.0,0.0
34.05000000000034,35.72540229819393,51.274365150589325,1450.0000726981089,7.495193914020092,-2.7083889032846855,-0.0,-1.3642420526593924e-11,-3.0938736017560586e-08,0.0,96.76055555555217,70.0,0.0,255.0,0.0
34.10000000000034,35.72540567580066,51.274363653803334,1450.0000726981089,7.495193914019637,-2.7083889048316223,-0.0,-7.081325748004019e-08,2.661181497387588e-08,0.0,96.25444444444102,70.0,0.0,255.0,0.0
34.15000000000035,35.725409053407354,51.27436215701722,1450.0000726971775,7.495193906938766,-2.708388900623504,-0.0,7.082007869030349e-08,2.6614088710630313e-08,0.0,95.74833333332987,70.0,0.0,255.0,0.0
34.200000000000344,35.72541243101404,51.27436066023098,1450.0000726981089,7.495193921101645,-2.7083889021702134,-0.0,7.081780495354906e-08,-3.093532541242894e-08,0.0,95.24222222221877,70.0,0.0,255.0,0.0
34.25000000000034,35.7254158086207,51.274359163444615,1450.0000726990402,7.495193914020547,-2.7083889037170366,-0.0,-2.12442046176875e-07,2.661522557900753e-08,0.0,94.7361111111077,70.0,0.0,255.0,0.0
34.300000000000345,35.72541918622733,51.27435766665813,1450.0000726981089,7.495193899857441,-2.708388899508691,-0.0,-1.4162424122332595e-07,-3.093532541242894e-08,0.0,94.22999999999655,70.0,0.0,255.0,0.0
34.35000000000035,35.725422563833945,51.27435616987152,1450.0000726981089,7.495193899858123,-2.708388906810569,-0.0,1.4163106243358925e-07,-8.84858764038654e-08,0.0,93.7238888888854,70.0,0.0,255.0,0.0
34.40000000000035,35.72542594144055,51.27435467308477,1450.0000726981089,7.495193914020547,-2.7083889083572785,-0.0,1.4162196748657152e-07,8.416691343882121e-08,0.0,93.2177777777743,70.0,0.0,255.0,0.0
34.450000000000344,35.72542931904714,51.2743531762979,1450.0000726971775,7.495193914020319,-2.7083888983938778,-0.0,-7.081780495354906e-08,8.417600838583894e-08,0.0,92.71166666666323,70.0,0.0,255.0,0.0
34.50000000000035,35.72543269665367,51.27435167951091,1450.0000726990402,7.495193906938766,-2.7083888999396777,-0.0,-2.2737367544323206e-12,-3.092509359703399e-08,0.0,92.20555555555208,70.0,0.0,255.0,0.0
34.55000000000035,35.72543607426021,51.274350182723786,1450.0000726981089,7.495193914020092,-2.708388901486387,-0.0,7.082007869030349e-08,-3.093759914918337e-08,0.0,91.69944444444093,70.0,0.0,255.0,0.0
34.60000000000035,35.725439451866734,51.27434868593654,1450.0000726981089,7.495193914020774,-2.7083889030334376,-0.0,0.0,-3.092850420216564e-08,0.0,91.19333333332983,70.0,0.0,255.0,0.0
34.65000000000035,35.72544282947323,51.27434718914917,1450.0000726971775,7.495193914020092,-2.7083889045792375,-0.0,-7.082007869030349e-08,-3.092509359703399e-08,0.0,90.68722222221876,70.0,0.0,255.0,0.0
34.70000000000035,35.725446207079706,51.27434569236166,1450.0000726981089,7.495193906938766,-2.708388906125947,-0.0,7.081325748004019e-08,-3.093077793892007e-08,0.0,90.18111111110761,70.0,0.0,255.0,0.0
34.750000000000355,35.725449584686146,51.27434419557403,1450.0000726971775,7.495193921101418,-2.7083889076723153,-0.0,7.082007869030349e-08,8.417714525421616e-08,0.0,89.67499999999646,70.0,0.0,255.0,0.0
34.80000000000035,35.72545296229259,51.27434269878628,1450.0000726981089,7.495193914020774,-2.7083888977082324,-0.0,-2.8324620870989747e-07,8.417828212259337e-08,0.0,89.16888888888536,70.0,0.0,255.0,0.0
34.85000000000035,35.725456339899004,51.2743412019984,1450.0000726981089,7.495193892776797,-2.708388899254487,-0.0,-7.082462616381235e-08,-8.847223398333881e-08,0.0,88.6627777777743,70.0,0.0,255.0,0.0
34.900000000000354,35.72545971750539,51.274339705210394,1450.0000726981089,7.495193906938312,-2.708388906555456,-0.0,2.1243295122985728e-07,-3.091940925514791e-08,0.0,88.15666666666314,70.0,0.0,255.0,0.0
34.95000000000036,35.72546309511178,51.27433820842226,1450.0000726971775,7.495193914020092,-2.708388902346428,-0.0,7.082462616381235e-08,8.418169272772502e-08,0.0,87.65055555555196,70.0,0.0,255.0,0.0
35.000000000000355,35.72546647271811,51.27433671163401,1450.0000726981089,7.495193914020774,-2.7083888981372866,-0.0,0.0,-3.0918272386770695e-08,0.0,87.1444444444409,70.0,0.0,255.0,0.0
35.05000000000035,35.725469850324465,51.27433521484562,1450.0000726981089,7.495193914020092,-2.7083889054382553,-0.0,-7.082007869030349e-08,-3.091713551839348e-08,0.0,86.6383333333298,70.0,0.0,255.0,0.0
35.10000000000036,35.72547322793076,51.27433371805711,1450.0000726981089,7.495193906938766,-2.708388901229,-0.0,7.081553121679462e-08,2.6633415473042987e-08,0.0,86.13222222221864,70.0,0.0,255.0,0.0
35.15000000000036,35.72547660553705,51.274332221268466,1450.0000726990402,7.495193921101645,-2.7083889027749137,-0.0,1.4163333617034368e-07,-8.847223398333881e-08,0.0,85.62611111110749,70.0,0.0,255.0,0.0
35.20000000000036,35.725479983143344,51.2743307244797,1450.0000726981089,7.4951939211021,-2.7083889100762235,-0.0,-7.081325748004019e-08,2.663568920979742e-08,0.0,85.11999999999642,70.0,0.0,255.0,0.0
35.250000000000355,35.72548336074958,51.27432922769081,1450.0000726971775,7.495193914020319,-2.708388900111345,-0.0,-2.1244659365038387e-07,8.41941982798744e-08,0.0,84.61388888888533,70.0,0.0,255.0,0.0
35.30000000000036,35.72548673835581,51.27432773090179,1450.0000726962462,7.495193899857441,-2.7083889016568037,-0.0,-1.4162424122332595e-07,-3.091599865001626e-08,0.0,84.10777777777417,70.0,0.0,255.0,0.0
35.350000000000364,35.725490115961996,51.27432623411265,1450.0000726971775,7.495193899857895,-2.7083889032029447,-0.0,7.082007869030349e-08,-3.091599865001626e-08,0.0,83.60166666666305,70.0,0.0,255.0,0.0
35.40000000000036,35.725493493568194,51.274324737323376,1450.0000726981089,7.495193906939448,-2.7083889047484035,-0.0,7.081325748004019e-08,-3.090804057137575e-08,0.0,83.09555555555193,70.0,0.0,255.0,0.0
35.45000000000036,35.725496871174364,51.274323240533974,1450.0000726981089,7.495193906939221,-2.7083889062937487,-0.0,7.080416253302246e-08,2.6643647288437933e-08,0.0,82.58944444444086,70.0,0.0,255.0,0.0
35.50000000000036,35.72550024878051,51.27432174374445,1450.0000726971775,7.495193914019865,-2.708388902084039,-0.0,7.080871000653133e-08,8.419533514825162e-08,0.0,82.08333333332973,70.0,0.0,255.0,0.0
35.55000000000037,35.72550362638663,51.2743202469548,1450.0000726971775,7.495193914020092,-2.708388897874215,-0.0,6.821210263296962e-12,-3.091031430813018e-08,0.0,81.57722222221855,70.0,0.0,255.0,0.0
35.600000000000364,35.725507003992746,51.27431875016503,1450.0000726990402,7.495193914020547,-2.7083889051750702,-0.0,-7.081098374328576e-08,-8.845972843118943e-08,0.0,81.07111111110748,70.0,0.0,255.0,0.0
35.65000000000036,35.725510381598816,51.274317253375116,1450.0000726990402,7.495193906938994,-2.708388906720188,-0.0,-6.821210263296962e-12,2.6651605367078446e-08,0.0,80.56499999999642,70.0,0.0,255.0,0.0
35.700000000000365,35.72551375920489,51.274315756585096,1450.0000726971775,7.495193914019865,-2.7083889025099097,-0.0,7.081098374328576e-08,2.664705789356958e-08,0.0,80.05888888888524,70.0,0.0,255.0,0.0
35.75000000000037,35.72551713681092,51.27431425979494,1450.0000726999715,7.495193914020092,-2.7083889040554823,-0.0,-7.080416253302246e-08,2.6643647288437933e-08,0.0,79.55277777777411,70.0,0.0,255.0,0.0
35.80000000000037,35.72552051441696,51.274312763004666,1450.0000726981089,7.495193906939448,-2.708388899845545,-0.0,0.0,8.420215635851491e-08,0.0,79.04666666666299,70.0,0.0,255.0,0.0
35.850000000000364,35.72552389202295,51.27431126621426,1450.0000726990402,7.495193914020092,-2.7083888956352666,-0.0,7.080188879626803e-08,-3.089667188760359e-08,0.0,78.54055555555192,70.0,0.0,255.0,0.0
35.90000000000037,35.72552726962895,51.27430976942373,1450.0000726981089,7.495193914019637,-2.708388902935212,-0.0,4.547473508864641e-12,-1.4600459508073982e-07,0.0,78.03444444444074,70.0,0.0,255.0,0.0
35.95000000000037,35.725530647234905,51.27430827263306,1450.0000726971775,7.495193914020547,-2.708388910235726,-0.0,-7.07996150595136e-08,-3.0906903702998534e-08,0.0,77.52833333332961,70.0,0.0,255.0,0.0
36.00000000000037,35.72553402484084,51.27430677584226,1450.0000726981089,7.495193906939676,-2.7083889060259025,-0.0,-1.4162424122332595e-07,8.420443009526934e-08,0.0,77.02222222221855,70.0,0.0,255.0,0.0
36.05000000000037,35.725537402446754,51.274305279051354,1450.0000726981089,7.495193899858123,-2.708388901815283,-0.0,7.07996150595136e-08,2.6660700314096175e-08,0.0,76.51611111110742,70.0,0.0,255.0,0.0
36.10000000000037,35.725540780052654,51.27430378226032,1450.0000726990402,7.495193914019637,-2.7083889033598325,-0.0,1.4162196748657152e-07,2.6657289708964527e-08,0.0,76.0099999999963,70.0,0.0,255.0,0.0
36.150000000000375,35.72554415765854,51.27430228546915,1450.0000726990402,7.495193914020319,-2.708388899149554,-0.0,-7.080188879626803e-08,2.6652742235455662e-08,0.0,75.50388888888511,70.0,0.0,255.0,0.0
36.20000000000037,35.725547535264404,51.27430078867787,1450.0000726981089,7.495193906939448,-2.7083889006945583,-0.0,-2.2737367544323206e-12,-8.844494914228562e-08,0.0,74.99777777777405,70.0,0.0,255.0,0.0
36.25000000000037,35.72555091287024,51.27429929188645,1450.0000726981089,7.495193914020092,-2.708388907994049,-0.0,7.08064362697769e-08,-3.088644007220864e-08,0.0,74.49166666666298,70.0,0.0,255.0,0.0
36.300000000000374,35.72555429047607,51.2742977950949,1450.0000726981089,7.495193914020092,-2.7083889037832023,-0.0,-1.4162196748657152e-07,2.6658426577341743e-08,0.0,73.9855555555518,70.0,0.0,255.0,0.0
36.35000000000038,35.725557668081855,51.274296298303234,1450.0000726981089,7.495193899857895,-2.7083889053282064,-0.0,-7.08064362697769e-08,2.6658426577341743e-08,0.0,73.47944444444067,70.0,0.0,255.0,0.0
36.400000000000375,35.72556104568763,51.274294801511424,1450.0000726981089,7.495193906939448,-2.7083889011173596,-0.0,1.4162196748657152e-07,8.42157987790415e-08,0.0,72.9733333333296,70.0,0.0,255.0,0.0
36.45000000000037,35.72556442329339,51.274293304719514,1450.0000726971775,7.495193914020092,-2.7083888969066265,-0.0,1.4161514627630822e-07,-3.088985067734029e-08,0.0,72.46722222221848,70.0,0.0,255.0,0.0
36.50000000000038,35.72556780089912,51.274291807927455,1450.0000726990402,7.495193921100963,-2.7083889042063447,-0.0,7.081553121679462e-08,-8.843812793202233e-08,0.0,71.96111111110736,70.0,0.0,255.0,0.0
36.55000000000038,35.72557117850485,51.274290311135275,1450.0000726990402,7.495193921101645,-2.7083889057504393,-0.0,-2.1242613001959398e-07,2.6667521524359472e-08,0.0,71.45499999999618,70.0,0.0,255.0,0.0
36.60000000000038,35.725574556110544,51.274288814342974,1450.0000726971775,7.49519389985835,-2.7083889015395926,-0.0,-2.1243749870336615e-07,2.6666384655982256e-08,0.0,70.94888888888511,70.0,0.0,255.0,0.0
36.650000000000375,35.72557793371621,51.27428731755055,1450.0000726981089,7.495193899857895,-2.708388903083801,-0.0,1.416128725395538e-07,-3.088189259869978e-08,0.0,70.44277777777404,70.0,0.0,255.0,0.0
36.70000000000038,35.72558131132186,51.27428582075799,1450.0000726990402,7.495193914019637,-2.708388904627782,-0.0,1.4162424122332595e-07,-3.088416633545421e-08,0.0,69.93666666666286,70.0,0.0,255.0,0.0
36.750000000000384,35.725584688927505,51.27428432396531,1450.0000726971775,7.495193914020319,-2.7083889061722175,-0.0,-7.080188879626803e-08,2.6662974050850607e-08,0.0,69.43055555555173,70.0,0.0,255.0,0.0
36.80000000000038,35.725588066533106,51.27428282717249,1450.0000726990402,7.495193906939448,-2.7083889019614844,-0.0,0.0,2.6673205866245553e-08,0.0,68.92444444444061,70.0,0.0,255.0,0.0
36.85000000000038,35.72559144413869,51.27428133037956,1450.0000726981089,7.495193914020319,-2.708388903504897,-0.0,1.4161514627630822e-07,-3.087052391492762e-08,0.0,68.41833333332954,70.0,0.0,255.0,0.0
36.90000000000038,35.725594821744274,51.2742798335865,1450.0000726990402,7.495193921100963,-2.708388905048537,-0.0,-7.052676664898172e-08,2.656747710716445e-08,0.0,67.91222222221842,70.0,0.0,255.0,0.0
36.95000000000039,35.72559819934983,51.27427833679331,1450.0000726990402,7.495193906967643,-2.708388900848149,-0.0,-74.95193921188198,27.08388905080059,-10.000000000116387,67.40611111110724,70.0,0.0,255.0,0.0
37.0,35.72560157695536,51.27427683999999,1450.0000726971775,0.0,0.0,-1.0,80991.44120088239,-29148.6773613038,-580026.548828125,66.9,70.0,0.0,255.0,0.0
37.000000000000384,35.72560157695536,51.27427683999999,1450.0000726971775,3.107585531041418e-08,-1.1184145716374207e-08,-1.0000002225521714,80991.44120088387,-29148.67736130343,-580026.5488281252,66.90000000000056,70.0,0.0,255.0,0.0
37.05000000000038,35.72560255366179,51.274279656311734,1450.0664443811402,2.1673483405700154,5.09613954325323,-1.3274336283193406,21.673483165755353,50.961395451270754,-3.274334057653922,66.97172566371736,70.0,0.0,255.0,0.0
37.100000000000385,35.72560353036812,51.27428247262351,1450.1328160678968,2.1673483476511137,5.096139533942278,-1.3274336283175217,7.081325748004019e-08,-1.3552607924793847e-08,0.0,67.04345132743418,70.0,0.0,255.0,0.0
37.15000000000039,35.72560450707442,51.274285288935374,1450.1991877518594,2.167348347651341,5.096139541897969,-1.3274336283193406,7.081325748004019e-08,1.5911268747004215e-07,0.0,67.115176991151,70.0,0.0,255.0,0.0
37.20000000000039,35.725605483780654,51.274288105247294,1450.2655594348907,2.1673483547324395,5.096139549853547,-1.3274336283175217,7.08064362697769e-08,1.0155304153158795e-07,1.8189894035458565e-11,67.18690265486782,70.0,0.0,255.0,0.0
37.250000000000384,35.7256064604868,51.274290921559306,1450.3319311197847,2.1673483547319847,5.096139552053273,-1.3274336283175217,-1.4162651496008039e-07,-1.2866507859143894e-07,-1.8189894035458565e-11,67.25862831858463,70.0,0.0,255.0,0.0
37.30000000000039,35.72560743719289,51.27429373787138,1450.39830280561,2.167348340569788,5.096139536987039,-1.3274336283193406,4.547473508864641e-12,-1.2865712051279843e-07,-1.8189894035458565e-11,67.33035398230145,70.0,0.0,255.0,0.0
37.35000000000039,35.72560841389891,51.27429655418351,1450.4646744886413,2.1673483547324395,5.096139539187561,-1.3274336283193406,1.4162651496008039e-07,1.0156099961022846e-07,0.0,67.40207964601827,70.0,0.0,255.0,0.0
37.40000000000039,35.72560939060487,51.27429937049571,1450.531046172604,2.1673483547324395,5.096139547143139,-1.3274336283193406,-1.4162424122332595e-07,-1.355488166154828e-08,-1.8189894035458565e-11,67.47380530973508,70.0,0.0,255.0,0.0
37.45000000000039,35.725610367310765,51.27430218680798,1450.5974178565666,2.1673483405700154,5.096139537832073,-1.3274336283211596,-1.4162651496008039e-07,-7.111225386324804e-08,0.0,67.54553097345189,70.0,0.0,255.0,0.0
37.50000000000039,35.7256113440166,51.27430500312032,1450.663789542392,2.167348340569788,5.096139540031913,-1.3274336283193406,0.0,1.0155190466321073e-07,5.4569682106375694e-11,67.61725663716871,70.0,0.0,255.0,0.0
37.550000000000395,35.72561232072235,51.27430781943274,1450.7301612263545,2.1673483405700154,5.0961395479872635,-1.3274336283157027,1.4162651496008039e-07,4.400703801366035e-08,0.0,67.68898230088553,70.0,0.0,255.0,0.0
37.60000000000039,35.72561329742803,51.27431063574522,1450.7965329103172,2.1673483547324395,5.096139544432617,-1.3274336283193406,7.081325748004019e-08,-7.109974831109866e-08,-3.637978807091713e-11,67.76070796460233,70.0,0.0,255.0,0.0
37.65000000000039,35.725614274133676,51.27431345205777,1450.8629045942798,2.167348347651341,5.096139540877289,-1.3274336283193406,-1.4162651496008039e-07,-1.3559429135057144e-08,1.8189894035458565e-11,67.83243362831915,70.0,0.0,255.0,0.0
37.700000000000394,35.72561525083923,51.274316268370384,1450.9292762791738,2.167348340569788,5.096139543076674,-1.3274336283175217,7.080871000653133e-08,4.3999079935019836e-08,0.0,67.90415929203597,70.0,0.0,255.0,0.0
37.7500000000004,35.72561622754473,51.27431908468307,1450.9956479640678,2.167348354732212,5.096139545277197,-1.3274336283193406,1.4163106243358925e-07,4.4010448618792e-08,-1.8189894035458565e-11,67.97588495575279,70.0,0.0,255.0,0.0
37.800000000000395,35.72561720425016,51.27432190099583,1451.062019647099,2.1673483547328942,5.096139547477719,-1.3274336283193406,-7.080871000653133e-08,-1.3553744793171063e-08,1.8189894035458565e-11,68.0476106194696,70.0,0.0,255.0,0.0
37.85000000000039,35.72561818095553,51.27432471730866,1451.1283913329244,2.167348347651341,5.096139543921822,-1.3274336283175217,-1.4162878869683482e-07,-1.3563976608566009e-08,0.0,68.11933628318641,70.0,0.0,255.0,0.0
37.9000000000004,35.725619157660816,51.274327533621545,1451.1947630178183,2.1673483405700154,5.0961395461213215,-1.3274336283193406,7.081098374328576e-08,-1.3546923582907766e-08,0.0,68.19106194690323,70.0,0.0,255.0,0.0
37.9500000000004,35.72562013436605,51.27433034993451,1451.2611347008497,2.1673483547324395,5.09613954256713,-1.3274336283175217,7.081325748004019e-08,-7.108951649570372e-08,3.637978807091713e-11,68.26278761062005,70.0,0.0,255.0,0.0
38.0000000000004,35.72562111107122,51.27433316624754,1451.3275063829497,2.167348347651341,5.09613953901237,-1.3274336283157027,-1.4162424122332595e-07,-1.3550334188039415e-08,-1.8189894035458565e-11,68.33451327433686,70.0,0.0,255.0,0.0
38.050000000000395,35.72562208777632,51.274335982560636,1451.3938780697063,2.1673483405700154,5.0961395412120964,-1.3274336283193406,-4.547473508864641e-12,4.3993395593133755e-08,-3.637978807091713e-11,68.40623893805368,70.0,0.0,255.0,0.0
38.1000000000004,35.72562306448135,51.274338798873806,1451.460249753669,2.1673483476508864,5.096139543411709,-1.3274336283193406,0.0,4.3996806198265404e-08,0.0,68.4779646017705,70.0,0.0,255.0,0.0
38.150000000000404,35.725624041186315,51.27434161518704,1451.5266214385629,2.1673483405700154,5.096139545611777,-1.3274336283193406,2.2737367544323206e-12,-1.3543512977776118e-08,0.0,68.54969026548731,70.0,0.0,255.0,0.0
38.2000000000004,35.72562501789122,51.274344431500346,1451.5929931234568,2.1673483476511137,5.096139542057358,-1.3274336283193406,7.081553121679462e-08,-1.3543512977776118e-08,1.8189894035458565e-11,68.62141592920412,70.0,0.0,255.0,0.0
38.2500000000004,35.72562599459605,51.274347247813715,1451.6593648083508,2.1673483476515685,5.096139544257426,-1.3274336283175217,0.0,-1.3553744793171063e-08,1.8189894035458565e-11,68.69314159292092,70.0,0.0,255.0,0.0
38.3000000000004,35.72562697130082,51.27435006412716,1451.7257364913821,2.1673483476511137,5.096139540701984,-1.3274336283175217,7.080416253302246e-08,-1.355488166154828e-08,0.0,68.76486725663776,70.0,0.0,255.0,0.0
38.350000000000406,35.72562794800553,51.27435288044067,1451.7921081772074,2.1673483547319847,5.096139542901938,-1.3274336283175217,4.547473508864641e-12,1.015564521367196e-07,-1.8189894035458565e-11,68.83659292035458,70.0,0.0,255.0,0.0
38.400000000000404,35.725628924710165,51.27435569675425,1451.8584798593074,2.1673483476515685,5.096139550857629,-1.3274336283193406,-1.4162196748657152e-07,4.400703801366035e-08,-1.8189894035458565e-11,68.90831858407138,70.0,0.0,255.0,0.0
38.4500000000004,35.72562990141473,51.27435851306791,1451.9248515451327,2.167348340569788,5.096139547302641,-1.3274336283193406,-4.547473508864641e-12,-1.2865825738117564e-07,0.0,68.98004424778819,70.0,0.0,255.0,0.0
38.500000000000405,35.72563087811924,51.27436132938163,1451.991223228164,2.1673483476511137,5.096139537991803,-1.3274336283193406,1.4162651496008039e-07,-7.110315891623031e-08,0.0,69.051769911505,70.0,0.0,255.0,0.0
38.55000000000041,35.72563185482367,51.2743641456954,1452.0575949139893,2.1673483547324395,5.0961395401923255,-1.3274336283193406,4.547473508864641e-12,4.4013859223923646e-08,0.0,69.12349557522184,70.0,0.0,255.0,0.0
38.600000000000406,35.72563283152805,51.27436696200925,1452.1239665970206,2.1673483476515685,5.096139542393189,-1.3274336283193406,-7.081325748004019e-08,-1.3546923582907766e-08,0.0,69.19522123893864,70.0,0.0,255.0,0.0
38.650000000000404,35.72563380823236,51.27436977832319,1452.1903382837772,2.1673483476511137,5.096139538837633,-1.3274336283193406,7.080416253302246e-08,4.399112185637932e-08,0.0,69.26694690265545,70.0,0.0,255.0,0.0
38.70000000000041,35.72563478493658,51.27437259463718,1452.2567099668086,2.1673483547319847,5.096139546792301,-1.3274336283193406,7.080871000653133e-08,4.4004764276905917e-08,0.0,69.33867256637227,70.0,0.0,255.0,0.0
38.75000000000041,35.725635761640774,51.27437541095124,1452.3230816507712,2.1673483547319847,5.09613954323811,-1.3274336283193406,-2.1242613001959398e-07,-7.109179023245815e-08,3.637978807091713e-11,69.41039823008909,70.0,0.0,255.0,0.0
38.80000000000041,35.72563673834489,51.274378227265366,1452.3894533375278,2.1673483334893717,5.096139539683122,-1.3274336283157027,-2.1242613001959398e-07,1.0155417839996517e-07,1.8189894035458565e-11,69.4821238938059,70.0,0.0,255.0,0.0
38.850000000000406,35.72563771504892,51.27438104357957,1452.4558250196278,2.1673483334893717,5.096139553393527,-1.3274336283175217,1.416128725395538e-07,4.400021680339705e-08,-3.637978807091713e-11,69.55384955752271,70.0,0.0,255.0,0.0
38.90000000000041,35.72563869175288,51.274383859893845,1452.5221967035905,2.167348347650659,5.096139544083144,-1.3274336283193406,1.4161742001306266e-07,-1.8620539776748046e-07,0.0,69.62557522123953,70.0,0.0,255.0,0.0
38.950000000000415,35.72563966845679,51.27438667620817,1452.588568390347,2.1673483476511137,5.096139534772988,-1.3274336283175217,9.094947017729282e-12,4.4008174882037565e-08,0.0,69.69730088495635,70.0,0.0,255.0,0.0
39.00000000000041,35.72564064516064,51.27438949252258,1452.654940072447,2.1673483476515685,5.096139548483961,-1.3274336283193406,4.547473508864641e-12,1.0155758900509682e-07,-1.8189894035458565e-11,69.76902654867317,70.0,0.0,255.0,0.0
39.05000000000041,35.72564162186442,51.27439230883705,1452.7213117564097,2.1673483476515685,5.0961395449287465,-1.3274336283193406,7.080871000653133e-08,-1.28654846776044e-07,1.8189894035458565e-11,69.84075221238997,70.0,0.0,255.0,0.0
39.10000000000041,35.72564259856812,51.27439512515159,1452.7876834431663,2.1673483547324395,5.096139535618477,-1.3274336283175217,-9.094947017729282e-12,-1.354578671453055e-08,0.0,69.91247787610679,70.0,0.0,255.0,0.0
39.15000000000042,35.72564357527178,51.2743979414662,1452.8540551252663,2.167348347650659,5.096139543574168,-1.3274336283193406,0.0,1.015632733469829e-07,0.0,69.98420353982361,70.0,0.0,255.0,0.0
