t,lat,lon,alt,vx,vy,vz,ax,ay,az,yaw,mode,ledr,ledg,ledb
10.0,35.72405503590718,51.275000095494605,1379.9997719815,2.5517368413829537e-05,-7.98368421328621e-05,6.3157894736831635,5.684414392101006e-13,-2.276824562219527e-17,1.7941204077942275e-12,291.5,70.0,0.0,255.0,0.0
10.05,35.72405323179772,51.27499398300215,1380.315567263402,2.551736844225161e-05,-7.983684213286324e-05,6.315789473683253,2.842207263813179e-13,1.1368569930933492e-12,1.9092283309873892e-11,290.86473684210523,70.0,0.0,255.0,0.0
10.100000000000001,35.72405140870488,51.27498791251741,1380.6313626011834,2.551736844225161e-05,-7.98368420191764e-05,6.315789473685072,-5.684341886080801e-13,1.1368683772161603e-12,1.8189894035458565e-11,290.2294736842105,70.0,0.0,255.0,0.0
10.150000000000002,35.72404956700963,51.274981884295904,1380.947157989256,2.551736838540819e-05,-7.98368420191764e-05,6.315789473685072,-5.684341886080801e-13,-1.1368683772161603e-12,-1.8189894035458565e-11,289.59421052631575,70.0,0.0,255.0,0.0
10.200000000000003,35.724047707095224,51.274975898587954,1381.262953426689,2.551736838540819e-05,-7.983684213286324e-05,6.315789473683253,5.684341886080801e-13,-1.1368683772161603e-12,-1.8189894035458565e-11,288.95894736842104,70.0,0.0,255.0,0.0
10.250000000000004,35.72404582934713,51.274969955638674,1381.5787489162758,2.551736844225161e-05,-7.983684213286324e-05,6.315789473683253,5.684341886080801e-13,0.0,3.637978807091713e-11,288.32368421052627,70.0,0.0,255.0,0.0
10.300000000000004,35.72404393415304,51.27496405568789,1381.8945444542915,2.551736844225161e-05,-7.983684213286324e-05,6.315789473686891,-5.684341886080801e-13,1.1368683772161603e-12,1.8189894035458565e-11,287.6884210526315,70.0,0.0,255.0,0.0
10.350000000000005,35.72404202190278,51.27495819897018,1382.2103400360793,2.551736838540819e-05,-7.98368420191764e-05,6.315789473685072,-5.684341886080801e-13,1.1368683772161603e-12,-5.4569682106375694e-11,287.0531578947368,70.0,0.0,255.0,0.0
10.400000000000006,35.72404009298827,51.27495238571478,1382.5261356653646,2.551736838540819e-05,-7.98368420191764e-05,6.315789473681434,1.1368683772161603e-12,-1.1368683772161603e-12,-1.8189894035458565e-11,286.417894736842,70.0,0.0,255.0,0.0
10.450000000000006,35.724038147803476,51.27494661614559,1382.8419313374907,2.5517368499095028e-05,-7.983684213286324e-05,6.315789473683253,1.1368683772161603e-12,-1.1368683772161603e-12,5.4569682106375694e-11,285.7826315789473,70.0,0.0,255.0,0.0
10.500000000000007,35.72403618674438,51.27494089048114,1383.1577270552516,2.5517368499095028e-05,-7.983684213286324e-05,6.315789473686891,-1.1368683772161603e-12,0.0,3.637978807091713e-11,285.14736842105253,70.0,0.0,255.0,0.0
10.550000000000008,35.724034210208885,51.274935208934565,1383.4735228139907,2.551736838540819e-05,-7.983684213286324e-05,6.315789473686891,-5.684341886080801e-13,0.0,-3.637978807091713e-11,284.5121052631578,70.0,0.0,255.0,0.0
10.600000000000009,35.72403221859681,51.27492957171357,1383.7893186127767,2.551736844225161e-05,-7.983684213286324e-05,6.315789473683253,5.684341886080801e-13,0.0,-3.637978807091713e-11,283.87684210526305,70.0,0.0,255.0,0.0
10.65000000000001,35.72403021230987,51.274923979020414,1384.1051144506782,2.551736844225161e-05,-7.983684213286324e-05,6.315789473683253,-5.684341886080801e-13,0.0,0.0,283.2415789473683,70.0,0.0,255.0,0.0
10.70000000000001,35.72402819175152,51.27491843105191,1384.420910326764,2.551736838540819e-05,-7.983684213286324e-05,6.315789473683253,-5.684341886080801e-13,0.0,1.8189894035458565e-11,282.60631578947357,70.0,0.0,255.0,0.0
10.75000000000001,35.724026157326996,51.2749129279993,1384.7367062391713,2.551736838540819e-05,-7.983684213286324e-05,6.315789473685072,5.684341886080801e-13,0.0,1.8189894035458565e-11,281.9710526315788,70.0,0.0,255.0,0.0
10.800000000000011,35.72402410944325,51.27490747004838,1385.052502186969,2.551736844225161e-05,-7.983684213286324e-05,6.315789473685072,5.684341886080801e-13,0.0,-1.8189894035458565e-11,281.3357894736841,70.0,0.0,255.0,0.0
10.850000000000012,35.72402204850886,51.27490205737937,1385.3682981673628,2.551736844225161e-05,-7.983684213286324e-05,6.315789473683253,-5.684341886080801e-13,1.1368683772161603e-12,-1.8189894035458565e-11,280.7005263157893,70.0,0.0,255.0,0.0
10.900000000000013,35.72401997493402,51.27489669016693,1385.684094183147,2.551736838540819e-05,-7.98368420191764e-05,6.315789473683253,-5.684341886080801e-13,1.1368683772161603e-12,1.8189894035458565e-11,280.06526315789455,70.0,0.0,255.0,0.0
10.950000000000014,35.724017889130515,51.274891368580114,1385.9998902296647,2.551736838540819e-05,-7.98368420191764e-05,6.315789473685072,5.684341886080801e-13,-1.1368683772161603e-12,1.8189894035458565e-11,279.42999999999984,70.0,0.0,255.0,0.0
11.000000000000014,35.72401579151156,51.27488609278238,1386.3156863041222,2.551736844225161e-05,-7.983684213286324e-05,6.315789473685072,5.684341886080801e-13,-1.1368683772161603e-12,-1.8189894035458565e-11,278.79473684210507,70.0,0.0,255.0,0.0
11.050000000000015,35.72401368249191,51.27488086293157,1386.6314824093133,2.551736844225161e-05,-7.983684213286324e-05,6.315789473683253,-5.684341886080801e-13,0.0,-1.8189894035458565e-11,278.15947368421035,70.0,0.0,255.0,0.0
11.100000000000016,35.72401156248763,51.274875679179864,1386.9472785415128,2.551736838540819e-05,-7.983684213286324e-05,6.315789473683253,-5.684341886080801e-13,0.0,1.8189894035458565e-11,277.5242105263156,70.0,0.0,255.0,0.0
11.150000000000016,35.724009431916215,51.27487054167375,1387.2630746979266,2.551736838540819e-05,-7.983684213286324e-05,6.315789473685072,5.684341886080801e-13,0.0,1.8189894035458565e-11,276.8889473684209,70.0,0.0,255.0,0.0
11.200000000000017,35.7240072911964,51.27486545055409,1387.5788708804175,2.551736844225161e-05,-7.983684213286324e-05,6.315789473685072,5.684341886080801e-13,0.0,-1.8189894035458565e-11,276.2536842105261,70.0,0.0,255.0,0.0
11.250000000000018,35.724005140748204,51.274860405956,1387.8946670852602,2.551736844225161e-05,-7.983684213286324e-05,6.315789473683253,-5.684341886080801e-13,0.0,-1.8189894035458565e-11,275.61842105263133,70.0,0.0,255.0,0.0
11.300000000000018,35.7240029809928,51.27485540800887,1388.2104633152485,2.551736838540819e-05,-7.983684213286324e-05,6.315789473683253,-5.684341886080801e-13,0.0,0.0,274.9831578947366,70.0,0.0,255.0,0.0
11.35000000000002,35.72400081235259,51.2748504568364,1388.5262595620006,2.551736838540819e-05,-7.983684213286324e-05,6.315789473683253,5.684341886080801e-13,1.1368683772161603e-12,1.8189894035458565e-11,274.34789473684185,70.0,0.0,255.0,0.0
11.40000000000002,35.72399863525096,51.27484555255649,1388.8420558283105,2.551736844225161e-05,-7.98368420191764e-05,6.315789473685072,1.1368683772161603e-12,1.1368683772161603e-12,1.8189894035458565e-11,273.71263157894714,70.0,0.0,255.0,0.0
11.45000000000002,35.723996450112416,51.274840695281334,1389.1578521141782,2.5517368499095028e-05,-7.98368420191764e-05,6.315789473685072,0.0,-1.1368683772161603e-12,-1.8189894035458565e-11,273.07736842105237,70.0,0.0,255.0,0.0
11.500000000000021,35.72399425736243,51.27483588511726,1389.4736484168097,2.551736844225161e-05,-7.983684213286324e-05,6.315789473683253,-5.684341886080801e-13,-1.1368683772161603e-12,-1.8189894035458565e-11,272.4421052631576,70.0,0.0,255.0,0.0
11.550000000000022,35.723992057427374,51.27483112216488,1389.789444733411,2.551736844225161e-05,-7.983684213286324e-05,6.315789473683253,0.0,0.0,1.8189894035458565e-11,271.8068421052629,70.0,0.0,255.0,0.0
11.600000000000023,35.723989850734554,51.27482640651898,1390.1052410621196,2.551736844225161e-05,-7.983684213286324e-05,6.315789473685072,-5.684341886080801e-13,1.1368683772161603e-12,1.8189894035458565e-11,271.1715789473681,70.0,0.0,255.0,0.0
11.650000000000023,35.723987637712085,51.274821738268535,1390.421037407592,2.551736838540819e-05,-7.98368420191764e-05,6.315789473685072,-5.684341886080801e-13,1.1368683772161603e-12,-1.8189894035458565e-11,270.5363157894734,70.0,0.0,255.0,0.0
11.700000000000024,35.72398541878884,51.27481711749669,1390.7368337595835,2.551736838540819e-05,-7.98368420191764e-05,6.315789473683253,5.684341886080801e-13,-1.1368683772161603e-12,-1.8189894035458565e-11,269.90105263157864,70.0,0.0,255.0,0.0
11.750000000000025,35.723983194394485,51.27481254428073,1391.052630122751,2.551736844225161e-05,-7.983684213286324e-05,6.315789473683253,5.684341886080801e-13,-1.1368683772161603e-12,3.637978807091713e-11,269.26578947368387,70.0,0.0,255.0,0.0
11.800000000000026,35.72398096495926,51.27480801869212,1391.3684264943004,2.551736844225161e-05,-7.983684213286324e-05,6.315789473686891,-5.684341886080801e-13,0.0,1.8189894035458565e-11,268.63052631578915,70.0,0.0,255.0,0.0
11.850000000000026,35.7239787309141,51.27480354079647,1391.6842228760943,2.551736838540819e-05,-7.983684213286324e-05,6.315789473685072,-5.684341886080801e-13,0.0,-5.4569682106375694e-11,267.9952631578944,70.0,0.0,255.0,0.0
11.900000000000027,35.723976492690475,51.274799110653525,1392.0000192597508,2.551736838540819e-05,-7.983684213286324e-05,6.315789473681434,5.684341886080801e-13,0.0,-1.8189894035458565e-11,267.3599999999997,70.0,0.0,255.0,0.0
11.950000000000028,35.723974250720396,51.27479472831715,1392.3158156499267,2.551736844225161e-05,-7.983684213286324e-05,6.315789473683253,5.684341886080801e-13,0.0,1.8189894035458565e-11,266.7247368421049,70.0,0.0,255.0,0.0
12.000000000000028,35.723972005436295,51.27479039383535,1392.6316120410338,2.551736844225161e-05,-7.983684213286324e-05,6.315789473683253,-5.684341886080801e-13,0.0,3.637978807091713e-11,266.08947368421013,70.0,0.0,255.0,0.0
12.05000000000003,35.723969757271036,51.274786107250215,1392.9474084330723,2.551736838540819e-05,-7.983684213286324e-05,6.315789473686891,-5.684341886080801e-13,0.0,3.637978807091713e-11,265.4542105263154,70.0,0.0,255.0,0.0
12.10000000000003,35.72396750665783,51.274781868597984,1393.263204828836,2.551736838540819e-05,-7.983684213286324e-05,6.315789473686891,5.684341886080801e-13,0.0,-3.637978807091713e-11,264.81894736842065,70.0,0.0,255.0,0.0
12.15000000000003,35.72396525403019,51.274777677909,1393.5790012180805,2.551736844225161e-05,-7.983684213286324e-05,6.315789473683253,5.684341886080801e-13,1.1368683772161603e-12,-3.637978807091713e-11,264.18368421052594,70.0,0.0,255.0,0.0
12.200000000000031,35.723962999821886,51.274773535207665,1393.8947976091877,2.551736844225161e-05,-7.98368420191764e-05,6.315789473683253,-5.684341886080801e-13,1.1368683772161603e-12,1.8189894035458565e-11,263.54842105263117,70.0,0.0,255.0,0.0
12.250000000000032,35.72396074446685,51.27476944051255,1394.2105939956382,2.551736838540819e-05,-7.98368420191764e-05,6.315789473685072,-5.684341886080801e-13,-1.1368683772161603e-12,1.8189894035458565e-11,262.91315789473646,70.0,0.0,255.0,0.0
12.300000000000033,35.72395848839923,51.274765393836255,1394.526390377432,2.551736838540819e-05,-7.983684213286324e-05,6.315789473685072,5.684341886080801e-13,-1.1368683772161603e-12,-1.8189894035458565e-11,262.2778947368417,70.0,0.0,255.0,0.0
12.350000000000033,35.72395623205315,51.27476139518554,1394.8421867517754,2.551736844225161e-05,-7.983684213286324e-05,6.315789473683253,5.684341886080801e-13,0.0,-1.8189894035458565e-11,261.6426315789469,70.0,0.0,255.0,0.0
12.400000000000034,35.723953975862855,51.27475744456121,1395.1579831195995,2.551736844225161e-05,-7.983684213286324e-05,6.315789473683253,0.0,1.1368683772161603e-12,1.8189894035458565e-11,261.0073684210522,70.0,0.0,255.0,0.0
12.450000000000035,35.723951720262555,51.27475354195822,1395.4737794762477,2.551736844225161e-05,-7.98368420191764e-05,6.315789473685072,5.684341886080801e-13,1.1368683772161603e-12,1.8189894035458565e-11,260.37210526315744,70.0,0.0,255.0,0.0
12.500000000000036,35.72394946568636,51.274749687365556,1395.7895758235827,2.5517368499095028e-05,-7.98368420191764e-05,6.315789473685072,0.0,-1.1368683772161603e-12,-1.8189894035458565e-11,259.7368421052627,70.0,0.0,255.0,0.0
12.550000000000036,35.72394721256827,51.27474588076635,1396.1053721588105,2.551736844225161e-05,-7.983684213286324e-05,6.315789473683253,-1.1368683772161603e-12,-1.1368683772161603e-12,-1.8189894035458565e-11,259.10157894736795,70.0,0.0,255.0,0.0
12.600000000000037,35.723944961342106,51.27474212213782,1396.421168481931,2.551736838540819e-05,-7.983684213286324e-05,6.315789473683253,-5.684341886080801e-13,0.0,0.0,258.46631578947324,70.0,0.0,255.0,0.0
12.650000000000038,35.72394271244148,51.27473841145128,1396.7369647892192,2.551736838540819e-05,-7.983684213286324e-05,6.315789473683253,5.684341886080801e-13,0.0,1.8189894035458565e-11,257.8310526315785,70.0,0.0,255.0,0.0
12.700000000000038,35.72394046629966,51.27473474867219,1397.0527610806748,2.551736844225161e-05,-7.983684213286324e-05,6.315789473685072,5.684341886080801e-13,0.0,1.8189894035458565e-11,257.1957894736837,70.0,0.0,255.0,0.0
12.750000000000039,35.723938223349606,51.27473113376005,1397.3685573544353,2.551736844225161e-05,-7.983684213286324e-05,6.315789473685072,-5.684341886080801e-13,0.0,-1.8189894035458565e-11,256.560526315789,70.0,0.0,255.0,0.0
12.80000000000004,35.72393598402393,51.27472756666852,1397.684353611432,2.551736838540819e-05,-7.983684213286324e-05,6.315789473683253,-5.684341886080801e-13,0.0,-1.8189894035458565e-11,255.92526315789422,70.0,0.0,255.0,0.0
12.85000000000004,35.723933748754725,51.27472404734539,1398.0001498479396,2.551736838540819e-05,-7.983684213286324e-05,6.315789473683253,5.684341886080801e-13,0.0,1.8189894035458565e-11,255.28999999999948,70.0,0.0,255.0,0.0
12.900000000000041,35.723931517973625,51.27472057573256,1398.3159460630268,2.551736844225161e-05,-7.983684213286324e-05,6.315789473685072,5.684341886080801e-13,1.1368683772161603e-12,1.8189894035458565e-11,254.65473684210474,70.0,0.0,255.0,0.0
12.950000000000042,35.723929292111706,51.274717151766055,1398.6317422557622,2.551736844225161e-05,-7.98368420191764e-05,6.315789473685072,-5.684341886080801e-13,1.1368683772161603e-12,-1.8189894035458565e-11,254.01947368421,70.0,0.0,255.0,0.0
13.000000000000043,35.723927071599434,51.274713775376085,1398.9475384242833,2.551736838540819e-05,-7.98368420191764e-05,6.315789473683253,-5.684341886080801e-13,-1.1368683772161603e-12,-1.8189894035458565e-11,253.38421052631526,70.0,0.0,255.0,0.0
13.050000000000043,35.72392485686662,51.27471044648695,1399.263334571384,2.551736838540819e-05,-7.983684213286324e-05,6.315789473683253,5.684341886080801e-13,-1.1368683772161603e-12,1.8189894035458565e-11,252.7489473684205,70.0,0.0,255.0,0.0
13.100000000000044,35.723922648342366,51.27470716501717,1399.5791306896135,2.551736844225161e-05,-7.983684213286324e-05,6.315789473685072,5.684341886080801e-13,0.0,1.8189894035458565e-11,252.11368421052575,70.0,0.0,255.0,0.0
13.150000000000045,35.723920446455026,51.27470393087939,1399.8949267799035,2.551736844225161e-05,-7.983684213286324e-05,6.315789473685072,-5.684341886080801e-13,0.0,-1.8189894035458565e-11,251.478421052631,70.0,0.0,255.0,0.0
13.200000000000045,35.7239182516321,51.27470074398045,1400.2107228413224,2.551736838540819e-05,-7.983684213286324e-05,6.315789473683253,-5.684341886080801e-13,0.0,-1.8189894035458565e-11,250.84315789473627,70.0,0.0,255.0,0.0
13.250000000000046,35.72391606430024,51.274697604221416,1400.5265188748017,2.551736838540819e-05,-7.983684213286324e-05,6.315789473683253,5.684341886080801e-13,0.0,0.0,250.20789473684152,70.0,0.0,255.0,0.0
13.300000000000047,35.723913884885185,51.27469451149752,1400.8423148756847,2.551736844225161e-05,-7.983684213286324e-05,6.315789473683253,5.684341886080801e-13,0.0,3.637978807091713e-11,249.57263157894675,70.0,0.0,255.0,0.0
13.350000000000048,35.72391171381171,51.27469146569822,1401.1581108449027,2.551736844225161e-05,-7.983684213286324e-05,6.315789473686891,-5.684341886080801e-13,0.0,1.8189894035458565e-11,248.937368421052,70.0,0.0,255.0,0.0
13.400000000000048,35.723909551503525,51.274688466707204,1401.4739067796618,2.551736838540819e-05,-7.983684213286324e-05,6.315789473685072,5.684341886080801e-13,0.0,-5.4569682106375694e-11,248.30210526315727,70.0,0.0,255.0,0.0
13.450000000000049,35.723907398383304,51.27468551440242,1401.7897026790306,2.5517368499095028e-05,-7.983684213286324e-05,6.315789473681434,1.1368683772161603e-12,1.1368683772161603e-12,-1.8189894035458565e-11,247.66684210526253,70.0,0.0,255.0,0.0
13.50000000000005,35.72390525487255,51.274682608656065,1402.1054985439405,2.5517368499095028e-05,-7.98368420191764e-05,6.315789473683253,-1.1368683772161603e-12,1.1368683772161603e-12,5.4569682106375694e-11,247.0315789473678,70.0,0.0,255.0,0.0
13.55000000000005,35.72390312139162,51.27467974933461,1402.4212943706661,2.551736838540819e-05,-7.98368420191764e-05,6.315789473686891,-1.1368683772161603e-12,-1.1368683772161603e-12,3.637978807091713e-11,246.39631578947305,70.0,0.0,255.0,0.0
13.600000000000051,35.723900998359646,51.274676936298846,1402.737090157345,2.551736838540819e-05,-7.983684213286324e-05,6.315789473686891,5.684341886080801e-13,-1.1368683772161603e-12,-3.637978807091713e-11,245.7610526315783,70.0,0.0,255.0,0.0
13.650000000000052,35.72389888619443,51.274674169403816,1403.0528859077021,2.551736844225161e-05,-7.983684213286324e-05,6.315789473683253,5.684341886080801e-13,0.0,-3.637978807091713e-11,245.12578947368354,70.0,0.0,255.0,0.0
13.700000000000053,35.72389678531246,51.27467144849897,1403.3686816142872,2.551736844225161e-05,-7.983684213286324e-05,6.315789473683253,-5.684341886080801e-13,1.1368683772161603e-12,1.8189894035458565e-11,244.4905263157888,70.0,0.0,255.0,0.0
13.750000000000053,35.72389469612886,51.274668773428026,1403.684477279894,2.551736838540819e-05,-7.98368420191764e-05,6.315789473685072,-5.684341886080801e-13,1.1368683772161603e-12,1.8189894035458565e-11,243.85526315789406,70.0,0.0,255.0,0.0
13.800000000000054,35.7238926190573,51.27466614402914,1404.0002729007974,2.551736838540819e-05,-7.98368420191764e-05,6.315789473685072,5.684341886080801e-13,-1.1368683772161603e-12,-1.8189894035458565e-11,243.21999999999932,70.0,0.0,255.0,0.0
13.850000000000055,35.723890554509914,51.27466356013477,1404.3160684807226,2.551736844225161e-05,-7.983684213286324e-05,6.315789473683253,5.684341886080801e-13,-1.1368683772161603e-12,-1.8189894035458565e-11,242.58473684210458,70.0,0.0,255.0,0.0
13.900000000000055,35.72388850289738,51.27466102157187,1404.6318640131503,2.551736844225161e-05,-7.983684213286324e-05,6.315789473683253,-5.684341886080801e-13,0.0,0.0,241.9494736842098,70.0,0.0,255.0,0.0
13.950000000000056,35.723886464628755,51.274658528161766,1404.9476594952866,2.551736838540819e-05,-7.983684213286324e-05,6.315789473683253,-5.684341886080801e-13,0.0,1.8189894035458565e-11,241.31421052631507,70.0,0.0,255.0,0.0
14.000000000000057,35.7238844401114,51.27465607972022,1405.2634549345821,2.551736838540819e-05,-7.983684213286324e-05,6.315789473685072,5.684341886080801e-13,0.0,1.8189894035458565e-11,240.67894736842032,70.0,0.0,255.0,0.0
14.050000000000058,35.723882429751065,51.27465367605756,1405.5792503235862,2.551736844225161e-05,-7.983684213286324e-05,6.315789473685072,5.684341886080801e-13,0.0,-1.8189894035458565e-11,240.04368421052558,70.0,0.0,255.0,0.0
14.100000000000058,35.723880433951706,51.27465131697848,1405.8950456632301,2.551736844225161e-05,-7.983684213286324e-05,6.315789473683253,-5.684341886080801e-13,0.0,-1.8189894035458565e-11,239.40842105263084,70.0,0.0,255.0,0.0
14.150000000000059,35.72387845311553,51.274649002282274,1406.2108409488574,2.551736838540819e-05,-7.983684213286324e-05,6.315789473683253,-5.684341886080801e-13,0.0,1.8189894035458565e-11,238.77315789473607,70.0,0.0,255.0,0.0
14.20000000000006,35.72387648764287,51.274646731762765,1406.5266361851245,2.551736838540819e-05,-7.983684213286324e-05,6.315789473685072,5.684341886080801e-13,1.1368683772161603e-12,1.8189894035458565e-11,238.13789473684136,70.0,0.0,255.0,0.0
14.25000000000006,35.723874537932176,51.274644505208336,1406.8424313655123,2.551736844225161e-05,-7.98368420191764e-05,6.315789473685072,5.684341886080801e-13,1.1368683772161603e-12,-1.8189894035458565e-11,237.5026315789466,70.0,0.0,255.0,0.0
14.300000000000061,35.723872604380006,51.274642322401974,1407.158226493746,2.551736844225161e-05,-7.98368420191764e-05,6.315789473683253,-5.684341886080801e-13,-1.1368683772161603e-12,-1.8189894035458565e-11,236.86736842105185,70.0,0.0,255.0,0.0
14.350000000000062,35.72387068738084,51.2746401831213,1407.4740215642378,2.551736838540819e-05,-7.983684213286324e-05,6.315789473683253,-5.684341886080801e-13,-1.1368683772161603e-12,0.0,236.2321052631571,70.0,0.0,255.0,0.0
14.400000000000063,35.7238687873272,51.274638087138534,1407.7898165788502,2.551736838540819e-05,-7.983684213286324e-05,6.315789473683253,1.1368683772161603e-12,0.0,1.8189894035458565e-11,235.59684210526237,70.0,0.0,255.0,0.0
14.450000000000063,35.723866904609494,51.274636034220656,1408.1056115366518,2.5517368499095028e-05,-7.983684213286324e-05,6.315789473685072,1.1368683772161603e-12,0.0,1.8189894035458565e-11,234.96157894736763,70.0,0.0,255.0,0.0
14.500000000000064,35.72386503961604,51.27463402412927,1408.4214064376429,2.5517368499095028e-05,-7.983684213286324e-05,6.315789473685072,-1.1368683772161603e-12,1.1368683772161603e-12,-1.8189894035458565e-11,234.32631578947286,70.0,0.0,255.0,0.0
14.550000000000065,35.72386319273289,51.27463205662077,1408.737201275304,2.551736838540819e-05,-7.98368420191764e-05,6.315789473683253,-5.684341886080801e-13,1.1368683772161603e-12,-1.8189894035458565e-11,233.69105263157812,70.0,0.0,255.0,0.0
14.600000000000065,35.72386136434396,51.27463013144629,1409.0529960542917,2.551736844225161e-05,-7.98368420191764e-05,6.315789473683253,5.684341886080801e-13,-1.1368683772161603e-12,1.8189894035458565e-11,233.05578947368338,70.0,0.0,255.0,0.0
14.650000000000066,35.72385955483084,51.27462824835176,1409.3687907727435,2.551736844225161e-05,-7.983684213286324e-05,6.315789473685072,-5.684341886080801e-13,-1.1368683772161603e-12,1.8189894035458565e-11,232.42052631578863,70.0,0.0,255.0,0.0
14.700000000000067,35.72385776457281,51.27462640707795,1409.6845854260027,2.551736838540819e-05,-7.983684213286324e-05,6.315789473685072,-5.684341886080801e-13,0.0,-1.8189894035458565e-11,231.7852631578939,70.0,0.0,255.0,0.0
14.750000000000068,35.72385599394681,51.27462460736049,1410.000380015932,2.551736838540819e-05,-7.983684213286324e-05,6.315789473683253,5.684341886080801e-13,0.0,-1.8189894035458565e-11,231.14999999999912,70.0,0.0,255.0,0.0
14.800000000000068,35.723854243327324,51.274622848929894,1410.3161745416,2.551736844225161e-05,-7.983684213286324e-05,6.315789473683253,5.684341886080801e-13,0.0,3.637978807091713e-11,230.51473684210438,70.0,0.0,255.0,0.0
14.850000000000069,35.7238525130864,51.27462113151159,1410.6319690039381,2.551736844225161e-05,-7.983684213286324e-05,6.315789473686891,-5.684341886080801e-13,0.0,1.8189894035458565e-11,229.87947368420964,70.0,0.0,255.0,0.0
14.90000000000007,35.72385080359358,51.274619454825974,1410.9477633982897,2.551736838540819e-05,-7.983684213286324e-05,6.315789473685072,-5.684341886080801e-13,0.0,-5.4569682106375694e-11,229.2442105263149,70.0,0.0,255.0,0.0
14.95000000000007,35.72384911521585,51.274617818588446,1411.2635577246547,2.551736838540819e-05,-7.983684213286324e-05,6.315789473681434,5.684341886080801e-13,0.0,-1.8189894035458565e-11,228.60894736842016,70.0,0.0,255.0,0.0
15.000000000000071,35.7238474483176,51.274616222509415,1411.5793519839644,2.551736844225161e-05,-7.983684213286324e-05,6.315789473683253,5.684341886080801e-13,1.1368683772161603e-12,5.4569682106375694e-11,227.9736842105254,70.0,0.0,255.0,0.0
15.050000000000072,35.72384580326059,51.274614666294376,1411.8951461743563,2.551736844225161e-05,-7.98368420191764e-05,6.315789473686891,-5.684341886080801e-13,1.1368683772161603e-12,3.637978807091713e-11,227.33842105263068,70.0,0.0,255.0,0.0
15.100000000000072,35.72384418040388,51.27461314964391,1412.2109402939677,2.551736838540819e-05,-7.98368420191764e-05,6.315789473686891,-5.684341886080801e-13,-1.1368683772161603e-12,-3.637978807091713e-11,226.7031578947359,70.0,0.0,255.0,0.0
15.150000000000073,35.72384258010381,51.27461167225373,1412.5267343418673,2.551736838540819e-05,-7.983684213286324e-05,6.315789473683253,5.684341886080801e-13,-1.1368683772161603e-12,-3.637978807091713e-11,226.06789473684117,70.0,0.0,255.0,0.0
15.200000000000074,35.723841002713954,51.27461023381472,1412.842528318055,2.551736844225161e-05,-7.983684213286324e-05,6.315789473683253,5.684341886080801e-13,0.0,0.0,225.43263157894643,70.0,0.0,255.0,0.0
15.250000000000075,35.72383944858505,51.27460883401299,1413.1583222243935,2.551736844225161e-05,-7.983684213286324e-05,6.315789473683253,-5.684341886080801e-13,0.0,1.8189894035458565e-11,224.79736842105166,70.0,0.0,255.0,0.0
15.300000000000075,35.723837918064994,51.274607472529894,1413.4741160562262,2.551736838540819e-05,-7.983684213286324e-05,6.315789473685072,-5.684341886080801e-13,0.0,1.8189894035458565e-11,224.16210526315695,70.0,0.0,255.0,0.0
15.350000000000076,35.72383641149875,51.27460614904208,1413.789909813553,2.551736838540819e-05,-7.983684213286324e-05,6.315789473685072,5.684341886080801e-13,0.0,-1.8189894035458565e-11,223.52684210526218,70.0,0.0,255.0,0.0
15.400000000000077,35.7238349292284,51.2746048632215,1414.1057034945115,2.551736844225161e-05,-7.983684213286324e-05,6.315789473683253,1.1368683772161603e-12,0.0,-1.8189894035458565e-11,222.89157894736744,70.0,0.0,255.0,0.0
15.450000000000077,35.72383347159298,51.27460361473551,1414.4214971018955,2.5517368499095028e-05,-7.983684213286324e-05,6.315789473683253,0.0,0.0,1.8189894035458565e-11,222.2563157894727,70.0,0.0,255.0,0.0
15.500000000000078,35.723832038928514,51.27460240324689,1414.7372906310484,2.551736844225161e-05,-7.983684213286324e-05,6.315789473685072,-5.684341886080801e-13,1.1368683772161603e-12,1.8189894035458565e-11,221.62105263157795,70.0,0.0,255.0,0.0
15.550000000000079,35.72383063156796,51.27460122841379,1415.0530840856954,2.551736844225161e-05,-7.98368420191764e-05,6.315789473685072,0.0,1.1368683772161603e-12,-1.8189894035458565e-11,220.9857894736832,70.0,0.0,255.0,0.0
15.60000000000008,35.72382924984115,51.27460008988997,1415.3688774565235,2.551736844225161e-05,-7.98368420191764e-05,6.315789473683253,-5.684341886080801e-13,-1.1368683772161603e-12,-1.8189894035458565e-11,220.35052631578844,70.0,0.0,255.0,0.0
15.65000000000008,35.72382789407481,51.27459898732463,1415.6846707547083,2.551736838540819e-05,-7.983684213286324e-05,6.315789473683253,-5.684341886080801e-13,-1.1368683772161603e-12,0.0,219.71526315789373,70.0,0.0,255.0,0.0
15.700000000000081,35.72382656459242,51.27459792036259,1416.0004639709368,2.551736838540819e-05,-7.983684213286324e-05,6.315789473683253,5.684341886080801e-13,0.0,1.8189894035458565e-11,219.07999999999896,70.0,0.0,255.0,0.0
15.750000000000082,35.72382526171426,51.27459688864427,1416.3162571070716,2.551736844225161e-05,-7.983684213286324e-05,6.315789473685072,5.684341886080801e-13,0.0,1.8189894035458565e-11,218.44473684210422,70.0,0.0,255.0,0.0
15.800000000000082,35.723823985757335,51.27459589180582,1416.6320501621813,2.551736844225161e-05,-7.983684213286324e-05,6.315789473685072,-5.684341886080801e-13,1.1368683772161603e-12,-1.8189894035458565e-11,217.80947368420948,70.0,0.0,255.0,0.0
15.850000000000083,35.72382273703534,51.274594929479036,1416.9478431371972,2.551736838540819e-05,-7.98368420191764e-05,6.315789473683253,-5.684341886080801e-13,1.1368683772161603e-12,-1.8189894035458565e-11,217.1742105263147,70.0,0.0,255.0,0.0
15.900000000000084,35.7238215158586,51.27459400129149,1417.2636360274628,2.551736838540819e-05,-7.98368420191764e-05,6.315789473683253,5.684341886080801e-13,-1.1368683772161603e-12,1.8189894035458565e-11,216.53894736842,70.0,0.0,255.0,0.0
15.950000000000085,35.7238203225341,51.27459310686657,1417.5794288367033,2.551736844225161e-05,-7.983684213286324e-05,6.315789473685072,5.684341886080801e-13,-1.1368683772161603e-12,1.8189894035458565e-11,215.90368421052523,70.0,0.0,255.0,0.0
16.000000000000085,35.723819157365384,51.2745922458235,1417.8952215639874,2.551736844225161e-05,-7.983684213286324e-05,6.315789473685072,-5.684341886080801e-13,0.0,-1.8189894035458565e-11,215.2684210526305,70.0,0.0,255.0,0.0
16.050000000000086,35.72381802065247,51.274591417777415,1418.21101420559,2.551736838540819e-05,-7.983684213286324e-05,6.315789473683253,-5.684341886080801e-13,0.0,-1.8189894035458565e-11,214.63315789473575,70.0,0.0,255.0,0.0
16.100000000000087,35.72381691269199,51.274590622339375,1418.526806762442,2.551736838540819e-05,-7.983684213286324e-05,6.315789473683253,5.684341886080801e-13,0.0,1.8189894035458565e-11,213.997894736841,70.0,0.0,255.0,0.0
16.150000000000087,35.72381583377696,51.27458985911646,1418.8425992336124,2.551736844225161e-05,-7.983684213286324e-05,6.315789473685072,5.684341886080801e-13,0.0,1.8189894035458565e-11,213.36263157894626,70.0,0.0,255.0,0.0
16.200000000000088,35.723814784196854,51.27458912771174,1419.1583916228265,2.551736844225161e-05,-7.983684213286324e-05,6.315789473685072,-5.684341886080801e-13,0.0,-1.8189894035458565e-11,212.7273684210515,70.0,0.0,255.0,0.0
16.25000000000009,35.72381376423753,51.274588427724424,1419.4741839235649,2.551736838540819e-05,-7.983684213286324e-05,6.315789473683253,-5.684341886080801e-13,0.0,-1.8189894035458565e-11,212.09210526315678,70.0,0.0,255.0,0.0
16.30000000000009,35.723812774181205,51.27458775874986,1419.789976136759,2.551736838540819e-05,-7.983684213286324e-05,6.315789473683253,5.684341886080801e-13,1.1368683772161603e-12,0.0,211.456842105262,70.0,0.0,255.0,0.0
16.35000000000009,35.72381181430645,51.27458712037953,1420.1057682614774,2.551736844225161e-05,-7.98368420191764e-05,6.315789473683253,5.684341886080801e-13,1.1368683772161603e-12,3.637978807091713e-11,210.82157894736727,70.0,0.0,255.0,0.0
16.40000000000009,35.723810884888096,51.27458651220122,1420.4215603014454,2.551736844225161e-05,-7.98368420191764e-05,6.315789473686891,0.0,-1.1368683772161603e-12,1.8189894035458565e-11,210.18631578947253,70.0,0.0,255.0,0.0
16.45000000000009,35.7238099861972,51.27458593379894,1420.7373522510752,2.551736844225161e-05,-7.983684213286324e-05,6.315789473685072,5.684341886080801e-13,-1.1368683772161603e-12,-5.4569682106375694e-11,209.55105263157776,70.0,0.0,255.0,0.0
16.500000000000092,35.72380911850114,51.27458538475309,1421.0531441131607,2.5517368499095028e-05,-7.983684213286324e-05,6.315789473681434,0.0,0.0,-1.8189894035458565e-11,208.91578947368305,70.0,0.0,255.0,0.0
16.550000000000093,35.72380828206335,51.27458486464044,1421.3689358877018,2.551736844225161e-05,-7.983684213286324e-05,6.315789473683253,-1.1368683772161603e-12,1.1368683772161603e-12,5.4569682106375694e-11,208.28052631578828,70.0,0.0,255.0,0.0
16.600000000000094,35.72380747714354,51.27458437303421,1421.6847275719047,2.551736838540819e-05,-7.98368420191764e-05,6.315789473686891,-5.684341886080801e-13,1.1368683772161603e-12,3.637978807091713e-11,207.64526315789354,70.0,0.0,255.0,0.0
16.650000000000095,35.723806703997475,51.27458390950412,1422.0005191639066,2.551736838540819e-05,-7.98368420191764e-05,6.315789473686891,5.684341886080801e-13,-1.1368683772161603e-12,-3.637978807091713e-11,207.0099999999988,70.0,0.0,255.0,0.0
16.700000000000095,35.723805962877066,51.274583473616424,1422.3163106665015,2.551736844225161e-05,-7.983684213286324e-05,6.315789473683253,5.684341886080801e-13,-1.1368683772161603e-12,-3.637978807091713e-11,206.37473684210403,70.0,0.0,255.0,0.0
16.750000000000096,35.723805254030204,51.274583064933985,1422.6321020796895,2.551736844225161e-05,-7.983684213286324e-05,6.315789473683253,-5.684341886080801e-13,0.0,1.8189894035458565e-11,205.73947368420932,70.0,0.0,255.0,0.0
16.800000000000097,35.72380457770092,51.27458268301631,1422.9478934006765,2.551736838540819e-05,-7.983684213286324e-05,6.315789473685072,-5.684341886080801e-13,0.0,1.8189894035458565e-11,205.10421052631455,70.0,0.0,255.0,0.0
16.850000000000097,35.723803934129165,51.274582327419665,1423.263684630394,2.551736838540819e-05,-7.983684213286324e-05,6.315789473685072,5.684341886080801e-13,0.0,-1.8189894035458565e-11,204.4689473684198,70.0,0.0,255.0,0.0
16.900000000000098,35.72380332355089,51.27458199769702,1423.5794757688418,2.551736844225161e-05,-7.983684213286324e-05,6.315789473683253,5.684341886080801e-13,0.0,-1.8189894035458565e-11,203.83368421052506,70.0,0.0,255.0,0.0
16.9500000000001,35.72380274619802,51.274581693398176,1423.8952668169513,2.551736844225161e-05,-7.983684213286324e-05,6.315789473683253,-5.684341886080801e-13,0.0,0.0,203.19842105263032,70.0,0.0,255.0,0.0
17.0000000000001,35.72380220229833,51.27458141406984,1424.211057770066,2.551736838540819e-05,-7.983684213286324e-05,6.315789473683253,-5.684341886080801e-13,0.0,1.8189894035458565e-11,202.56315789473558,70.0,0.0,255.0,0.0
17.0500000000001,35.72380169207554,51.274581159255625,1424.5268486328423,2.551736838540819e-05,-7.983684213286324e-05,6.315789473685072,5.684341886080801e-13,0.0,1.8189894035458565e-11,201.9278947368408,70.0,0.0,255.0,0.0
17.1000000000001,35.72380121574922,51.27458092849615,1424.842639401555,2.551736844225161e-05,-7.983684213286324e-05,6.315789473685072,5.684341886080801e-13,1.1368683772161603e-12,-1.8189894035458565e-11,201.2926315789461,70.0,0.0,255.0,0.0
17.1500000000001,35.72380077353474,51.274580721329045,1425.1584300771356,2.551736844225161e-05,-7.98368420191764e-05,6.315789473683253,-5.684341886080801e-13,1.1368683772161603e-12,-1.8189894035458565e-11,200.65736842105133,70.0,0.0,255.0,0.0
17.200000000000102,35.723800365643314,51.27458053728907,1425.4742206595838,2.551736838540819e-05,-7.98368420191764e-05,6.315789473683253,-5.684341886080801e-13,-1.1368683772161603e-12,1.8189894035458565e-11,200.0221052631566,70.0,0.0,255.0,0.0
17.250000000000103,35.72379999228192,51.27458037590812,1425.7900111498311,2.551736838540819e-05,-7.983684213286324e-05,6.315789473685072,5.684341886080801e-13,-1.1368683772161603e-12,1.8189894035458565e-11,199.38684210526185,70.0,0.0,255.0,0.0
17.300000000000104,35.723799653653295,51.27458023671534,1426.1058015441522,2.551736844225161e-05,-7.983684213286324e-05,6.315789473685072,5.684341886080801e-13,0.0,-1.8189894035458565e-11,198.75157894736708,70.0,0.0,255.0,0.0
17.350000000000104,35.723799349955904,51.27458011923708,1426.4215918462723,2.551736844225161e-05,-7.983684213286324e-05,6.315789473683253,-5.684341886080801e-13,0.0,-1.8189894035458565e-11,198.11631578947237,70.0,0.0,255.0,0.0
17.400000000000105,35.72379908138391,51.2745800229971,1426.7373820533976,2.551736838540819e-05,-7.983684213286324e-05,6.315789473683253,5.684341886080801e-13,0.0,1.8189894035458565e-11,197.4810526315776,70.0,0.0,255.0,0.0
17.450000000000106,35.723798848127174,51.27457994751651,1427.053172168322,2.5517368499095028e-05,-7.983684213286324e-05,6.315789473685072,1.1368683772161603e-12,0.0,1.8189894035458565e-11,196.84578947368286,70.0,0.0,255.0,0.0
17.500000000000107,35.72379865037123,51.274579892313845,1427.36896218732,2.5517368499095028e-05,-7.983684213286324e-05,6.315789473685072,-1.1368683772161603e-12,0.0,-1.8189894035458565e-11,196.21052631578812,70.0,0.0,255.0,0.0
17.550000000000107,35.72379848829718,51.27457985690519,1427.6847521131858,2.551736838540819e-05,-7.983684213286324e-05,6.315789473683253,-1.1368683772161603e-12,0.0,-1.8189894035458565e-11,195.57526315789335,70.0,0.0,255.0,0.0
17.600000000000108,35.72379836208181,51.27457984080419,1428.000541944988,2.551736838540819e-05,-7.983684213286324e-05,6.315789473683253,5.684341886080801e-13,1.1368683772161603e-12,0.0,194.93999999999863,70.0,0.0,255.0,0.0
17.65000000000011,35.72379827189749,51.2745798435221,1428.3163316817954,2.551736844225161e-05,-7.98368420191764e-05,6.315789473683253,5.684341886080801e-13,1.1368683772161603e-12,1.8189894035458565e-11,194.30473684210386,70.0,0.0,255.0,0.0
17.70000000000011,35.723798217912126,51.27457986456787,1428.6321213245392,2.551736844225161e-05,-7.98368420191764e-05,6.315789473685072,-5.684341886080801e-13,-1.1368683772161603e-12,1.8189894035458565e-11,193.66947368420912,70.0,0.0,255.0,0.0
17.75000000000011,35.723798200289195,51.27457990344819,1428.9479108713567,2.551736838540819e-05,-7.983684213286324e-05,6.315789473685072,-5.684341886080801e-13,-1.1368683772161603e-12,-1.8189894035458565e-11,193.03421052631438,70.0,0.0,255.0,0.0
17.80000000000011,35.72379821918769,51.274579959667555,1429.2637003259733,2.551736838540819e-05,-7.983684213286324e-05,6.315789473683253,5.684341886080801e-13,0.0,-1.8189894035458565e-11,192.39894736841964,70.0,0.0,255.0,0.0
17.85000000000011,35.72379827476215,51.27458003272836,1429.5794896837324,2.551736844225161e-05,-7.983684213286324e-05,6.315789473683253,5.684341886080801e-13,1.1368683772161603e-12,3.637978807091713e-11,191.7636842105249,70.0,0.0,255.0,0.0
17.900000000000112,35.72379836716258,51.27458012213088,1429.8952789474279,2.551736844225161e-05,-7.98368420191764e-05,6.315789473686891,-5.684341886080801e-13,1.1368683772161603e-12,1.8189894035458565e-11,191.12842105263013,70.0,0.0,255.0,0.0
17.950000000000113,35.723798496534435,51.27458022737344,1430.2110681170598,2.551736838540819e-05,-7.98368420191764e-05,6.315789473685072,-5.684341886080801e-13,-1.1368683772161603e-12,-5.4569682106375694e-11,190.49315789473542,70.0,0.0,255.0,0.0
18.000000000000114,35.72379866301868,51.27458034795236,1430.5268571935594,2.551736838540819e-05,-7.983684213286324e-05,6.315789473681434,5.684341886080801e-13,-1.1368683772161603e-12,-1.8189894035458565e-11,189.85789473684065,70.0,0.0,255.0,0.0
18.050000000000114,35.72379886675166,51.27458048336211,1430.8426461750641,2.551736844225161e-05,-7.983684213286324e-05,6.315789473683253,5.684341886080801e-13,0.0,5.4569682106375694e-11,189.2226315789459,70.0,0.0,255.0,0.0
18.100000000000115,35.72379910786518,51.274580633095326,1431.1584350606427,2.551736844225161e-05,-7.983684213286324e-05,6.315789473686891,-5.684341886080801e-13,0.0,3.637978807091713e-11,188.58736842105117,70.0,0.0,255.0,0.0
18.150000000000116,35.72379938648644,51.27458079664289,1431.4742238540202,2.551736838540819e-05,-7.983684213286324e-05,6.315789473686891,-5.684341886080801e-13,0.0,-3.637978807091713e-11,187.9521052631564,70.0,0.0,255.0,0.0
18.200000000000117,35.72379970273802,51.274580973493975,1431.7900125551969,2.551736838540819e-05,-7.983684213286324e-05,6.315789473683253,5.684341886080801e-13,0.0,-3.637978807091713e-11,187.31684210526168,70.0,0.0,255.0,0.0
18.250000000000117,35.723800056737886,51.274581163136126,1432.105801159516,2.551736844225161e-05,-7.983684213286324e-05,6.315789473683253,5.684341886080801e-13,0.0,0.0,186.68157894736692,70.0,0.0,255.0,0.0
18.300000000000118,35.72380044859936,51.27458136505532,1432.4215896716341,2.551736844225161e-05,-7.983684213286324e-05,6.315789473683253,-5.684341886080801e-13,0.0,1.8189894035458565e-11,186.04631578947217,70.0,0.0,255.0,0.0
18.35000000000012,35.72380087843111,51.27458157873601,1432.7373780887574,2.551736838540819e-05,-7.983684213286324e-05,6.315789473685072,-5.684341886080801e-13,0.0,1.8189894035458565e-11,185.41105263157743,70.0,0.0,255.0,0.0
18.40000000000012,35.72380134633714,51.274581803661206,1433.0531664155424,2.551736838540819e-05,-7.983684213286324e-05,6.315789473685072,1.1368683772161603e-12,1.1368683772161603e-12,-1.8189894035458565e-11,184.7757894736827,70.0,0.0,255.0,0.0
18.45000000000012,35.72380185241677,51.27458203931257,1433.3689546482638,2.5517368499095028e-05,-7.98368420191764e-05,6.315789473683253,1.1368683772161603e-12,1.1368683772161603e-12,-1.8189894035458565e-11,184.14052631578795,70.0,0.0,255.0,0.0
18.50000000000012,35.7238023967646,51.2745822851704,1433.6847427859902,2.5517368499095028e-05,-7.98368420191764e-05,6.315789473683253,-1.1368683772161603e-12,-1.1368683772161603e-12,1.8189894035458565e-11,183.50526315789318,70.0,0.0,255.0,0.0
18.55000000000012,35.72380297947057,51.274582540713745,1434.0005308343098,2.551736838540819e-05,-7.983684213286324e-05,6.315789473685072,-5.684341886080801e-13,-1.1368683772161603e-12,1.8189894035458565e-11,182.86999999999847,70.0,0.0,255.0,0.0
18.600000000000122,35.723803600619895,51.27458280542049,1434.3163187876344,2.551736844225161e-05,-7.983684213286324e-05,6.315789473685072,5.684341886080801e-13,0.0,-1.8189894035458565e-11,182.2347368421037,70.0,0.0,255.0,0.0
18.650000000000123,35.72380426029304,51.27458307876739,1434.632106651552,2.551736844225161e-05,-7.983684213286324e-05,6.315789473683253,-5.684341886080801e-13,1.1368683772161603e-12,-1.8189894035458565e-11,181.59947368420896,70.0,0.0,255.0,0.0
18.700000000000124,35.72380495856575,51.2745833602301,1434.9478944204748,2.551736838540819e-05,-7.98368420191764e-05,6.315789473683253,-5.684341886080801e-13,1.1368683772161603e-12,1.8189894035458565e-11,180.96421052631422,70.0,0.0,255.0,0.0
18.750000000000124,35.72380569550906,51.274583649283336,1435.2636821018532,2.551736838540819e-05,-7.98368420191764e-05,6.315789473685072,5.684341886080801e-13,-1.1368683772161603e-12,1.8189894035458565e-11,180.32894736841945,70.0,0.0,255.0,0.0
18.800000000000125,35.72380647118915,51.274583945400835,1435.5794696910307,2.551736844225161e-05,-7.983684213286324e-05,6.315789473685072,5.684341886080801e-13,-1.1368683772161603e-12,-1.8189894035458565e-11,179.69368421052474,70.0,0.0,255.0,0.0
18.850000000000126,35.723807285667554,51.27458424805547,1435.8952571880072,2.551736844225161e-05,-7.983684213286324e-05,6.315789473683253,-5.684341886080801e-13,0.0,-1.8189894035458565e-11,179.05842105262997,70.0,0.0,255.0,0.0
18.900000000000126,35.72380813900096,51.274584556719326,1436.2110445965081,2.551736838540819e-05,-7.983684213286324e-05,6.315789473683253,-5.684341886080801e-13,0.0,0.0,178.42315789473523,70.0,0.0,255.0,0.0
18.950000000000127,35.72380903124132,51.27458487086375,1436.5268319137394,2.551736838540819e-05,-7.983684213286324e-05,6.315789473683253,5.684341886080801e-13,0.0,1.8189894035458565e-11,177.78789473684049,70.0,0.0,255.0,0.0
19.000000000000128,35.72380996243581,51.27458518995942,1436.8426191406325,2.551736844225161e-05,-7.983684213286324e-05,6.315789473685072,5.684341886080801e-13,0.0,1.8189894035458565e-11,177.15263157894572,70.0,0.0,255.0,0.0
19.05000000000013,35.72381093262675,51.27458551347635,1437.1584062809125,2.551736844225161e-05,-7.983684213286324e-05,6.315789473685072,-5.684341886080801e-13,0.0,-1.8189894035458565e-11,176.517368421051,70.0,0.0,255.0,0.0
19.10000000000013,35.723811941851764,51.27458584088411,1437.4741933308542,2.551736838540819e-05,-7.983684213286324e-05,6.315789473683253,-5.684341886080801e-13,0.0,-1.8189894035458565e-11,175.88210526315623,70.0,0.0,255.0,0.0
19.15000000000013,35.723812990143585,51.2745861716517,1437.7899802932516,2.551736838540819e-05,-7.983684213286324e-05,6.315789473683253,5.684341886080801e-13,1.1368683772161603e-12,1.8189894035458565e-11,175.2468421052615,70.0,0.0,255.0,0.0
19.20000000000013,35.72381407753019,51.274586505247775,1438.1057671699673,2.551736844225161e-05,-7.98368420191764e-05,6.315789473685072,5.684341886080801e-13,1.1368683772161603e-12,1.8189894035458565e-11,174.61157894736675,70.0,0.0,255.0,0.0
19.25000000000013,35.72381520403477,51.27458684114058,1438.4215539563447,2.551736844225161e-05,-7.98368420191764e-05,6.315789473685072,-5.684341886080801e-13,-1.1368683772161603e-12,-1.8189894035458565e-11,173.976315789472,70.0,0.0,255.0,0.0
19.300000000000132,35.72381636967566,51.27458717879813,1438.7373406579718,2.551736838540819e-05,-7.983684213286324e-05,6.315789473683253,-5.684341886080801e-13,-1.1368683772161603e-12,-1.8189894035458565e-11,173.34105263157727,70.0,0.0,255.0,0.0
19.350000000000133,35.723817574466416,51.27458751768819,1439.0531272729859,2.551736838540819e-05,-7.983684213286324e-05,6.315789473683253,5.684341886080801e-13,0.0,3.637978807091713e-11,172.7057894736825,70.0,0.0,255.0,0.0
19.400000000000134,35.72381881841577,51.2745878572784,1439.3689138023183,2.551736844225161e-05,-7.983684213286324e-05,6.315789473686891,1.1368683772161603e-12,0.0,1.8189894035458565e-11,172.0705263157878,70.0,0.0,255.0,0.0
19.450000000000134,35.72382010152763,51.27458819703627,1439.684700245969,2.5517368499095028e-05,-7.983684213286324e-05,6.315789473685072,0.0,0.0,-5.4569682106375694e-11,171.43526315789302,70.0,0.0,255.0,0.0
19.500000000000135,35.72382142380114,51.27458853642936,1440.000486603938,2.551736844225161e-05,-7.983684213286324e-05,6.315789473681434,-5.684341886080801e-13,0.0,-1.8189894035458565e-11,170.79999999999828,70.0,0.0,255.0,0.0
19.550000000000136,35.72382278523053,51.27458887492522,1440.3162728790194,2.551736844225161e-05,-7.983684213286324e-05,6.315789473683253,0.0,0.0,1.8189894035458565e-11,170.16473684210354,70.0,0.0,255.0,0.0
19.600000000000136,35.723824185805334,51.27458921199151,1440.6320590721443,2.551736844225161e-05,-7.983684213286324e-05,6.315789473683253,-5.684341886080801e-13,0.0,3.637978807091713e-11,169.52947368420877,70.0,0.0,255.0,0.0
19.650000000000137,35.7238256255102,51.27458954709609,1440.9478451823816,2.551736838540819e-05,-7.983684213286324e-05,6.315789473686891,-5.684341886080801e-13,0.0,3.637978807091713e-11,168.89421052631405,70.0,0.0,255.0,0.0
19.700000000000138,35.72382710432497,51.274589879707044,1441.2636312115937,2.551736838540819e-05,-7.983684213286324e-05,6.315789473686891,5.684341886080801e-13,1.1368683772161603e-12,-3.637978807091713e-11,168.25894736841929,70.0,0.0,255.0,0.0
19.75000000000014,35.723828622224694,51.27459020929279,1441.5794171560556,2.551736844225161e-05,-7.98368420191764e-05,6.315789473683253,5.684341886080801e-13,1.1368683772161603e-12,-3.637978807091713e-11,167.62368421052454,70.0,0.0,255.0,0.0
19.80000000000014,35.72383017917964,51.27459053532208,1441.8952030204237,2.551736844225161e-05,-7.98368420191764e-05,6.315789473683253,-5.684341886080801e-13,-1.1368683772161603e-12,1.8189894035458565e-11,166.9884210526298,70.0,0.0,255.0,0.0
19.85000000000014,35.723831775155226,51.274590857264116,1442.2109888065606,2.551736838540819e-05,-7.983684213286324e-05,6.315789473685072,-5.684341886080801e-13,-1.1368683772161603e-12,1.8189894035458565e-11,166.35315789473503,70.0,0.0,255.0,0.0
19.90000000000014,35.7238334101121,51.27459117458863,1442.5267745116726,2.551736838540819e-05,-7.983684213286324e-05,6.315789473685072,5.684341886080801e-13,0.0,-1.8189894035458565e-11,165.71789473684032,70.0,0.0,255.0,0.0
19.95000000000014,35.72383508400614,51.274591486765864,1442.8425601385534,2.551736844225161e-05,-7.983684213286324e-05,6.315789473683253,5.684341886080801e-13,1.1368683772161603e-12,-1.8189894035458565e-11,165.08263157894555,70.0,0.0,255.0,0.0
20.000000000000142,35.72383679678837,51.274591793266765,1443.158345687203,2.551736844225161e-05,-7.98368420191764e-05,6.315789473683253,-5.684341886080801e-13,1.1368683772161603e-12,1.8189894035458565e-11,164.4473684210508,70.0,0.0,255.0,0.0
20.050000000000143,35.723838548405105,51.27459209356292,1443.474131158553,2.551736838540819e-05,-7.98368420191764e-05,6.315789473685072,-5.684341886080801e-13,-1.1368683772161603e-12,1.8189894035458565e-11,163.81210526315607,70.0,0.0,255.0,0.0
20.100000000000144,35.723840338797864,51.27459238712672,1443.7899165553972,2.551736838540819e-05,-7.983684213286324e-05,6.315789473685072,5.684341886080801e-13,-1.1368683772161603e-12,-1.8189894035458565e-11,163.17684210526133,70.0,0.0,255.0,0.0
20.150000000000144,35.72384216790337,51.27459267343132,1444.1057018740103,2.551736844225161e-05,-7.983684213286324e-05,6.315789473683253,5.684341886080801e-13,0.0,-1.8189894035458565e-11,162.5415789473666,70.0,0.0,255.0,0.0
20.200000000000145,35.723844035653634,51.274592951950865,1444.4214871190488,2.551736844225161e-05,-7.983684213286324e-05,6.315789473683253,-5.684341886080801e-13,0.0,0.0,161.90631578947185,70.0,0.0,255.0,0.0
20.250000000000146,35.723845941975874,51.274593222160355,1444.7372722886503,2.551736838540819e-05,-7.983684213286324e-05,6.315789473683253,-5.684341886080801e-13,0.0,1.8189894035458565e-11,161.27105263157708,70.0,0.0,255.0,0.0
20.300000000000146,35.7238478867926,51.2745934835359,1445.0530573874712,2.551736838540819e-05,-7.983684213286324e-05,6.315789473685072,5.684341886080801e-13,0.0,1.8189894035458565e-11,160.63578947368234,70.0,0.0,255.0,0.0
20.350000000000147,35.72384987002155,51.27459373555462,1445.3688424117863,2.551736844225161e-05,-7.983684213286324e-05,6.315789473685072,5.684341886080801e-13,0.0,-1.8189894035458565e-11,160.0005263157876,70.0,0.0,255.0,0.0
20.400000000000148,35.7238518915758,51.27459397769484,1445.6846273634583,2.551736844225161e-05,-7.983684213286324e-05,6.315789473683253,0.0,0.0,-1.8189894035458565e-11,159.36526315789285,70.0,0.0,255.0,0.0
20.45000000000015,35.723853951363644,51.27459420943607,1446.0004122462124,2.551736844225161e-05,-7.983684213286324e-05,6.315789473683253,5.684341886080801e-13,1.1368683772161603e-12,1.8189894035458565e-11,158.7299999999981,70.0,0.0,255.0,0.0
20.50000000000015,35.723856049288756,51.27459443025911,1446.3161970591173,2.5517368499095028e-05,-7.98368420191764e-05,6.315789473685072,0.0,1.1368683772161603e-12,1.8189894035458565e-11,158.09473684210334,70.0,0.0,255.0,0.0
20.55000000000015,35.723858185250016,51.27459463964612,1446.6319818003103,2.551736844225161e-05,-7.98368420191764e-05,6.315789473685072,-1.1368683772161603e-12,-1.1368683772161603e-12,-1.8189894035458565e-11,157.4594736842086,70.0,0.0,255.0,0.0
20.60000000000015,35.723860359141746,51.2745948370806,1446.9477664744481,2.551736838540819e-05,-7.983684213286324e-05,6.315789473683253,-5.684341886080801e-13,-1.1368683772161603e-12,-1.8189894035458565e-11,156.82421052631386,70.0,0.0,255.0,0.0
20.65000000000015,35.72386257085351,51.27459502204762,1447.2635510833934,2.551736838540819e-05,-7.983684213286324e-05,6.315789473683253,5.684341886080801e-13,0.0,1.8189894035458565e-11,156.18894736841912,70.0,0.0,255.0,0.0
20.700000000000152,35.72386482027027,51.27459519403368,1447.5793356252834,2.551736844225161e-05,-7.983684213286324e-05,6.315789473685072,5.684341886080801e-13,0.0,1.8189894035458565e-11,155.55368421052438,70.0,0.0,255.0,0.0
20.750000000000153,35.723867107272376,51.27459535252696,1447.8951201001182,2.551736844225161e-05,-7.983684213286324e-05,6.315789473685072,-5.684341886080801e-13,1.1368683772161603e-12,-1.8189894035458565e-11,154.91842105262964,70.0,0.0,255.0,0.0
20.800000000000153,35.72386943173549,51.27459549701722,1448.2109045106918,2.551736838540819e-05,-7.98368420191764e-05,6.315789473683253,-5.684341886080801e-13,1.1368683772161603e-12,-1.8189894035458565e-11,154.28315789473487,70.0,0.0,255.0,0.0
20.850000000000154,35.72387179353072,51.27459562699605,1448.526688859798,2.551736838540819e-05,-7.98368420191764e-05,6.315789473683253,5.684341886080801e-13,-1.1368683772161603e-12,0.0,153.64789473684013,70.0,0.0,255.0,0.0
20.900000000000155,35.723874192524555,51.27459574195669,1448.842473144643,2.551736844225161e-05,-7.983684213286324e-05,6.315789473683253,5.684341886080801e-13,-1.1368683772161603e-12,3.637978807091713e-11,153.0126315789454,70.0,0.0,255.0,0.0
20.950000000000156,35.72387662857894,51.27459584139433,1449.1582573680207,2.551736844225161e-05,-7.983684213286324e-05,6.315789473686891,-5.684341886080801e-13,0.0,1.8189894035458565e-11,152.37736842105065,70.0,0.0,255.0,0.0
21.000000000000156,35.72387910155126,51.27459592480601,1449.4740415317938,2.551736838540819e-05,-7.983684213286324e-05,6.315789473685072,-5.684341886080801e-13,0.0,-5.4569682106375694e-11,151.7421052631559,70.0,0.0,255.0,0.0
21.050000000000157,35.72388161129434,51.27459599169078,1449.7898256350309,2.551736838540819e-05,-7.983684213286324e-05,6.315789473681434,5.684341886080801e-13,0.0,-1.8189894035458565e-11,151.10684210526117,70.0,0.0,255.0,0.0
21.100000000000158,35.723884157656485,51.27459604154971,1450.105609677732,2.551736844225161e-05,-7.983684213286324e-05,6.315789473683253,5.684341886080801e-13,0.0,5.4569682106375694e-11,150.4715789473664,70.0,0.0,255.0,0.0
21.15000000000016,35.723886740481525,51.274596073885924,1450.4213936673477,2.551736844225161e-05,-7.983684213286324e-05,6.315789473686891,-5.684341886080801e-13,0.0,3.637978807091713e-11,149.83631578947166,70.0,0.0,255.0,0.0
21.20000000000016,35.7238893596088,51.27459608820475,1450.7371775973588,2.551736838540819e-05,-7.983684213286324e-05,6.315789473686891,-5.684341886080801e-13,0.0,-3.637978807091713e-11,149.2010526315769,70.0,0.0,255.0,0.0
21.25000000000016,35.72389201487316,51.27459608401373,1451.0529614742845,2.551736838540819e-05,-7.983684213286324e-05,6.315789473683253,5.684341886080801e-13,1.1368683772161603e-12,-3.637978807091713e-11,148.56578947368217,70.0,0.0,255.0,0.0
21.30000000000016,35.72389470610505,51.27459606082263,1451.368745292537,2.551736844225161e-05,-7.98368420191764e-05,6.315789473683253,5.684341886080801e-13,1.1368683772161603e-12,0.0,147.93052631578743,70.0,0.0,255.0,0.0
21.35000000000016,35.72389743313045,51.27459601814363,1451.6845290604979,2.551736844225161e-05,-7.98368420191764e-05,6.315789473683253,-5.684341886080801e-13,-1.1368683772161603e-12,1.8189894035458565e-11,147.2952631578927,70.0,0.0,255.0,0.0
21.400000000000162,35.72390019577101,51.27459595549122,1452.000312777236,2.551736838540819e-05,-7.983684213286324e-05,6.315789473685072,5.684341886080801e-13,-1.1368683772161603e-12,1.8189894035458565e-11,146.65999999999792,70.0,0.0,255.0,0.0
21.450000000000163,35.72390299384393,51.27459587238241,1452.316096440889,2.5517368499095028e-05,-7.983684213286324e-05,6.315789473685072,1.1368683772161603e-12,0.0,-1.8189894035458565e-11,146.02473684210318,70.0,0.0,255.0,0.0
21.500000000000163,35.72390582716208,51.27459576833669,1452.6318800551817,2.5517368499095028e-05,-7.983684213286324e-05,6.315789473683253,-1.1368683772161603e-12,0.0,-1.8189894035458565e-11,145.38947368420844,70.0,0.0,255.0,0.0
21.550000000000164,35.723908695534014,51.27459564287615,1452.9476636201143,2.551736838540819e-05,-7.983684213286324e-05,6.315789473683253,-1.1368683772161603e-12,0.0,1.8189894035458565e-11,144.7542105263137,70.0,0.0,255.0,0.0
21.600000000000165,35.723911598763955,51.27459549552548,1453.2634471384808,2.551736838540819e-05,-7.983684213286324e-05,6.315789473685072,5.684341886080801e-13,0.0,1.8189894035458565e-11,144.11894736841896,70.0,0.0,255.0,0.0
21.650000000000166,35.72391453665183,51.274595325812086,1453.57923060935,2.551736844225161e-05,-7.983684213286324e-05,6.315789473685072,5.684341886080801e-13,0.0,-1.8189894035458565e-11,143.4836842105242,70.0,0.0,255.0,0.0
21.700000000000166,35.72391750899336,51.27459513326612,1453.8950140345842,2.551736844225161e-05,-7.983684213286324e-05,6.315789473683253,-5.684341886080801e-13,0.0,-1.8189894035458565e-11,142.84842105262945,70.0,0.0,255.0,0.0
21.750000000000167,35.72392051557998,51.27459491742053,1454.210797415115,2.551736838540819e-05,-7.983684213286324e-05,6.315789473683253,-5.684341886080801e-13,1.1368683772161603e-12,1.8189894035458565e-11,142.2131578947347,70.0,0.0,255.0,0.0
21.800000000000168,35.72392355619892,51.27459467781112,1454.5265807537362,2.551736838540819e-05,-7.98368420191764e-05,6.315789473685072,5.684341886080801e-13,1.1368683772161603e-12,1.8189894035458565e-11,141.57789473683997,70.0,0.0,255.0,0.0
21.85000000000017,35.72392663063326,51.27459441397668,1454.842364047654,2.551736844225161e-05,-7.98368420191764e-05,6.315789473685072,5.684341886080801e-13,-1.1368683772161603e-12,-1.8189894035458565e-11,140.94263157894522,70.0,0.0,255.0,0.0
21.90000000000017,35.72392973866187,51.274594125458876,1455.1581473033875,2.551736844225161e-05,-7.983684213286324e-05,6.315789473683253,-5.684341886080801e-13,-1.1368683772161603e-12,-1.8189894035458565e-11,140.30736842105048,70.0,0.0,255.0,0.0
21.95000000000017,35.72393288005955,51.274593811802475,1455.4739305172116,2.551736838540819e-05,-7.983684213286324e-05,6.315789473683253,-5.684341886080801e-13,0.0,1.8189894035458565e-11,139.67210526315571,70.0,0.0,255.0,0.0
22.00000000000017,35.72393605459694,51.27459347255533,1455.7897136956453,2.551736838540819e-05,-7.983684213286324e-05,6.315789473685072,5.684341886080801e-13,0.0,1.8189894035458565e-11,139.03684210526097,70.0,0.0,255.0,0.0
22.05000000000017,35.723939262040645,51.274593107268416,1456.1054968321696,2.551736844225161e-05,-7.983684213286324e-05,6.315789473685072,5.684341886080801e-13,1.1368683772161603e-12,-1.8189894035458565e-11,138.40157894736623,70.0,0.0,255.0,0.0
22.100000000000172,35.72394250215322,51.27459271549594,1456.4212799379602,2.551736844225161e-05,-7.98368420191764e-05,6.315789473683253,-5.684341886080801e-13,1.1368683772161603e-12,-1.8189894035458565e-11,137.7663157894715,70.0,0.0,255.0,0.0
22.150000000000173,35.723945774693206,51.274592296795326,1456.7370630074292,2.551736838540819e-05,-7.98368420191764e-05,6.315789473683253,-5.684341886080801e-13,-1.1368683772161603e-12,0.0,137.13105263157675,70.0,0.0,255.0,0.0
22.200000000000173,35.72394907941512,51.27459185072733,1457.0528460424393,2.551736838540819e-05,-7.983684213286324e-05,6.315789473683253,5.684341886080801e-13,-1.1368683772161603e-12,1.8189894035458565e-11,136.495789473682,70.0,0.0,255.0,0.0
22.250000000000174,35.72395241606957,51.27459137685608,1457.3686290439218,2.551736844225161e-05,-7.983684213286324e-05,6.315789473685072,5.684341886080801e-13,0.0,1.8189894035458565e-11,135.86052631578724,70.0,0.0,255.0,0.0
22.300000000000175,35.72395578440323,51.2745908747491,1457.6844120146707,2.551736844225161e-05,-7.983684213286324e-05,6.315789473685072,-5.684341886080801e-13,0.0,-1.8189894035458565e-11,135.2252631578925,70.0,0.0,255.0,0.0
22.350000000000176,35.72395918415886,51.27459034397743,1458.0001949574798,2.551736838540819e-05,-7.983684213286324e-05,6.315789473683253,-5.684341886080801e-13,0.0,-1.8189894035458565e-11,134.58999999999776,70.0,0.0,255.0,0.0
22.400000000000176,35.723962615075365,51.27458978411558,1458.3159778695554,2.551736838540819e-05,-7.983684213286324e-05,6.315789473683253,1.1368683772161603e-12,0.0,3.637978807091713e-11,133.95473684210302,70.0,0.0,255.0,0.0
22.450000000000177,35.72396607688783,51.27458919474165,1458.6317607546225,2.5517368499095028e-05,-7.983684213286324e-05,6.315789473686891,1.1368683772161603e-12,0.0,1.8189894035458565e-11,133.31947368420828,70.0,0.0,255.0,0.0
22.500000000000178,35.723969569327544,51.27458857543738,1458.9475436136127,2.5517368499095028e-05,-7.983684213286324e-05,6.315789473685072,-1.1368683772161603e-12,0.0,-5.4569682106375694e-11,132.68421052631354,70.0,0.0,255.0,0.0
22.55000000000018,35.72397309212201,51.27458792578818,1459.2633264493197,2.551736838540819e-05,-7.983684213286324e-05,6.315789473681434,-5.684341886080801e-13,1.1368683772161603e-12,-1.8189894035458565e-11,132.04894736841877,70.0,0.0,255.0,0.0
22.60000000000018,35.72397664499499,51.274587245383216,1459.5791092589498,2.551736844225161e-05,-7.98368420191764e-05,6.315789473683253,5.684341886080801e-13,1.1368683772161603e-12,1.8189894035458565e-11,131.41368421052402,70.0,0.0,255.0,0.0
22.65000000000018,35.72398022766658,51.2745865338154,1459.894892049022,2.551736844225161e-05,-7.98368420191764e-05,6.315789473683253,-5.684341886080801e-13,-1.1368683772161603e-12,3.637978807091713e-11,130.77842105262928,70.0,0.0,255.0,0.0
22.70000000000018,35.72398383985325,51.27458579068148,1460.2106748158112,2.551736838540819e-05,-7.983684213286324e-05,6.315789473686891,-5.684341886080801e-13,-1.1368683772161603e-12,3.637978807091713e-11,130.14315789473454,70.0,0.0,255.0,0.0
22.75000000000018,35.723987481267734,51.2745850155821,1460.526457563974,2.551736838540819e-05,-7.983684213286324e-05,6.315789473686891,5.684341886080801e-13,0.0,-3.637978807091713e-11,129.5078947368398,70.0,0.0,255.0,0.0
22.800000000000182,35.72399115161926,51.27458420812182,1460.842240292579,2.551736844225161e-05,-7.983684213286324e-05,6.315789473683253,5.684341886080801e-13,1.1368683772161603e-12,-3.637978807091713e-11,128.87263157894503,70.0,0.0,255.0,0.0
22.850000000000183,35.72399485061348,51.27458336790919,1461.1580230062827,2.551736844225161e-05,-7.98368420191764e-05,6.315789473683253,-5.684341886080801e-13,1.1368683772161603e-12,1.8189894035458565e-11,128.2373684210503,70.0,0.0,255.0,0.0
22.900000000000183,35.723998577952486,51.274582494556796,1461.4738057032228,2.551736838540819e-05,-7.98368420191764e-05,6.315789473685072,-5.684341886080801e-13,-1.1368683772161603e-12,1.8189894035458565e-11,127.60210526315555,70.0,0.0,255.0,0.0
22.950000000000184,35.72400233333494,51.274581587681254,1461.7895883852616,2.551736838540819e-05,-7.983684213286324e-05,6.315789473685072,5.684341886080801e-13,-1.1368683772161603e-12,-1.8189894035458565e-11,126.96684210526081,70.0,0.0,255.0,0.0
23.000000000000185,35.724006116456025,51.274580646903345,1462.1053710551932,2.551736844225161e-05,-7.983684213286324e-05,6.315789473683253,5.684341886080801e-13,0.0,-1.8189894035458565e-11,126.33157894736607,70.0,0.0,255.0,0.0
23.050000000000185,35.72400992700753,51.274579671847995,1462.4211537130177,2.551736844225161e-05,-7.983684213286324e-05,6.315789473683253,-5.684341886080801e-13,0.0,1.8189894035458565e-11,125.69631578947133,70.0,0.0,255.0,0.0
23.100000000000186,35.724013764677856,51.27457866214434,1462.736936361529,2.551736838540819e-05,-7.983684213286324e-05,6.315789473685072,-5.684341886080801e-13,0.0,1.8189894035458565e-11,125.06105263157656,70.0,0.0,255.0,0.0
23.150000000000187,35.72401762915208,51.27457761742582,1463.052719000727,2.551736838540819e-05,-7.983684213286324e-05,6.315789473685072,5.684341886080801e-13,0.0,-1.8189894035458565e-11,124.42578947368182,70.0,0.0,255.0,0.0
23.200000000000188,35.72402152011198,51.27457653733011,1463.368501628749,2.551736844225161e-05,-7.983684213286324e-05,6.315789473683253,5.684341886080801e-13,0.0,-1.8189894035458565e-11,123.79052631578708,70.0,0.0,255.0,0.0
23.25000000000019,35.7240254372361,51.274575421499286,1463.684284253046,2.551736844225161e-05,-7.983684213286324e-05,6.315789473683253,-5.684341886080801e-13,0.0,1.8189894035458565e-11,123.15526315789234,70.0,0.0,255.0,0.0
23.30000000000019,35.724029380199724,51.27457426957977,1464.0000668726861,2.551736838540819e-05,-7.983684213286324e-05,6.315789473685072,-5.684341886080801e-13,0.0,1.8189894035458565e-11,122.5199999999976,70.0,0.0,255.0,0.0
23.35000000000019,35.724033348675,51.2745730812225,1464.3158494867384,2.551736838540819e-05,-7.983684213286324e-05,6.315789473685072,5.684341886080801e-13,1.1368683772161603e-12,-1.8189894035458565e-11,121.88473684210285,70.0,0.0,255.0,0.0
23.40000000000019,35.724037342330895,51.27457185608281,1464.6316320998594,2.551736844225161e-05,-7.98368420191764e-05,6.315789473683253,1.1368683772161603e-12,1.1368683772161603e-12,-1.8189894035458565e-11,121.24947368420808,70.0,0.0,255.0,0.0
23.45000000000019,35.724041360833354,51.2745705938206,1464.947414712049,2.5517368499095028e-05,-7.98368420191764e-05,6.315789473683253,0.0,-1.1368683772161603e-12,0.0,120.61421052631334,70.0,0.0,255.0,0.0
23.500000000000192,35.72404540384519,51.274569294100296,1465.2631973242387,2.551736844225161e-05,-7.983684213286324e-05,6.315789473683253,-5.684341886080801e-13,-1.1368683772161603e-12,1.8189894035458565e-11,119.9789473684186,70.0,0.0,255.0,0.0
23.550000000000193,35.72404947102625,51.274567956590985,1465.578979938291,2.551736844225161e-05,-7.983684213286324e-05,6.315789473685072,0.0,0.0,1.8189894035458565e-11,119.34368421052386,70.0,0.0,255.0,0.0
23.600000000000193,35.72405356203338,51.274566580966365,1465.8947625532746,2.551736844225161e-05,-7.983684213286324e-05,6.315789473685072,-5.684341886080801e-13,0.0,-1.8189894035458565e-11,118.70842105262912,70.0,0.0,255.0,0.0
23.650000000000194,35.72405767652052,51.2745651669048,1466.2105451738462,2.551736838540819e-05,-7.983684213286324e-05,6.315789473683253,-5.684341886080801e-13,0.0,-1.8189894035458565e-11,118.07315789473438,70.0,0.0,255.0,0.0
23.700000000000195,35.724061814138736,51.27456371408943,1466.5263278027996,2.551736838540819e-05,-7.983684213286324e-05,6.315789473683253,5.684341886080801e-13,0.0,1.8189894035458565e-11,117.43789473683961,70.0,0.0,255.0,0.0
23.750000000000195,35.72406597453621,51.27456222220811,1466.8421104354784,2.551736844225161e-05,-7.983684213286324e-05,6.315789473685072,5.684341886080801e-13,0.0,1.8189894035458565e-11,116.80263157894487,70.0,0.0,255.0,0.0
23.800000000000196,35.72407015735834,51.27456069095354,1467.1578930774704,2.551736844225161e-05,-7.983684213286324e-05,6.315789473685072,-5.684341886080801e-13,0.0,-1.8189894035458565e-11,116.16736842105013,70.0,0.0,255.0,0.0
23.850000000000197,35.72407436224779,51.27455912002321,1467.4736757297069,2.551736838540819e-05,-7.983684213286324e-05,6.315789473683253,-5.684341886080801e-13,1.1368683772161603e-12,-1.8189894035458565e-11,115.53210526315539,70.0,0.0,255.0,0.0
23.900000000000198,35.724078588844485,51.274557509119546,1467.7894583931193,2.551736838540819e-05,-7.98368420191764e-05,6.315789473683253,5.684341886080801e-13,1.1368683772161603e-12,0.0,114.89684210526065,70.0,0.0,255.0,0.0
23.9500000000002,35.72408283678568,51.274555857949835,1468.1052410695702,2.551736844225161e-05,-7.98368420191764e-05,6.315789473683253,5.684341886080801e-13,-1.1368683772161603e-12,3.637978807091713e-11,114.26157894736588,70.0,0.0,255.0,0.0
24.0000000000002,35.724087105706026,51.274554166226345,1468.4210237581283,2.551736844225161e-05,-7.983684213286324e-05,6.315789473686891,-5.684341886080801e-13,-1.1368683772161603e-12,1.8189894035458565e-11,113.62631578947114,70.0,0.0,255.0,0.0
24.0500000000002,35.724091395237586,51.27455243366631,1468.7368064634502,2.551736838540819e-05,-7.983684213286324e-05,6.315789473685072,-5.684341886080801e-13,0.0,-5.4569682106375694e-11,112.9910526315764,70.0,0.0,255.0,0.0
24.1000000000002,35.72409570500989,51.27455065999201,1469.0525891864672,2.551736838540819e-05,-7.983684213286324e-05,6.315789473681434,5.684341886080801e-13,1.1368683772161603e-12,-1.8189894035458565e-11,112.35578947368165,70.0,0.0,255.0,0.0
24.1500000000002,35.72410003464997,51.274548844930756,1469.3683719225228,2.551736844225161e-05,-7.98368420191764e-05,6.315789473683253,5.684341886080801e-13,1.1368683772161603e-12,5.4569682106375694e-11,111.72052631578691,70.0,0.0,255.0,0.0
24.200000000000202,35.72410438378242,51.27454698821496,1469.6841546827927,2.551736844225161e-05,-7.98368420191764e-05,6.315789473686891,-5.684341886080801e-13,-1.1368683772161603e-12,3.637978807091713e-11,111.08526315789217,70.0,0.0,255.0,0.0
24.250000000000203,35.724108752029466,51.27454508958214,1469.9999374616891,2.551736838540819e-05,-7.983684213286324e-05,6.315789473686891,-5.684341886080801e-13,-1.1368683772161603e-12,-3.637978807091713e-11,110.4499999999974,70.0,0.0,255.0,0.0
24.300000000000203,35.724113139010925,51.27454314877498,1470.315720262006,2.551736838540819e-05,-7.983684213286324e-05,6.315789473683253,5.684341886080801e-13,0.0,-3.637978807091713e-11,109.81473684210266,70.0,0.0,255.0,0.0
24.350000000000204,35.72411754434437,51.274541165541336,1470.6315030883998,2.551736844225161e-05,-7.983684213286324e-05,6.315789473683253,5.684341886080801e-13,0.0,1.8189894035458565e-11,109.17947368420792,70.0,0.0,255.0,0.0
24.400000000000205,35.72412196764509,51.2745391396343,1470.9472859352827,2.551736844225161e-05,-7.983684213286324e-05,6.315789473685072,0.0,0.0,1.8189894035458565e-11,108.54421052631318,70.0,0.0,255.0,0.0
24.450000000000205,35.72412640852617,51.27453707081221,1471.263068811968,2.551736844225161e-05,-7.983684213286324e-05,6.315789473685072,5.684341886080801e-13,0.0,-1.8189894035458565e-11,107.90894736841844,70.0,0.0,255.0,0.0
24.500000000000206,35.724130866598536,51.27453495883862,1471.5788517128676,2.5517368499095028e-05,-7.983684213286324e-05,6.315789473683253,0.0,0.0,-1.8189894035458565e-11,107.2736842105237,70.0,0.0,255.0,0.0
24.550000000000207,35.72413534147097,51.274532803482465,1471.8946346435696,2.551736844225161e-05,-7.983684213286324e-05,6.315789473683253,-1.1368683772161603e-12,0.0,1.8189894035458565e-11,106.63842105262893,70.0,0.0,255.0,0.0
24.600000000000207,35.72413983275023,51.27453060451799,1472.2104176059365,2.551736838540819e-05,-7.983684213286324e-05,6.315789473685072,-5.684341886080801e-13,0.0,1.8189894035458565e-11,106.00315789473419,70.0,0.0,255.0,0.0
24.650000000000208,35.72414434004106,51.274528361724784,1472.5262005999684,2.551736838540819e-05,-7.983684213286324e-05,6.315789473685072,5.684341886080801e-13,1.1368683772161603e-12,-1.8189894035458565e-11,105.36789473683945,70.0,0.0,255.0,0.0
24.70000000000021,35.7241488629462,51.27452607488784,1472.841983624734,2.551736844225161e-05,-7.98368420191764e-05,6.315789473683253,5.684341886080801e-13,1.1368683772161603e-12,-1.8189894035458565e-11,104.7326315789447,70.0,0.0,255.0,0.0
24.75000000000021,35.7241534010665,51.27452374379755,1473.1577666867524,2.551736844225161e-05,-7.98368420191764e-05,6.315789473683253,-5.684341886080801e-13,-1.1368683772161603e-12,0.0,104.09736842104996,70.0,0.0,255.0,0.0
24.80000000000021,35.72415795400093,51.274521368249765,1473.4735497785732,2.551736838540819e-05,-7.983684213286324e-05,6.315789473683253,-5.684341886080801e-13,-1.1368683772161603e-12,1.8189894035458565e-11,103.46210526315522,70.0,0.0,255.0,0.0
24.85000000000021,35.724162521346635,51.274518948045774,1473.7893329113722,2.551736838540819e-05,-7.983684213286324e-05,6.315789473685072,5.684341886080801e-13,0.0,1.8189894035458565e-11,102.82684210526045,70.0,0.0,255.0,0.0
24.90000000000021,35.72416710269899,51.27451648299239,1474.105116081424,2.551736844225161e-05,-7.983684213286324e-05,6.315789473685072,5.684341886080801e-13,1.1368683772161603e-12,-1.8189894035458565e-11,102.19157894736571,70.0,0.0,255.0,0.0
24.950000000000212,35.724171697651634,51.27451397290191,1474.4208992877975,2.551736844225161e-05,-7.98368420191764e-05,6.315789473683253,-5.684341886080801e-13,1.1368683772161603e-12,-1.8189894035458565e-11,101.55631578947097,70.0,0.0,255.0,0.0
25.000000000000213,35.72417630579659,51.27451141759219,1474.7366825370118,2.551736838540819e-05,-7.98368420191764e-05,6.315789473683253,-5.684341886080801e-13,-1.1368683772161603e-12,1.8189894035458565e-11,100.92105263157623,70.0,0.0,255.0,0.0
25.050000000000214,35.72418092672418,51.27450881688662,1475.0524658281356,2.551736838540819e-05,-7.983684213286324e-05,6.315789473685072,5.684341886080801e-13,-1.1368683772161603e-12,1.8189894035458565e-11,100.28578947368149,70.0,0.0,255.0,0.0
25.100000000000215,35.72418556002321,51.274506170614195,1475.368249163963,2.551736844225161e-05,-7.983684213286324e-05,6.315789473685072,5.684341886080801e-13,0.0,-1.8189894035458565e-11,99.65052631578672,70.0,0.0,255.0,0.0
25.150000000000215,35.72419020528094,51.274503478609496,1475.6840325416997,2.551736844225161e-05,-7.983684213286324e-05,6.315789473683253,-5.684341886080801e-13,0.0,-1.8189894035458565e-11,99.01526315789198,70.0,0.0,255.0,0.0
25.200000000000216,35.72419486208317,51.27450074071274,1475.999815966934,2.551736838540819e-05,-7.983684213286324e-05,6.315789473683253,-5.684341886080801e-13,0.0,0.0,98.37999999999724,70.0,0.0,255.0,0.0
25.250000000000217,35.7241995300143,51.27449795676977,1476.315599435009,2.551736838540819e-05,-7.983684213286324e-05,6.315789473683253,5.684341886080801e-13,0.0,1.8189894035458565e-11,97.7447368421025,70.0,0.0,255.0,0.0
25.300000000000217,35.72420420865732,51.2744951266321,1476.6313829561695,2.551736844225161e-05,-7.983684213286324e-05,6.315789473685072,5.684341886080801e-13,0.0,1.8189894035458565e-11,97.10947368420776,70.0,0.0,255.0,0.0
25.350000000000218,35.724208897593925,51.2744922501569,1476.9471665257588,2.551736844225161e-05,-7.983684213286324e-05,6.315789473685072,-5.684341886080801e-13,0.0,-1.8189894035458565e-11,96.47421052631302,70.0,0.0,255.0,0.0
25.40000000000022,35.724213596404546,51.27448932720707,1477.2629501465708,2.551736838540819e-05,-7.983684213286324e-05,6.315789473683253,5.684341886080801e-13,1.1368683772161603e-12,-1.8189894035458565e-11,95.83894736841825,70.0,0.0,255.0,0.0
25.45000000000022,35.72421830466839,51.27448635765121,1477.5787338186055,2.5517368499095028e-05,-7.98368420191764e-05,6.315789473683253,1.1368683772161603e-12,1.1368683772161603e-12,3.637978807091713e-11,95.2036842105235,70.0,0.0,255.0,0.0
25.50000000000022,35.72422302196354,51.27448334136365,1477.8945175427943,2.5517368499095028e-05,-7.98368420191764e-05,6.315789473686891,-1.1368683772161603e-12,-1.1368683772161603e-12,1.8189894035458565e-11,94.56842105262876,70.0,0.0,255.0,0.0
25.55000000000022,35.72422774786692,51.27448027822444,1478.2103013219312,2.551736838540819e-05,-7.983684213286324e-05,6.315789473685072,-1.1368683772161603e-12,-1.1368683772161603e-12,-5.4569682106375694e-11,93.93315789473402,70.0,0.0,255.0,0.0
25.60000000000022,35.72423248195441,51.27447716811943,1478.5260851597413,2.551736838540819e-05,-7.983684213286324e-05,6.315789473681434,5.684341886080801e-13,0.0,-1.8189894035458565e-11,93.29789473683928,70.0,0.0,255.0,0.0
25.650000000000222,35.72423722380089,51.274474010940224,1478.8418690497056,2.551736844225161e-05,-7.983684213286324e-05,6.315789473683253,5.684341886080801e-13,0.0,5.4569682106375694e-11,92.66263157894454,70.0,0.0,255.0,0.0
25.700000000000223,35.72424197298028,51.27447080658422,1479.1576530002058,2.551736844225161e-05,-7.983684213286324e-05,6.315789473686891,-5.684341886080801e-13,0.0,3.637978807091713e-11,92.02736842104977,70.0,0.0,255.0,0.0
25.750000000000224,35.72424672906562,51.27446755495458,1479.4734370103106,2.551736838540819e-05,-7.983684213286324e-05,6.315789473686891,-5.684341886080801e-13,0.0,-3.637978807091713e-11,91.39210526315503,70.0,0.0,255.0,0.0
25.800000000000225,35.72425149162906,51.27446425596033,1479.7892210818827,2.551736838540819e-05,-7.983684213286324e-05,6.315789473683253,5.684341886080801e-13,0.0,-3.637978807091713e-11,90.75684210526029,70.0,0.0,255.0,0.0
25.850000000000225,35.72425626024201,51.274460909516286,1480.1050052149221,2.551736844225161e-05,-7.983684213286324e-05,6.315789473683253,5.684341886080801e-13,0.0,0.0,90.12157894736555,70.0,0.0,255.0,0.0
25.900000000000226,35.72426103447507,51.27445751554313,1480.4207894084975,2.551736844225161e-05,-7.983684213286324e-05,6.315789473683253,-5.684341886080801e-13,0.0,1.8189894035458565e-11,89.48631578947081,70.0,0.0,255.0,0.0
25.950000000000227,35.72426581389821,51.27445407396732,1480.7365736672655,2.551736838540819e-05,-7.983684213286324e-05,6.315789473685072,-5.684341886080801e-13,1.1368683772161603e-12,1.8189894035458565e-11,88.85105263157607,70.0,0.0,255.0,0.0
26.000000000000227,35.72427059808072,51.274450584721244,1481.0523579921573,2.551736838540819e-05,-7.98368420191764e-05,6.315789473685072,5.684341886080801e-13,1.1368683772161603e-12,-1.8189894035458565e-11,88.2157894736813,70.0,0.0,255.0,0.0
26.050000000000228,35.72427538659132,51.274447047743095,1481.3681423822418,2.551736844225161e-05,-7.98368420191764e-05,6.315789473683253,5.684341886080801e-13,-1.1368683772161603e-12,-1.8189894035458565e-11,87.58052631578656,70.0,0.0,255.0,0.0
26.10000000000023,35.724280178998214,51.27444346297695,1481.6839268421754,2.551736844225161e-05,-7.983684213286324e-05,6.315789473683253,-5.684341886080801e-13,-1.1368683772161603e-12,1.8189894035458565e-11,86.94526315789182,70.0,0.0,255.0,0.0
26.15000000000023,35.7242849748691,51.274439830372785,1481.999711368233,2.551736838540819e-05,-7.983684213286324e-05,6.315789473685072,-5.684341886080801e-13,0.0,1.8189894035458565e-11,86.30999999999707,70.0,0.0,255.0,0.0
26.20000000000023,35.724289773771254,51.27443614988642,1482.3154959641397,2.551736838540819e-05,-7.983684213286324e-05,6.315789473685072,5.684341886080801e-13,1.1368683772161603e-12,-1.8189894035458565e-11,85.67473684210233,70.0,0.0,255.0,0.0
26.25000000000023,35.7242945752716,51.27443242147959,1482.6312806317583,2.551736844225161e-05,-7.98368420191764e-05,6.315789473683253,5.684341886080801e-13,1.1368683772161603e-12,-1.8189894035458565e-11,85.03947368420756,70.0,0.0,255.0,0.0
26.30000000000023,35.72429937893671,51.27442864511989,1482.9470653701574,2.551736844225161e-05,-7.98368420191764e-05,6.315789473683253,-5.684341886080801e-13,-1.1368683772161603e-12,1.8189894035458565e-11,84.40421052631282,70.0,0.0,255.0,0.0
26.350000000000232,35.72430418433294,51.27442482078084,1483.262850184925,2.551736838540819e-05,-7.983684213286324e-05,6.315789473685072,-5.684341886080801e-13,-1.1368683772161603e-12,1.8189894035458565e-11,83.76894736841808,70.0,0.0,255.0,0.0
26.400000000000233,35.724308991026376,51.27442094844182,1483.578635067679,2.551736838540819e-05,-7.983684213286324e-05,6.315789473685072,1.1368683772161603e-12,0.0,-1.8189894035458565e-11,83.13368421052334,70.0,0.0,255.0,0.0
26.450000000000234,35.72431379858298,51.274417028088166,1483.8944200323895,2.5517368499095028e-05,-7.983684213286324e-05,6.315789473683253,1.1368683772161603e-12,0.0,-1.8189894035458565e-11,82.4984210526286,70.0,0.0,255.0,0.0
26.500000000000234,35.724318606568616,51.27441305971109,1484.2102050678805,2.5517368499095028e-05,-7.983684213286324e-05,6.315789473683253,-1.1368683772161603e-12,0.0,0.0,81.86315789473386,70.0,0.0,255.0,0.0
26.550000000000235,35.72432341454904,51.27440904330768,1484.5259901843965,2.551736838540819e-05,-7.983684213286324e-05,6.315789473683253,-5.684341886080801e-13,0.0,1.8189894035458565e-11,81.22789473683909,70.0,0.0,255.0,0.0
26.600000000000236,35.72432822209005,51.274404978880966,1484.841775377281,2.551736844225161e-05,-7.983684213286324e-05,6.315789473685072,5.684341886080801e-13,0.0,1.8189894035458565e-11,80.59263157894435,70.0,0.0,255.0,0.0
26.650000000000237,35.72433302875754,51.27440086643987,1485.1575606483966,2.551736844225161e-05,-7.983684213286324e-05,6.315789473685072,-5.684341886080801e-13,0.0,-1.8189894035458565e-11,79.95736842104961,70.0,0.0,255.0,0.0
26.700000000000237,35.724337834117435,51.27439670599921,1485.4733460024,2.551736838540819e-05,-7.983684213286324e-05,6.315789473683253,-5.684341886080801e-13,1.1368683772161603e-12,-1.8189894035458565e-11,79.32210526315487,70.0,0.0,255.0,0.0
26.750000000000238,35.724342637735845,51.2743924975797,1485.789131436497,2.551736838540819e-05,-7.98368420191764e-05,6.315789473683253,5.684341886080801e-13,1.1368683772161603e-12,1.8189894035458565e-11,78.68684210526013,70.0,0.0,255.0,0.0
26.80000000000024,35.72434743917911,51.27438824120798,1486.1049169525504,2.551736844225161e-05,-7.98368420191764e-05,6.315789473685072,5.684341886080801e-13,-1.1368683772161603e-12,1.8189894035458565e-11,78.05157894736539,70.0,0.0,255.0,0.0
26.85000000000024,35.72435223801383,51.27438393691656,1486.4207025533542,2.551736844225161e-05,-7.983684213286324e-05,6.315789473685072,-5.684341886080801e-13,-1.1368683772161603e-12,-1.8189894035458565e-11,77.41631578947062,70.0,0.0,255.0,0.0
26.90000000000024,35.72435703380692,51.274379584743826,1486.736488235183,2.551736838540819e-05,-7.983684213286324e-05,6.315789473683253,-5.684341886080801e-13,0.0,-1.8189894035458565e-11,76.78105263157588,70.0,0.0,255.0,0.0
26.95000000000024,35.72436182612567,51.2743751847341,1487.0522740082815,2.551736838540819e-05,-7.983684213286324e-05,6.315789473683253,5.684341886080801e-13,1.1368683772161603e-12,0.0,76.14578947368113,70.0,0.0,255.0,0.0
27.00000000000024,35.724366614537814,51.27437073693753,1487.3680598605424,2.551736844225161e-05,-7.98368420191764e-05,6.315789473683253,5.684341886080801e-13,1.1368683772161603e-12,1.8189894035458565e-11,75.5105263157864,70.0,0.0,255.0,0.0
27.050000000000242,35.724371398611524,51.27436624141019,1487.6838458031416,2.551736844225161e-05,-7.98368420191764e-05,6.315789473685072,-5.684341886080801e-13,-1.1368683772161603e-12,1.8189894035458565e-11,74.87526315789165,70.0,0.0,255.0,0.0
27.100000000000243,35.72437617791556,51.27436169821397,1487.9996318314224,2.551736838540819e-05,-7.983684213286324e-05,6.315789473685072,-5.684341886080801e-13,-1.1368683772161603e-12,-1.8189894035458565e-11,74.23999999999691,70.0,0.0,255.0,0.0
27.150000000000244,35.72438095201923,51.27435710741667,1488.3154179519042,2.551736838540819e-05,-7.983684213286324e-05,6.315789473683253,5.684341886080801e-13,0.0,-1.8189894035458565e-11,73.60473684210214,70.0,0.0,255.0,0.0
27.200000000000244,35.72438572049251,51.274352469091895,1488.631204158999,2.551736844225161e-05,-7.983684213286324e-05,6.315789473683253,5.684341886080801e-13,0.0,3.637978807091713e-11,72.9694736842074,70.0,0.0,255.0,0.0
27.250000000000245,35.724390482906024,51.274347783319115,1488.9469904573634,2.551736844225161e-05,-7.983684213286324e-05,6.315789473686891,-5.684341886080801e-13,0.0,3.637978807091713e-11,72.33421052631266,70.0,0.0,255.0,0.0
27.300000000000246,35.72439523883118,51.27434305018366,1489.2627768469974,2.551736838540819e-05,-7.983684213286324e-05,6.315789473686891,-5.684341886080801e-13,0.0,-3.637978807091713e-11,71.69894736841792,70.0,0.0,255.0,0.0
27.350000000000247,35.72439998784019,51.27433826977662,1489.5785633297637,2.551736838540819e-05,-7.983684213286324e-05,6.315789473683253,5.684341886080801e-13,0.0,-3.637978807091713e-11,71.06368421052318,70.0,0.0,255.0,0.0
27.400000000000247,35.72440472950605,51.27433344219496,1489.8943499065936,2.551736844225161e-05,-7.983684213286324e-05,6.315789473683253,1.1368683772161603e-12,0.0,1.8189894035458565e-11,70.42842105262841,70.0,0.0,255.0,0.0
27.450000000000248,35.72440946340275,51.274328567541396,1490.2101365756243,2.5517368499095028e-05,-7.983684213286324e-05,6.315789473685072,0.0,0.0,1.8189894035458565e-11,69.79315789473367,70.0,0.0,255.0,0.0
27.50000000000025,35.72441418910519,51.274323645924454,1490.52592333965,2.551736844225161e-05,-7.983684213286324e-05,6.315789473685072,-5.684341886080801e-13,1.1368683772161603e-12,-1.8189894035458565e-11,69.15789473683893,70.0,0.0,255.0,0.0
27.55000000000025,35.72441890618924,51.27431867745844,1490.8417101977393,2.551736844225161e-05,-7.98368420191764e-05,6.315789473683253,0.0,1.1368683772161603e-12,-1.8189894035458565e-11,68.52263157894419,70.0,0.0,255.0,0.0
27.60000000000025,35.72442361423192,51.27431366226341,1491.1574971536174,2.551736844225161e-05,-7.98368420191764e-05,6.315789473683253,-5.684341886080801e-13,-1.1368683772161603e-12,1.8189894035458565e-11,67.88736842104944,70.0,0.0,255.0,0.0
27.65000000000025,35.72442831281125,51.27430860046513,1491.4732842044905,2.551736838540819e-05,-7.983684213286324e-05,6.315789473685072,-5.684341886080801e-13,-1.1368683772161603e-12,1.8189894035458565e-11,67.2521052631547,70.0,0.0,255.0,0.0
27.70000000000025,35.72443300150655,51.274303492195166,1491.789071355015,2.551736838540819e-05,-7.983684213286324e-05,6.315789473685072,5.684341886080801e-13,0.0,-1.8189894035458565e-11,66.61684210525993,70.0,0.0,255.0,0.0
27.750000000000252,35.72443767989821,51.27429833759074,1492.1048586023971,2.551736844225161e-05,-7.983684213286324e-05,6.315789473683253,5.684341886080801e-13,0.0,-1.8189894035458565e-11,65.9815789473652,70.0,0.0,255.0,0.0
27.800000000000253,35.72444234756798,51.27429313679479,1492.420645950362,2.551736844225161e-05,-7.983684213286324e-05,6.315789473683253,-5.684341886080801e-13,0.0,0.0,65.34631578947045,70.0,0.0,255.0,0.0
27.850000000000254,35.724447004098906,51.274287889955964,1492.7364333951846,2.551736838540819e-05,-7.983684213286324e-05,6.315789473683253,-5.684341886080801e-13,0.0,1.8189894035458565e-11,64.71105263157571,70.0,0.0,255.0,0.0
27.900000000000254,35.724451649075405,51.27428259722848,1493.0522209424525,2.551736838540819e-05,-7.983684213286324e-05,6.315789473685072,5.684341886080801e-13,0.0,1.8189894035458565e-11,64.07578947368097,70.0,0.0,255.0,0.0
27.950000000000255,35.72445628208328,51.27427725877229,1493.368008589372,2.551736844225161e-05,-7.983684213286324e-05,6.315789473685072,5.684341886080801e-13,0.0,-1.8189894035458565e-11,63.44052631578623,70.0,0.0,255.0,0.0
28.000000000000256,35.72446090270988,51.27427187475293,1493.6837963396683,2.551736844225161e-05,-7.983684213286324e-05,6.315789473683253,-5.684341886080801e-13,1.1368683772161603e-12,-1.8189894035458565e-11,62.80526315789146,70.0,0.0,255.0,0.0
28.050000000000257,35.72446551054399,51.274266445341546,1493.99958419241,2.551736838540819e-05,-7.98368420191764e-05,6.315789473683253,-5.684341886080801e-13,1.1368683772161603e-12,1.8189894035458565e-11,62.16999999999672,70.0,0.0,255.0,0.0
28.100000000000257,35.72447010517604,51.27426097071483,1494.315372146666,2.551736838540819e-05,-7.98368420191764e-05,6.315789473685072,5.684341886080801e-13,-1.1368683772161603e-12,1.8189894035458565e-11,61.53473684210198,70.0,0.0,255.0,0.0
28.150000000000258,35.72447468619802,51.27425545105508,1494.6311602042988,2.551736844225161e-05,-7.983684213286324e-05,6.315789473685072,5.684341886080801e-13,-1.1368683772161603e-12,-1.8189894035458565e-11,60.89947368420724,70.0,0.0,255.0,0.0
28.20000000000026,35.72447925320366,51.274249886550116,1494.9469483653083,2.551736844225161e-05,-7.983684213286324e-05,6.315789473683253,-5.684341886080801e-13,0.0,-1.8189894035458565e-11,60.264210526312496,70.0,0.0,255.0,0.0
28.25000000000026,35.724483805788346,51.274244277393244,1495.2627366324887,2.551736838540819e-05,-7.983684213286324e-05,6.315789473683253,-5.684341886080801e-13,0.0,0.0,59.628947368417755,70.0,0.0,255.0,0.0
28.30000000000026,35.724488343549304,51.274238623783305,1495.5785250030458,2.551736838540819e-05,-7.983684213286324e-05,6.315789473683253,5.684341886080801e-13,1.1368683772161603e-12,1.8189894035458565e-11,58.993684210522986,70.0,0.0,255.0,0.0
28.35000000000026,35.7244928660855,51.274232925924565,1495.894313480705,2.551736844225161e-05,-7.98368420191764e-05,6.315789473685072,5.684341886080801e-13,1.1368683772161603e-12,1.8189894035458565e-11,58.358421052628245,70.0,0.0,255.0,0.0
28.40000000000026,35.72449737299784,51.27422718402675,1496.2101020626724,2.551736844225161e-05,-7.98368420191764e-05,6.315789473685072,0.0,-1.1368683772161603e-12,-1.8189894035458565e-11,57.723157894733504,70.0,0.0,255.0,0.0
28.450000000000262,35.72450186388914,51.274221398304995,1496.5258907536045,2.551736844225161e-05,-7.983684213286324e-05,6.315789473683253,5.684341886080801e-13,-1.1368683772161603e-12,-1.8189894035458565e-11,57.08789473683876,70.0,0.0,255.0,0.0
28.500000000000263,35.72450633836416,51.274215568979805,1496.841679549776,2.5517368499095028e-05,-7.983684213286324e-05,6.315789473683253,0.0,0.0,3.637978807091713e-11,56.45263157894402,70.0,0.0,255.0,0.0
28.550000000000264,35.7245107960297,51.27420969627709,1497.157468453981,2.551736844225161e-05,-7.983684213286324e-05,6.315789473686891,-1.1368683772161603e-12,0.0,1.8189894035458565e-11,55.81736842104925,70.0,0.0,255.0,0.0
28.600000000000264,35.72451523649461,51.27420378042804,1497.4732574671507,2.551736838540819e-05,-7.983684213286324e-05,6.315789473685072,-5.684341886080801e-13,0.0,-5.4569682106375694e-11,55.18210526315451,70.0,0.0,255.0,0.0
28.650000000000265,35.72451965936986,51.27419782166919,1497.7890465864912,2.551736838540819e-05,-7.983684213286324e-05,6.315789473681434,5.684341886080801e-13,0.0,-1.8189894035458565e-11,54.54684210525977,70.0,0.0,255.0,0.0
28.700000000000266,35.72452406426862,51.274191820242336,1498.1048358157277,2.551736844225161e-05,-7.983684213286324e-05,6.315789473683253,5.684341886080801e-13,0.0,5.4569682106375694e-11,53.91157894736503,70.0,0.0,255.0,0.0
28.750000000000266,35.72452845080618,51.27418577639449,1498.4206251548603,2.551736844225161e-05,-7.983684213286324e-05,6.315789473686891,-5.684341886080801e-13,0.0,3.637978807091713e-11,53.27631578947029,70.0,0.0,255.0,0.0
28.800000000000267,35.724532818600196,51.274179690377935,1498.736414601095,2.551736838540819e-05,-7.983684213286324e-05,6.315789473686891,-5.684341886080801e-13,1.1368683772161603e-12,-3.637978807091713e-11,52.64105263157555,70.0,0.0,255.0,0.0
28.850000000000268,35.72453716727055,51.27417356245011,1499.0522041600198,2.551736838540819e-05,-7.98368420191764e-05,6.315789473683253,5.684341886080801e-13,1.1368683772161603e-12,-3.637978807091713e-11,52.00578947368078,70.0,0.0,255.0,0.0
28.90000000000027,35.724541496439485,51.274167392873586,1499.367993826978,2.551736844225161e-05,-7.98368420191764e-05,6.315789473683253,5.684341886080801e-13,0.0,1.8189894035458565e-11,51.37052631578604,70.0,0.0,255.0,0.0
28.95000000000027,35.72454580573169,51.274161181916085,1499.6837836056948,2.551736844225161e-05,-7.98368420191764e-05,6.315789473685072,-0.00025517368442457943,0.0007983684201982196,-63.15789473734323,50.735263157891296,70.0,0.0,255.0,0.0
29.0,35.72455009477423,51.2741549298504,1499.9995734943077,0.0,0.0,0.0,14289.75406997026,20509.530773244573,599999.9999935022,50.1,70.0,0.0,255.0,0.0
29.00000000000027,35.72455009477423,51.2741549298504,1499.9995734943077,3.8583227611027995e-09,5.537701279845226e-09,1.620037437524234e-07,14289.75406997026,20509.530773244573,599999.9999935029,50.1,70.0,0.0,255.0,0.0
29.05000000000027,35.72455291007522,51.27415907353743,1499.9995761699975,5.630624997365885e-05,8.287333332646085e-05,0.0,0.0005630239176458378,0.0008286779573886666,-1.620037437524211e-06,50.1,70.0,0.0,255.0,0.0
29.10000000000027,35.7245557253762,51.27416321722448,1499.9995788512751,5.630625008734569e-05,8.287333344014769e-05,0.0,5.684341886080801e-13,0.0,0.0,50.1,70.0,0.0,255.0,0.0
29.150000000000272,35.72455854067719,51.27416736091152,1499.9995815306902,5.630625003050227e-05,8.287333332646085e-05,0.0,-1.1368683772161603e-12,-2.2737367544323206e-12,0.0,50.1,70.0,0.0,255.0,0.0
29.200000000000273,35.72456135597817,51.27417150459855,1499.9995842110366,5.630624997365885e-05,8.287333321277401e-05,0.0,-5.684341886080801e-13,0.0,0.0,50.1,70.0,0.0,255.0,0.0
29.250000000000274,35.724564171279155,51.27417564828559,1499.9995868895203,5.630624997365885e-05,8.287333332646085e-05,0.0,0.0,2.2737367544323206e-12,0.0,50.1,70.0,0.0,255.0,0.0
29.300000000000274,35.724566986580136,51.274179791972635,1499.9995895689353,5.630624997365885e-05,8.287333344014769e-05,0.0,0.0,0.0,0.0,50.1,70.0,0.0,255.0,0.0
29.350000000000275,35.72456980188112,51.27418393565967,1499.9995922492817,5.630624997365885e-05,8.287333332646085e-05,0.0,5.684341886080801e-13,-1.1368683772161603e-12,0.0,50.1,70.0,0.0,255.0,0.0
29.400000000000276,35.72457261718211,51.27418807934671,1499.9995949286968,5.630625003050227e-05,8.287333332646085e-05,0.0,5.684341886080801e-13,1.1368683772161603e-12,0.0,50.1,70.0,0.0,255.0,0.0
29.450000000000276,35.7245754324831,51.274192223033744,1499.9995976071805,5.630625003050227e-05,8.287333344014769e-05,0.0,-5.684341886080801e-13,0.0,0.0,50.1,70.0,0.0,255.0,0.0
29.500000000000277,35.72457824778408,51.27419636672079,1499.9996002875268,5.630624997365885e-05,8.287333332646085e-05,0.0,-5.684341886080801e-13,-2.2737367544323206e-12,0.0,50.1,70.0,0.0,255.0,0.0
29.550000000000278,35.724581063085054,51.27420051040784,1499.999602966942,5.630624997365885e-05,8.287333321277401e-05,0.0,0.0,0.0,0.0,50.1,70.0,0.0,255.0,0.0
29.60000000000028,35.724583878386056,51.274204654094866,1499.9996056454256,5.630624997365885e-05,8.287333332646085e-05,0.0,1.1368683772161603e-12,2.2737367544323206e-12,0.0,50.1,70.0,0.0,255.0,0.0
29.65000000000028,35.72458669368702,51.2742087977819,1499.9996083267033,5.630625008734569e-05,8.287333344014769e-05,0.0,5.684341886080801e-13,0.0,0.0,50.1,70.0,0.0,255.0,0.0
29.70000000000028,35.724589508988025,51.27421294146895,1499.999611005187,5.630625003050227e-05,8.287333332646085e-05,0.0,-1.1368683772161603e-12,-2.2737367544323206e-12,0.0,50.1,70.0,0.0,255.0,0.0
29.75000000000028,35.724592324289006,51.27421708515599,1499.999613684602,5.630624997365885e-05,8.287333321277401e-05,0.0,-5.684341886080801e-13,0.0,0.0,50.1,70.0,0.0,255.0,0.0
29.80000000000028,35.72459513958999,51.274221228843025,1499.9996163640171,5.630624997365885e-05,8.287333332646085e-05,0.0,0.0,2.2737367544323206e-12,0.0,50.1,70.0,0.0,255.0,0.0
29.850000000000282,35.72459795489097,51.274225372530054,1499.9996190434322,5.630624997365885e-05,8.287333344014769e-05,0.0,5.684341886080801e-13,0.0,0.0,50.1,70.0,0.0,255.0,0.0
29.900000000000283,35.724600770191955,51.274229516217105,1499.999621721916,5.630625003050227e-05,8.287333332646085e-05,0.0,5.684341886080801e-13,-1.1368683772161603e-12,0.0,50.1,70.0,0.0,255.0,0.0
29.950000000000284,35.72460358549295,51.274233659904134,1499.9996244022623,5.630625003050227e-05,8.287333332646085e-05,0.0,-5.684341886080801e-13,0.0,0.0,50.1,70.0,0.0,255.0,0.0
30.000000000000284,35.724606400793924,51.27423780359118,1499.9996270816773,5.630624997365885e-05,8.287333332646085e-05,0.0,-5.684341886080801e-13,0.0,0.0,50.1,70.0,0.0,255.0,0.0
30.050000000000285,35.72460921609491,51.27424194727822,1499.9996297610924,5.630624997365885e-05,8.287333332646085e-05,0.0,0.0,0.0,0.0,50.1,70.0,0.0,255.0,0.0
30.100000000000286,35.724612031395885,51.274246090965256,1499.9996324405074,5.630624997365885e-05,8.287333332646085e-05,0.0,0.0,0.0,0.0,50.1,70.0,0.0,255.0,0.0
30.150000000000286,35.72461484669688,51.27425023465229,1499.9996351199225,5.630624997365885e-05,8.287333332646085e-05,0.0,1.1368683772161603e-12,0.0,0.0,50.1,70.0,0.0,255.0,0.0
30.200000000000287,35.72461766199786,51.27425437833933,1499.9996377984062,5.630625008734569e-05,8.287333332646085e-05,0.0,5.684341886080801e-13,0.0,0.0,50.1,70.0,0.0,255.0,0.0
30.250000000000288,35.724620477298856,51.27425852202637,1499.9996404787526,5.630625003050227e-05,8.287333332646085e-05,0.0,-1.1368683772161603e-12,0.0,0.0,50.1,70.0,0.0,255.0,0.0
30.30000000000029,35.72462329259984,51.274262665713415,1499.9996431581676,5.630624997365885e-05,8.287333332646085e-05,0.0,-5.684341886080801e-13,0.0,0.0,50.1,70.0,0.0,255.0,0.0
30.35000000000029,35.72462610790081,51.27426680940045,1499.9996458375826,5.630624997365885e-05,8.287333332646085e-05,0.0,0.0,0.0,0.0,50.1,70.0,0.0,255.0,0.0
30.40000000000029,35.7246289232018,51.27427095308749,1499.9996485188603,5.630624997365885e-05,8.287333332646085e-05,0.0,5.684341886080801e-13,0.0,0.0,50.1,70.0,0.0,255.0,0.0
30.45000000000029,35.72463173850279,51.274275096774524,1499.9996511964127,5.630625003050227e-05,8.287333332646085e-05,0.0,5.684341886080801e-13,1.1368683772161603e-12,0.0,50.1,70.0,0.0,255.0,0.0
30.50000000000029,35.724634553803774,51.274279240461574,1499.999653876759,5.630625003050227e-05,8.287333344014769e-05,0.0,-5.684341886080801e-13,0.0,0.0,50.1,70.0,0.0,255.0,0.0
30.550000000000292,35.72463736910476,51.27428338414861,1499.9996565552428,5.630624997365885e-05,8.287333332646085e-05,0.0,-5.684341886080801e-13,-2.2737367544323206e-12,0.0,50.1,70.0,0.0,255.0,0.0
30.600000000000293,35.72464018440574,51.27428752783564,1499.9996592374519,5.630624997365885e-05,8.287333321277401e-05,0.0,0.0,0.0,0.0,50.1,70.0,0.0,255.0,0.0
30.650000000000293,35.72464299970672,51.274291671522676,1499.9996619150043,5.630624997365885e-05,8.287333332646085e-05,0.0,0.0,2.2737367544323206e-12,0.0,50.1,70.0,0.0,255.0,0.0
30.700000000000294,35.72464581500771,51.274295815209726,1499.999664593488,5.630624997365885e-05,8.287333344014769e-05,0.0,1.1368683772161603e-12,0.0,0.0,50.1,70.0,0.0,255.0,0.0
30.750000000000295,35.72464863030869,51.27429995889676,1499.9996672738343,5.630625008734569e-05,8.287333332646085e-05,0.0,5.684341886080801e-13,-2.2737367544323206e-12,0.0,50.1,70.0,0.0,255.0,0.0
30.800000000000296,35.72465144560969,51.2743041025838,1499.9996699532494,5.630625003050227e-05,8.287333321277401e-05,0.0,-1.1368683772161603e-12,0.0,0.0,50.1,70.0,0.0,255.0,0.0
30.850000000000296,35.72465426091067,51.27430824627084,1499.9996726335958,5.630624997365885e-05,8.287333332646085e-05,0.0,-5.684341886080801e-13,2.2737367544323206e-12,0.0,50.1,70.0,0.0,255.0,0.0
30.900000000000297,35.72465707621165,51.27431238995788,1499.9996753130108,5.630624997365885e-05,8.287333344014769e-05,0.0,0.0,0.0,0.0,50.1,70.0,0.0,255.0,0.0
30.950000000000298,35.72465989151262,51.274316533644914,1499.9996779914945,5.630624997365885e-05,8.287333332646085e-05,0.0,5.684341886080801e-13,-1.1368683772161603e-12,0.0,50.1,70.0,0.0,255.0,0.0
31.0000000000003,35.72466270681362,51.27432067733196,1499.9996806709096,5.630625003050227e-05,8.287333332646085e-05,0.0,5.684341886080801e-13,1.1368683772161603e-12,0.0,50.1,70.0,0.0,255.0,0.0
31.0500000000003,35.72466552211461,51.27432482101899,1499.9996833493933,5.630625003050227e-05,8.287333344014769e-05,0.0,-5.684341886080801e-13,0.0,0.0,50.1,70.0,0.0,255.0,0.0
31.1000000000003,35.72466833741559,51.27432896470604,1499.9996860297397,5.630624997365885e-05,8.287333332646085e-05,0.0,-5.684341886080801e-13,-2.2737367544323206e-12,0.0,50.1,70.0,0.0,255.0,0.0
31.1500000000003,35.72467115271657,51.274333108393066,1499.9996887091547,5.630624997365885e-05,8.287333321277401e-05,0.0,0.0,0.0,0.0,50.1,70.0,0.0,255.0,0.0
31.2000000000003,35.724673968017555,51.27433725208011,1499.999691389501,5.630624997365885e-05,8.287333332646085e-05,0.0,5.684341886080801e-13,2.2737367544323206e-12,0.0,50.1,70.0,0.0,255.0,0.0
31.250000000000302,35.72467678331854,51.27434139576715,1499.9996940679848,5.630625003050227e-05,8.287333344014769e-05,0.0,1.1368683772161603e-12,0.0,0.0,50.1,70.0,0.0,255.0,0.0
31.300000000000303,35.72467959861953,51.274345539454195,1499.9996967483312,5.630625008734569e-05,8.287333332646085e-05,0.0,-5.684341886080801e-13,-2.2737367544323206e-12,0.0,50.1,70.0,0.0,255.0,0.0
31.350000000000303,35.72468241392052,51.274349683141224,1499.999699426815,5.630624997365885e-05,8.287333321277401e-05,0.0,-1.1368683772161603e-12,0.0,0.0,50.1,70.0,0.0,255.0,0.0
31.400000000000304,35.7246852292215,51.27435382682827,1499.9997021071613,5.630624997365885e-05,8.287333332646085e-05,0.0,0.0,2.2737367544323206e-12,0.0,50.1,70.0,0.0,255.0,0.0
31.450000000000305,35.72468804452248,51.274357970515304,1499.9997047865763,5.630624997365885e-05,8.287333344014769e-05,0.0,0.0,0.0,0.0,50.1,70.0,0.0,255.0,0.0
31.500000000000306,35.724690859823454,51.27436211420235,1499.9997074659914,5.630624997365885e-05,8.287333332646085e-05,0.0,5.684341886080801e-13,-1.1368683772161603e-12,0.0,50.1,70.0,0.0,255.0,0.0
31.550000000000306,35.72469367512445,51.27436625788938,1499.999710144475,5.630625003050227e-05,8.287333332646085e-05,0.0,5.684341886080801e-13,0.0,0.0,50.1,70.0,0.0,255.0,0.0
31.600000000000307,35.72469649042544,51.27437040157642,1499.9997128238901,5.630625003050227e-05,8.287333332646085e-05,0.0,-5.684341886080801e-13,0.0,0.0,50.1,70.0,0.0,255.0,0.0
31.650000000000308,35.72469930572642,51.274374545263456,1499.9997155051678,5.630624997365885e-05,8.287333332646085e-05,0.0,-5.684341886080801e-13,0.0,0.0,50.1,70.0,0.0,255.0,0.0
31.70000000000031,35.724702121027406,51.274378688950506,1499.9997181827202,5.630624997365885e-05,8.287333332646085e-05,0.0,0.0,0.0,0.0,50.1,70.0,0.0,255.0,0.0
31.75000000000031,35.724704936328386,51.27438283263754,1499.9997208630666,5.630624997365885e-05,8.287333332646085e-05,0.0,5.684341886080801e-13,0.0,0.0,50.1,70.0,0.0,255.0,0.0
31.80000000000031,35.724707751629374,51.274386976324585,1499.9997235415503,5.630625003050227e-05,8.287333332646085e-05,0.0,1.1368683772161603e-12,0.0,0.0,50.1,70.0,0.0,255.0,0.0
31.85000000000031,35.72471056693036,51.274391120011614,1499.9997262218967,5.630625008734569e-05,8.287333332646085e-05,0.0,-5.684341886080801e-13,0.0,0.0,50.1,70.0,0.0,255.0,0.0
31.90000000000031,35.72471338223136,51.27439526369866,1499.9997289003804,5.630624997365885e-05,8.287333332646085e-05,0.0,-1.1368683772161603e-12,0.0,0.0,50.1,70.0,0.0,255.0,0.0
31.950000000000312,35.72471619753232,51.2743994073857,1499.9997315816581,5.630624997365885e-05,8.287333332646085e-05,0.0,0.0,0.0,0.0,50.1,70.0,0.0,255.0,0.0
32.00000000000031,35.72471901283331,51.27440355107273,1499.9997342592105,5.630624997365885e-05,8.287333332646085e-05,0.0,0.0,0.0,0.0,50.1,70.0,0.0,255.0,0.0
32.05000000000031,35.724721828134285,51.274407694759766,1499.9997369386256,5.630624997365885e-05,8.287333332646085e-05,0.0,5.684341886080801e-13,-1.0842021724855044e-19,0.0,50.1,70.0,0.0,255.0,0.0
32.100000000000314,35.72472464343527,51.27441183844681,1499.9997396199033,5.630625003050227e-05,8.287333332646085e-05,0.0,5.684341886080801e-13,0.0,0.0,50.1,70.0,0.0,255.0,0.0
32.15000000000032,35.72472745873627,51.27441598213385,1499.999742298387,5.630625003050227e-05,8.287333332646085e-05,0.0,-5.684341886080801e-13,1.0842021724855044e-19,0.0,50.1,70.0,0.0,255.0,0.0
32.200000000000315,35.72473027403725,51.274420125820896,1499.9997449787334,5.630624997365885e-05,8.287333332646085e-05,0.0,-5.684341886080801e-13,0.0,0.0,50.1,70.0,0.0,255.0,0.0
32.25000000000031,35.72473308933824,51.274424269507925,1499.999747657217,5.630624997365885e-05,8.287333332646085e-05,0.0,0.0,-1.0842021724855044e-19,0.0,50.1,70.0,0.0,255.0,0.0
32.30000000000032,35.72473590463921,51.27442841319497,1499.9997503375635,5.630624997365885e-05,8.287333332646085e-05,0.0,5.684341886080801e-13,0.0,0.0,50.1,70.0,0.0,255.0,0.0
32.35000000000032,35.7247387199402,51.274432556882005,1499.9997530169785,5.630625003050227e-05,8.287333332646085e-05,0.0,5.684341886080801e-13,1.0842021724855044e-19,0.0,50.1,70.0,0.0,255.0,0.0
32.40000000000032,35.72474153524119,51.27443670056904,1499.9997556963935,5.630625003050227e-05,8.287333332646085e-05,0.0,-5.684341886080801e-13,0.0,0.0,50.1,70.0,0.0,255.0,0.0
32.450000000000315,35.724744350542174,51.274440844256084,1499.9997583748773,5.630624997365885e-05,8.287333332646085e-05,0.0,-5.684341886080801e-13,-1.0842021724855044e-19,0.0,50.1,70.0,0.0,255.0,0.0
32.50000000000032,35.724747165843155,51.274444987943134,1499.9997610542923,5.630624997365885e-05,8.287333332646085e-05,0.0,0.0,0.0,0.0,50.1,70.0,0.0,255.0,0.0
32.550000000000324,35.72474998114415,51.27444913163016,1499.999763732776,5.630624997365885e-05,8.287333332646085e-05,0.0,5.684341886080801e-13,1.0842021724855044e-19,0.0,50.1,70.0,0.0,255.0,0.0
32.60000000000032,35.724752796445124,51.27445327531721,1499.9997664131224,5.630625003050227e-05,8.287333332646085e-05,0.0,5.684341886080801e-13,1.1368683772161603e-12,0.0,50.1,70.0,0.0,255.0,0.0
32.65000000000032,35.72475561174611,51.27445741900424,1499.9997690944,5.630625003050227e-05,8.287333344014769e-05,0.0,-5.684341886080801e-13,-1.0842021724855044e-19,0.0,50.1,70.0,0.0,255.0,0.0
32.70000000000032,35.72475842704711,51.27446156269128,1499.9997717728838,5.630624997365885e-05,8.287333332646085e-05,0.0,0.0,-2.2737367544323206e-12,0.0,50.1,70.0,0.0,255.0,0.0
32.75000000000033,35.724761242348094,51.27446570637832,1499.9997744513676,5.630625003050227e-05,8.287333321277401e-05,0.0,0.0,1.0842021724855044e-19,0.0,50.1,70.0,0.0,255.0,0.0
32.800000000000324,35.72476405764907,51.27446985006536,1499.999777131714,5.630624997365885e-05,8.287333332646085e-05,0.0,-1.1368683772161603e-12,2.2737367544323206e-12,0.0,50.1,70.0,0.0,255.0,0.0
32.85000000000032,35.72476687295005,51.274473993752395,1499.9997798101977,5.630624991681543e-05,8.287333344014769e-05,0.0,1.1368683772161603e-12,1.136868268795943e-12,0.0,50.1,70.0,0.0,255.0,0.0
32.900000000000325,35.72476968825103,51.27447813743943,1499.9997824896127,5.630625008734569e-05,8.287333344014769e-05,0.0,1.7053025658242404e-12,-2.2737367544323206e-12,0.0,50.1,70.0,0.0,255.0,0.0
32.95000000000033,35.72477250355202,51.27448228112648,1499.9997851690277,5.630625008734569e-05,8.287333321277401e-05,0.0,-1.1368683772161603e-12,-1.136868268795943e-12,0.0,50.1,70.0,0.0,255.0,0.0
33.00000000000033,35.724775318853006,51.27448642481351,1499.9997878493741,5.630624997365885e-05,8.287333332646085e-05,0.0,-1.1368683772161603e-12,2.2737367544323206e-12,0.0,50.1,70.0,0.0,255.0,0.0
33.050000000000324,35.72477813415398,51.274490568500546,1499.9997905287892,5.630624997365885e-05,8.287333344014769e-05,0.0,0.0,1.136868268795943e-12,0.0,50.1,70.0,0.0,255.0,0.0
33.10000000000033,35.724780949454974,51.27449471218759,1499.9997932091355,5.630624997365885e-05,8.287333344014769e-05,0.0,5.684341886080801e-13,-2.2737367544323206e-12,0.0,50.1,70.0,0.0,255.0,0.0
33.15000000000033,35.72478376475595,51.27449885587463,1499.9997958885506,5.630625003050227e-05,8.287333321277401e-05,0.0,5.684341886080801e-13,-2.2737366460121033e-12,0.0,50.1,70.0,0.0,255.0,0.0
33.20000000000033,35.72478658005695,51.274502999561676,1499.9997985651717,5.630625003050227e-05,8.287333321277401e-05,0.0,-5.684341886080801e-13,2.2737367544323206e-12,0.0,50.1,70.0,0.0,255.0,0.0
33.25000000000033,35.72478939535793,51.274507143248705,1499.9998012464494,5.630624997365885e-05,8.287333344014769e-05,0.0,-5.684341886080801e-13,2.2737366460121033e-12,0.0,50.1,70.0,0.0,255.0,0.0
33.30000000000033,35.72479221065892,51.27451128693575,1499.999803924933,5.630624997365885e-05,8.287333344014769e-05,0.0,0.0,-1.1368683772161603e-12,0.0,50.1,70.0,0.0,255.0,0.0
33.350000000000335,35.72479502595991,51.274515430622785,1499.9998066043481,5.630624997365885e-05,8.287333332646085e-05,0.0,5.684341886080801e-13,-2.2737366460121033e-12,0.0,50.1,70.0,0.0,255.0,0.0
33.40000000000033,35.72479784126087,51.27451957430982,1499.9998092856258,5.630625003050227e-05,8.287333321277401e-05,0.0,5.684341886080801e-13,0.0,0.0,50.1,70.0,0.0,255.0,0.0
33.45000000000033,35.72480065656187,51.274523717996864,1499.9998119641095,5.630625003050227e-05,8.287333332646085e-05,0.0,-5.684341886080801e-13,1.136868268795943e-12,0.0,50.1,70.0,0.0,255.0,0.0
33.500000000000334,35.724803471862856,51.27452786168391,1499.999814644456,5.630624997365885e-05,8.287333332646085e-05,0.0,-5.684341886080801e-13,0.0,0.0,50.1,70.0,0.0,255.0,0.0
33.55000000000034,35.72480628716384,51.27453200537094,1499.9998173229396,5.630624997365885e-05,8.287333332646085e-05,0.0,0.0,1.0842021724855044e-19,0.0,50.1,70.0,0.0,255.0,0.0
33.600000000000335,35.72480910246481,51.27453614905798,1499.999820000492,5.630624997365885e-05,8.287333332646085e-05,0.0,0.0,0.0,0.0,50.1,70.0,0.0,255.0,0.0
33.65000000000033,35.72481191776579,51.274540292745016,1499.999822682701,5.630624997365885e-05,8.287333332646085e-05,0.0,5.684341886080801e-13,-1.0842021724855044e-19,0.0,50.1,70.0,0.0,255.0,0.0
33.70000000000034,35.72481473306678,51.27454443643206,1499.9998253611848,5.630625003050227e-05,8.287333332646085e-05,0.0,1.1368683772161603e-12,0.0,0.0,50.1,70.0,0.0,255.0,0.0
33.75000000000034,35.72481754836777,51.2745485801191,1499.9998280405998,5.630625008734569e-05,8.287333332646085e-05,0.0,-5.684341886080801e-13,1.0842021724855044e-19,0.0,50.1,70.0,0.0,255.0,0.0
33.80000000000034,35.724820363668755,51.27455272380614,1499.9998307200149,5.630624997365885e-05,8.287333332646085e-05,0.0,-1.7053025658242404e-12,0.0,0.0,50.1,70.0,0.0,255.0,0.0
33.850000000000335,35.72482317896974,51.27455686749317,1499.9998334003612,5.630624991681543e-05,8.287333332646085e-05,0.0,0.0,-1.0842021724855044e-19,0.0,50.1,70.0,0.0,255.0,0.0
33.90000000000034,35.724825994270724,51.27456101118021,1499.9998360779136,5.630624997365885e-05,8.287333332646085e-05,0.0,1.7053025658242404e-12,0.0,0.0,50.1,70.0,0.0,255.0,0.0
33.950000000000344,35.724828809571704,51.27456515486726,1499.9998387591913,5.630625008734569e-05,8.287333332646085e-05,0.0,1.1368683772161603e-12,1.0842021724855044e-19,0.0,50.1,70.0,0.0,255.0,0.0
34.00000000000034,35.7248316248727,51.27456929855429,1499.999841437675,5.630625008734569e-05,8.287333332646085e-05,0.0,-1.1368683772161603e-12,0.0,0.0,50.1,70.0,0.0,255.0,0.0
34.05000000000034,35.72483444017367,51.27457344224133,1499.9998441161588,5.630624997365885e-05,8.287333332646085e-05,0.0,-1.1368683772161603e-12,-1.0842021724855044e-19,0.0,50.1,70.0,0.0,255.0,0.0
34.10000000000034,35.724837255474675,51.27457758592837,1499.9998467955738,5.630624997365885e-05,8.287333332646085e-05,0.0,0.0,0.0,0.0,50.1,70.0,0.0,255.0,0.0
34.15000000000035,35.72484007077565,51.27458172961541,1499.9998494777828,5.630624997365885e-05,8.287333332646085e-05,0.0,0.0,1.0842021724855044e-19,0.0,50.1,70.0,0.0,255.0,0.0
34.200000000000344,35.72484288607663,51.27458587330244,1499.9998521562666,5.630624997365885e-05,8.287333332646085e-05,0.0,5.684341886080801e-13,1.1368683772161603e-12,0.0,50.1,70.0,0.0,255.0,0.0
34.25000000000034,35.72484570137761,51.274590016989485,1499.9998548356816,5.630625003050227e-05,8.287333344014769e-05,0.0,5.684341886080801e-13,-1.0842021724855044e-19,0.0,50.1,70.0,0.0,255.0,0.0
34.300000000000345,35.724848516678605,51.27459416067653,1499.9998575141653,5.630625003050227e-05,8.287333332646085e-05,0.0,-5.684341886080801e-13,-2.2737367544323206e-12,0.0,50.1,70.0,0.0,255.0,0.0
34.35000000000035,35.724851331979586,51.27459830436356,1499.999860192649,5.630624997365885e-05,8.287333321277401e-05,0.0,-5.684341886080801e-13,1.0842021724855044e-19,0.0,50.1,70.0,0.0,255.0,0.0
34.40000000000035,35.724854147280574,51.27460244805061,1499.999862872064,5.630624997365885e-05,8.287333332646085e-05,0.0,0.0,2.2737367544323206e-12,0.0,50.1,70.0,0.0,255.0,0.0
34.450000000000344,35.724856962581555,51.274606591737644,1499.9998655524105,5.630624997365885e-05,8.287333344014769e-05,0.0,5.684341886080801e-13,1.136868268795943e-12,0.0,50.1,70.0,0.0,255.0,0.0
34.50000000000035,35.724859777882536,51.27461073542469,1499.9998682327569,5.630625003050227e-05,8.287333344014769e-05,0.0,5.684341886080801e-13,-2.2737367544323206e-12,0.0,50.1,70.0,0.0,255.0,0.0
34.55000000000035,35.72486259318353,51.274614879111724,1499.9998709112406,5.630625003050227e-05,8.287333321277401e-05,0.0,-5.684341886080801e-13,-1.136868268795943e-12,0.0,50.1,70.0,0.0,255.0,0.0
34.60000000000035,35.724865408484504,51.27461902279876,1499.999873591587,5.630624997365885e-05,8.287333332646085e-05,0.0,-5.684341886080801e-13,2.2737367544323206e-12,0.0,50.1,70.0,0.0,255.0,0.0
34.65000000000035,35.724868223785485,51.274623166485796,1499.999876271002,5.630624997365885e-05,8.287333344014769e-05,0.0,0.0,1.136868268795943e-12,0.0,50.1,70.0,0.0,255.0,0.0
34.70000000000035,35.72487103908648,51.274627310172846,1499.9998789494857,5.630624997365885e-05,8.287333344014769e-05,0.0,1.1368683772161603e-12,-2.2737367544323206e-12,0.0,50.1,70.0,0.0,255.0,0.0
34.750000000000355,35.72487385438747,51.27463145385988,1499.9998816289008,5.630625008734569e-05,8.287333321277401e-05,0.0,5.684341886080801e-13,-2.2737366460121033e-12,0.0,50.1,70.0,0.0,255.0,0.0
34.80000000000035,35.72487666968845,51.27463559754692,1499.9998843092471,5.630625003050227e-05,8.287333321277401e-05,0.0,-1.7053025658242404e-12,2.2737367544323206e-12,0.0,50.1,70.0,0.0,255.0,0.0
34.85000000000035,35.72487948498944,51.27463974123395,1499.9998869895935,5.630624991681543e-05,8.287333344014769e-05,0.0,-5.684341886080801e-13,2.2737366460121033e-12,0.0,50.1,70.0,0.0,255.0,0.0
34.900000000000354,35.72488230029041,51.274643884921,1499.9998896690086,5.630624997365885e-05,8.287333344014769e-05,0.0,1.1368683772161603e-12,-1.1368683772161603e-12,0.0,50.1,70.0,0.0,255.0,0.0
34.95000000000036,35.724885115591405,51.27464802860803,1499.9998923474923,5.630625003050227e-05,8.287333332646085e-05,0.0,0.0,-2.2737366460121033e-12,0.0,50.1,70.0,0.0,255.0,0.0
35.000000000000355,35.724887930892386,51.27465217229506,1499.9998950269073,5.630624997365885e-05,8.287333321277401e-05,0.0,0.0,0.0,0.0,50.1,70.0,0.0,255.0,0.0
35.05000000000035,35.72489074619337,51.27465631598211,1499.9998977072537,5.630625003050227e-05,8.287333332646085e-05,0.0,1.1368683772161603e-12,1.136868268795943e-12,0.0,50.1,70.0,0.0,255.0,0.0
35.10000000000036,35.72489356149435,51.27466045966915,1499.9999003857374,5.630625008734569e-05,8.287333332646085e-05,0.0,-5.684341886080801e-13,0.0,0.0,50.1,70.0,0.0,255.0,0.0
35.15000000000036,35.72489637679534,51.27466460335619,1499.9999030642211,5.630624997365885e-05,8.287333332646085e-05,0.0,-1.1368683772161603e-12,1.0842021724855044e-19,0.0,50.1,70.0,0.0,255.0,0.0
35.20000000000036,35.72489919209631,51.27466874704323,1499.9999057454988,5.630624997365885e-05,8.287333332646085e-05,0.0,0.0,0.0,0.0,50.1,70.0,0.0,255.0,0.0
35.250000000000355,35.724902007397304,51.274672890730265,1499.9999084239826,5.630624997365885e-05,8.287333332646085e-05,0.0,5.684341886080801e-13,-1.0842021724855044e-19,0.0,50.1,70.0,0.0,255.0,0.0
35.30000000000036,35.72490482269829,51.2746770344173,1499.9999111033976,5.630625003050227e-05,8.287333332646085e-05,0.0,5.684341886080801e-13,0.0,0.0,50.1,70.0,0.0,255.0,0.0
35.350000000000364,35.72490763799928,51.274681178104345,1499.9999137828127,5.630625003050227e-05,8.287333332646085e-05,0.0,-5.684341886080801e-13,1.0842021724855044e-19,0.0,50.1,70.0,0.0,255.0,0.0
35.40000000000036,35.72491045330026,51.27468532179139,1499.9999164622277,5.630624997365885e-05,8.287333332646085e-05,0.0,-5.684341886080801e-13,0.0,0.0,50.1,70.0,0.0,255.0,0.0
35.45000000000036,35.72491326860124,51.27468946547842,1499.9999191416427,5.630624997365885e-05,8.287333332646085e-05,0.0,0.0,-1.0842021724855044e-19,0.0,50.1,70.0,0.0,255.0,0.0
35.50000000000036,35.72491608390223,51.27469360916547,1499.9999218210578,5.630624997365885e-05,8.287333332646085e-05,0.0,0.0,0.0,0.0,50.1,70.0,0.0,255.0,0.0
35.55000000000037,35.72491889920321,51.2746977528525,1499.9999245014042,5.630624997365885e-05,8.287333332646085e-05,0.0,5.684341886080801e-13,1.0842021724855044e-19,0.0,50.1,70.0,0.0,255.0,0.0
35.600000000000364,35.7249217145042,51.27470189653953,1499.9999271808192,5.630625003050227e-05,8.287333332646085e-05,0.0,5.684341886080801e-13,0.0,0.0,50.1,70.0,0.0,255.0,0.0
35.65000000000036,35.724924529805186,51.274706040226576,1499.999929859303,5.630625003050227e-05,8.287333332646085e-05,0.0,-5.684341886080801e-13,-1.0842021724855044e-19,0.0,50.1,70.0,0.0,255.0,0.0
35.700000000000365,35.72492734510617,51.27471018391362,1499.999932538718,5.630624997365885e-05,8.287333332646085e-05,0.0,-5.684341886080801e-13,0.0,0.0,50.1,70.0,0.0,255.0,0.0
35.75000000000037,35.72493016040715,51.274714327600655,1499.9999352190644,5.630624997365885e-05,8.287333332646085e-05,0.0,0.0,1.0842021724855044e-19,0.0,50.1,70.0,0.0,255.0,0.0
35.80000000000037,35.724932975708136,51.27471847128769,1499.999937897548,5.630624997365885e-05,8.287333332646085e-05,0.0,5.684341886080801e-13,1.1368683772161603e-12,0.0,50.1,70.0,0.0,255.0,0.0
35.850000000000364,35.72493579100912,51.274722614974735,1499.9999405760318,5.630625003050227e-05,8.287333344014769e-05,0.0,5.684341886080801e-13,-1.0842021724855044e-19,0.0,50.1,70.0,0.0,255.0,0.0
35.90000000000037,35.7249386063101,51.27472675866178,1499.9999432582408,5.630625003050227e-05,8.287333332646085e-05,0.0,0.0,-2.2737367544323206e-12,0.0,50.1,70.0,0.0,255.0,0.0
35.95000000000037,35.72494142161109,51.274730902348814,1499.9999459357932,5.630625003050227e-05,8.287333321277401e-05,0.0,-5.684341886080801e-13,1.0842021724855044e-19,0.0,50.1,70.0,0.0,255.0,0.0
36.00000000000037,35.72494423691207,51.27473504603585,1499.999948617071,5.630624997365885e-05,8.287333332646085e-05,0.0,-1.1368683772161603e-12,2.2737367544323206e-12,0.0,50.1,70.0,0.0,255.0,0.0
36.05000000000037,35.724947052213054,51.27473918972289,1499.9999512955546,5.630624991681543e-05,8.287333344014769e-05,0.0,1.1368683772161603e-12,1.136868268795943e-12,0.0,50.1,70.0,0.0,255.0,0.0
36.10000000000037,35.72494986751404,51.27474333340992,1499.9999539749697,5.630625008734569e-05,8.287333344014769e-05,0.0,1.7053025658242404e-12,-2.2737367544323206e-12,0.0,50.1,70.0,0.0,255.0,0.0
36.150000000000375,35.72495268281504,51.27474747709697,1499.9999566543847,5.630625008734569e-05,8.287333321277401e-05,0.0,-1.1368683772161603e-12,-1.136868268795943e-12,0.0,50.1,70.0,0.0,255.0,0.0
36.20000000000037,35.72495549811601,51.27475162078401,1499.9999593337998,5.630624997365885e-05,8.287333332646085e-05,0.0,-1.1368683772161603e-12,2.2737367544323206e-12,0.0,50.1,70.0,0.0,255.0,0.0
36.25000000000037,35.724958313417,51.274755764471045,1499.9999620122835,5.630624997365885e-05,8.287333344014769e-05,0.0,0.0,1.136868268795943e-12,0.0,50.1,70.0,0.0,255.0,0.0
36.300000000000374,35.72496112871798,51.274759908158096,1499.9999646935612,5.630624997365885e-05,8.287333344014769e-05,0.0,0.0,-2.2737367544323206e-12,0.0,50.1,70.0,0.0,255.0,0.0
36.35000000000038,35.72496394401897,51.274764051845125,1499.999967372045,5.630624997365885e-05,8.287333321277401e-05,0.0,5.684341886080801e-13,-2.2737366460121033e-12,0.0,50.1,70.0,0.0,255.0,0.0
36.400000000000375,35.72496675931995,51.27476819553216,1499.99997005146,5.630625003050227e-05,8.287333321277401e-05,0.0,5.684341886080801e-13,2.2737367544323206e-12,0.0,50.1,70.0,0.0,255.0,0.0
36.45000000000037,35.724969574620935,51.2747723392192,1499.999972730875,5.630625003050227e-05,8.287333344014769e-05,0.0,-5.684341886080801e-13,2.2737366460121033e-12,0.0,50.1,70.0,0.0,255.0,0.0
36.50000000000038,35.724972389921916,51.27477648290625,1499.9999754093587,5.630624997365885e-05,8.287333344014769e-05,0.0,-5.684341886080801e-13,-1.1368683772161603e-12,0.0,50.1,70.0,0.0,255.0,0.0
36.55000000000038,35.7249752052229,51.27478062659328,1499.999978089705,5.630624997365885e-05,8.287333332646085e-05,0.0,0.0,-2.2737366460121033e-12,0.0,50.1,70.0,0.0,255.0,0.0
36.60000000000038,35.724978020523864,51.27478477028031,1499.9999807700515,5.630624997365885e-05,8.287333321277401e-05,0.0,5.684341886080801e-13,0.0,0.0,50.1,70.0,0.0,255.0,0.0
36.650000000000375,35.724980835824866,51.27478891396736,1499.9999834485352,5.630625003050227e-05,8.287333332646085e-05,0.0,5.684341886080801e-13,1.136868268795943e-12,0.0,50.1,70.0,0.0,255.0,0.0
36.70000000000038,35.72498365112586,51.274793057654406,1499.9999861279503,5.630625003050227e-05,8.287333332646085e-05,0.0,-5.684341886080801e-13,0.0,0.0,50.1,70.0,0.0,255.0,0.0
36.750000000000384,35.724986466426834,51.274797201341435,1499.999988806434,5.630624997365885e-05,8.287333332646085e-05,0.0,-5.684341886080801e-13,1.0842021724855044e-19,0.0,50.1,70.0,0.0,255.0,0.0
36.80000000000038,35.72498928172783,51.27480134502848,1499.9999914867803,5.630624997365885e-05,8.287333332646085e-05,0.0,0.0,0.0,0.0,50.1,70.0,0.0,255.0,0.0
36.85000000000038,35.7249920970288,51.27480548871551,1499.9999941671267,5.630624997365885e-05,8.287333332646085e-05,0.0,0.0,-1.0842021724855044e-19,0.0,50.1,70.0,0.0,255.0,0.0
36.90000000000038,35.724994912329784,51.27480963240256,1499.999996847473,5.630624997365885e-05,8.287333332646085e-05,0.0,1.1368683772161603e-12,0.0,0.0,50.1,70.0,0.0,255.0,0.0
36.95000000000039,35.72499772763077,51.2748137760896,1499.9999995250255,5.630625008734569e-05,8.287333332646085e-05,0.0,5.684341886080801e-13,1.0842021724855044e-19,0.0,50.1,70.0,0.0,255.0,0.0
37.000000000000384,35.72500054293176,51.27481791977663,1500.0000022053719,5.630625003050227e-05,8.287333332646085e-05,0.0,-1.7053025658242404e-12,0.0,0.0,50.1,70.0,0.0,255.0,0.0
37.05000000000038,35.72500335823275,51.27482206346366,1500.0000048838556,5.630624991681543e-05,8.287333332646085e-05,0.0,-5.684341886080801e-13,-1.0842021724855044e-19,0.0,50.1,70.0,0.0,255.0,0.0
37.100000000000385,35.72500617353373,51.27482620715071,1500.000007564202,5.630624997365885e-05,8.287333332646085e-05,0.0,1.1368683772161603e-12,0.0,0.0,50.1,70.0,0.0,255.0,0.0
37.15000000000039,35.725008988834716,51.27483035083775,1500.000010243617,5.630625003050227e-05,8.287333332646085e-05,0.0,1.1368683772161603e-12,1.0842021724855044e-19,0.0,50.1,70.0,0.0,255.0,0.0
37.20000000000039,35.72501180413569,51.27483449452479,1500.000012923032,5.630625008734569e-05,8.287333332646085e-05,0.0,0.0,0.0,0.0,50.1,70.0,0.0,255.0,0.0
37.250000000000384,35.72501461943669,51.27483863821182,1500.0000156015158,5.630625003050227e-05,8.287333332646085e-05,0.0,-1.1368683772161603e-12,-1.0842021724855044e-19,0.0,50.1,70.0,0.0,255.0,0.0
37.30000000000039,35.72501743473767,51.27484278189887,1500.0000182818621,5.630624997365885e-05,8.287333332646085e-05,0.0,-5.684341886080801e-13,0.0,0.0,50.1,70.0,0.0,255.0,0.0
37.35000000000039,35.725020250038654,51.2748469255859,1500.0000209612772,5.630624997365885e-05,8.287333332646085e-05,0.0,0.0,1.0842021724855044e-19,0.0,50.1,70.0,0.0,255.0,0.0
37.40000000000039,35.72502306533963,51.27485106927294,1500.0000236388296,5.630624997365885e-05,8.287333332646085e-05,0.0,5.684341886080801e-13,1.1368683772161603e-12,0.0,50.1,70.0,0.0,255.0,0.0
37.45000000000039,35.72502588064062,51.274855212959984,1500.0000263201073,5.630625003050227e-05,8.287333344014769e-05,0.0,5.684341886080801e-13,-1.0842021724855044e-19,0.0,50.1,70.0,0.0,255.0,0.0
37.50000000000039,35.7250286959416,51.27485935664703,1500.000029001385,5.630625003050227e-05,8.287333332646085e-05,0.0,-5.684341886080801e-13,-2.2737367544323206e-12,0.0,50.1,70.0,0.0,255.0,0.0
37.550000000000395,35.72503151124259,51.27486350033406,1500.0000316798687,5.630624997365885e-05,8.287333321277401e-05,0.0,-5.684341886080801e-13,1.0842021724855044e-19,0.0,50.1,70.0,0.0,255.0,0.0
37.60000000000039,35.72503432654358,51.2748676440211,1500.000034357421,5.630624997365885e-05,8.287333332646085e-05,0.0,0.0,2.2737367544323206e-12,0.0,50.1,70.0,0.0,255.0,0.0
