t,lat,lon,alt,vx,vy,vz,ax,ay,az,yaw,mode,ledr,ledg,ledb
10.0,35.69822383026352,51.268621414093786,1319.999592397362,-6.898589290926696e-05,-2.104821433590557e-05,0.0,1.7052830501851115e-12,5.684282254961234e-13,0.0,193.9,70.0,0.0,255.0,0.0
10.05,35.698220271116746,51.2686206160508,1319.9995923172683,-6.89858928240028e-05,-2.104821430748416e-05,0.0,8.526415250925679e-13,1.421082489964226e-12,0.0,193.82758928571428,70.0,0.0,255.0,0.0
10.100000000000001,35.698216712232295,51.268619818177775,1319.9995922343805,-6.89858928240028e-05,-2.104821419379732e-05,0.0,-5.684341886080801e-13,0.0,0.0,193.7551785714286,70.0,0.0,255.0,0.0
10.150000000000002,35.69821315361031,51.26861902047432,1319.9995921552181,-6.898589288084622e-05,-2.104821430748416e-05,0.0,0.0,-1.1368683772161603e-12,0.0,193.68276785714286,70.0,0.0,255.0,0.0
10.200000000000003,35.698209595250994,51.26861822294003,1319.999592079781,-6.89858928240028e-05,-2.104821430748416e-05,0.0,0.0,0.0,0.0,193.61035714285714,70.0,0.0,255.0,0.0
10.250000000000004,35.69820603715454,51.26861742557449,1319.9995920052752,-6.898589288084622e-05,-2.104821430748416e-05,0.0,-5.684341886080801e-13,0.0,0.0,193.53794642857142,70.0,0.0,255.0,0.0
10.300000000000004,35.69820247932107,51.2686166283773,1319.9995919307694,-6.898589288084622e-05,-2.104821430748416e-05,0.0,5.684341886080801e-13,1.1368683772161603e-12,0.0,193.46553571428572,70.0,0.0,255.0,0.0
10.350000000000005,35.698198921750794,51.26861583134804,1319.9995918599889,-6.89858928240028e-05,-2.104821419379732e-05,0.0,0.0,0.0,0.0,193.393125,70.0,0.0,255.0,0.0
10.400000000000006,35.69819536444386,51.268615034486324,1319.9995917901397,-6.898589288084622e-05,-2.104821430748416e-05,0.0,0.0,-1.1368683772161603e-12,0.0,193.32071428571427,70.0,0.0,255.0,0.0
10.450000000000006,35.69819180740047,51.26861423779171,1319.9995917184278,-6.89858928240028e-05,-2.104821430748416e-05,0.0,5.684341886080801e-13,0.0,0.0,193.24830357142858,70.0,0.0,255.0,0.0
10.500000000000007,35.698188250620774,51.26861344126382,1319.999591652304,-6.89858928240028e-05,-2.104821430748416e-05,0.0,-1.1368683772161603e-12,0.0,0.0,193.17589285714286,70.0,0.0,255.0,0.0
10.550000000000008,35.69818469410495,51.26861264490223,1319.9995915852487,-6.898589293768964e-05,-2.104821430748416e-05,0.0,-5.684341886080801e-13,1.1368683772161603e-12,0.0,193.10348214285713,70.0,0.0,255.0,0.0
10.600000000000009,35.69818113785318,51.26861184870653,1319.9995915209875,-6.898589288084622e-05,-2.104821419379732e-05,0.0,1.1368683772161603e-12,0.0,0.0,193.0310714285714,70.0,0.0,255.0,0.0
10.65000000000001,35.69817758186561,51.26861105267631,1319.9995914585888,-6.89858928240028e-05,-2.104821430748416e-05,0.0,5.684341886080801e-13,-1.1368683772161603e-12,0.0,192.9586607142857,70.0,0.0,255.0,0.0
10.70000000000001,35.698174026142425,51.26861025681118,1319.9995913961902,-6.89858928240028e-05,-2.104821430748416e-05,0.0,0.0,1.1368683772161603e-12,0.0,192.88625,70.0,0.0,255.0,0.0
10.75000000000001,35.6981704706838,51.268609461110714,1319.999591337517,-6.89858928240028e-05,-2.104821419379732e-05,0.0,-5.684341886080801e-13,0.0,0.0,192.81383928571427,70.0,0.0,255.0,0.0
10.800000000000011,35.69816691548991,51.268608665574504,1319.999591279775,-6.898589288084622e-05,-2.104821430748416e-05,0.0,0.0,-2.2737367544323206e-12,0.0,192.74142857142857,70.0,0.0,255.0,0.0
10.850000000000012,35.69816336056089,51.268607870202146,1319.9995912229642,-6.89858928240028e-05,-2.1048214421170997e-05,0.0,0.0,0.0,0.0,192.66901785714285,70.0,0.0,255.0,0.0
10.900000000000013,35.69815980589695,51.268607074993206,1319.9995911670849,-6.898589288084622e-05,-2.104821430748416e-05,0.0,-1.1368683772161603e-12,2.2737367544323206e-12,0.0,192.59660714285712,70.0,0.0,255.0,0.0
10.950000000000014,35.69815625149823,51.268606279947306,1319.9995911130682,-6.898589293768964e-05,-2.104821419379732e-05,0.0,5.684341886080801e-13,0.0,0.0,192.5241964285714,70.0,0.0,255.0,0.0
11.000000000000014,35.698152697364904,51.26860548506402,1319.9995910618454,-6.89858928240028e-05,-2.104821430748416e-05,0.0,1.1368683772161603e-12,-1.1368683772161603e-12,0.0,192.4517857142857,70.0,0.0,255.0,0.0
11.050000000000015,35.698149143497155,51.268604690342926,1319.9995910096914,-6.89858928240028e-05,-2.104821430748416e-05,0.0,-5.684341886080801e-13,0.0,0.0,192.37937499999998,70.0,0.0,255.0,0.0
11.100000000000016,35.69814558989514,51.26860389578363,1319.999590962194,-6.898589288084622e-05,-2.104821430748416e-05,0.0,0.0,0.0,0.0,192.30696428571426,70.0,0.0,255.0,0.0
11.150000000000016,35.69814203655903,51.26860310138571,1319.9995909128338,-6.89858928240028e-05,-2.104821430748416e-05,0.0,0.0,1.1368683772161603e-12,0.0,192.23455357142856,70.0,0.0,255.0,0.0
11.200000000000017,35.69813848348897,51.26860230714876,1319.999590867199,-6.898589288084622e-05,-2.104821419379732e-05,0.0,-5.684341886080801e-13,0.0,0.0,192.16214285714284,70.0,0.0,255.0,0.0
11.250000000000018,35.698134930685136,51.26860151307236,1319.9995908234268,-6.898589288084622e-05,-2.104821430748416e-05,0.0,5.684341886080801e-13,-1.1368683772161603e-12,0.0,192.08973214285712,70.0,0.0,255.0,0.0
11.300000000000018,35.698131378147735,51.268600719156105,1319.999590777792,-6.89858928240028e-05,-2.104821430748416e-05,0.0,0.0,1.1368683772161603e-12,0.0,192.01732142857142,70.0,0.0,255.0,0.0
11.35000000000002,35.698127825876846,51.26859992539958,1319.9995907368138,-6.898589288084622e-05,-2.104821419379732e-05,0.0,0.0,0.0,0.0,191.9449107142857,70.0,0.0,255.0,0.0
11.40000000000002,35.69812427387271,51.26859913180237,1319.9995906986296,-6.89858928240028e-05,-2.104821430748416e-05,0.0,5.684341886080801e-13,-1.1368683772161603e-12,0.0,191.87249999999997,70.0,0.0,255.0,0.0
11.45000000000002,35.69812072213547,51.26859833836406,1319.9995906585827,-6.89858928240028e-05,-2.104821430748416e-05,0.0,-1.1368683772161603e-12,0.0,0.0,191.80008928571425,70.0,0.0,255.0,0.0
11.500000000000021,35.69811717066527,51.26859754508424,1319.9995906222612,-6.898589293768964e-05,-2.104821430748416e-05,0.0,-5.684341886080801e-13,0.0,0.0,191.72767857142856,70.0,0.0,255.0,0.0
11.550000000000022,35.69811361946229,51.26859675196249,1319.9995905859396,-6.898589288084622e-05,-2.104821430748416e-05,0.0,1.1368683772161603e-12,1.1368683772161603e-12,0.0,191.65526785714283,70.0,0.0,255.0,0.0
11.600000000000023,35.69811006852671,51.268595958998404,1319.999590549618,-6.89858928240028e-05,-2.104821419379732e-05,0.0,0.0,0.0,0.0,191.5828571428571,70.0,0.0,255.0,0.0
11.650000000000023,35.69810651785864,51.26859516619157,1319.9995905170217,-6.898589288084622e-05,-2.104821430748416e-05,0.0,0.0,-2.2737367544323206e-12,0.0,191.5104464285714,70.0,0.0,255.0,0.0
11.700000000000024,35.69810296745828,51.26859437354156,1319.999590486288,-6.89858928240028e-05,-2.1048214421170997e-05,0.0,5.684341886080801e-13,0.0,0.0,191.4380357142857,70.0,0.0,255.0,0.0
11.750000000000025,35.69809941732581,51.268593581047966,1319.9995904564857,-6.89858928240028e-05,-2.104821430748416e-05,0.0,0.0,2.2737367544323206e-12,0.0,191.36562499999997,70.0,0.0,255.0,0.0
11.800000000000026,35.69809586746134,51.26859278871038,1319.999590428546,-6.89858928240028e-05,-2.104821419379732e-05,0.0,-5.684341886080801e-13,0.0,0.0,191.29321428571424,70.0,0.0,255.0,0.0
11.850000000000026,35.698092317865076,51.26859199652838,1319.9995904006064,-6.898589288084622e-05,-2.104821430748416e-05,0.0,-1.1368683772161603e-12,-1.1368683772161603e-12,0.0,191.22080357142855,70.0,0.0,255.0,0.0
11.900000000000027,35.69808876853715,51.26859120450153,1319.9995903754607,-6.898589293768964e-05,-2.104821430748416e-05,0.0,5.684341886080801e-13,1.1368683772161603e-12,0.0,191.14839285714282,70.0,0.0,255.0,0.0
11.950000000000028,35.698085219477726,51.26859041262946,1319.9995903512463,-6.89858928240028e-05,-2.104821419379732e-05,0.0,1.1368683772161603e-12,0.0,0.0,191.0759821428571,70.0,0.0,255.0,0.0
12.000000000000028,35.69808167068699,51.26858962091172,1319.9995903251693,-6.89858928240028e-05,-2.104821430748416e-05,0.0,-5.684341886080801e-13,-1.1368683772161603e-12,0.0,191.0035714285714,70.0,0.0,255.0,0.0
12.05000000000003,35.69807812216505,51.268588829347905,1319.9995903056115,-6.898589288084622e-05,-2.104821430748416e-05,0.0,0.0,0.0,0.0,190.93116071428568,70.0,0.0,255.0,0.0
12.10000000000003,35.6980745739121,51.26858803793759,1319.9995902851224,-6.89858928240028e-05,-2.104821430748416e-05,0.0,0.0,0.0,0.0,190.85874999999996,70.0,0.0,255.0,0.0
12.15000000000003,35.69807102592831,51.26858724668037,1319.999590266496,-6.898589288084622e-05,-2.104821430748416e-05,0.0,-5.684341886080801e-13,1.1368683772161603e-12,0.0,190.78633928571423,70.0,0.0,255.0,0.0
12.200000000000031,35.69806747821381,51.268586455575814,1319.9995902497321,-6.898589288084622e-05,-2.104821419379732e-05,0.0,5.684341886080801e-13,0.0,0.0,190.71392857142854,70.0,0.0,255.0,0.0
12.250000000000032,35.69806393076877,51.268585664623515,1319.9995902338997,-6.89858928240028e-05,-2.104821430748416e-05,0.0,0.0,-1.1368683772161603e-12,0.0,190.64151785714282,70.0,0.0,255.0,0.0
12.300000000000033,35.698060383593344,51.26858487382305,1319.9995902208611,-6.898589288084622e-05,-2.104821430748416e-05,0.0,0.0,0.0,0.0,190.5691071428571,70.0,0.0,255.0,0.0
12.350000000000033,35.69805683668767,51.26858408317401,1319.9995902050287,-6.89858928240028e-05,-2.104821430748416e-05,0.0,5.684341886080801e-13,0.0,0.0,190.4966964285714,70.0,0.0,255.0,0.0
12.400000000000034,35.69805329005194,51.26858329267597,1319.9995901966467,-6.89858928240028e-05,-2.104821430748416e-05,0.0,-1.1368683772161603e-12,1.1368683772161603e-12,0.0,190.42428571428567,70.0,0.0,255.0,0.0
12.450000000000035,35.698049743686276,51.2685825023285,1319.9995901845396,-6.898589293768964e-05,-2.104821419379732e-05,0.0,-5.684341886080801e-13,0.0,0.0,190.35187499999995,70.0,0.0,255.0,0.0
12.500000000000036,35.69804619759086,51.2685817121312,1319.999590177089,-6.898589288084622e-05,-2.104821430748416e-05,0.0,1.1368683772161603e-12,-1.1368683772161603e-12,0.0,190.27946428571423,70.0,0.0,255.0,0.0
12.550000000000036,35.69804265176584,51.26858092208364,1319.9995901677758,-6.89858928240028e-05,-2.104821430748416e-05,0.0,0.0,1.1368683772161603e-12,0.0,190.20705357142853,70.0,0.0,255.0,0.0
12.600000000000037,35.69803910621137,51.26858013218542,1319.9995901621878,-6.898589288084622e-05,-2.104821419379732e-05,0.0,0.0,0.0,0.0,190.1346428571428,70.0,0.0,255.0,0.0
12.650000000000038,35.69803556092756,51.2685793424361,1319.9995901575312,-6.89858928240028e-05,-2.104821430748416e-05,0.0,5.684341886080801e-13,-2.2737367544323206e-12,0.0,190.06223214285708,70.0,0.0,255.0,0.0
12.700000000000038,35.69803201591465,51.26857855283526,1319.999590153806,-6.89858928240028e-05,-2.1048214421170997e-05,0.0,0.0,0.0,0.0,189.9898214285714,70.0,0.0,255.0,0.0
12.750000000000039,35.69802847117271,51.26857776338249,1319.9995901519433,-6.89858928240028e-05,-2.104821430748416e-05,0.0,-5.684341886080801e-13,2.2737367544323206e-12,0.0,189.91741071428567,70.0,0.0,255.0,0.0
12.80000000000004,35.69802492670195,51.26857697407737,1319.9995901519433,-6.898589288084622e-05,-2.104821419379732e-05,0.0,-1.1368683772161603e-12,1.1368683772161603e-12,0.0,189.84499999999994,70.0,0.0,255.0,0.0
12.85000000000004,35.69802138250249,51.26857618491946,1319.9995901528746,-6.898589293768964e-05,-2.104821419379732e-05,0.0,5.684341886080801e-13,-1.1368683772161603e-12,0.0,189.77258928571422,70.0,0.0,255.0,0.0
12.900000000000041,35.698017838574486,51.268575395908385,1319.999590153806,-6.89858928240028e-05,-2.104821430748416e-05,0.0,1.1368683772161603e-12,-2.2737367544323206e-12,0.0,189.70017857142852,70.0,0.0,255.0,0.0
12.950000000000042,35.69801429491811,51.268574607043675,1319.9995901584625,-6.89858928240028e-05,-2.1048214421170997e-05,0.0,-5.684341886080801e-13,0.0,0.0,189.6277678571428,70.0,0.0,255.0,0.0
13.000000000000043,35.69801075153348,51.26857381832493,1319.9995901631191,-6.898589288084622e-05,-2.104821430748416e-05,0.0,0.0,2.2737367544323206e-12,0.0,189.55535714285708,70.0,0.0,255.0,0.0
13.050000000000043,35.69800720842077,51.26857302975174,1319.999590168707,-6.89858928240028e-05,-2.104821419379732e-05,0.0,0.0,0.0,0.0,189.48294642857138,70.0,0.0,255.0,0.0
13.100000000000044,35.69800366558014,51.26857224132367,1319.9995901752263,-6.898589288084622e-05,-2.104821430748416e-05,0.0,-1.1368683772161603e-12,-1.1368683772161603e-12,0.0,189.41053571428566,70.0,0.0,255.0,0.0
13.150000000000045,35.69800012301169,51.26857145304029,1319.9995901864022,-6.898589293768964e-05,-2.104821430748416e-05,0.0,5.684341886080801e-13,1.1368683772161603e-12,0.0,189.33812499999993,70.0,0.0,255.0,0.0
13.200000000000045,35.697996580715625,51.2685706649012,1319.999590194784,-6.89858928240028e-05,-2.104821419379732e-05,0.0,1.1368683772161603e-12,0.0,0.0,189.26571428571424,70.0,0.0,255.0,0.0
13.250000000000046,35.69799303869207,51.26856987690596,1319.9995902078226,-6.89858928240028e-05,-2.104821430748416e-05,0.0,0.0,-1.1368683772161603e-12,0.0,189.19330357142852,70.0,0.0,255.0,0.0
13.300000000000047,35.697989496941155,51.26856908905414,1319.9995902199298,-6.89858928240028e-05,-2.104821430748416e-05,0.0,0.0,0.0,0.0,189.1208928571428,70.0,0.0,255.0,0.0
13.350000000000048,35.69798595546307,51.268568301345354,1319.9995902338997,-6.89858928240028e-05,-2.104821430748416e-05,0.0,-1.1368683772161603e-12,0.0,0.0,189.04848214285707,70.0,0.0,255.0,0.0
13.400000000000048,35.6979824142579,51.268567513779146,1319.9995902506635,-6.898589293768964e-05,-2.104821430748416e-05,0.0,-5.684341886080801e-13,1.1368683772161603e-12,0.0,188.97607142857137,70.0,0.0,255.0,0.0
13.450000000000049,35.697978873325866,51.2685667263551,1319.999590266496,-6.898589288084622e-05,-2.104821419379732e-05,0.0,1.1368683772161603e-12,0.0,0.0,188.90366071428565,70.0,0.0,255.0,0.0
13.50000000000005,35.69797533266707,51.2685659390728,1319.9995902860537,-6.89858928240028e-05,-2.104821430748416e-05,0.0,0.0,-2.2737367544323206e-12,0.0,188.83124999999993,70.0,0.0,255.0,0.0
13.55000000000005,35.69797179228166,51.26856515193182,1319.9995903037488,-6.898589288084622e-05,-2.1048214421170997e-05,0.0,0.0,0.0,0.0,188.75883928571423,70.0,0.0,255.0,0.0
13.600000000000051,35.697968252169794,51.268564364931734,1319.9995903251693,-6.89858928240028e-05,-2.104821430748416e-05,0.0,5.684341886080801e-13,2.2737367544323206e-12,0.0,188.6864285714285,70.0,0.0,255.0,0.0
13.650000000000052,35.697964712331604,51.268563578072126,1319.999590347521,-6.89858928240028e-05,-2.104821419379732e-05,0.0,0.0,1.1368683772161603e-12,0.0,188.61401785714278,70.0,0.0,255.0,0.0
13.700000000000053,35.69796117276724,51.26856279135255,1319.999590370804,-6.89858928240028e-05,-2.104821419379732e-05,0.0,-5.684341886080801e-13,-1.1368683772161603e-12,0.0,188.54160714285706,70.0,0.0,255.0,0.0
13.750000000000053,35.69795763347686,51.26856200477261,1319.9995903959498,-6.898589288084622e-05,-2.104821430748416e-05,0.0,-1.1368683772161603e-12,-1.1368683772161603e-12,0.0,188.46919642857137,70.0,0.0,255.0,0.0
13.800000000000054,35.697954094460584,51.26856121833186,1319.9995904210955,-6.898589293768964e-05,-2.104821430748416e-05,0.0,5.684341886080801e-13,1.1368683772161603e-12,0.0,188.39678571428564,70.0,0.0,255.0,0.0
13.850000000000055,35.69795055571857,51.268560432029886,1319.9995904490352,-6.89858928240028e-05,-2.104821419379732e-05,0.0,1.1368683772161603e-12,0.0,0.0,188.32437499999992,70.0,0.0,255.0,0.0
13.900000000000055,35.69794701725097,51.268559645866254,1319.9995904760435,-6.89858928240028e-05,-2.104821430748416e-05,0.0,-5.684341886080801e-13,-2.2737367544323206e-12,0.0,188.25196428571422,70.0,0.0,255.0,0.0
13.950000000000056,35.6979434790579,51.26855885984055,1319.9995905058458,-6.898589288084622e-05,-2.1048214421170997e-05,0.0,0.0,0.0,0.0,188.1795535714285,70.0,0.0,255.0,0.0
14.000000000000057,35.697939941139495,51.26855807395235,1319.9995905384421,-6.89858928240028e-05,-2.104821430748416e-05,0.0,0.0,2.2737367544323206e-12,0.0,188.10714285714278,70.0,0.0,255.0,0.0
14.050000000000058,35.69793640349595,51.268557288201215,1319.999590570107,-6.898589288084622e-05,-2.104821419379732e-05,0.0,-1.1368683772161603e-12,0.0,0.0,188.03473214285705,70.0,0.0,255.0,0.0
14.100000000000058,35.69793286612735,51.26855650258672,1319.999590604566,-6.898589293768964e-05,-2.104821430748416e-05,0.0,5.684341886080801e-13,-1.1368683772161603e-12,0.0,187.96232142857136,70.0,0.0,255.0,0.0
14.150000000000059,35.697929329033876,51.268555717108455,1319.9995906371623,-6.89858928240028e-05,-2.104821430748416e-05,0.0,1.1368683772161603e-12,0.0,0.0,187.88991071428563,70.0,0.0,255.0,0.0
14.20000000000006,35.69792579221565,51.26855493176598,1319.9995906744152,-6.89858928240028e-05,-2.104821430748416e-05,0.0,0.0,0.0,0.0,187.8174999999999,70.0,0.0,255.0,0.0
14.25000000000006,35.69792225567281,51.26855414655887,1319.9995907116681,-6.89858928240028e-05,-2.104821430748416e-05,0.0,0.0,1.1368683772161603e-12,0.0,187.74508928571422,70.0,0.0,255.0,0.0
14.300000000000061,35.69791871940551,51.2685533614867,1319.9995907498524,-6.89858928240028e-05,-2.104821419379732e-05,0.0,-1.1368683772161603e-12,0.0,0.0,187.6726785714285,70.0,0.0,255.0,0.0
14.350000000000062,35.697915183413855,51.26855257654904,1319.999590788968,-6.898589293768964e-05,-2.104821430748416e-05,0.0,-5.684341886080801e-13,-1.1368683772161603e-12,0.0,187.60026785714277,70.0,0.0,255.0,0.0
14.400000000000063,35.697911647698014,51.26855179174547,1319.9995908308774,-6.898589288084622e-05,-2.104821430748416e-05,0.0,1.1368683772161603e-12,1.1368683772161603e-12,0.0,187.52785714285704,70.0,0.0,255.0,0.0
14.450000000000063,35.69790811225813,51.26855100707556,1319.999590869993,-6.89858928240028e-05,-2.104821419379732e-05,0.0,0.0,0.0,0.0,187.45544642857135,70.0,0.0,255.0,0.0
14.500000000000064,35.69790457709431,51.26855022253888,1319.9995909174904,-6.898589288084622e-05,-2.104821430748416e-05,0.0,0.0,-1.1368683772161603e-12,0.0,187.38303571428563,70.0,0.0,255.0,0.0
14.550000000000065,35.69790104220671,51.26854943813499,1319.9995909603313,-6.89858928240028e-05,-2.104821430748416e-05,0.0,5.684341886080801e-13,0.0,0.0,187.3106249999999,70.0,0.0,255.0,0.0
14.600000000000065,35.69789750759549,51.26854865386349,1319.9995910068974,-6.89858928240028e-05,-2.104821430748416e-05,0.0,-1.1368683772161603e-12,0.0,0.0,187.2382142857142,70.0,0.0,255.0,0.0
14.650000000000066,35.697893973260726,51.268547869723925,1319.9995910543948,-6.898589293768964e-05,-2.104821430748416e-05,0.0,-5.684341886080801e-13,1.1368683772161603e-12,0.0,187.16580357142848,70.0,0.0,255.0,0.0
14.700000000000067,35.69789043920262,51.26854708571589,1319.9995911018923,-6.898589288084622e-05,-2.104821419379732e-05,0.0,1.1368683772161603e-12,0.0,0.0,187.09339285714276,70.0,0.0,255.0,0.0
14.750000000000068,35.697886905421264,51.26854630183894,1319.9995911493897,-6.89858928240028e-05,-2.104821430748416e-05,0.0,5.684341886080801e-13,-2.2737367544323206e-12,0.0,187.02098214285704,70.0,0.0,255.0,0.0
14.800000000000068,35.697883371916795,51.26854551809264,1319.9995912024751,-6.89858928240028e-05,-2.1048214421170997e-05,0.0,0.0,0.0,0.0,186.94857142857134,70.0,0.0,255.0,0.0
14.850000000000069,35.69787983868938,51.26854473447658,1319.9995912555605,-6.89858928240028e-05,-2.104821430748416e-05,0.0,-5.684341886080801e-13,2.2737367544323206e-12,0.0,186.87616071428562,70.0,0.0,255.0,0.0
14.90000000000007,35.69787630573912,51.26854395099033,1319.9995913067833,-6.898589288084622e-05,-2.104821419379732e-05,0.0,0.0,0.0,0.0,186.8037499999999,70.0,0.0,255.0,0.0
14.95000000000007,35.69787277306616,51.26854316763343,1319.9995913617313,-6.89858928240028e-05,-2.104821430748416e-05,0.0,0.0,-1.1368683772161603e-12,0.0,186.7313392857142,70.0,0.0,255.0,0.0
15.000000000000071,35.697869240670634,51.26854238440549,1319.9995914166793,-6.898589288084622e-05,-2.104821430748416e-05,0.0,-1.1368683772161603e-12,1.1368683772161603e-12,0.0,186.65892857142848,70.0,0.0,255.0,0.0
15.050000000000072,35.697865708552676,51.26854160130606,1319.99959147349,-6.898589293768964e-05,-2.104821419379732e-05,0.0,5.684341886080801e-13,0.0,0.0,186.58651785714275,70.0,0.0,255.0,0.0
15.100000000000072,35.697862176712405,51.268540818334706,1319.999591531232,-6.89858928240028e-05,-2.104821430748416e-05,0.0,1.1368683772161603e-12,-1.1368683772161603e-12,0.0,186.51410714285703,70.0,0.0,255.0,0.0
15.150000000000073,35.697858645149985,51.26854003549101,1319.9995915908366,-6.89858928240028e-05,-2.104821430748416e-05,0.0,0.0,0.0,0.0,186.44169642857133,70.0,0.0,255.0,0.0
15.200000000000074,35.697855113865515,51.26853925277453,1319.9995916504413,-6.89858928240028e-05,-2.104821430748416e-05,0.0,0.0,0.0,0.0,186.3692857142856,70.0,0.0,255.0,0.0
15.250000000000075,35.69785158285912,51.268538470184836,1319.9995917137712,-6.89858928240028e-05,-2.104821430748416e-05,0.0,-1.1368683772161603e-12,1.1368683772161603e-12,0.0,186.2968749999999,70.0,0.0,255.0,0.0
15.300000000000075,35.69784805213097,51.268537687721505,1319.9995917743072,-6.898589293768964e-05,-2.104821419379732e-05,0.0,-5.684341886080801e-13,0.0,0.0,186.2244642857142,70.0,0.0,255.0,0.0
15.350000000000076,35.69784452168117,51.2685369053841,1319.9995918376371,-6.898589288084622e-05,-2.104821430748416e-05,0.0,1.1368683772161603e-12,-1.1368683772161603e-12,0.0,186.15205357142847,70.0,0.0,255.0,0.0
15.400000000000077,35.69784099150985,51.2685361231722,1319.999591903761,-6.89858928240028e-05,-2.104821430748416e-05,0.0,0.0,0.0,0.0,186.07964285714274,70.0,0.0,255.0,0.0
15.450000000000077,35.69783746161715,51.26853534108537,1319.9995919689536,-6.898589288084622e-05,-2.104821430748416e-05,0.0,0.0,0.0,0.0,186.00723214285705,70.0,0.0,255.0,0.0
15.500000000000078,35.69783393200318,51.26853455912316,1319.9995920350775,-6.89858928240028e-05,-2.104821430748416e-05,0.0,5.684341886080801e-13,1.1368683772161603e-12,0.0,185.93482142857133,70.0,0.0,255.0,0.0
15.550000000000079,35.69783040266809,51.26853377728517,1319.9995921021327,-6.89858928240028e-05,-2.104821419379732e-05,0.0,-1.1368683772161603e-12,0.0,0.0,185.8624107142856,70.0,0.0,255.0,0.0
15.60000000000008,35.69782687361197,51.26853299557093,1319.9995921738446,-6.898589293768964e-05,-2.104821430748416e-05,0.0,-5.684341886080801e-13,-1.1368683772161603e-12,0.0,185.78999999999988,70.0,0.0,255.0,0.0
15.65000000000008,35.697823344835,51.26853221398003,1319.9995922427624,-6.898589288084622e-05,-2.104821430748416e-05,0.0,1.1368683772161603e-12,1.1368683772161603e-12,0.0,185.71758928571418,70.0,0.0,255.0,0.0
15.700000000000081,35.69781981633727,51.26853143251204,1319.9995923181996,-6.89858928240028e-05,-2.104821419379732e-05,0.0,5.684341886080801e-13,0.0,0.0,185.64517857142846,70.0,0.0,255.0,0.0
15.750000000000082,35.69781628811892,51.26853065116652,1319.9995923871174,-6.89858928240028e-05,-2.104821430748416e-05,0.0,0.0,-2.2737367544323206e-12,0.0,185.57276785714274,70.0,0.0,255.0,0.0
15.800000000000082,35.69781276018008,51.26852986994304,1319.999592463486,-6.89858928240028e-05,-2.1048214421170997e-05,0.0,-5.684341886080801e-13,0.0,0.0,185.50035714285704,70.0,0.0,255.0,0.0
15.850000000000083,35.69780923252086,51.26852908884116,1319.999592538923,-6.898589288084622e-05,-2.104821430748416e-05,0.0,0.0,2.2737367544323206e-12,0.0,185.42794642857132,70.0,0.0,255.0,0.0
15.900000000000084,35.6978057051414,51.26852830786047,1319.9995926134288,-6.89858928240028e-05,-2.104821419379732e-05,0.0,0.0,0.0,0.0,185.3555357142856,70.0,0.0,255.0,0.0
15.950000000000085,35.697802178041805,51.26852752700051,1319.9995926907286,-6.898589288084622e-05,-2.104821430748416e-05,0.0,-1.1368683772161603e-12,-1.1368683772161603e-12,0.0,185.28312499999987,70.0,0.0,255.0,0.0
16.000000000000085,35.69779865122223,51.26852674626083,1319.9995927689597,-6.898589293768964e-05,-2.104821430748416e-05,0.0,5.684341886080801e-13,0.0,0.0,185.21071428571418,70.0,0.0,255.0,0.0
16.050000000000086,35.69779512468278,51.26852596564105,1319.9995928490534,-6.89858928240028e-05,-2.104821430748416e-05,0.0,1.1368683772161603e-12,0.0,0.0,185.13830357142845,70.0,0.0,255.0,0.0
16.100000000000087,35.69779159842358,51.2685251851407,1319.9995929282159,-6.89858928240028e-05,-2.104821430748416e-05,0.0,0.0,1.1368683772161603e-12,0.0,185.06589285714273,70.0,0.0,255.0,0.0
16.150000000000087,35.69778807244475,51.26852440475935,1319.999593009241,-6.89858928240028e-05,-2.104821419379732e-05,0.0,0.0,0.0,0.0,184.99348214285703,70.0,0.0,255.0,0.0
16.200000000000088,35.69778454674642,51.26852362449659,1319.99959309306,-6.89858928240028e-05,-2.104821430748416e-05,0.0,-1.1368683772161603e-12,-1.1368683772161603e-12,0.0,184.9210714285713,70.0,0.0,255.0,0.0
16.25000000000009,35.69778102132871,51.26852284435193,1319.9995931759477,-6.898589293768964e-05,-2.104821430748416e-05,0.0,-5.684341886080801e-13,1.1368683772161603e-12,0.0,184.8486607142856,70.0,0.0,255.0,0.0
16.30000000000009,35.69777749619172,51.268522064324976,1319.9995932616293,-6.898589288084622e-05,-2.104821419379732e-05,0.0,1.1368683772161603e-12,0.0,0.0,184.77624999999986,70.0,0.0,255.0,0.0
16.35000000000009,35.697773971335614,51.2685212844153,1319.9995933482423,-6.89858928240028e-05,-2.104821430748416e-05,0.0,0.0,-1.1368683772161603e-12,0.0,184.70383928571417,70.0,0.0,255.0,0.0
16.40000000000009,35.69777044676049,51.26852050462244,1319.999593433924,-6.898589288084622e-05,-2.104821430748416e-05,0.0,0.0,0.0,0.0,184.63142857142844,70.0,0.0,255.0,0.0
16.45000000000009,35.69776692246644,51.26851972494598,1319.9995935223997,-6.89858928240028e-05,-2.104821430748416e-05,0.0,5.684341886080801e-13,0.0,0.0,184.55901785714272,70.0,0.0,255.0,0.0
16.500000000000092,35.69776339845364,51.268518945385466,1319.9995936118066,-6.89858928240028e-05,-2.104821430748416e-05,0.0,-1.1368683772161603e-12,1.1368683772161603e-12,0.0,184.48660714285703,70.0,0.0,255.0,0.0
16.550000000000093,35.69775987472218,51.268518165940485,1319.9995937012136,-6.898589293768964e-05,-2.104821419379732e-05,0.0,-5.684341886080801e-13,0.0,0.0,184.4141964285713,70.0,0.0,255.0,0.0
16.600000000000094,35.697756351272155,51.26851738661059,1319.9995937934145,-6.898589288084622e-05,-2.104821430748416e-05,0.0,1.1368683772161603e-12,-2.2737367544323206e-12,0.0,184.34178571428558,70.0,0.0,255.0,0.0
16.650000000000095,35.69775282810373,51.268516607395334,1319.9995938856155,-6.89858928240028e-05,-2.1048214421170997e-05,0.0,5.684341886080801e-13,0.0,0.0,184.26937499999985,70.0,0.0,255.0,0.0
16.700000000000095,35.697749305216995,51.26851582829429,1319.9995939787477,-6.89858928240028e-05,-2.104821430748416e-05,0.0,0.0,2.2737367544323206e-12,0.0,184.19696428571416,70.0,0.0,255.0,0.0
16.750000000000096,35.697745782612074,51.268515049307034,1319.9995940737426,-6.89858928240028e-05,-2.104821419379732e-05,0.0,-5.684341886080801e-13,0.0,0.0,184.12455357142844,70.0,0.0,255.0,0.0
16.800000000000097,35.69774226028908,51.26851427043311,1319.9995941678062,-6.898589288084622e-05,-2.104821430748416e-05,0.0,0.0,-1.1368683772161603e-12,0.0,184.0521428571427,70.0,0.0,255.0,0.0
16.850000000000097,35.69773873824814,51.26851349167209,1319.9995942646638,-6.89858928240028e-05,-2.104821430748416e-05,0.0,0.0,1.1368683772161603e-12,0.0,183.97973214285702,70.0,0.0,255.0,0.0
16.900000000000098,35.69773521648936,51.26851271302354,1319.9995943624526,-6.898589288084622e-05,-2.104821419379732e-05,0.0,-1.1368683772161603e-12,0.0,0.0,183.9073214285713,70.0,0.0,255.0,0.0
16.9500000000001,35.697731695012855,51.268511934487016,1319.9995944611728,-6.898589293768964e-05,-2.104821430748416e-05,0.0,5.684341886080801e-13,-1.1368683772161603e-12,0.0,183.83491071428557,70.0,0.0,255.0,0.0
17.0000000000001,35.697728173818746,51.26851115606207,1319.999594559893,-6.89858928240028e-05,-2.104821430748416e-05,0.0,1.1368683772161603e-12,0.0,0.0,183.76249999999987,70.0,0.0,255.0,0.0
17.0500000000001,35.69772465290716,51.2685103777483,1319.9995946604759,-6.89858928240028e-05,-2.104821430748416e-05,0.0,-5.684341886080801e-13,0.0,0.0,183.69008928571415,70.0,0.0,255.0,0.0
17.1000000000001,35.697721132278176,51.268509599545226,1319.99959476199,-6.898589288084622e-05,-2.104821430748416e-05,0.0,0.0,1.1368683772161603e-12,0.0,183.61767857142843,70.0,0.0,255.0,0.0
17.1500000000001,35.697717611931935,51.26850882145244,1319.9995948644355,-6.89858928240028e-05,-2.104821419379732e-05,0.0,0.0,0.0,0.0,183.5452678571427,70.0,0.0,255.0,0.0
17.200000000000102,35.69771409186857,51.268508043469495,1319.9995949687436,-6.898589288084622e-05,-2.104821430748416e-05,0.0,-5.684341886080801e-13,-1.1368683772161603e-12,0.0,183.472857142857,70.0,0.0,255.0,0.0
17.250000000000103,35.69771057208815,51.26850726559594,1319.999595071189,-6.898589288084622e-05,-2.104821430748416e-05,0.0,5.684341886080801e-13,0.0,0.0,183.40044642857129,70.0,0.0,255.0,0.0
17.300000000000104,35.6977070525908,51.268506487831374,1319.9995951782912,-6.89858928240028e-05,-2.104821430748416e-05,0.0,0.0,0.0,0.0,183.32803571428556,70.0,0.0,255.0,0.0
17.350000000000104,35.697703533376654,51.26850571017529,1319.9995952835307,-6.898589288084622e-05,-2.104821430748416e-05,0.0,0.0,1.1368683772161603e-12,0.0,183.25562499999984,70.0,0.0,255.0,0.0
17.400000000000105,35.69770001444579,51.268504932627316,1319.999595391564,-6.89858928240028e-05,-2.104821419379732e-05,0.0,5.684341886080801e-13,0.0,0.0,183.18321428571414,70.0,0.0,255.0,0.0
17.450000000000106,35.69769649579836,51.26850415518699,1319.9995955005288,-6.89858928240028e-05,-2.104821430748416e-05,0.0,-1.1368683772161603e-12,-1.1368683772161603e-12,0.0,183.11080357142842,70.0,0.0,255.0,0.0
17.500000000000107,35.697692977434436,51.26850337785387,1319.9995956085622,-6.898589293768964e-05,-2.104821430748416e-05,0.0,-5.684341886080801e-13,1.1368683772161603e-12,0.0,183.0383928571427,70.0,0.0,255.0,0.0
17.550000000000107,35.697689459354145,51.26850260062751,1319.9995957193896,-6.898589288084622e-05,-2.104821419379732e-05,0.0,1.1368683772161603e-12,0.0,0.0,182.965982142857,70.0,0.0,255.0,0.0
17.600000000000108,35.69768594155761,51.26850182350748,1319.9995958320796,-6.89858928240028e-05,-2.104821430748416e-05,0.0,5.684341886080801e-13,-2.2737367544323206e-12,0.0,182.89357142857128,70.0,0.0,255.0,0.0
17.65000000000011,35.69768242404491,51.26850104649334,1319.9995959438384,-6.89858928240028e-05,-2.1048214421170997e-05,0.0,0.0,0.0,0.0,182.82116071428555,70.0,0.0,255.0,0.0
17.70000000000011,35.697678906816186,51.26850026958464,1319.9995960574597,-6.89858928240028e-05,-2.104821430748416e-05,0.0,-5.684341886080801e-13,2.2737367544323206e-12,0.0,182.74874999999986,70.0,0.0,255.0,0.0
17.75000000000011,35.69767538987153,51.268499492780954,1319.999596171081,-6.898589288084622e-05,-2.104821419379732e-05,0.0,0.0,1.1368683772161603e-12,0.0,182.67633928571414,70.0,0.0,255.0,0.0
17.80000000000011,35.69767187321106,51.268498716081844,1319.9995962856337,-6.89858928240028e-05,-2.104821419379732e-05,0.0,0.0,-1.1368683772161603e-12,0.0,182.6039285714284,70.0,0.0,255.0,0.0
17.85000000000011,35.69766835683485,51.268497939486856,1319.999596402049,-6.898589288084622e-05,-2.104821430748416e-05,0.0,-1.1368683772161603e-12,-2.2737367544323206e-12,0.0,182.5315178571427,70.0,0.0,255.0,0.0
17.900000000000112,35.69766484074304,51.26849716299555,1319.9995965193957,-6.898589293768964e-05,-2.1048214421170997e-05,0.0,5.684341886080801e-13,0.0,0.0,182.459107142857,70.0,0.0,255.0,0.0
17.950000000000113,35.69766132493574,51.26849638660749,1319.9995966367424,-6.89858928240028e-05,-2.104821430748416e-05,0.0,1.1368683772161603e-12,2.2737367544323206e-12,0.0,182.38669642857127,70.0,0.0,255.0,0.0
18.000000000000114,35.697657809413045,51.26849561032224,1319.9995967559516,-6.89858928240028e-05,-2.104821419379732e-05,0.0,-5.684341886080801e-13,0.0,0.0,182.31428571428555,70.0,0.0,255.0,0.0
18.050000000000114,35.69765429417506,51.268494834139354,1319.999596877955,-6.898589288084622e-05,-2.104821430748416e-05,0.0,0.0,-1.1368683772161603e-12,0.0,182.24187499999985,70.0,0.0,255.0,0.0
18.100000000000115,35.69765077922188,51.26849405805839,1319.9995969953015,-6.89858928240028e-05,-2.104821430748416e-05,0.0,0.0,1.1368683772161603e-12,0.0,182.16946428571413,70.0,0.0,255.0,0.0
18.150000000000116,35.697647264553645,51.268493282078914,1319.9995971182361,-6.898589288084622e-05,-2.104821419379732e-05,0.0,-5.684341886080801e-13,0.0,0.0,182.0970535714284,70.0,0.0,255.0,0.0
18.200000000000117,35.69764375017041,51.26849250620047,1319.9995972411707,-6.898589288084622e-05,-2.104821430748416e-05,0.0,5.684341886080801e-13,-1.1368683772161603e-12,0.0,182.02464285714268,70.0,0.0,255.0,0.0
18.250000000000117,35.69764023607232,51.268491730422625,1319.9995973641053,-6.89858928240028e-05,-2.104821430748416e-05,0.0,0.0,0.0,0.0,181.95223214285699,70.0,0.0,255.0,0.0
18.300000000000118,35.69763672225945,51.26849095474494,1319.9995974870399,-6.898589288084622e-05,-2.104821430748416e-05,0.0,0.0,0.0,0.0,181.87982142857126,70.0,0.0,255.0,0.0
18.35000000000012,35.69763320873193,51.26849017916696,1319.9995976155624,-6.89858928240028e-05,-2.104821430748416e-05,0.0,5.684341886080801e-13,1.1368683772161603e-12,0.0,181.80741071428554,70.0,0.0,255.0,0.0
18.40000000000012,35.69762969548985,51.268489403688264,1319.999597741291,-6.89858928240028e-05,-2.104821419379732e-05,0.0,-1.1368683772161603e-12,0.0,0.0,181.73499999999984,70.0,0.0,255.0,0.0
18.45000000000012,35.6976261825333,51.268488628308404,1319.9995978679508,-6.898589293768964e-05,-2.104821430748416e-05,0.0,-5.684341886080801e-13,-2.2737367544323206e-12,0.0,181.66258928571412,70.0,0.0,255.0,0.0
18.50000000000012,35.6976226698624,51.26848785302692,1319.9995979964733,-6.898589288084622e-05,-2.1048214421170997e-05,0.0,1.1368683772161603e-12,0.0,0.0,181.5901785714284,70.0,0.0,255.0,0.0
18.55000000000012,35.69761915747724,51.26848707784338,1319.9995981249958,-6.89858928240028e-05,-2.104821430748416e-05,0.0,0.0,2.2737367544323206e-12,0.0,181.51776785714267,70.0,0.0,255.0,0.0
18.600000000000122,35.69761564537793,51.268486302757346,1319.999598255381,-6.898589288084622e-05,-2.104821419379732e-05,0.0,0.0,1.1368683772161603e-12,0.0,181.44535714285698,70.0,0.0,255.0,0.0
18.650000000000123,35.69761213356456,51.26848552776838,1319.9995983848348,-6.89858928240028e-05,-2.104821419379732e-05,0.0,5.684341886080801e-13,-1.1368683772161603e-12,0.0,181.37294642857125,70.0,0.0,255.0,0.0
18.700000000000124,35.697608622037244,51.26848475287602,1319.999598518014,-6.89858928240028e-05,-2.104821430748416e-05,0.0,0.0,-1.1368683772161603e-12,0.0,181.30053571428553,70.0,0.0,255.0,0.0
18.750000000000124,35.69760511079607,51.268483978079836,1319.9995986483991,-6.89858928240028e-05,-2.104821430748416e-05,0.0,-5.684341886080801e-13,1.1368683772161603e-12,0.0,181.22812499999984,70.0,0.0,255.0,0.0
18.800000000000125,35.69760159984113,51.268483203379375,1319.999598783441,-6.898589288084622e-05,-2.104821419379732e-05,0.0,-1.1368683772161603e-12,0.0,0.0,181.1557142857141,70.0,0.0,255.0,0.0
18.850000000000126,35.69759808917254,51.26848242877421,1319.99959891662,-6.898589293768964e-05,-2.104821430748416e-05,0.0,5.684341886080801e-13,-2.2737367544323206e-12,0.0,181.0833035714284,70.0,0.0,255.0,0.0
18.900000000000126,35.69759457879038,51.26848165426389,1319.999599052593,-6.89858928240028e-05,-2.1048214421170997e-05,0.0,1.1368683772161603e-12,0.0,0.0,181.01089285714266,70.0,0.0,255.0,0.0
18.950000000000127,35.69759106869477,51.26848087984796,1319.9995991867036,-6.89858928240028e-05,-2.104821430748416e-05,0.0,-5.684341886080801e-13,2.2737367544323206e-12,0.0,180.93848214285697,70.0,0.0,255.0,0.0
19.000000000000128,35.697587558885786,51.268480105525974,1319.999599323608,-6.898589288084622e-05,-2.104821419379732e-05,0.0,0.0,0.0,0.0,180.86607142857125,70.0,0.0,255.0,0.0
19.05000000000013,35.697584049363535,51.268479331297506,1319.9995994614437,-6.89858928240028e-05,-2.104821430748416e-05,0.0,0.0,-1.1368683772161603e-12,0.0,180.79366071428552,70.0,0.0,255.0,0.0
19.10000000000013,35.69758054012811,51.268478557162105,1319.9995996002108,-6.898589288084622e-05,-2.104821430748416e-05,0.0,-5.684341886080801e-13,0.0,0.0,180.72124999999983,70.0,0.0,255.0,0.0
19.15000000000013,35.69757703117961,51.26847778311934,1319.9995997417718,-6.898589288084622e-05,-2.104821430748416e-05,0.0,5.684341886080801e-13,0.0,0.0,180.6488392857141,70.0,0.0,255.0,0.0
19.20000000000013,35.697573522518134,51.268477009168734,1319.9995998805389,-6.89858928240028e-05,-2.104821430748416e-05,0.0,0.0,1.1368683772161603e-12,0.0,180.57642857142838,70.0,0.0,255.0,0.0
19.25000000000013,35.69757001414376,51.26847623530986,1319.999600019306,-6.898589288084622e-05,-2.104821419379732e-05,0.0,0.0,0.0,0.0,180.50401785714268,70.0,0.0,255.0,0.0
19.300000000000132,35.6975665060566,51.26847546154229,1319.9996001627296,-6.89858928240028e-05,-2.104821430748416e-05,0.0,5.684341886080801e-13,-1.1368683772161603e-12,0.0,180.43160714285696,70.0,0.0,255.0,0.0
19.350000000000133,35.697562998256736,51.268474687865535,1319.9996003061533,-6.89858928240028e-05,-2.104821430748416e-05,0.0,-1.1368683772161603e-12,1.1368683772161603e-12,0.0,180.35919642857124,70.0,0.0,255.0,0.0
19.400000000000134,35.69755949074428,51.268473914279184,1319.9996004477143,-6.898589293768964e-05,-2.104821419379732e-05,0.0,-5.684341886080801e-13,0.0,0.0,180.28678571428551,70.0,0.0,255.0,0.0
19.450000000000134,35.697555983519294,51.26847314078281,1319.9996005902067,-6.898589288084622e-05,-2.104821430748416e-05,0.0,1.1368683772161603e-12,-1.1368683772161603e-12,0.0,180.21437499999982,70.0,0.0,255.0,0.0
19.500000000000135,35.69755247658191,51.26847236737592,1319.9996007364243,-6.89858928240028e-05,-2.104821430748416e-05,0.0,0.0,0.0,0.0,180.1419642857141,70.0,0.0,255.0,0.0
19.550000000000136,35.697548969932186,51.2684715940581,1319.9996008817106,-6.898589288084622e-05,-2.104821430748416e-05,0.0,0.0,0.0,0.0,180.06955357142837,70.0,0.0,255.0,0.0
19.600000000000136,35.697545463570215,51.26847082082889,1319.999601029791,-6.89858928240028e-05,-2.104821430748416e-05,0.0,5.684341886080801e-13,1.1368683772161603e-12,0.0,179.99714285714265,70.0,0.0,255.0,0.0
19.650000000000137,35.697541957496114,51.26847004768784,1319.9996011760086,-6.89858928240028e-05,-2.104821419379732e-05,0.0,0.0,0.0,0.0,179.92473214285695,70.0,0.0,255.0,0.0
19.700000000000138,35.697538451709946,51.268469274634526,1319.9996013250202,-6.89858928240028e-05,-2.104821430748416e-05,0.0,-5.684341886080801e-13,-2.2737367544323206e-12,0.0,179.85232142857123,70.0,0.0,255.0,0.0
19.75000000000014,35.69753494621184,51.26846850166848,1319.9996014749631,-6.898589288084622e-05,-2.1048214421170997e-05,0.0,-1.1368683772161603e-12,0.0,0.0,179.7799107142855,70.0,0.0,255.0,0.0
19.80000000000014,35.69753144100184,51.268467728789254,1319.999601622112,-6.898589293768964e-05,-2.104821430748416e-05,0.0,5.684341886080801e-13,2.2737367544323206e-12,0.0,179.7074999999998,70.0,0.0,255.0,0.0
19.85000000000014,35.69752793608004,51.26846695599643,1319.9996017739177,-6.89858928240028e-05,-2.104821419379732e-05,0.0,1.1368683772161603e-12,0.0,0.0,179.6350892857141,70.0,0.0,255.0,0.0
19.90000000000014,35.697524431446574,51.26846618328954,1319.9996019257233,-6.89858928240028e-05,-2.104821430748416e-05,0.0,-5.684341886080801e-13,-1.1368683772161603e-12,0.0,179.56267857142836,70.0,0.0,255.0,0.0
19.95000000000014,35.69752092710149,51.26846541066813,1319.9996020765975,-6.898589288084622e-05,-2.104821430748416e-05,0.0,0.0,1.1368683772161603e-12,0.0,179.49026785714267,70.0,0.0,255.0,0.0
20.000000000000142,35.69751742304488,51.26846463813177,1319.999602228403,-6.89858928240028e-05,-2.104821419379732e-05,0.0,0.0,0.0,0.0,179.41785714285695,70.0,0.0,255.0,0.0
20.050000000000143,35.69751391927685,51.26846386568002,1319.9996023820713,-6.898589288084622e-05,-2.104821430748416e-05,0.0,-1.1368683772161603e-12,-1.1368683772161603e-12,0.0,179.34544642857122,70.0,0.0,255.0,0.0
20.100000000000144,35.69751041579747,51.2684630933124,1319.9996025376022,-6.898589293768964e-05,-2.104821430748416e-05,0.0,5.684341886080801e-13,0.0,0.0,179.2730357142855,70.0,0.0,255.0,0.0
20.150000000000144,35.697506912606826,51.26846232102849,1319.9996026922017,-6.89858928240028e-05,-2.104821430748416e-05,0.0,1.1368683772161603e-12,0.0,0.0,179.2006249999998,70.0,0.0,255.0,0.0
20.200000000000145,35.697503409705014,51.26846154882782,1319.9996028468013,-6.89858928240028e-05,-2.104821430748416e-05,0.0,0.0,1.1368683772161603e-12,0.0,179.12821428571408,70.0,0.0,255.0,0.0
20.250000000000146,35.69749990709211,51.268460776709965,1319.9996030041948,-6.89858928240028e-05,-2.104821419379732e-05,0.0,0.0,0.0,0.0,179.05580357142836,70.0,0.0,255.0,0.0
20.300000000000146,35.697496404768216,51.26846000467448,1319.9996031615883,-6.89858928240028e-05,-2.104821430748416e-05,0.0,-1.1368683772161603e-12,-1.1368683772161603e-12,0.0,178.98339285714266,70.0,0.0,255.0,0.0
20.350000000000147,35.697492902733394,51.26845923272089,1319.9996033199131,-6.898589293768964e-05,-2.104821430748416e-05,0.0,-5.684341886080801e-13,0.0,0.0,178.91098214285694,70.0,0.0,255.0,0.0
20.400000000000148,35.69748940098774,51.268458460848784,1319.999603478238,-6.898589288084622e-05,-2.104821430748416e-05,0.0,1.1368683772161603e-12,0.0,0.0,178.8385714285712,70.0,0.0,255.0,0.0
20.45000000000015,35.69748589953135,51.26845768905767,1319.9996036365628,-6.89858928240028e-05,-2.104821430748416e-05,0.0,0.0,1.1368683772161603e-12,0.0,178.7661607142855,70.0,0.0,255.0,0.0
20.50000000000015,35.69748239836428,51.26845691734714,1319.999603798613,-6.898589288084622e-05,-2.104821419379732e-05,0.0,0.0,0.0,0.0,178.6937499999998,70.0,0.0,255.0,0.0
20.55000000000015,35.69747889748663,51.26845614571672,1319.9996039588004,-6.89858928240028e-05,-2.104821430748416e-05,0.0,5.684341886080801e-13,-1.1368683772161603e-12,0.0,178.62133928571407,70.0,0.0,255.0,0.0
20.60000000000015,35.69747539689848,51.26845537416597,1319.9996041199192,-6.89858928240028e-05,-2.104821430748416e-05,0.0,0.0,1.1368683772161603e-12,0.0,178.54892857142835,70.0,0.0,255.0,0.0
20.65000000000015,35.69747189659992,51.26845460269443,1319.9996042819694,-6.89858928240028e-05,-2.104821419379732e-05,0.0,-5.684341886080801e-13,0.0,0.0,178.47651785714265,70.0,0.0,255.0,0.0
20.700000000000152,35.69746839659101,51.2684538313017,1319.9996044458821,-6.898589288084622e-05,-2.104821430748416e-05,0.0,-1.1368683772161603e-12,-2.2737367544323206e-12,0.0,178.40410714285693,70.0,0.0,255.0,0.0
20.750000000000153,35.69746489687186,51.26845305998726,1319.9996046079323,-6.898589293768964e-05,-2.1048214421170997e-05,0.0,5.684341886080801e-13,0.0,0.0,178.3316964285712,70.0,0.0,255.0,0.0
20.800000000000153,35.69746139744251,51.26845228875071,1319.9996047727764,-6.89858928240028e-05,-2.104821430748416e-05,0.0,1.1368683772161603e-12,2.2737367544323206e-12,0.0,178.25928571428548,70.0,0.0,255.0,0.0
20.850000000000154,35.697457898303085,51.26845151759157,1319.9996049366891,-6.89858928240028e-05,-2.104821419379732e-05,0.0,-5.684341886080801e-13,0.0,0.0,178.1868749999998,70.0,0.0,255.0,0.0
20.900000000000155,35.69745439945363,51.26845074650943,1319.9996051033959,-6.898589288084622e-05,-2.104821430748416e-05,0.0,0.0,-1.1368683772161603e-12,0.0,178.11446428571406,70.0,0.0,255.0,0.0
20.950000000000156,35.69745090089425,51.26844997550379,1319.9996052701026,-6.89858928240028e-05,-2.104821430748416e-05,0.0,0.0,0.0,0.0,178.04205357142834,70.0,0.0,255.0,0.0
21.000000000000156,35.69744740262501,51.26844920457425,1319.9996054377407,-6.898589288084622e-05,-2.104821430748416e-05,0.0,-1.1368683772161603e-12,0.0,0.0,177.96964285714265,70.0,0.0,255.0,0.0
21.050000000000157,35.697443904645986,51.26844843372033,1319.9996056053787,-6.898589293768964e-05,-2.104821430748416e-05,0.0,5.684341886080801e-13,1.1368683772161603e-12,0.0,177.89723214285692,70.0,0.0,255.0,0.0
21.100000000000158,35.69744040695727,51.268447662941576,1319.9996057720855,-6.89858928240028e-05,-2.104821419379732e-05,0.0,1.1368683772161603e-12,0.0,0.0,177.8248214285712,70.0,0.0,255.0,0.0
21.15000000000016,35.697436909558924,51.26844689223757,1319.9996059415862,-6.89858928240028e-05,-2.104821430748416e-05,0.0,0.0,-1.1368683772161603e-12,0.0,177.75241071428547,70.0,0.0,255.0,0.0
21.20000000000016,35.69743341245102,51.26844612160784,1319.9996061120182,-6.89858928240028e-05,-2.104821430748416e-05,0.0,0.0,1.1368683772161603e-12,0.0,177.67999999999978,70.0,0.0,255.0,0.0
21.25000000000016,35.697429915633656,51.26844535105194,1319.9996062805876,-6.89858928240028e-05,-2.104821419379732e-05,0.0,-1.1368683772161603e-12,0.0,0.0,177.60758928571406,70.0,0.0,255.0,0.0
21.30000000000016,35.6974264191069,51.26844458056941,1319.9996064538136,-6.898589293768964e-05,-2.104821430748416e-05,0.0,-5.684341886080801e-13,-1.1368683772161603e-12,0.0,177.53517857142833,70.0,0.0,255.0,0.0
21.35000000000016,35.69742292287081,51.26844381015981,1319.9996066261083,-6.898589288084622e-05,-2.104821430748416e-05,0.0,1.1368683772161603e-12,0.0,0.0,177.46276785714264,70.0,0.0,255.0,0.0
21.400000000000162,35.697419426925485,51.26844303982269,1319.9996067965403,-6.89858928240028e-05,-2.104821430748416e-05,0.0,0.0,0.0,0.0,177.3903571428569,70.0,0.0,255.0,0.0
21.450000000000163,35.69741593127098,51.268442269557596,1319.9996069706976,-6.898589288084622e-05,-2.104821430748416e-05,0.0,0.0,1.1368683772161603e-12,0.0,177.3179464285712,70.0,0.0,255.0,0.0
21.500000000000163,35.697412435907374,51.26844149936407,1319.9996071439236,-6.89858928240028e-05,-2.104821419379732e-05,0.0,5.684341886080801e-13,0.0,0.0,177.2455357142855,70.0,0.0,255.0,0.0
21.550000000000164,35.69740894083477,51.26844072924169,1319.999607318081,-6.89858928240028e-05,-2.104821430748416e-05,0.0,0.0,-2.2737367544323206e-12,0.0,177.17312499999977,70.0,0.0,255.0,0.0
21.600000000000165,35.69740544605319,51.26843995918997,1319.999607491307,-6.89858928240028e-05,-2.1048214421170997e-05,0.0,-5.684341886080801e-13,0.0,0.0,177.10071428571405,70.0,0.0,255.0,0.0
21.650000000000166,35.69740195156276,51.26843918920848,1319.999607667327,-6.898589288084622e-05,-2.104821430748416e-05,0.0,-1.1368683772161603e-12,2.2737367544323206e-12,0.0,177.02830357142832,70.0,0.0,255.0,0.0
21.700000000000166,35.697398457363505,51.26843841929676,1319.9996078442782,-6.898589293768964e-05,-2.104821419379732e-05,0.0,5.684341886080801e-13,0.0,0.0,176.95589285714263,70.0,0.0,255.0,0.0
21.750000000000167,35.697394963455515,51.268437649454356,1319.9996080193669,-6.89858928240028e-05,-2.104821430748416e-05,0.0,1.1368683772161603e-12,-1.1368683772161603e-12,0.0,176.8834821428569,70.0,0.0,255.0,0.0
21.800000000000168,35.69739146983887,51.26843687968083,1319.9996081972495,-6.89858928240028e-05,-2.104821430748416e-05,0.0,-5.684341886080801e-13,1.1368683772161603e-12,0.0,176.81107142857118,70.0,0.0,255.0,0.0
21.85000000000017,35.69738797651363,51.268436109975724,1319.999608375132,-6.898589288084622e-05,-2.104821419379732e-05,0.0,0.0,1.1368683772161603e-12,0.0,176.73866071428546,70.0,0.0,255.0,0.0
21.90000000000017,35.697384483479865,51.26843534033858,1319.999608553946,-6.89858928240028e-05,-2.104821419379732e-05,0.0,0.0,-1.1368683772161603e-12,0.0,176.66624999999976,70.0,0.0,255.0,0.0
21.95000000000017,35.697380990737656,51.26843457076897,1319.99960873276,-6.898589288084622e-05,-2.104821430748416e-05,0.0,-1.1368683772161603e-12,-2.2737367544323206e-12,0.0,176.59383928571404,70.0,0.0,255.0,0.0
22.00000000000017,35.69737749828707,51.26843380126639,1319.999608911574,-6.898589293768964e-05,-2.1048214421170997e-05,0.0,5.684341886080801e-13,0.0,0.0,176.52142857142832,70.0,0.0,255.0,0.0
22.05000000000017,35.69737400612817,51.26843303183043,1319.9996090913191,-6.89858928240028e-05,-2.104821430748416e-05,0.0,1.1368683772161603e-12,2.2737367544323206e-12,0.0,176.44901785714262,70.0,0.0,255.0,0.0
22.100000000000172,35.69737051426101,51.26843226246065,1319.9996092719957,-6.89858928240028e-05,-2.104821419379732e-05,0.0,0.0,0.0,0.0,176.3766071428569,70.0,0.0,255.0,0.0
22.150000000000173,35.69736702268569,51.26843149315656,1319.9996094554663,-6.89858928240028e-05,-2.104821430748416e-05,0.0,0.0,-1.1368683772161603e-12,0.0,176.30419642857117,70.0,0.0,255.0,0.0
22.200000000000173,35.69736353140225,51.26843072391774,1319.9996096361428,-6.89858928240028e-05,-2.104821430748416e-05,0.0,-1.1368683772161603e-12,0.0,0.0,176.23178571428548,70.0,0.0,255.0,0.0
22.250000000000174,35.69736004041078,51.268429954743716,1319.999609818682,-6.898589293768964e-05,-2.104821430748416e-05,0.0,-5.684341886080801e-13,0.0,0.0,176.15937499999976,70.0,0.0,255.0,0.0
22.300000000000175,35.69735654971133,51.26842918563404,1319.9996100021526,-6.898589288084622e-05,-2.104821430748416e-05,0.0,1.1368683772161603e-12,1.1368683772161603e-12,0.0,176.08696428571403,70.0,0.0,255.0,0.0
22.350000000000176,35.69735305930397,51.26842841658826,1319.9996101856232,-6.89858928240028e-05,-2.104821419379732e-05,0.0,0.0,0.0,0.0,176.0145535714283,70.0,0.0,255.0,0.0
22.400000000000176,35.697349569188766,51.26842764760594,1319.999610370025,-6.898589288084622e-05,-2.104821430748416e-05,0.0,0.0,-1.1368683772161603e-12,0.0,175.9421428571426,70.0,0.0,255.0,0.0
22.450000000000177,35.69734607936578,51.26842687868659,1319.9996105534956,-6.89858928240028e-05,-2.104821430748416e-05,0.0,5.684341886080801e-13,1.1368683772161603e-12,0.0,175.8697321428569,70.0,0.0,255.0,0.0
22.500000000000178,35.69734258983509,51.2684261098298,1319.9996107406914,-6.89858928240028e-05,-2.104821419379732e-05,0.0,-1.1368683772161603e-12,0.0,0.0,175.79732142857117,70.0,0.0,255.0,0.0
22.55000000000018,35.69733910059674,51.2684253410351,1319.999610924162,-6.898589293768964e-05,-2.104821430748416e-05,0.0,-5.684341886080801e-13,-2.2737367544323206e-12,0.0,175.72491071428547,70.0,0.0,255.0,0.0
22.60000000000018,35.69733561165082,51.268424572302,1319.9996111113578,-6.898589288084622e-05,-2.1048214421170997e-05,0.0,1.1368683772161603e-12,0.0,0.0,175.65249999999975,70.0,0.0,255.0,0.0
22.65000000000018,35.69733212299736,51.26842380363012,1319.999611296691,-6.89858928240028e-05,-2.104821430748416e-05,0.0,5.684341886080801e-13,2.2737367544323206e-12,0.0,175.58008928571402,70.0,0.0,255.0,0.0
22.70000000000018,35.697328634636456,51.26842303501896,1319.9996114866808,-6.89858928240028e-05,-2.104821419379732e-05,0.0,0.0,1.1368683772161603e-12,0.0,175.5076785714283,70.0,0.0,255.0,0.0
22.75000000000018,35.69732514656815,51.26842226646807,1319.9996116738766,-6.89858928240028e-05,-2.104821419379732e-05,0.0,-5.684341886080801e-13,-1.1368683772161603e-12,0.0,175.4352678571426,70.0,0.0,255.0,0.0
22.800000000000182,35.697321658792504,51.26842149797701,1319.9996118610725,-6.898589288084622e-05,-2.104821430748416e-05,0.0,0.0,-2.2737367544323206e-12,0.0,175.36285714285688,70.0,0.0,255.0,0.0
22.850000000000183,35.697318171309576,51.268420729545305,1319.9996120510623,-6.89858928240028e-05,-2.1048214421170997e-05,0.0,0.0,0.0,0.0,175.29044642857116,70.0,0.0,255.0,0.0
22.900000000000183,35.69731468411946,51.26841996117252,1319.9996122401208,-6.898589288084622e-05,-2.104821430748416e-05,0.0,-1.1368683772161603e-12,2.2737367544323206e-12,0.0,175.21803571428546,70.0,0.0,255.0,0.0
22.950000000000184,35.69731119722218,51.2684191928582,1319.9996124291793,-6.898589293768964e-05,-2.104821419379732e-05,0.0,5.684341886080801e-13,0.0,0.0,175.14562499999974,70.0,0.0,255.0,0.0
23.000000000000185,35.697307710617814,51.26841842460188,1319.9996126210317,-6.89858928240028e-05,-2.104821430748416e-05,0.0,1.1368683772161603e-12,-1.1368683772161603e-12,0.0,175.07321428571402,70.0,0.0,255.0,0.0
23.050000000000185,35.69730422430642,51.26841765640311,1319.9996128110215,-6.89858928240028e-05,-2.104821430748416e-05,0.0,0.0,1.1368683772161603e-12,0.0,175.00080357142832,70.0,0.0,255.0,0.0
23.100000000000186,35.697300738288035,51.26841688826144,1319.999613002874,-6.89858928240028e-05,-2.104821419379732e-05,0.0,0.0,0.0,0.0,174.9283928571426,70.0,0.0,255.0,0.0
23.150000000000187,35.69729725256274,51.268416120176425,1319.999613193795,-6.89858928240028e-05,-2.104821430748416e-05,0.0,-1.1368683772161603e-12,-1.1368683772161603e-12,0.0,174.85598214285687,70.0,0.0,255.0,0.0
23.200000000000188,35.69729376713059,51.26841535214759,1319.9996133865789,-6.898589293768964e-05,-2.104821430748416e-05,0.0,-5.684341886080801e-13,0.0,0.0,174.78357142857115,70.0,0.0,255.0,0.0
23.25000000000019,35.69729028199165,51.2684145841745,1319.999613580294,-6.898589288084622e-05,-2.104821430748416e-05,0.0,1.1368683772161603e-12,0.0,0.0,174.71116071428546,70.0,0.0,255.0,0.0
23.30000000000019,35.69728679714596,51.268413816256704,1319.9996137730777,-6.89858928240028e-05,-2.104821430748416e-05,0.0,0.0,1.1368683772161603e-12,0.0,174.63874999999973,70.0,0.0,255.0,0.0
23.35000000000019,35.6972833125936,51.26841304839371,1319.9996139667928,-6.898589288084622e-05,-2.104821419379732e-05,0.0,0.0,0.0,0.0,174.566339285714,70.0,0.0,255.0,0.0
23.40000000000019,35.697279828334594,51.2684122805851,1319.9996141614392,-6.89858928240028e-05,-2.104821430748416e-05,0.0,5.684341886080801e-13,-2.2737367544323206e-12,0.0,174.49392857142828,70.0,0.0,255.0,0.0
23.45000000000019,35.69727634436903,51.26841151283042,1319.9996143551543,-6.89858928240028e-05,-2.1048214421170997e-05,0.0,-1.1368683772161603e-12,0.0,0.0,174.4215178571426,70.0,0.0,255.0,0.0
23.500000000000192,35.69727286069693,51.26841074512918,1319.9996145525947,-6.898589293768964e-05,-2.104821430748416e-05,0.0,-5.684341886080801e-13,2.2737367544323206e-12,0.0,174.34910714285687,70.0,0.0,255.0,0.0
23.550000000000193,35.69726937731838,51.26840997748098,1319.9996147463098,-6.898589288084622e-05,-2.104821419379732e-05,0.0,1.1368683772161603e-12,1.1368683772161603e-12,0.0,174.27669642857114,70.0,0.0,255.0,0.0
23.600000000000193,35.697265894233425,51.26840920988531,1319.9996149418876,-6.89858928240028e-05,-2.104821419379732e-05,0.0,5.684341886080801e-13,-1.1368683772161603e-12,0.0,174.20428571428545,70.0,0.0,255.0,0.0
23.650000000000194,35.697262411442104,51.26840844234175,1319.999615139328,-6.89858928240028e-05,-2.104821430748416e-05,0.0,0.0,-1.1368683772161603e-12,0.0,174.13187499999972,70.0,0.0,255.0,0.0
23.700000000000195,35.69725892894451,51.268407674849826,1319.999615335837,-6.89858928240028e-05,-2.104821430748416e-05,0.0,-5.684341886080801e-13,1.1368683772161603e-12,0.0,174.059464285714,70.0,0.0,255.0,0.0
23.750000000000195,35.69725544674065,51.26840690740911,1319.9996155342087,-6.898589288084622e-05,-2.104821419379732e-05,0.0,0.0,0.0,0.0,173.9870535714283,70.0,0.0,255.0,0.0
23.800000000000196,35.69725196483058,51.26840614001912,1319.9996157325804,-6.89858928240028e-05,-2.104821430748416e-05,0.0,0.0,-2.2737367544323206e-12,0.0,173.91464285714258,70.0,0.0,255.0,0.0
23.850000000000197,35.697248483214395,51.2684053726794,1319.9996159290895,-6.898589288084622e-05,-2.1048214421170997e-05,0.0,-1.1368683772161603e-12,0.0,0.0,173.84223214285686,70.0,0.0,255.0,0.0
23.900000000000198,35.6972450018921,51.2684046053895,1319.9996161283925,-6.898589293768964e-05,-2.104821430748416e-05,0.0,5.684341886080801e-13,2.2737367544323206e-12,0.0,173.76982142857113,70.0,0.0,255.0,0.0
23.9500000000002,35.69724152086378,51.268403838149,1319.9996163276955,-6.89858928240028e-05,-2.104821419379732e-05,0.0,1.1368683772161603e-12,0.0,0.0,173.69741071428544,70.0,0.0,255.0,0.0
24.0000000000002,35.69723804012946,51.268403070957376,1319.9996165269986,-6.89858928240028e-05,-2.104821430748416e-05,0.0,-5.684341886080801e-13,-1.1368683772161603e-12,0.0,173.62499999999972,70.0,0.0,255.0,0.0
24.0500000000002,35.69723455968922,51.268402303814234,1319.9996167263016,-6.898589288084622e-05,-2.104821430748416e-05,0.0,0.0,0.0,0.0,173.552589285714,70.0,0.0,255.0,0.0
24.1000000000002,35.69723107954306,51.26840153671908,1319.9996169256046,-6.89858928240028e-05,-2.104821430748416e-05,0.0,0.0,0.0,0.0,173.48017857142827,70.0,0.0,255.0,0.0
24.1500000000002,35.697227599691075,51.26840076967148,1319.999617128633,-6.898589288084622e-05,-2.104821430748416e-05,0.0,-5.684341886080801e-13,1.1368683772161603e-12,0.0,173.40776785714257,70.0,0.0,255.0,0.0
24.200000000000202,35.697224120133306,51.268400002670965,1319.9996173288673,-6.898589288084622e-05,-2.104821419379732e-05,0.0,5.684341886080801e-13,0.0,0.0,173.33535714285685,70.0,0.0,255.0,0.0
24.250000000000203,35.697220640869794,51.26839923571709,1319.9996175309643,-6.89858928240028e-05,-2.104821430748416e-05,0.0,0.0,-1.1368683772161603e-12,0.0,173.26294642857113,70.0,0.0,255.0,0.0
24.300000000000203,35.69721716190059,51.268398468809394,1319.9996177330613,-6.898589288084622e-05,-2.104821430748416e-05,0.0,0.0,1.1368683772161603e-12,0.0,173.19053571428543,70.0,0.0,255.0,0.0
24.350000000000204,35.697213683225726,51.268397701947414,1319.999617934227,-6.89858928240028e-05,-2.104821419379732e-05,0.0,5.684341886080801e-13,0.0,0.0,173.1181249999997,70.0,0.0,255.0,0.0
24.400000000000205,35.69721020484528,51.2683969351307,1319.9996181353927,-6.89858928240028e-05,-2.104821430748416e-05,0.0,-1.1368683772161603e-12,-1.1368683772161603e-12,0.0,173.04571428571398,70.0,0.0,255.0,0.0
24.450000000000205,35.697206726759255,51.268396168358805,1319.999618338421,-6.898589293768964e-05,-2.104821430748416e-05,0.0,-5.684341886080801e-13,0.0,0.0,172.9733035714283,70.0,0.0,255.0,0.0
24.500000000000206,35.69720324896773,51.26839540163125,1319.9996185442433,-6.898589288084622e-05,-2.104821430748416e-05,0.0,1.1368683772161603e-12,0.0,0.0,172.90089285714257,70.0,0.0,255.0,0.0
24.550000000000207,35.69719977147076,51.26839463494761,1319.9996187472716,-6.89858928240028e-05,-2.104821430748416e-05,0.0,5.684341886080801e-13,1.1368683772161603e-12,0.0,172.82848214285684,70.0,0.0,255.0,0.0
24.600000000000207,35.69719629426836,51.268393868307406,1319.9996189521626,-6.89858928240028e-05,-2.104821419379732e-05,0.0,0.0,0.0,0.0,172.75607142857115,70.0,0.0,255.0,0.0
24.650000000000208,35.69719281736059,51.26839310171019,1319.9996191551909,-6.89858928240028e-05,-2.104821430748416e-05,0.0,-5.684341886080801e-13,-2.2737367544323206e-12,0.0,172.68366071428542,70.0,0.0,255.0,0.0
24.70000000000021,35.69718934074749,51.26839233515549,1319.9996193600819,-6.898589288084622e-05,-2.1048214421170997e-05,0.0,0.0,0.0,0.0,172.6112499999997,70.0,0.0,255.0,0.0
24.75000000000021,35.69718586442909,51.26839156864287,1319.9996195649728,-6.89858928240028e-05,-2.104821430748416e-05,0.0,0.0,2.2737367544323206e-12,0.0,172.53883928571398,70.0,0.0,255.0,0.0
24.80000000000021,35.69718238840547,51.268390802171865,1319.999619770795,-6.898589288084622e-05,-2.104821419379732e-05,0.0,-1.1368683772161603e-12,0.0,0.0,172.46642857142828,70.0,0.0,255.0,0.0
24.85000000000021,35.697178912676655,51.26839003574202,1319.999619975686,-6.898589293768964e-05,-2.104821430748416e-05,0.0,5.684341886080801e-13,-1.1368683772161603e-12,0.0,172.39401785714256,70.0,0.0,255.0,0.0
24.90000000000021,35.69717543724265,51.26838926935287,1319.9996201815084,-6.89858928240028e-05,-2.104821430748416e-05,0.0,1.1368683772161603e-12,1.1368683772161603e-12,0.0,172.32160714285683,70.0,0.0,255.0,0.0
24.950000000000212,35.69717196210357,51.26838850300397,1319.9996203891933,-6.89858928240028e-05,-2.104821419379732e-05,0.0,-5.684341886080801e-13,0.0,0.0,172.2491964285711,70.0,0.0,255.0,0.0
25.000000000000213,35.69716848725939,51.26838773669486,1319.9996205950156,-6.898589288084622e-05,-2.104821430748416e-05,0.0,0.0,-1.1368683772161603e-12,0.0,172.17678571428542,70.0,0.0,255.0,0.0
25.050000000000214,35.69716501271019,51.26838697042507,1319.9996208017692,-6.89858928240028e-05,-2.104821430748416e-05,0.0,0.0,0.0,0.0,172.1043749999997,70.0,0.0,255.0,0.0
25.100000000000215,35.69716153845598,51.268386204194165,1319.9996210103855,-6.898589288084622e-05,-2.104821430748416e-05,0.0,-5.684341886080801e-13,0.0,0.0,172.03196428571397,70.0,0.0,255.0,0.0
25.150000000000215,35.69715806449683,51.26838543800168,1319.9996212180704,-6.898589288084622e-05,-2.104821430748416e-05,0.0,5.684341886080801e-13,1.1368683772161603e-12,0.0,171.95955357142827,70.0,0.0,255.0,0.0
25.200000000000216,35.69715459083276,51.268384671847144,1319.9996214266866,-6.89858928240028e-05,-2.104821419379732e-05,0.0,0.0,0.0,0.0,171.88714285714255,70.0,0.0,255.0,0.0
25.250000000000217,35.697151117463825,51.268383905730126,1319.9996216362342,-6.898589288084622e-05,-2.104821430748416e-05,0.0,0.0,-1.1368683772161603e-12,0.0,171.81473214285683,70.0,0.0,255.0,0.0
25.300000000000217,35.69714764439004,51.26838313965014,1319.9996218420565,-6.89858928240028e-05,-2.104821430748416e-05,0.0,5.684341886080801e-13,0.0,0.0,171.74232142857113,70.0,0.0,255.0,0.0
25.350000000000218,35.69714417161148,51.26838237360674,1319.9996220525354,-6.89858928240028e-05,-2.104821430748416e-05,0.0,-1.1368683772161603e-12,0.0,0.0,171.6699107142854,70.0,0.0,255.0,0.0
25.40000000000022,35.69714069912814,51.26838160759947,1319.9996222611517,-6.898589293768964e-05,-2.104821430748416e-05,0.0,-5.684341886080801e-13,1.1368683772161603e-12,0.0,171.59749999999968,70.0,0.0,255.0,0.0
25.45000000000022,35.69713722694008,51.268380841627874,1319.9996224706993,-6.898589288084622e-05,-2.104821419379732e-05,0.0,1.1368683772161603e-12,0.0,0.0,171.52508928571396,70.0,0.0,255.0,0.0
25.50000000000022,35.69713375504733,51.26838007569151,1319.9996226811782,-6.89858928240028e-05,-2.104821430748416e-05,0.0,0.0,-1.1368683772161603e-12,0.0,171.45267857142827,70.0,0.0,255.0,0.0
25.55000000000022,35.69713028344994,51.268379309789886,1319.999622891657,-6.898589288084622e-05,-2.104821430748416e-05,0.0,0.0,1.1368683772161603e-12,0.0,171.38026785714254,70.0,0.0,255.0,0.0
25.60000000000022,35.697126812147914,51.26837854392257,1319.999623102136,-6.89858928240028e-05,-2.104821419379732e-05,0.0,5.684341886080801e-13,0.0,0.0,171.30785714285682,70.0,0.0,255.0,0.0
25.650000000000222,35.69712334114133,51.268377778089096,1319.9996233116835,-6.89858928240028e-05,-2.104821430748416e-05,0.0,0.0,-2.2737367544323206e-12,0.0,171.2354464285711,70.0,0.0,255.0,0.0
25.700000000000223,35.69711987043019,51.268377012289,1319.9996235221624,-6.89858928240028e-05,-2.1048214421170997e-05,0.0,-5.684341886080801e-13,0.0,0.0,171.1630357142854,70.0,0.0,255.0,0.0
25.750000000000224,35.69711640001455,51.26837624652183,1319.9996237335727,-6.898589288084622e-05,-2.104821430748416e-05,0.0,-1.1368683772161603e-12,2.2737367544323206e-12,0.0,171.09062499999968,70.0,0.0,255.0,0.0
25.800000000000225,35.697112929894416,51.26837548078715,1319.999623944983,-6.898589293768964e-05,-2.104821419379732e-05,0.0,5.684341886080801e-13,0.0,0.0,171.01821428571395,70.0,0.0,255.0,0.0
25.850000000000225,35.69710946006983,51.26837471508446,1319.9996241573244,-6.89858928240028e-05,-2.104821430748416e-05,0.0,1.1368683772161603e-12,-1.1368683772161603e-12,0.0,170.94580357142826,70.0,0.0,255.0,0.0
25.900000000000226,35.69710599054086,51.26837394941333,1319.9996243687347,-6.89858928240028e-05,-2.104821430748416e-05,0.0,-5.684341886080801e-13,0.0,0.0,170.87339285714253,70.0,0.0,255.0,0.0
25.950000000000227,35.6971025213075,51.268373183773306,1319.9996245801449,-6.898589288084622e-05,-2.104821430748416e-05,0.0,0.0,0.0,0.0,170.8009821428568,70.0,0.0,255.0,0.0
26.000000000000227,35.69709905236979,51.2683724181639,1319.9996247934178,-6.89858928240028e-05,-2.104821430748416e-05,0.0,0.0,1.1368683772161603e-12,0.0,170.72857142857112,70.0,0.0,255.0,0.0
26.050000000000228,35.697095583727766,51.26837165258468,1319.999625004828,-6.898589288084622e-05,-2.104821419379732e-05,0.0,-5.684341886080801e-13,0.0,0.0,170.6561607142854,70.0,0.0,255.0,0.0
26.10000000000023,35.69709211538145,51.26837088703519,1319.9996252181008,-6.898589288084622e-05,-2.104821430748416e-05,0.0,5.684341886080801e-13,-1.1368683772161603e-12,0.0,170.58374999999967,70.0,0.0,255.0,0.0
26.15000000000023,35.697088647330894,51.268370121514955,1319.9996254304424,-6.89858928240028e-05,-2.104821430748416e-05,0.0,0.0,1.1368683772161603e-12,0.0,170.51133928571394,70.0,0.0,255.0,0.0
26.20000000000023,35.6970851795761,51.268369356023534,1319.999625645578,-6.898589288084622e-05,-2.104821419379732e-05,0.0,0.0,0.0,0.0,170.43892857142825,70.0,0.0,255.0,0.0
26.25000000000023,35.69708171211712,51.26836859056045,1319.9996258588508,-6.89858928240028e-05,-2.104821430748416e-05,0.0,5.684341886080801e-13,-1.1368683772161603e-12,0.0,170.36651785714253,70.0,0.0,255.0,0.0
26.30000000000023,35.69707824495397,51.26836782512525,1319.9996260721236,-6.89858928240028e-05,-2.104821430748416e-05,0.0,-1.1368683772161603e-12,0.0,0.0,170.2941071428568,70.0,0.0,255.0,0.0
26.350000000000232,35.69707477808667,51.26836705971749,1319.9996262872592,-6.898589293768964e-05,-2.104821430748416e-05,0.0,-5.684341886080801e-13,0.0,0.0,170.2216964285711,70.0,0.0,255.0,0.0
26.400000000000233,35.69707131151527,51.2683662943367,1319.999626500532,-6.898589288084622e-05,-2.104821430748416e-05,0.0,1.1368683772161603e-12,1.1368683772161603e-12,0.0,170.14928571428538,70.0,0.0,255.0,0.0
26.450000000000234,35.6970678452398,51.26836552898242,1319.9996267128736,-6.89858928240028e-05,-2.104821419379732e-05,0.0,0.0,0.0,0.0,170.07687499999966,70.0,0.0,255.0,0.0
26.500000000000234,35.69706437926026,51.2683647636542,1319.9996269289404,-6.898589288084622e-05,-2.104821430748416e-05,0.0,0.0,-2.2737367544323206e-12,0.0,170.00446428571394,70.0,0.0,255.0,0.0
26.550000000000235,35.697060913576706,51.26836399835157,1319.9996271431446,-6.89858928240028e-05,-2.1048214421170997e-05,0.0,5.684341886080801e-13,0.0,0.0,169.93205357142824,70.0,0.0,255.0,0.0
26.600000000000236,35.69705744818914,51.26836323307408,1319.9996273573488,-6.89858928240028e-05,-2.104821430748416e-05,0.0,0.0,2.2737367544323206e-12,0.0,169.85964285714252,70.0,0.0,255.0,0.0
26.650000000000237,35.697053983097604,51.26836246782127,1319.999627574347,-6.89858928240028e-05,-2.104821419379732e-05,0.0,-5.684341886080801e-13,0.0,0.0,169.7872321428568,70.0,0.0,255.0,0.0
26.700000000000237,35.697050518302106,51.26836170259268,1319.9996277885512,-6.898589288084622e-05,-2.104821430748416e-05,0.0,-1.1368683772161603e-12,-1.1368683772161603e-12,0.0,169.7148214285711,70.0,0.0,255.0,0.0
26.750000000000238,35.697047053802685,51.26836093738784,1319.9996280036867,-6.898589293768964e-05,-2.104821430748416e-05,0.0,5.684341886080801e-13,1.1368683772161603e-12,0.0,169.64241071428538,70.0,0.0,255.0,0.0
26.80000000000024,35.69704358959936,51.26836017220632,1319.9996282197535,-6.89858928240028e-05,-2.104821419379732e-05,0.0,1.1368683772161603e-12,1.1368683772161603e-12,0.0,169.56999999999965,70.0,0.0,255.0,0.0
26.85000000000024,35.697040125692176,51.26835940704763,1319.9996284358203,-6.89858928240028e-05,-2.104821419379732e-05,0.0,-5.684341886080801e-13,-1.1368683772161603e-12,0.0,169.49758928571396,70.0,0.0,255.0,0.0
26.90000000000024,35.69703666208111,51.26835864191134,1319.9996286500245,-6.898589288084622e-05,-2.104821430748416e-05,0.0,0.0,-2.2737367544323206e-12,0.0,169.42517857142823,70.0,0.0,255.0,0.0
26.95000000000024,35.69703319876623,51.26835787679696,1319.999628867954,-6.89858928240028e-05,-2.1048214421170997e-05,0.0,0.0,0.0,0.0,169.3527678571425,70.0,0.0,255.0,0.0
27.00000000000024,35.697029735747535,51.268357111704056,1319.9996290849522,-6.898589288084622e-05,-2.104821430748416e-05,0.0,-1.1368683772161603e-12,2.2737367544323206e-12,0.0,169.2803571428568,70.0,0.0,255.0,0.0
27.050000000000242,35.697026273025045,51.26835634663216,1319.9996293000877,-6.898589293768964e-05,-2.104821419379732e-05,0.0,5.684341886080801e-13,0.0,0.0,169.2079464285711,70.0,0.0,255.0,0.0
27.100000000000243,35.69702281059879,51.26835558158081,1319.9996295142919,-6.89858928240028e-05,-2.104821430748416e-05,0.0,1.1368683772161603e-12,-1.1368683772161603e-12,0.0,169.13553571428537,70.0,0.0,255.0,0.0
27.150000000000244,35.6970193484688,51.268354816549554,1319.9996297322214,-6.89858928240028e-05,-2.104821430748416e-05,0.0,0.0,0.0,0.0,169.06312499999964,70.0,0.0,255.0,0.0
27.200000000000244,35.697015886635086,51.26835405153793,1319.9996299482882,-6.89858928240028e-05,-2.104821430748416e-05,0.0,0.0,0.0,0.0,168.99071428571392,70.0,0.0,255.0,0.0
27.250000000000245,35.69701242509767,51.268353286545484,1319.9996301662177,-6.89858928240028e-05,-2.104821430748416e-05,0.0,-1.1368683772161603e-12,1.1368683772161603e-12,0.0,168.91830357142823,70.0,0.0,255.0,0.0
27.300000000000246,35.69700896385655,51.26835252157174,1319.9996303813532,-6.898589293768964e-05,-2.104821419379732e-05,0.0,-5.684341886080801e-13,0.0,0.0,168.8458928571425,70.0,0.0,255.0,0.0
27.350000000000247,35.69700550291178,51.26835175661626,1319.9996305992827,-6.898589288084622e-05,-2.104821430748416e-05,0.0,1.1368683772161603e-12,-1.1368683772161603e-12,0.0,168.77348214285678,70.0,0.0,255.0,0.0
27.400000000000247,35.69700204226335,51.26835099167857,1319.9996308181435,-6.89858928240028e-05,-2.104821430748416e-05,0.0,0.0,1.1368683772161603e-12,0.0,168.70107142857108,70.0,0.0,255.0,0.0
27.450000000000248,35.6969985819113,51.268350226758216,1319.999631036073,-6.898589288084622e-05,-2.104821419379732e-05,0.0,0.0,0.0,0.0,168.62866071428536,70.0,0.0,255.0,0.0
27.50000000000025,35.69699512185562,51.26834946185475,1319.9996312540025,-6.89858928240028e-05,-2.104821430748416e-05,0.0,5.684341886080801e-13,-2.2737367544323206e-12,0.0,168.55624999999964,70.0,0.0,255.0,0.0
27.55000000000025,35.69699166209638,51.26834869696768,1319.9996314710006,-6.89858928240028e-05,-2.1048214421170997e-05,0.0,0.0,0.0,0.0,168.48383928571394,70.0,0.0,255.0,0.0
27.60000000000025,35.696988202633534,51.268347932096574,1319.9996316870674,-6.89858928240028e-05,-2.104821430748416e-05,0.0,-5.684341886080801e-13,2.2737367544323206e-12,0.0,168.41142857142822,70.0,0.0,255.0,0.0
27.65000000000025,35.696984743467155,51.268347167240975,1319.9996319068596,-6.898589288084622e-05,-2.104821419379732e-05,0.0,-1.1368683772161603e-12,1.1368683772161603e-12,0.0,168.3390178571425,70.0,0.0,255.0,0.0
27.70000000000025,35.6969812845972,51.26834640240041,1319.999632124789,-6.898589293768964e-05,-2.104821419379732e-05,0.0,5.684341886080801e-13,-1.1368683772161603e-12,0.0,168.26660714285677,70.0,0.0,255.0,0.0
27.750000000000252,35.69697782602372,51.26834563757443,1319.9996323417872,-6.89858928240028e-05,-2.104821430748416e-05,0.0,1.1368683772161603e-12,-2.2737367544323206e-12,0.0,168.19419642857108,70.0,0.0,255.0,0.0
27.800000000000253,35.69697436774673,51.26834487276257,1319.999632557854,-6.89858928240028e-05,-2.1048214421170997e-05,0.0,-5.684341886080801e-13,0.0,0.0,168.12178571428535,70.0,0.0,255.0,0.0
27.850000000000254,35.69697090976624,51.26834410796438,1319.9996327767149,-6.898589288084622e-05,-2.104821430748416e-05,0.0,0.0,2.2737367544323206e-12,0.0,168.04937499999963,70.0,0.0,255.0,0.0
27.900000000000254,35.69696745208226,51.26834334317938,1319.9996329946443,-6.89858928240028e-05,-2.104821419379732e-05,0.0,0.0,0.0,0.0,167.9769642857139,70.0,0.0,255.0,0.0
27.950000000000255,35.69696399469481,51.26834257840713,1319.9996332125738,-6.898589288084622e-05,-2.104821430748416e-05,0.0,-1.1368683772161603e-12,-1.1368683772161603e-12,0.0,167.9045535714282,70.0,0.0,255.0,0.0
28.000000000000256,35.6969605376039,51.26834181364716,1319.9996334305033,-6.898589293768964e-05,-2.104821430748416e-05,0.0,5.684341886080801e-13,1.1368683772161603e-12,0.0,167.8321428571425,70.0,0.0,255.0,0.0
28.050000000000257,35.696957080809526,51.26834104889902,1319.9996336502954,-6.89858928240028e-05,-2.104821419379732e-05,0.0,1.1368683772161603e-12,0.0,0.0,167.75973214285676,70.0,0.0,255.0,0.0
28.100000000000257,35.696953624311725,51.268340284162235,1319.9996338672936,-6.89858928240028e-05,-2.104821430748416e-05,0.0,0.0,-1.1368683772161603e-12,0.0,167.68732142857107,70.0,0.0,255.0,0.0
28.150000000000258,35.69695016811051,51.26833951943636,1319.9996340870857,-6.89858928240028e-05,-2.104821430748416e-05,0.0,0.0,0.0,0.0,167.61491071428534,70.0,0.0,255.0,0.0
28.20000000000026,35.69694671220588,51.268338754720936,1319.9996343031526,-6.89858928240028e-05,-2.104821430748416e-05,0.0,-1.1368683772161603e-12,0.0,0.0,167.54249999999962,70.0,0.0,255.0,0.0
28.25000000000026,35.69694325659783,51.26833799001549,1319.9996345229447,-6.898589293768964e-05,-2.104821430748416e-05,0.0,-5.684341886080801e-13,1.1368683772161603e-12,0.0,167.47008928571393,70.0,0.0,255.0,0.0
28.30000000000026,35.69693980128638,51.26833722531957,1319.9996347427368,-6.898589288084622e-05,-2.104821419379732e-05,0.0,1.1368683772161603e-12,0.0,0.0,167.3976785714282,70.0,0.0,255.0,0.0
28.35000000000026,35.69693634627158,51.268336460632725,1319.999634959735,-6.89858928240028e-05,-2.104821430748416e-05,0.0,0.0,-2.2737367544323206e-12,0.0,167.32526785714248,70.0,0.0,255.0,0.0
28.40000000000026,35.696932891553374,51.268335695954484,1319.9996351785958,-6.898589288084622e-05,-2.1048214421170997e-05,0.0,0.0,0.0,0.0,167.25285714285675,70.0,0.0,255.0,0.0
28.450000000000262,35.6969294371318,51.26833493128438,1319.999635398388,-6.89858928240028e-05,-2.104821430748416e-05,0.0,5.684341886080801e-13,2.2737367544323206e-12,0.0,167.18044642857106,70.0,0.0,255.0,0.0
28.500000000000263,35.69692598300689,51.26833416662199,1319.999635615386,-6.89858928240028e-05,-2.104821419379732e-05,0.0,0.0,1.1368683772161603e-12,0.0,167.10803571428534,70.0,0.0,255.0,0.0
28.550000000000264,35.69692252917863,51.268333401966814,1319.9996358361095,-6.89858928240028e-05,-2.104821419379732e-05,0.0,-5.684341886080801e-13,-1.1368683772161603e-12,0.0,167.0356249999996,70.0,0.0,255.0,0.0
28.600000000000264,35.69691907564702,51.268332637318416,1319.9996360531077,-6.898589288084622e-05,-2.104821430748416e-05,0.0,-1.1368683772161603e-12,-1.1368683772161603e-12,0.0,166.96321428571392,70.0,0.0,255.0,0.0
28.650000000000265,35.696915622412064,51.268331872676306,1319.9996362738311,-6.898589293768964e-05,-2.104821430748416e-05,0.0,5.684341886080801e-13,1.1368683772161603e-12,0.0,166.8908035714282,70.0,0.0,255.0,0.0
28.700000000000266,35.69691216947378,51.26833110804005,1319.9996364917606,-6.89858928240028e-05,-2.104821419379732e-05,0.0,1.1368683772161603e-12,0.0,0.0,166.81839285714247,70.0,0.0,255.0,0.0
28.750000000000266,35.69690871683218,51.2683303434092,1319.9996367106214,-6.89858928240028e-05,-2.104821430748416e-05,0.0,-5.684341886080801e-13,-2.2737367544323206e-12,0.0,166.74598214285675,70.0,0.0,255.0,0.0
28.800000000000267,35.696905264487256,51.26832957878327,1319.9996369276196,-6.898589288084622e-05,-2.1048214421170997e-05,0.0,0.0,0.0,0.0,166.67357142857105,70.0,0.0,255.0,0.0
28.850000000000268,35.696901812439016,51.26832881416182,1319.9996371474117,-6.89858928240028e-05,-2.104821430748416e-05,0.0,0.0,2.2737367544323206e-12,0.0,166.60116071428533,70.0,0.0,255.0,0.0
28.90000000000027,35.696898360687484,51.26832804954438,1319.9996373653412,-6.898589288084622e-05,-2.104821419379732e-05,0.0,-1.1368683772161603e-12,0.0,0.0,166.5287499999996,70.0,0.0,255.0,0.0
28.95000000000027,35.69689490923264,51.26832728493049,1319.999637584202,-6.898589293768964e-05,-2.104821430748416e-05,0.0,5.684341886080801e-13,-1.1368683772161603e-12,0.0,166.4563392857139,70.0,0.0,255.0,0.0
29.00000000000027,35.69689145807448,51.26832652031968,1319.9996378030628,-6.89858928240028e-05,-2.104821430748416e-05,0.0,1.1368683772161603e-12,0.0,0.0,166.38392857142819,70.0,0.0,255.0,0.0
29.05000000000027,35.696888007213026,51.26832575571152,1319.9996380209923,-6.89858928240028e-05,-2.104821430748416e-05,0.0,0.0,0.0,0.0,166.31151785714246,70.0,0.0,255.0,0.0
29.10000000000027,35.69688455664828,51.26832499110552,1319.999638239853,-6.89858928240028e-05,-2.104821430748416e-05,0.0,0.0,1.1368683772161603e-12,0.0,166.23910714285677,70.0,0.0,255.0,0.0
29.150000000000272,35.69688110638024,51.26832422650124,1319.999638458714,-6.89858928240028e-05,-2.104821419379732e-05,0.0,-1.1368683772161603e-12,0.0,0.0,166.16669642857104,70.0,0.0,255.0,0.0
29.200000000000273,35.69687765640891,51.26832346189822,1319.999638675712,-6.898589293768964e-05,-2.104821430748416e-05,0.0,-5.684341886080801e-13,-1.1368683772161603e-12,0.0,166.09428571428532,70.0,0.0,255.0,0.0
29.250000000000274,35.69687420673428,51.268322697295986,1319.9996388945729,-6.898589288084622e-05,-2.104821430748416e-05,0.0,1.1368683772161603e-12,1.1368683772161603e-12,0.0,166.0218749999996,70.0,0.0,255.0,0.0
29.300000000000274,35.69687075735636,51.268321932694086,1319.9996391125023,-6.89858928240028e-05,-2.104821419379732e-05,0.0,0.0,0.0,0.0,165.9494642857139,70.0,0.0,255.0,0.0
29.350000000000275,35.696867308275145,51.26832116809206,1319.9996393313631,-6.898589288084622e-05,-2.104821430748416e-05,0.0,0.0,-1.1368683772161603e-12,0.0,165.87705357142818,70.0,0.0,255.0,0.0
29.400000000000276,35.69686385949064,51.26832040348945,1319.9996395492926,-6.89858928240028e-05,-2.104821430748416e-05,0.0,5.684341886080801e-13,0.0,0.0,165.80464285714245,70.0,0.0,255.0,0.0
29.450000000000276,35.69686041100285,51.268319638885785,1319.999639767222,-6.89858928240028e-05,-2.104821430748416e-05,0.0,-1.1368683772161603e-12,0.0,0.0,165.73223214285673,70.0,0.0,255.0,0.0
29.500000000000277,35.696856962811765,51.268318874280624,1319.999639986083,-6.898589293768964e-05,-2.104821430748416e-05,0.0,-5.684341886080801e-13,1.1368683772161603e-12,0.0,165.65982142857104,70.0,0.0,255.0,0.0
29.550000000000278,35.696853514917386,51.26831810967349,1319.9996402040124,-6.898589288084622e-05,-2.104821419379732e-05,0.0,1.1368683772161603e-12,0.0,0.0,165.5874107142853,70.0,0.0,255.0,0.0
29.60000000000028,35.6968500673197,51.268317345063956,1319.9996404219419,-6.89858928240028e-05,-2.104821430748416e-05,0.0,5.684341886080801e-13,-2.2737367544323206e-12,0.0,165.5149999999996,70.0,0.0,255.0,0.0
29.65000000000028,35.696846620018725,51.26831658045151,1319.9996406398714,-6.89858928240028e-05,-2.1048214421170997e-05,0.0,0.0,0.0,0.0,165.4425892857139,70.0,0.0,255.0,0.0
29.70000000000028,35.69684317301443,51.268315815835734,1319.9996408578008,-6.89858928240028e-05,-2.104821430748416e-05,0.0,-5.684341886080801e-13,2.2737367544323206e-12,0.0,165.37017857142817,70.0,0.0,255.0,0.0
29.75000000000028,35.69683972630684,51.268315051216156,1319.999641074799,-6.898589288084622e-05,-2.104821419379732e-05,0.0,0.0,0.0,0.0,165.29776785714245,70.0,0.0,255.0,0.0
29.80000000000028,35.69683627989594,51.26831428659231,1319.9996412927285,-6.89858928240028e-05,-2.104821430748416e-05,0.0,0.0,-1.1368683772161603e-12,0.0,165.22535714285675,70.0,0.0,255.0,0.0
29.850000000000282,35.69683283378171,51.268313521963734,1319.9996415115893,-6.898589288084622e-05,-2.104821430748416e-05,0.0,-1.1368683772161603e-12,1.1368683772161603e-12,0.0,165.15294642857103,70.0,0.0,255.0,0.0
29.900000000000283,35.69682938796418,51.268312757329994,1319.9996417285874,-6.898589293768964e-05,-2.104821419379732e-05,0.0,5.684341886080801e-13,0.0,0.0,165.0805357142853,70.0,0.0,255.0,0.0
29.950000000000284,35.69682594244331,51.268311992690606,1319.999641943723,-6.89858928240028e-05,-2.104821430748416e-05,0.0,1.1368683772161603e-12,-1.1368683772161603e-12,0.0,165.00812499999958,70.0,0.0,255.0,0.0
30.000000000000284,35.696822497219124,51.2683112280451,1319.9996421616524,-6.89858928240028e-05,-2.104821430748416e-05,0.0,0.0,0.0,0.0,164.93571428571389,70.0,0.0,255.0,0.0
30.050000000000285,35.696819052291566,51.26831046339305,1319.9996423786506,-6.89858928240028e-05,-2.104821430748416e-05,0.0,0.0,0.0,0.0,164.86330357142816,70.0,0.0,255.0,0.0
30.100000000000286,35.696815607660696,51.26830969873397,1319.99964259658,-6.89858928240028e-05,-2.104821430748416e-05,0.0,-1.1368683772161603e-12,1.1368683772161603e-12,0.0,164.79089285714244,70.0,0.0,255.0,0.0
30.150000000000286,35.696812163326456,51.26830893406742,1319.9996428135782,-6.898589293768964e-05,-2.104821419379732e-05,0.0,-5.684341886080801e-13,0.0,0.0,164.71848214285671,70.0,0.0,255.0,0.0
30.200000000000287,35.69680871928886,51.26830816939293,1319.999643029645,-6.898589288084622e-05,-2.104821430748416e-05,0.0,1.1368683772161603e-12,-1.1368683772161603e-12,0.0,164.64607142857102,70.0,0.0,255.0,0.0
30.250000000000288,35.69680527554788,51.26830740471003,1319.999643245712,-6.89858928240028e-05,-2.104821430748416e-05,0.0,0.0,0.0,0.0,164.5736607142853,70.0,0.0,255.0,0.0
30.30000000000029,35.696801832103546,51.26830664001828,1319.99964346271,-6.898589288084622e-05,-2.104821430748416e-05,0.0,0.0,0.0,0.0,164.50124999999957,70.0,0.0,255.0,0.0
30.35000000000029,35.69679838895579,51.2683058753172,1319.9996436797082,-6.89858928240028e-05,-2.104821430748416e-05,0.0,5.684341886080801e-13,1.1368683772161603e-12,0.0,164.42883928571388,70.0,0.0,255.0,0.0
30.40000000000029,35.69679494610466,51.268305110606356,1319.999643895775,-6.89858928240028e-05,-2.104821419379732e-05,0.0,-1.1368683772161603e-12,0.0,0.0,164.35642857142815,70.0,0.0,255.0,0.0
30.45000000000029,35.696791503550116,51.26830434588528,1319.9996441109106,-6.898589293768964e-05,-2.104821430748416e-05,0.0,-5.684341886080801e-13,-1.1368683772161603e-12,0.0,164.28401785714243,70.0,0.0,255.0,0.0
30.50000000000029,35.69678806129216,51.26830358115349,1319.9996443269774,-6.898589288084622e-05,-2.104821430748416e-05,0.0,1.1368683772161603e-12,1.1368683772161603e-12,0.0,164.21160714285674,70.0,0.0,255.0,0.0
30.550000000000292,35.69678461933077,51.26830281641055,1319.9996445430443,-6.89858928240028e-05,-2.104821419379732e-05,0.0,5.684341886080801e-13,0.0,0.0,164.139196428571,70.0,0.0,255.0,0.0
30.600000000000293,35.69678117766593,51.268302051655986,1319.999644759111,-6.89858928240028e-05,-2.104821430748416e-05,0.0,0.0,-2.2737367544323206e-12,0.0,164.0667857142853,70.0,0.0,255.0,0.0
30.650000000000293,35.69677773629765,51.26830128688935,1319.9996449742466,-6.89858928240028e-05,-2.1048214421170997e-05,0.0,-5.684341886080801e-13,0.0,0.0,163.99437499999956,70.0,0.0,255.0,0.0
30.700000000000294,35.69677429522589,51.26830052211018,1319.9996451884508,-6.898589288084622e-05,-2.104821430748416e-05,0.0,0.0,2.2737367544323206e-12,0.0,163.92196428571387,70.0,0.0,255.0,0.0
30.750000000000295,35.696770854450655,51.268299757318026,1319.9996454045177,-6.89858928240028e-05,-2.104821419379732e-05,0.0,0.0,0.0,0.0,163.84955357142815,70.0,0.0,255.0,0.0
30.800000000000296,35.69676741397194,51.2682989925124,1319.9996456187218,-6.898589288084622e-05,-2.104821430748416e-05,0.0,-1.1368683772161603e-12,-1.1368683772161603e-12,0.0,163.77714285714242,70.0,0.0,255.0,0.0
30.850000000000296,35.6967639737897,51.268298227692874,1319.9996458338574,-6.898589293768964e-05,-2.104821430748416e-05,0.0,5.684341886080801e-13,0.0,0.0,163.70473214285673,70.0,0.0,255.0,0.0
30.900000000000297,35.69676053390394,51.26829746285897,1319.9996460489929,-6.89858928240028e-05,-2.104821430748416e-05,0.0,1.1368683772161603e-12,0.0,0.0,163.632321428571,70.0,0.0,255.0,0.0
30.950000000000298,35.69675709431465,51.26829669801023,1319.9996462641284,-6.89858928240028e-05,-2.104821430748416e-05,0.0,-5.684341886080801e-13,1.1368683772161603e-12,0.0,163.55991071428528,70.0,0.0,255.0,0.0
31.0000000000003,35.696753655021794,51.268295933146206,1319.99964647647,-6.898589288084622e-05,-2.104821419379732e-05,0.0,0.0,0.0,0.0,163.48749999999956,70.0,0.0,255.0,0.0
31.0500000000003,35.696750216025386,51.26829516826643,1319.9996466897428,-6.89858928240028e-05,-2.104821430748416e-05,0.0,0.0,-1.1368683772161603e-12,0.0,163.41508928571386,70.0,0.0,255.0,0.0
31.1000000000003,35.69674677732539,51.26829440337045,1319.999646903947,-6.898589288084622e-05,-2.104821430748416e-05,0.0,-5.684341886080801e-13,1.1368683772161603e-12,0.0,163.34267857142814,70.0,0.0,255.0,0.0
31.1500000000003,35.696743338921785,51.2682936384578,1319.9996471162885,-6.898589288084622e-05,-2.104821419379732e-05,0.0,5.684341886080801e-13,0.0,0.0,163.27026785714241,70.0,0.0,255.0,0.0
31.2000000000003,35.696739900814556,51.26829287352801,1319.999647331424,-6.89858928240028e-05,-2.104821430748416e-05,0.0,0.0,-1.1368683772161603e-12,0.0,163.19785714285672,70.0,0.0,255.0,0.0
31.250000000000302,35.6967364630037,51.268292108580646,1319.9996475437656,-6.898589288084622e-05,-2.104821430748416e-05,0.0,0.0,0.0,0.0,163.125446428571,70.0,0.0,255.0,0.0
31.300000000000303,35.69673302548918,51.26829134361523,1319.9996477570385,-6.89858928240028e-05,-2.104821430748416e-05,0.0,5.684341886080801e-13,0.0,0.0,163.05303571428527,70.0,0.0,255.0,0.0
31.350000000000303,35.696729588271,51.2682905786313,1319.9996479675174,-6.89858928240028e-05,-2.104821430748416e-05,0.0,-1.1368683772161603e-12,1.1368683772161603e-12,0.0,162.98062499999958,70.0,0.0,255.0,0.0
31.400000000000304,35.69672615134911,51.268289813628414,1319.9996481817216,-6.898589293768964e-05,-2.104821419379732e-05,0.0,-5.684341886080801e-13,0.0,0.0,162.90821428571385,70.0,0.0,255.0,0.0
31.450000000000305,35.69672271472352,51.268289048606114,1319.9996483940631,-6.898589288084622e-05,-2.104821430748416e-05,0.0,1.1368683772161603e-12,-2.2737367544323206e-12,0.0,162.83580357142813,70.0,0.0,255.0,0.0
31.500000000000306,35.69671927839419,51.26828828356391,1319.999648604542,-6.89858928240028e-05,-2.1048214421170997e-05,0.0,5.684341886080801e-13,0.0,0.0,162.7633928571424,70.0,0.0,255.0,0.0
31.550000000000306,35.6967158423611,51.268287518501374,1319.999648817815,-6.89858928240028e-05,-2.104821430748416e-05,0.0,0.0,2.2737367544323206e-12,0.0,162.6909821428567,70.0,0.0,255.0,0.0
31.600000000000307,35.69671240662424,51.26828675341804,1319.9996490301564,-6.89858928240028e-05,-2.104821419379732e-05,0.0,-5.684341886080801e-13,0.0,0.0,162.618571428571,70.0,0.0,255.0,0.0
31.650000000000308,35.69670897118358,51.26828598831345,1319.9996492406353,-6.898589288084622e-05,-2.104821430748416e-05,0.0,0.0,-1.1368683772161603e-12,0.0,162.54616071428526,70.0,0.0,255.0,0.0
31.70000000000031,35.696705536039104,51.268285223187135,1319.999649450183,-6.89858928240028e-05,-2.104821430748416e-05,0.0,0.0,1.1368683772161603e-12,0.0,162.47374999999954,70.0,0.0,255.0,0.0
31.75000000000031,35.69670210119079,51.26828445803864,1319.9996496625245,-6.898589288084622e-05,-2.104821419379732e-05,0.0,-1.1368683772161603e-12,1.1368683772161603e-12,0.0,162.40133928571385,70.0,0.0,255.0,0.0
31.80000000000031,35.6966986666386,51.26828369286752,1319.9996498730034,-6.898589293768964e-05,-2.104821419379732e-05,0.0,5.684341886080801e-13,-1.1368683772161603e-12,0.0,162.32892857142812,70.0,0.0,255.0,0.0
31.85000000000031,35.69669523238253,51.2682829276733,1319.9996500816196,-6.89858928240028e-05,-2.104821430748416e-05,0.0,1.1368683772161603e-12,-2.2737367544323206e-12,0.0,162.2565178571424,70.0,0.0,255.0,0.0
31.90000000000031,35.696691798422556,51.26828216245553,1319.9996502920985,-6.89858928240028e-05,-2.1048214421170997e-05,0.0,-5.684341886080801e-13,0.0,0.0,162.1841071428567,70.0,0.0,255.0,0.0
31.950000000000312,35.696688364758636,51.268281397213734,1319.9996504997835,-6.898589288084622e-05,-2.104821430748416e-05,0.0,0.0,1.1368683772161603e-12,0.0,162.11169642857098,70.0,0.0,255.0,0.0
32.00000000000031,35.69668493139074,51.268280631947476,1319.9996507102624,-6.89858928240028e-05,-2.104821430748416e-05,0.0,5.684341886080801e-13,2.710505431213761e-20,0.0,162.03928571428526,70.0,0.0,255.0,0.0
32.05000000000031,35.69668149831886,51.268279866656286,1319.99965091981,-6.89858928240028e-05,-2.104821430748416e-05,0.0,1.0842021724855044e-19,1.1368683772161603e-12,0.0,161.96687499999956,70.0,0.0,255.0,0.0
32.100000000000314,35.69667806554298,51.268279101339715,1319.9996511274949,-6.89858928240028e-05,-2.104821419379732e-05,0.0,-5.684341886080801e-13,0.0,0.0,161.89446428571384,70.0,0.0,255.0,0.0
32.15000000000032,35.69667463306306,51.26827833599729,1319.9996513361111,-6.898589288084622e-05,-2.104821430748416e-05,0.0,-5.684342970282974e-13,-1.1368683772161603e-12,0.0,161.8220535714281,70.0,0.0,255.0,0.0
32.200000000000315,35.696671200879074,51.26827757062857,1319.9996515428647,-6.898589288084622e-05,-2.104821430748416e-05,0.0,5.684341886080801e-13,1.1368683772161603e-12,0.0,161.74964285714242,70.0,0.0,255.0,0.0
32.25000000000031,35.696667768990984,51.268276805233064,1319.9996517533436,-6.89858928240028e-05,-2.104821419379732e-05,0.0,1.0842021724855044e-19,1.1368683772161603e-12,0.0,161.6772321428567,70.0,0.0,255.0,0.0
32.30000000000032,35.69666433739878,51.26827603981035,1319.999651959166,-6.898589288084622e-05,-2.104821419379732e-05,0.0,-5.684341886080801e-13,-2.2737367544323206e-12,0.0,161.60482142857097,70.0,0.0,255.0,0.0
32.35000000000032,35.696660906102416,51.26827527435996,1319.9996521659195,-6.898589288084622e-05,-2.1048214421170997e-05,0.0,-1.0842021724855044e-19,-1.1368683772161603e-12,0.0,161.53241071428525,70.0,0.0,255.0,0.0
32.40000000000032,35.69665747510188,51.26827450888143,1319.9996523726732,-6.898589288084622e-05,-2.104821430748416e-05,0.0,5.684341886080801e-13,2.2737367544323206e-12,0.0,161.45999999999952,70.0,0.0,255.0,0.0
32.450000000000315,35.696654044397135,51.2682737433743,1319.9996525794268,-6.89858928240028e-05,-2.104821419379732e-05,0.0,1.0842021724855044e-19,0.0,0.0,161.38758928571383,70.0,0.0,255.0,0.0
32.50000000000032,35.69665061398816,51.268272977838116,1319.9996527861804,-6.898589288084622e-05,-2.104821430748416e-05,0.0,-5.684341886080801e-13,-1.1368683772161603e-12,0.0,161.3151785714281,70.0,0.0,255.0,0.0
32.550000000000324,35.6966471838749,51.268272212272414,1319.9996529920027,-6.898589288084622e-05,-2.104821430748416e-05,0.0,5.684340801878629e-13,0.0,0.0,161.24276785714238,70.0,0.0,255.0,0.0
32.60000000000032,35.696643754057355,51.26827144667674,1319.999653197825,-6.89858928240028e-05,-2.104821430748416e-05,0.0,5.684341886080801e-13,1.1368683772161603e-12,0.0,161.1703571428567,70.0,0.0,255.0,0.0
32.65000000000032,35.69664032453548,51.26827068105065,1319.999653402716,-6.89858928240028e-05,-2.104821419379732e-05,0.0,1.0842021724855044e-19,1.1368683772161603e-12,0.0,161.09794642857096,70.0,0.0,255.0,0.0
32.70000000000032,35.69663689530925,51.26826991539365,1319.999653607607,-6.89858928240028e-05,-2.104821419379732e-05,0.0,-1.1368683772161603e-12,-2.2737367544323206e-12,0.0,161.02553571428524,70.0,0.0,255.0,0.0
32.75000000000033,35.696633466378614,51.26826914970531,1319.9996538134292,-6.898589293768964e-05,-2.1048214421170997e-05,0.0,-1.0842021724855044e-19,0.0,0.0,160.95312499999955,70.0,0.0,255.0,0.0
32.800000000000324,35.696630037743546,51.268268383985166,1319.9996540164575,-6.89858928240028e-05,-2.104821419379732e-05,0.0,1.1368683772161603e-12,2.2737367544323206e-12,0.0,160.88071428571382,70.0,0.0,255.0,0.0
32.85000000000032,35.696626609404035,51.26826761823278,1319.9996542222798,-6.89858928240028e-05,-2.104821419379732e-05,0.0,-1.136868268795943e-12,-1.1368683772161603e-12,0.0,160.8083035714281,70.0,0.0,255.0,0.0
32.900000000000325,35.69662318136002,51.26826685244765,1319.999654425308,-6.898589293768964e-05,-2.104821430748416e-05,0.0,0.0,-1.1368683772161603e-12,0.0,160.7358928571424,70.0,0.0,255.0,0.0
32.95000000000033,35.696619753611486,51.26826608662935,1319.9996546292678,-6.89858928240028e-05,-2.104821430748416e-05,0.0,5.684340801878629e-13,0.0,0.0,160.66348214285665,70.0,0.0,255.0,0.0
33.00000000000033,35.69661632615839,51.268265320777424,1319.9996548304334,-6.898589288084622e-05,-2.104821430748416e-05,0.0,0.0,0.0,0.0,160.59107142857096,70.0,0.0,255.0,0.0
33.050000000000324,35.6966128990007,51.268264554891395,1319.9996550325304,-6.89858928240028e-05,-2.104821430748416e-05,0.0,5.684342970282974e-13,0.0,0.0,160.51866071428526,70.0,0.0,255.0,0.0
33.10000000000033,35.69660947213838,51.26826378897083,1319.9996552355587,-6.89858928240028e-05,-2.104821430748416e-05,0.0,-1.1368683772161603e-12,0.0,0.0,160.4462499999995,70.0,0.0,255.0,0.0
33.15000000000033,35.69660604557139,51.26826302301524,1319.9996554348618,-6.898589293768964e-05,-2.104821430748416e-05,0.0,-1.0842021724855044e-19,0.0,0.0,160.3738392857138,70.0,0.0,255.0,0.0
33.20000000000033,35.696602619299696,51.26826225702418,1319.99965563789,-6.89858928240028e-05,-2.104821430748416e-05,0.0,1.1368683772161603e-12,1.1368683772161603e-12,0.0,160.3014285714281,70.0,0.0,255.0,0.0
33.25000000000033,35.69659919332327,51.26826149099721,1319.999655839987,-6.89858928240028e-05,-2.104821419379732e-05,0.0,-1.136868268795943e-12,1.1368683772161603e-12,0.0,160.2290178571424,70.0,0.0,255.0,0.0
33.30000000000033,35.69659576764206,51.26826072493385,1319.9996560383588,-6.898589293768964e-05,-2.104821419379732e-05,0.0,0.0,-2.2737367544323206e-12,0.0,160.15660714285667,70.0,0.0,255.0,0.0
33.350000000000335,35.69659234225603,51.26825995883366,1319.9996562395245,-6.89858928240028e-05,-2.1048214421170997e-05,0.0,1.136868268795943e-12,0.0,0.0,160.08419642857095,70.0,0.0,255.0,0.0
33.40000000000033,35.69658891716515,51.26825919269617,1319.9996564388275,-6.89858928240028e-05,-2.104821419379732e-05,0.0,-1.1368683772161603e-12,2.2737367544323206e-12,0.0,160.01178571428522,70.0,0.0,255.0,0.0
33.45000000000033,35.69658549236938,51.26825842652094,1319.9996566390619,-6.898589293768964e-05,-2.104821419379732e-05,0.0,1.0842021724855044e-19,-1.1368683772161603e-12,0.0,159.93937499999953,70.0,0.0,255.0,0.0
33.500000000000334,35.6965820678687,51.26825766030748,1319.9996568365023,-6.89858928240028e-05,-2.104821430748416e-05,0.0,1.1368683772161603e-12,-1.1368683772161603e-12,0.0,159.8669642857138,70.0,0.0,255.0,0.0
33.55000000000034,35.69657864366303,51.26825689405538,1319.999657034874,-6.89858928240028e-05,-2.104821430748416e-05,0.0,-1.0842021724855044e-19,0.0,0.0,159.79455357142808,70.0,0.0,255.0,0.0
33.600000000000335,35.69657521975233,51.26825612776412,1319.9996572351083,-6.89858928240028e-05,-2.104821430748416e-05,0.0,0.0,1.1368683772161603e-12,0.0,159.7221428571424,70.0,0.0,255.0,0.0
33.65000000000033,35.69657179613662,51.26825536143331,1319.9996574325487,-6.89858928240028e-05,-2.104821419379732e-05,0.0,-5.684340801878629e-13,0.0,0.0,159.64973214285666,70.0,0.0,255.0,0.0
33.70000000000034,35.6965683728158,51.26825459506245,1319.9996576281264,-6.898589288084622e-05,-2.104821430748416e-05,0.0,-5.684341886080801e-13,-2.2737367544323206e-12,0.0,159.57732142857094,70.0,0.0,255.0,0.0
33.75000000000034,35.69656494978983,51.26825382865109,1319.9996578255668,-6.898589288084622e-05,-2.1048214421170997e-05,0.0,5.684340801878629e-13,1.1368683772161603e-12,0.0,159.50491071428522,70.0,0.0,255.0,0.0
33.80000000000034,35.6965615270587,51.268253062198795,1319.9996580211446,-6.89858928240028e-05,-2.104821419379732e-05,0.0,0.0,2.2737367544323206e-12,0.0,159.43249999999952,70.0,0.0,255.0,0.0
33.850000000000335,35.696558104622355,51.26825229570508,1319.9996582167223,-6.898589288084622e-05,-2.104821419379732e-05,0.0,-5.684340801878629e-13,-1.1368683772161603e-12,0.0,159.3600892857138,70.0,0.0,255.0,0.0
33.90000000000034,35.696554682480745,51.268251529169504,1319.9996584132314,-6.898589288084622e-05,-2.104821430748416e-05,0.0,5.684341886080801e-13,-1.1368683772161603e-12,0.0,159.28767857142807,70.0,0.0,255.0,0.0
33.950000000000344,35.69655126063384,51.2682507625916,1319.999658608809,-6.89858928240028e-05,-2.104821430748416e-05,0.0,-1.0842021724855044e-19,1.1368683772161603e-12,0.0,159.21526785714235,70.0,0.0,255.0,0.0
34.00000000000034,35.69654783908157,51.26824999597093,1319.9996588034555,-6.898589288084622e-05,-2.104821419379732e-05,0.0,0.0,0.0,0.0,159.14285714285666,70.0,0.0,255.0,0.0
34.05000000000034,35.69654441782392,51.26824922930702,1319.9996589971706,-6.89858928240028e-05,-2.104821430748416e-05,0.0,1.0842021724855044e-19,-1.1368683772161603e-12,0.0,159.07044642857093,70.0,0.0,255.0,0.0
34.10000000000034,35.69654099686083,51.2682484625994,1319.9996591908857,-6.898589288084622e-05,-2.104821430748416e-05,0.0,-5.684341886080801e-13,0.0,0.0,158.9980357142852,70.0,0.0,255.0,0.0
34.15000000000035,35.69653757619225,51.26824769584766,1319.9996593846008,-6.898589288084622e-05,-2.104821430748416e-05,0.0,5.684340801878629e-13,0.0,0.0,158.9256249999995,70.0,0.0,255.0,0.0
34.200000000000344,35.69653415581816,51.268246929051315,1319.999659575522,-6.89858928240028e-05,-2.104821430748416e-05,0.0,0.0,1.1368683772161603e-12,0.0,158.8532142857138,70.0,0.0,255.0,0.0
34.25000000000034,35.696530735738484,51.26824616220989,1319.999659769237,-6.898589288084622e-05,-2.104821419379732e-05,0.0,1.0842021724855044e-19,0.0,0.0,158.78080357142807,70.0,0.0,255.0,0.0
34.300000000000345,35.696527315953176,51.26824539532298,1319.9996599620208,-6.89858928240028e-05,-2.104821430748416e-05,0.0,0.0,-1.1368683772161603e-12,0.0,158.70839285714237,70.0,0.0,255.0,0.0
34.35000000000035,35.69652389646222,51.26824462839008,1319.9996601520106,-6.898589288084622e-05,-2.104821430748416e-05,0.0,-5.684342970282974e-13,1.1368683772161603e-12,0.0,158.63598214285665,70.0,0.0,255.0,0.0
34.40000000000035,35.696520477265544,51.268243861410745,1319.999660341069,-6.898589288084622e-05,-2.104821419379732e-05,0.0,5.684341886080801e-13,0.0,0.0,158.56357142857092,70.0,0.0,255.0,0.0
34.450000000000344,35.6965170583631,51.26824309438454,1319.9996605319902,-6.89858928240028e-05,-2.104821430748416e-05,0.0,1.0842021724855044e-19,-1.1368683772161603e-12,0.0,158.49116071428523,70.0,0.0,255.0,0.0
34.50000000000035,35.696513639754855,51.26824232731099,1319.9996607229114,-6.898589288084622e-05,-2.104821430748416e-05,0.0,0.0,0.0,0.0,158.4187499999995,70.0,0.0,255.0,0.0
34.55000000000035,35.69651022144074,51.26824156018965,1319.9996609119698,-6.89858928240028e-05,-2.104821430748416e-05,0.0,-1.0842021724855044e-19,0.0,0.0,158.34633928571378,70.0,0.0,255.0,0.0
34.60000000000035,35.6965068034207,51.268240793020055,1319.9996611019596,-6.898589288084622e-05,-2.104821430748416e-05,0.0,-5.684341886080801e-13,1.1368683772161603e-12,0.0,158.27392857142806,70.0,0.0,255.0,0.0
34.65000000000035,35.69650338569471,51.26824002580174,1319.9996612891555,-6.898589288084622e-05,-2.104821419379732e-05,0.0,5.684342970282974e-13,0.0,0.0,158.20151785714236,70.0,0.0,255.0,0.0
34.70000000000035,35.696499968262714,51.26823925853427,1319.9996614763513,-6.89858928240028e-05,-2.104821430748416e-05,0.0,0.0,-2.2737367544323206e-12,0.0,158.12910714285664,70.0,0.0,255.0,0.0
34.750000000000355,35.69649655112466,51.268238491217204,1319.9996616644785,-6.898589288084622e-05,-2.1048214421170997e-05,0.0,-5.684342970282974e-13,1.1368683772161603e-12,0.0,158.05669642857092,70.0,0.0,255.0,0.0
34.80000000000035,35.69649313428049,51.26823772385004,1319.999661850743,-6.898589288084622e-05,-2.104821419379732e-05,0.0,5.684341886080801e-13,2.2737367544323206e-12,0.0,157.9842857142852,70.0,0.0,255.0,0.0
34.85000000000035,35.696489717730145,51.26823695643236,1319.9996620360762,-6.89858928240028e-05,-2.104821419379732e-05,0.0,5.684342970282974e-13,-2.2737367544323206e-12,0.0,157.9118749999995,70.0,0.0,255.0,0.0
34.900000000000354,35.69648630147359,51.2682361889637,1319.9996622242033,-6.89858928240028e-05,-2.1048214421170997e-05,0.0,-1.1368683772161603e-12,-1.1368683772161603e-12,0.0,157.83946428571377,70.0,0.0,255.0,0.0
34.95000000000036,35.69648288551076,51.268235421443585,1319.9996624095365,-6.898589293768964e-05,-2.104821430748416e-05,0.0,-1.0842021724855044e-19,2.2737367544323206e-12,0.0,157.76705357142805,70.0,0.0,255.0,0.0
35.000000000000355,35.696479469841606,51.2682346538716,1319.999662593007,-6.89858928240028e-05,-2.104821419379732e-05,0.0,1.1368683772161603e-12,0.0,0.0,157.69464285714236,70.0,0.0,255.0,0.0
35.05000000000035,35.69647605446609,51.26823388624725,1319.999662777409,-6.89858928240028e-05,-2.104821430748416e-05,0.0,1.0842021724855044e-19,-1.1368683772161603e-12,0.0,157.62223214285663,70.0,0.0,255.0,0.0
35.10000000000036,35.696472639384126,51.2682331185701,1319.9996629618108,-6.89858928240028e-05,-2.104821430748416e-05,0.0,0.0,0.0,0.0,157.5498214285709,70.0,0.0,255.0,0.0
35.15000000000036,35.69646922459569,51.2682323508397,1319.9996631452814,-6.89858928240028e-05,-2.104821430748416e-05,0.0,-1.1368684856363775e-12,0.0,0.0,157.47741071428518,70.0,0.0,255.0,0.0
35.20000000000036,35.6964658101007,51.26823158305558,1319.9996633278206,-6.898589293768964e-05,-2.104821430748416e-05,0.0,0.0,1.1368683772161603e-12,0.0,157.4049999999995,70.0,0.0,255.0,0.0
35.250000000000355,35.69646239589912,51.2682308152173,1319.9996635094285,-6.89858928240028e-05,-2.104821419379732e-05,0.0,1.1368684856363775e-12,-1.1368683772161603e-12,0.0,157.33258928571377,70.0,0.0,255.0,0.0
35.30000000000036,35.69645898199088,51.268230047324394,1319.9996636910364,-6.89858928240028e-05,-2.1048214421170997e-05,0.0,-1.1368683772161603e-12,-1.1368683772161603e-12,0.0,157.26017857142804,70.0,0.0,255.0,0.0
35.350000000000364,35.69645556837593,51.2682292793764,1319.9996638726443,-6.898589293768964e-05,-2.104821430748416e-05,0.0,-1.0842021724855044e-19,2.2737367544323206e-12,0.0,157.18776785714232,70.0,0.0,255.0,0.0
35.40000000000036,35.69645215505422,51.26822851137289,1319.9996640514582,-6.89858928240028e-05,-2.104821419379732e-05,0.0,1.1368683772161603e-12,0.0,0.0,157.11535714285662,70.0,0.0,255.0,0.0
35.45000000000036,35.696448742025694,51.268227743313396,1319.9996642321348,-6.89858928240028e-05,-2.104821430748416e-05,0.0,-5.684340801878629e-13,-1.1368683772161603e-12,0.0,157.04294642857093,70.0,0.0,255.0,0.0
35.50000000000036,35.696445329290285,51.26822697519745,1319.99966441188,-6.898589288084622e-05,-2.104821430748416e-05,0.0,0.0,0.0,0.0,156.97053571428518,70.0,0.0,255.0,0.0
35.55000000000037,35.69644191684793,51.268226207024625,1319.999664590694,-6.89858928240028e-05,-2.104821430748416e-05,0.0,-5.684342970282974e-13,0.0,0.0,156.89812499999948,70.0,0.0,255.0,0.0
35.600000000000364,35.69643850469857,51.268225438794445,1319.9996647676453,-6.898589293768964e-05,-2.104821430748416e-05,0.0,0.0,0.0,0.0,156.82571428571376,70.0,0.0,255.0,0.0
35.65000000000036,35.69643509284215,51.26822467050647,1319.9996649464592,-6.89858928240028e-05,-2.104821430748416e-05,0.0,1.1368684856363775e-12,0.0,0.0,156.75330357142803,70.0,0.0,255.0,0.0
35.700000000000365,35.696431681278625,51.26822390216024,1319.9996651234105,-6.89858928240028e-05,-2.104821430748416e-05,0.0,-1.1368683772161603e-12,0.0,0.0,156.68089285714234,70.0,0.0,255.0,0.0
35.75000000000037,35.69642827000793,51.26822313375529,1319.9996652984992,-6.898589293768964e-05,-2.104821430748416e-05,0.0,-1.0842021724855044e-19,0.0,0.0,156.60848214285662,70.0,0.0,255.0,0.0
35.80000000000037,35.69642485902997,51.268222365291194,1319.9996654735878,-6.89858928240028e-05,-2.104821430748416e-05,0.0,1.1368683772161603e-12,1.1368683772161603e-12,0.0,156.5360714285709,70.0,0.0,255.0,0.0
35.850000000000364,35.69642144834473,51.268221596767475,1319.999665650539,-6.89858928240028e-05,-2.104821419379732e-05,0.0,-5.684340801878629e-13,0.0,0.0,156.4636607142852,70.0,0.0,255.0,0.0
35.90000000000037,35.69641803795211,51.26822082818368,1319.9996658246964,-6.898589288084622e-05,-2.104821430748416e-05,0.0,-5.684341886080801e-13,-1.1368683772161603e-12,0.0,156.39124999999947,70.0,0.0,255.0,0.0
35.95000000000037,35.69641462785208,51.26822005953938,1319.9996659979224,-6.898589288084622e-05,-2.104821430748416e-05,0.0,5.684340801878629e-13,0.0,0.0,156.31883928571375,70.0,0.0,255.0,0.0
36.00000000000037,35.69641121804456,51.26821929083409,1319.9996661711484,-6.89858928240028e-05,-2.104821430748416e-05,0.0,5.684341886080801e-13,0.0,0.0,156.24642857142805,70.0,0.0,255.0,0.0
36.05000000000037,35.69640780852949,51.26821852206738,1319.9996663443744,-6.89858928240028e-05,-2.104821430748416e-05,0.0,-5.684340801878629e-13,0.0,0.0,156.17401785714233,70.0,0.0,255.0,0.0
36.10000000000037,35.69640439930682,51.26821775323878,1319.9996665176004,-6.898589288084622e-05,-2.104821430748416e-05,0.0,-5.684341886080801e-13,0.0,0.0,156.1016071428566,70.0,0.0,255.0,0.0
36.150000000000375,35.696400990376446,51.26821698434785,1319.9996666871011,-6.898589288084622e-05,-2.104821430748416e-05,0.0,-1.0842021724855044e-19,0.0,0.0,156.02919642857088,70.0,0.0,255.0,0.0
36.20000000000037,35.69639758173835,51.268216215394126,1319.9996668584645,-6.898589288084622e-05,-2.104821430748416e-05,0.0,5.684341886080801e-13,0.0,0.0,155.95678571428516,70.0,0.0,255.0,0.0
36.25000000000037,35.69639417339244,51.268215446377184,1319.9996670279652,-6.89858928240028e-05,-2.104821430748416e-05,0.0,1.0842021724855044e-19,0.0,0.0,155.88437499999947,70.0,0.0,255.0,0.0
36.300000000000374,35.69639076533866,51.26821467729653,1319.9996671983972,-6.898589288084622e-05,-2.104821430748416e-05,0.0,-5.684341886080801e-13,1.1368683772161603e-12,0.0,155.81196428571374,70.0,0.0,255.0,0.0
36.35000000000038,35.696387357576945,51.26821390815173,1319.9996673669666,-6.898589288084622e-05,-2.104821419379732e-05,0.0,5.684340801878629e-13,0.0,0.0,155.73955357142802,70.0,0.0,255.0,0.0
36.400000000000375,35.696383950107226,51.268213138942336,1319.999667535536,-6.89858928240028e-05,-2.104821430748416e-05,0.0,0.0,-1.1368683772161603e-12,0.0,155.66714285714232,70.0,0.0,255.0,0.0
36.45000000000037,35.69638054292943,51.26821236966789,1319.9996677041054,-6.898589288084622e-05,-2.104821430748416e-05,0.0,1.0842021724855044e-19,0.0,0.0,155.5947321428566,70.0,0.0,255.0,0.0
36.50000000000038,35.69637713604349,51.26821160032795,1319.9996678698808,-6.89858928240028e-05,-2.104821430748416e-05,0.0,0.0,0.0,0.0,155.52232142857088,70.0,0.0,255.0,0.0
36.55000000000038,35.69637372944936,51.26821083092205,1319.9996680356562,-6.898589288084622e-05,-2.104821430748416e-05,0.0,-1.0842021724855044e-19,0.0,0.0,155.44991071428518,70.0,0.0,255.0,0.0
36.60000000000038,35.696370323146944,51.26821006144974,1319.9996682014316,-6.89858928240028e-05,-2.104821430748416e-05,0.0,5.684341886080801e-13,0.0,0.0,155.37749999999946,70.0,0.0,255.0,0.0
36.650000000000375,35.696366917136196,51.26820929191057,1319.9996683662757,-6.89858928240028e-05,-2.104821430748416e-05,0.0,-1.136868268795943e-12,0.0,0.0,155.30508928571373,70.0,0.0,255.0,0.0
36.70000000000038,35.69636351141703,51.26820852230411,1319.9996685301885,-6.898589293768964e-05,-2.104821430748416e-05,0.0,0.0,0.0,0.0,155.23267857142804,70.0,0.0,255.0,0.0
36.750000000000384,35.69636010598938,51.26820775262986,1319.9996686941013,-6.89858928240028e-05,-2.104821430748416e-05,0.0,5.684340801878629e-13,0.0,0.0,155.1602678571423,70.0,0.0,255.0,0.0
36.80000000000038,35.69635670085319,51.26820698288741,1319.9996688570827,-6.898589288084622e-05,-2.104821430748416e-05,0.0,-5.684341886080801e-13,0.0,0.0,155.0878571428566,70.0,0.0,255.0,0.0
36.85000000000038,35.69635329600836,51.268206213076304,1319.9996690209955,-6.898589288084622e-05,-2.104821430748416e-05,0.0,5.684342970282974e-13,1.1368683772161603e-12,0.0,155.0154464285709,70.0,0.0,255.0,0.0
36.90000000000038,35.69634989145484,51.26820544319607,1319.9996691821143,-6.89858928240028e-05,-2.104821419379732e-05,0.0,0.0,1.1368683772161603e-12,0.0,154.94303571428514,70.0,0.0,255.0,0.0
36.95000000000039,35.69634648719257,51.26820467324628,1319.9996693423018,-6.898589288084622e-05,-2.104821419379732e-05,0.0,-1.0842021724855044e-19,-2.2737367544323206e-12,0.0,154.87062499999945,70.0,0.0,255.0,0.0
37.000000000000384,35.69634308322145,51.26820390322646,1319.9996695024893,-6.89858928240028e-05,-2.1048214421170997e-05,0.0,5.684341886080801e-13,-1.1368683772161603e-12,0.0,154.79821428571373,70.0,0.0,255.0,0.0
37.05000000000038,35.696339679541424,51.26820313313616,1319.9996696626768,-6.89858928240028e-05,-2.104821430748416e-05,0.0,-1.136868268795943e-12,1.1368683772161603e-12,0.0,154.72580357142803,70.0,0.0,255.0,0.0
37.100000000000385,35.69633627615242,51.26820236297496,1319.9996698200703,-6.898589293768964e-05,-2.104821430748416e-05,0.0,0.0,0.0,0.0,154.6533928571423,70.0,0.0,255.0,0.0
37.15000000000039,35.69633287305435,51.26820159274237,1319.9996699793264,-6.89858928240028e-05,-2.104821430748416e-05,0.0,1.136868268795943e-12,0.0,0.0,154.58098214285658,70.0,0.0,255.0,0.0
37.20000000000039,35.69632947024716,51.268200822437976,1319.9996701357886,-6.89858928240028e-05,-2.104821430748416e-05,0.0,-1.1368683772161603e-12,0.0,0.0,154.50857142857086,70.0,0.0,255.0,0.0
37.250000000000384,35.696326067730766,51.268200052061296,1319.9996702931821,-6.898589293768964e-05,-2.104821430748416e-05,0.0,1.0842021724855044e-19,0.0,0.0,154.43616071428517,70.0,0.0,255.0,0.0
37.30000000000039,35.696322665505086,51.2681992816119,1319.9996704496443,-6.89858928240028e-05,-2.104821430748416e-05,0.0,1.1368683772161603e-12,0.0,0.0,154.36374999999944,70.0,0.0,255.0,0.0
37.35000000000039,35.696319263570075,51.26819851108933,1319.9996706061065,-6.89858928240028e-05,-2.104821430748416e-05,0.0,-1.1368684856363775e-12,0.0,0.0,154.29133928571372,70.0,0.0,255.0,0.0
37.40000000000039,35.696315861925605,51.26819774049313,1319.999670760706,-6.898589293768964e-05,-2.104821430748416e-05,0.0,0.0,0.0,0.0,154.21892857142802,70.0,0.0,255.0,0.0
37.45000000000039,35.696312460571654,51.26819696982286,1319.9996709143743,-6.89858928240028e-05,-2.104821430748416e-05,0.0,1.1368684856363775e-12,1.1368683772161603e-12,0.0,154.1465178571423,70.0,0.0,255.0,0.0
37.50000000000039,35.69630905950811,51.26819619907806,1319.9996710652485,-6.89858928240028e-05,-2.104821419379732e-05,0.0,-5.684341886080801e-13,1.1368683772161603e-12,0.0,154.07410714285658,70.0,0.0,255.0,0.0
37.550000000000395,35.69630565873492,51.26819542825831,1319.9996712179855,-6.898589288084622e-05,-2.104821419379732e-05,0.0,-1.0842021724855044e-19,-1.1368683772161603e-12,0.0,154.00169642857085,70.0,0.0,255.0,0.0
37.60000000000039,35.696302258251976,51.26819465736311,1319.999671369791,-6.89858928240028e-05,-2.104821430748416e-05,0.0,0.0,-1.1368683772161603e-12,0.0,153.92928571428516,70.0,0.0,255.0,0.0
37.65000000000039,35.69629885805923,51.26819388639206,1319.999671519734,-6.898589288084622e-05,-2.104821430748416e-05,0.0,-5.684340801878629e-13,0.0,0.0,153.85687499999943,70.0,0.0,255.0,0.0
37.700000000000394,35.69629545815659,51.268193115344666,1319.9996716715395,-6.898589288084622e-05,-2.104821430748416e-05,0.0,5.684341886080801e-13,0.0,0.0,153.7844642857137,70.0,0.0,255.0,0.0
37.7500000000004,35.69629205854398,51.2681923442205,1319.9996718196198,-6.89858928240028e-05,-2.104821430748416e-05,0.0,-5.684342970282974e-13,0.0,0.0,153.712053571428,70.0,0.0,255.0,0.0
37.800000000000395,35.696288659221324,51.26819157301913,1319.999671970494,-6.898589293768964e-05,-2.104821430748416e-05,0.0,0.0,0.0,0.0,153.6396428571423,70.0,0.0,255.0,0.0
37.85000000000039,35.69628526018852,51.26819080174008,1319.999672117643,-6.89858928240028e-05,-2.104821430748416e-05,0.0,1.1368684856363775e-12,1.1368683772161603e-12,0.0,153.56723214285657,70.0,0.0,255.0,0.0
37.9000000000004,35.69628186144551,51.26819003038291,1319.9996722638607,-6.89858928240028e-05,-2.104821419379732e-05,0.0,-1.1368683772161603e-12,0.0,0.0,153.49482142857084,70.0,0.0,255.0,0.0
37.9500000000004,35.69627846299222,51.268189258947174,1319.9996724082157,-6.898589293768964e-05,-2.104821430748416e-05,0.0,-1.0842021724855044e-19,-2.2737367544323206e-12,0.0,153.42241071428515,70.0,0.0,255.0,0.0
38.0000000000004,35.69627506482854,51.26818848743242,1319.999672556296,-6.89858928240028e-05,-2.1048214421170997e-05,0.0,1.1368683772161603e-12,1.1368683772161603e-12,0.0,153.34999999999943,70.0,0.0,255.0,0.0
38.050000000000395,35.696271666954445,51.26818771583819,1319.999672700651,-6.89858928240028e-05,-2.104821419379732e-05,0.0,1.0842021724855044e-19,2.2737367544323206e-12,0.0,153.2775892857137,70.0,0.0,255.0,0.0
38.1000000000004,35.69626826936977,51.26818694416406,1319.999672845006,-6.89858928240028e-05,-2.104821419379732e-05,0.0,-5.684341886080801e-13,-1.1368683772161603e-12,0.0,153.205178571428,70.0,0.0,255.0,0.0
38.150000000000404,35.69626487207451,51.26818617240956,1319.999672989361,-6.898589288084622e-05,-2.104821430748416e-05,0.0,-5.684342970282974e-13,-1.1368683772161603e-12,0.0,153.13276785714228,70.0,0.0,255.0,0.0
38.2000000000004,35.69626147506852,51.26818540057425,1319.999673130922,-6.898589288084622e-05,-2.104821430748416e-05,0.0,5.684341886080801e-13,0.0,0.0,153.06035714285656,70.0,0.0,255.0,0.0
38.2500000000004,35.69625807835175,51.268184628657686,1319.9996732734144,-6.89858928240028e-05,-2.104821430748416e-05,0.0,1.0842021724855044e-19,0.0,0.0,152.98794642857087,70.0,0.0,255.0,0.0
38.3000000000004,35.69625468192412,51.26818385665941,1319.999673414044,-6.898589288084622e-05,-2.104821430748416e-05,0.0,-5.684341886080801e-13,0.0,0.0,152.91553571428514,70.0,0.0,255.0,0.0
38.350000000000406,35.69625128578553,51.26818308457898,1319.9996735537425,-6.898589288084622e-05,-2.104821430748416e-05,0.0,-1.0842021724855044e-19,0.0,0.0,152.84312499999942,70.0,0.0,255.0,0.0
38.400000000000404,35.6962478899359,51.26818231241595,1319.9996736925095,-6.898589288084622e-05,-2.104821430748416e-05,0.0,5.684341886080801e-13,1.1368683772161603e-12,0.0,152.7707142857137,70.0,0.0,255.0,0.0
38.4500000000004,35.69624449437516,51.26818154016986,1319.9996738331392,-6.89858928240028e-05,-2.104821419379732e-05,0.0,5.684342970282974e-13,1.1368683772161603e-12,0.0,152.698303571428,70.0,0.0,255.0,0.0
38.500000000000405,35.69624109910319,51.268180767840285,1319.9996739691123,-6.89858928240028e-05,-2.104821419379732e-05,0.0,-5.684341886080801e-13,-2.2737367544323206e-12,0.0,152.62589285714228,70.0,0.0,255.0,0.0
38.55000000000041,35.69623770411993,51.26817999542676,1319.9996741060168,-6.898589288084622e-05,-2.1048214421170997e-05,0.0,-5.684342970282974e-13,-1.1368683772161603e-12,0.0,152.55348214285655,70.0,0.0,255.0,0.0
38.600000000000406,35.696234309425286,51.268179222928836,1319.9996742419899,-6.898589288084622e-05,-2.104821430748416e-05,0.0,5.684341886080801e-13,2.2737367544323206e-12,0.0,152.48107142857083,70.0,0.0,255.0,0.0
38.650000000000404,35.69623091501917,51.26817845034608,1319.9996743770316,-6.89858928240028e-05,-2.104821419379732e-05,0.0,5.684342970282974e-13,0.0,0.0,152.40866071428513,70.0,0.0,255.0,0.0
38.70000000000041,35.6962275209015,51.268177677678025,1319.9996745102108,-6.89858928240028e-05,-2.104821430748416e-05,0.0,-1.1368683772161603e-12,-1.1368683772161603e-12,0.0,152.3362499999994,70.0,0.0,255.0,0.0
38.75000000000041,35.6962241270722,51.26817690492425,1319.9996746443212,-6.898589293768964e-05,-2.104821430748416e-05,0.0,-1.0842021724855044e-19,0.0,0.0,152.2638392857137,70.0,0.0,255.0,0.0
38.80000000000041,35.696220733531135,51.2681761320843,1319.9996747775003,-6.89858928240028e-05,-2.104821430748416e-05,0.0,1.1368683772161603e-12,0.0,0.0,152.191428571428,70.0,0.0,255.0,0.0
38.850000000000406,35.69621734027825,51.268175359157716,1319.9996749097481,-6.89858928240028e-05,-2.104821430748416e-05,0.0,-1.136868268795943e-12,1.1368683772161603e-12,0.0,152.11901785714227,70.0,0.0,255.0,0.0
38.90000000000041,35.69621394731348,51.26817458614406,1319.999675041996,-6.898589293768964e-05,-2.104821419379732e-05,0.0,0.0,0.0,0.0,152.04660714285654,70.0,0.0,255.0,0.0
38.950000000000415,35.696210554636686,51.26817381304289,1319.999675172381,-6.89858928240028e-05,-2.104821430748416e-05,0.0,5.684340801878629e-13,-1.1368683772161603e-12,0.0,151.97419642857082,70.0,0.0,255.0,0.0
39.00000000000041,35.69620716224781,51.26817303985375,1319.9996753009036,-6.898589288084622e-05,-2.104821430748416e-05,0.0,0.0,1.1368683772161603e-12,0.0,151.90178571428513,70.0,0.0,255.0,0.0
39.05000000000041,35.69620377014674,51.26817226657619,1319.9996754284948,-6.89858928240028e-05,-2.104821419379732e-05,0.0,5.684342970282974e-13,1.1368683772161603e-12,0.0,151.8293749999994,70.0,0.0,255.0,0.0
39.10000000000041,35.696200378333394,51.268171493209785,1319.9996755570173,-6.89858928240028e-05,-2.104821419379732e-05,0.0,-1.1368683772161603e-12,-2.2737367544323206e-12,0.0,151.75696428571368,70.0,0.0,255.0,0.0
39.15000000000042,35.69619698680769,51.26817071975407,1319.9996756836772,-6.898589293768964e-05,-2.1048214421170997e-05,0.0,-1.0842021724855044e-19,-1.1368683772161603e-12,0.0,151.68455357142795,70.0,0.0,255.0,0.0
39.200000000000415,35.6961935955695,51.2681699462086,1319.9996758094057,-6.89858928240028e-05,-2.104821430748416e-05,0.0,1.1368683772161603e-12,2.2737367544323206e-12,0.0,151.61214285714226,70.0,0.0,255.0,0.0
39.25000000000041,35.69619020461879,51.26816917257296,1319.999675934203,-6.89858928240028e-05,-2.104821419379732e-05,0.0,-1.136868268795943e-12,0.0,0.0,151.53973214285654,70.0,0.0,255.0,0.0
39.300000000000416,35.696186813955414,51.26816839884666,1319.9996760599315,-6.898589293768964e-05,-2.104821430748416e-05,0.0,0.0,-1.1368683772161603e-12,0.0,151.4673214285708,70.0,0.0,255.0,0.0
39.35000000000042,35.6961834235793,51.26816762502929,1319.9996761837974,-6.89858928240028e-05,-2.104821430748416e-05,0.0,1.136868268795943e-12,0.0,0.0,151.39491071428512,70.0,0.0,255.0,0.0
39.40000000000042,35.69618003349035,51.268166851120384,1319.9996763048694,-6.89858928240028e-05,-2.104821430748416e-05,0.0,0.0,1.1368683772161603e-12,0.0,151.3224999999994,70.0,0.0,255.0,0.0
39.450000000000415,35.696176643688474,51.268166077119496,1319.9996764259413,-6.89858928240028e-05,-2.104821419379732e-05,0.0,1.0842021724855044e-19,1.1368683772161603e-12,0.0,151.25008928571367,70.0,0.0,255.0,0.0
39.50000000000042,35.696173254173594,51.268165303026215,1319.9996765470132,-6.89858928240028e-05,-2.104821419379732e-05,0.0,-1.1368683772161603e-12,-2.2737367544323206e-12,0.0,151.17767857142798,70.0,0.0,255.0,0.0
39.55000000000042,35.696169864945574,51.26816452884005,1319.9996766671538,-6.898589293768964e-05,-2.1048214421170997e-05,0.0,-1.0842021724855044e-19,0.0,0.0,151.10526785714225,70.0,0.0,255.0,0.0
39.60000000000042,35.696166476004336,51.26816375456058,1319.9996767863631,-6.89858928240028e-05,-2.104821419379732e-05,0.0,1.1368683772161603e-12,2.2737367544323206e-12,0.0,151.03285714285653,70.0,0.0,255.0,0.0
39.65000000000042,35.696163087349795,51.26816298018736,1319.999676904641,-6.89858928240028e-05,-2.104821419379732e-05,0.0,-5.684340801878629e-13,-1.1368683772161603e-12,0.0,150.96044642857083,70.0,0.0,255.0,0.0
39.70000000000042,35.69615969898185,51.268162205719946,1319.9996770219877,-6.898589288084622e-05,-2.104821430748416e-05,0.0,-5.684341886080801e-13,-1.1368683772161603e-12,0.0,150.8880357142851,70.0,0.0,255.0,0.0
39.750000000000426,35.6961563109004,51.268161431157885,1319.9996771374717,-6.898589288084622e-05,-2.104821430748416e-05,0.0,5.684340801878629e-13,0.0,0.0,150.8156249999994,70.0,0.0,255.0,0.0
39.80000000000042,35.696152923105345,51.26816065650076,1319.9996772529557,-6.89858928240028e-05,-2.104821430748416e-05,0.0,0.0,0.0,0.0,150.74321428571366,70.0,0.0,255.0,0.0
39.85000000000042,35.69614953559658,51.26815988174809,1319.999677366577,-6.898589288084622e-05,-2.104821430748416e-05,0.0,-5.684340801878629e-13,0.0,0.0,150.67080357142797,70.0,0.0,255.0,0.0
39.900000000000425,35.69614614837403,51.26815910689945,1319.9996774792671,-6.898589288084622e-05,-2.104821430748416e-05,0.0,5.684341886080801e-13,0.0,0.0,150.59839285714224,70.0,0.0,255.0,0.0
39.95000000000043,35.69614276143757,51.26815833195441,1319.9996775928885,-6.89858928240028e-05,-2.104821430748416e-05,0.0,-1.0842021724855044e-19,0.0,0.0,150.52598214285652,70.0,0.0,255.0,0.0
40.000000000000426,35.69613937478711,51.2681575569125,1319.9996777046472,-6.898589288084622e-05,-2.104821430748416e-05,0.0,0.0,1.1368683772161603e-12,0.0,150.4535714285708,70.0,0.0,255.0,0.0
40.05000000000042,35.69613598842257,51.26815678177329,1319.9996778145432,-6.89858928240028e-05,-2.104821419379732e-05,0.0,1.0842021724855044e-19,1.1368683772161603e-12,0.0,150.3811607142851,70.0,0.0,255.0,0.0
40.10000000000043,35.69613260234381,51.26815600653635,1319.9996779253706,-6.898589288084622e-05,-2.104821419379732e-05,0.0,-5.684341886080801e-13,-1.1368683772161603e-12,0.0,150.30874999999938,70.0,0.0,255.0,0.0
40.15000000000043,35.69612921655075,51.26815523120122,1319.999678033404,-6.898589288084622e-05,-2.104821430748416e-05,0.0,5.684340801878629e-13,0.0,0.0,150.23633928571365,70.0,0.0,255.0,0.0
40.20000000000043,35.696125831043304,51.268154455767466,1319.9996781433001,-6.89858928240028e-05,-2.104821419379732e-05,0.0,0.0,0.0,0.0,150.16392857142796,70.0,0.0,255.0,0.0
40.250000000000426,35.696122445821345,51.268153680234626,1319.9996782504022,-6.898589288084622e-05,-2.104821430748416e-05,0.0,1.0842021724855044e-19,-1.1368683772161603e-12,0.0,150.09151785714224,70.0,0.0,255.0,0.0
40.30000000000043,35.69611906088477,51.26815290460228,1319.9996783556417,-6.89858928240028e-05,-2.104821430748416e-05,0.0,0.0,0.0,0.0,150.0191071428565,70.0,0.0,255.0,0.0
40.350000000000435,35.696115676233504,51.26815212886998,1319.9996784590185,-6.898589288084622e-05,-2.104821430748416e-05,0.0,-5.684342970282974e-13,0.0,0.0,149.9466964285708,70.0,0.0,255.0,0.0
40.40000000000043,35.696112291867415,51.26815135303728,1319.999678564258,-6.898589288084622e-05,-2.104821430748416e-05,0.0,5.684341886080801e-13,1.1368683772161603e-12,0.0,149.8742857142851,70.0,0.0,255.0,0.0
40.45000000000043,35.69610890778641,51.26815057710375,1319.9996786676347,-6.89858928240028e-05,-2.104821419379732e-05,0.0,1.0842021724855044e-19,0.0,0.0,149.80187499999937,70.0,0.0,255.0,0.0
40.50000000000043,35.69610552399039,51.26814980106894,1319.9996787710115,-6.898589288084622e-05,-2.104821430748416e-05,0.0,0.0,-2.2737367544323206e-12,0.0,149.72946428571368,70.0,0.0,255.0,0.0
