t,lat,lon,alt,vx,vy,vz,ax,ay,az,yaw,mode,ledr,ledg,ledb
10.0,35.72395596144831,51.275308533420606,1379.999964158982,2.5517368413829537e-05,-7.98368421328621e-05,6.3157894736831635,5.684414392101006e-13,-2.276824562219527e-17,1.7941204077942275e-12,291.5,70.0,0.0,255.0,0.0
10.05,35.72395695203428,51.2753037490278,1380.3157540252432,2.551736844225161e-05,-7.983684213286324e-05,6.315789473683253,2.842207263813179e-13,1.1368569930933492e-12,1.9092283309873892e-11,290.86473684210523,70.0,0.0,255.0,0.0
10.100000000000001,35.72395793547233,51.2752989685626,1380.6315439157188,2.551736844225161e-05,-7.98368420191764e-05,6.315789473685072,-5.684341886080801e-13,1.1368683772161603e-12,1.8189894035458565e-11,290.2294736842105,70.0,0.0,255.0,0.0
10.150000000000002,35.7239589117984,51.27529419212193,1380.9473338201642,2.551736838540819e-05,-7.98368420191764e-05,6.315789473685072,-5.684341886080801e-13,-1.1368683772161603e-12,-1.8189894035458565e-11,289.59421052631575,70.0,0.0,255.0,0.0
10.200000000000003,35.72395988104931,51.27528941980226,1381.26312374603,2.551736838540819e-05,-7.983684213286324e-05,6.315789473683253,5.684341886080801e-13,-1.1368683772161603e-12,-1.8189894035458565e-11,288.95894736842104,70.0,0.0,255.0,0.0
10.250000000000004,35.72396084326276,51.275284651699536,1381.5789136914536,2.551736844225161e-05,-7.983684213286324e-05,6.315789473683253,5.684341886080801e-13,0.0,3.637978807091713e-11,288.32368421052627,70.0,0.0,255.0,0.0
10.300000000000004,35.7239617984773,51.27527988790916,1381.8947036545724,2.551736844225161e-05,-7.983684213286324e-05,6.315789473686891,-5.684341886080801e-13,1.1368683772161603e-12,1.8189894035458565e-11,287.6884210526315,70.0,0.0,255.0,0.0
10.350000000000005,35.72396274673235,51.275275128526054,1382.210493634455,2.551736838540819e-05,-7.98368420191764e-05,6.315789473685072,-5.684341886080801e-13,1.1368683772161603e-12,-5.4569682106375694e-11,287.0531578947368,70.0,0.0,255.0,0.0
10.400000000000006,35.72396368806818,51.27527037364456,1382.5262836348265,2.551736838540819e-05,-7.98368420191764e-05,6.315789473681434,1.1368683772161603e-12,-1.1368683772161603e-12,-1.8189894035458565e-11,286.417894736842,70.0,0.0,255.0,0.0
10.450000000000006,35.72396462252594,51.275265623358464,1382.8420736500993,2.5517368499095028e-05,-7.983684213286324e-05,6.315789473683253,1.1368683772161603e-12,-1.1368683772161603e-12,5.4569682106375694e-11,285.7826315789473,70.0,0.0,255.0,0.0
10.500000000000007,35.723965550147575,51.275260877761035,1383.1578636867926,2.5517368499095028e-05,-7.983684213286324e-05,6.315789473686891,-1.1368683772161603e-12,0.0,3.637978807091713e-11,285.14736842105253,70.0,0.0,255.0,0.0
10.550000000000008,35.723966470975896,51.275256136944904,1383.473653741181,2.551736838540819e-05,-7.983684213286324e-05,6.315789473686891,-5.684341886080801e-13,0.0,-3.637978807091713e-11,284.5121052631578,70.0,0.0,255.0,0.0
10.600000000000009,35.72396738505457,51.275251401002166,1383.7894438104704,2.551736844225161e-05,-7.983684213286324e-05,6.315789473683253,5.684341886080801e-13,0.0,-3.637978807091713e-11,283.87684210526305,70.0,0.0,255.0,0.0
10.65000000000001,35.723968292428054,51.27524667002427,1384.1052338983864,2.551736844225161e-05,-7.983684213286324e-05,6.315789473683253,-5.684341886080801e-13,0.0,0.0,283.2415789473683,70.0,0.0,255.0,0.0
10.70000000000001,35.723969193141656,51.2752419441021,1384.4210240067914,2.551736838540819e-05,-7.983684213286324e-05,6.315789473683253,-5.684341886080801e-13,0.0,1.8189894035458565e-11,282.60631578947357,70.0,0.0,255.0,0.0
10.75000000000001,35.72397008724148,51.27523722332588,1384.7368141300976,2.551736838540819e-05,-7.983684213286324e-05,6.315789473685072,5.684341886080801e-13,0.0,1.8189894035458565e-11,281.9710526315788,70.0,0.0,255.0,0.0
10.800000000000011,35.723970974774495,51.275232507785226,1385.0526042701676,2.551736844225161e-05,-7.983684213286324e-05,6.315789473685072,5.684341886080801e-13,0.0,-1.8189894035458565e-11,281.3357894736841,70.0,0.0,255.0,0.0
10.850000000000012,35.72397185578839,51.27522779756911,1385.3683944260702,2.551736844225161e-05,-7.983684213286324e-05,6.315789473683253,-5.684341886080801e-13,1.1368683772161603e-12,-1.8189894035458565e-11,280.7005263157893,70.0,0.0,255.0,0.0
10.900000000000013,35.72397273033175,51.27522309276583,1385.684184600599,2.551736838540819e-05,-7.98368420191764e-05,6.315789473683253,-5.684341886080801e-13,1.1368683772161603e-12,1.8189894035458565e-11,280.06526315789455,70.0,0.0,255.0,0.0
10.950000000000014,35.723973598453895,51.275218393463035,1385.9999747918919,2.551736838540819e-05,-7.98368420191764e-05,6.315789473685072,5.684341886080801e-13,-1.1368683772161603e-12,1.8189894035458565e-11,279.42999999999984,70.0,0.0,255.0,0.0
11.000000000000014,35.723974460204936,51.27521369974769,1386.3157649962232,2.551736844225161e-05,-7.983684213286324e-05,6.315789473685072,5.684341886080801e-13,-1.1368683772161603e-12,-1.8189894035458565e-11,278.79473684210507,70.0,0.0,255.0,0.0
11.050000000000015,35.7239753156358,51.27520901170609,1386.6315552219748,2.551736844225161e-05,-7.983684213286324e-05,6.315789473683253,-5.684341886080801e-13,0.0,-1.8189894035458565e-11,278.15947368421035,70.0,0.0,255.0,0.0
11.100000000000016,35.72397616479816,51.2752043294238,1386.947345460765,2.551736838540819e-05,-7.983684213286324e-05,6.315789473683253,-5.684341886080801e-13,0.0,1.8189894035458565e-11,277.5242105263156,70.0,0.0,255.0,0.0
11.150000000000016,35.72397700774449,51.2751996529857,1387.2631357135251,2.551736838540819e-05,-7.983684213286324e-05,6.315789473685072,5.684341886080801e-13,0.0,1.8189894035458565e-11,276.8889473684209,70.0,0.0,255.0,0.0
11.200000000000017,35.72397784452798,51.27519498247596,1387.5789259839803,2.551736844225161e-05,-7.983684213286324e-05,6.315789473685072,5.684341886080801e-13,0.0,-1.8189894035458565e-11,276.2536842105261,70.0,0.0,255.0,0.0
11.250000000000018,35.72397867520264,51.275190317978,1387.8947162711993,2.551736844225161e-05,-7.983684213286324e-05,6.315789473683253,-5.684341886080801e-13,0.0,-1.8189894035458565e-11,275.61842105263133,70.0,0.0,255.0,0.0
11.300000000000018,35.72397949982317,51.275185659574504,1388.2105065733194,2.551736838540819e-05,-7.983684213286324e-05,6.315789473683253,-5.684341886080801e-13,0.0,0.0,274.9831578947366,70.0,0.0,255.0,0.0
11.35000000000002,35.723980318445086,51.27518100734743,1388.5262968894094,2.551736838540819e-05,-7.983684213286324e-05,6.315789473683253,5.684341886080801e-13,1.1368683772161603e-12,1.8189894035458565e-11,274.34789473684185,70.0,0.0,255.0,0.0
11.40000000000002,35.72398113112453,51.275176361377945,1388.842087221332,2.551736844225161e-05,-7.98368420191764e-05,6.315789473685072,1.1368683772161603e-12,1.1368683772161603e-12,1.8189894035458565e-11,273.71263157894714,70.0,0.0,255.0,0.0
11.45000000000002,35.72398193791851,51.27517172174647,1389.1578775672242,2.5517368499095028e-05,-7.98368420191764e-05,6.315789473685072,0.0,-1.1368683772161603e-12,-1.8189894035458565e-11,273.07736842105237,70.0,0.0,255.0,0.0
11.500000000000021,35.72398273888468,51.275167088532626,1389.4736679270864,2.551736844225161e-05,-7.983684213286324e-05,6.315789473683253,-5.684341886080801e-13,-1.1368683772161603e-12,-1.8189894035458565e-11,272.4421052631576,70.0,0.0,255.0,0.0
11.550000000000022,35.72398353408137,51.27516246181527,1389.789458302781,2.551736844225161e-05,-7.983684213286324e-05,6.315789473683253,0.0,0.0,1.8189894035458565e-11,271.8068421052629,70.0,0.0,255.0,0.0
11.600000000000023,35.72398432356772,51.27515784167243,1390.1052486915141,2.551736844225161e-05,-7.983684213286324e-05,6.315789473685072,-5.684341886080801e-13,1.1368683772161603e-12,1.8189894035458565e-11,271.1715789473681,70.0,0.0,255.0,0.0
11.650000000000023,35.72398510740351,51.27515322818135,1390.4210390932858,2.551736838540819e-05,-7.98368420191764e-05,6.315789473685072,-5.684341886080801e-13,1.1368683772161603e-12,-1.8189894035458565e-11,270.5363157894734,70.0,0.0,255.0,0.0
11.700000000000024,35.723985885649206,51.27514862141848,1390.7368295090273,2.551736838540819e-05,-7.98368420191764e-05,6.315789473683253,5.684341886080801e-13,-1.1368683772161603e-12,-1.8189894035458565e-11,269.90105263157864,70.0,0.0,255.0,0.0
11.750000000000025,35.723986658366016,51.27514402145937,1391.0526199387386,2.551736844225161e-05,-7.983684213286324e-05,6.315789473683253,5.684341886080801e-13,-1.1368683772161603e-12,3.637978807091713e-11,269.26578947368387,70.0,0.0,255.0,0.0
11.800000000000026,35.72398742561576,51.27513942837879,1391.3684103824198,2.551736844225161e-05,-7.983684213286324e-05,6.315789473686891,-5.684341886080801e-13,0.0,1.8189894035458565e-11,268.63052631578915,70.0,0.0,255.0,0.0
11.850000000000026,35.723988187461,51.27513484225066,1391.6842008391395,2.551736838540819e-05,-7.983684213286324e-05,6.315789473685072,-5.684341886080801e-13,0.0,-5.4569682106375694e-11,267.9952631578944,70.0,0.0,255.0,0.0
11.900000000000027,35.72398894396489,51.27513026314802,1391.9999913079664,2.551736838540819e-05,-7.983684213286324e-05,6.315789473681434,5.684341886080801e-13,0.0,-1.8189894035458565e-11,267.3599999999997,70.0,0.0,255.0,0.0
11.950000000000028,35.72398969519129,51.275125691143074,1392.3157817898318,2.551736844225161e-05,-7.983684213286324e-05,6.315789473683253,5.684341886080801e-13,0.0,1.8189894035458565e-11,266.7247368421049,70.0,0.0,255.0,0.0
12.000000000000028,35.723990441204705,51.27512112630714,1392.6315722838044,2.551736844225161e-05,-7.983684213286324e-05,6.315789473683253,-5.684341886080801e-13,0.0,3.637978807091713e-11,266.08947368421013,70.0,0.0,255.0,0.0
12.05000000000003,35.723991182070264,51.275116568710644,1392.9473627880216,2.551736838540819e-05,-7.983684213286324e-05,6.315789473686891,-5.684341886080801e-13,0.0,3.637978807091713e-11,265.4542105263154,70.0,0.0,255.0,0.0
12.10000000000003,35.72399191785374,51.275112018423144,1393.2631533090025,2.551736838540819e-05,-7.983684213286324e-05,6.315789473686891,5.684341886080801e-13,0.0,-3.637978807091713e-11,264.81894736842065,70.0,0.0,255.0,0.0
12.15000000000003,35.72399264862152,51.275107475513295,1393.5789438365027,2.551736844225161e-05,-7.983684213286324e-05,6.315789473683253,5.684341886080801e-13,1.1368683772161603e-12,-3.637978807091713e-11,264.18368421052594,70.0,0.0,255.0,0.0
12.200000000000031,35.7239933744406,51.27510294004883,1393.894734378904,2.551736844225161e-05,-7.98368420191764e-05,6.315789473683253,-5.684341886080801e-13,1.1368683772161603e-12,1.8189894035458565e-11,263.54842105263117,70.0,0.0,255.0,0.0
12.250000000000032,35.72399409537863,51.2750984120966,1394.2105249296874,2.551736838540819e-05,-7.98368420191764e-05,6.315789473685072,-5.684341886080801e-13,-1.1368683772161603e-12,1.8189894035458565e-11,262.91315789473646,70.0,0.0,255.0,0.0
12.300000000000033,35.72399481150382,51.275093891722456,1394.5263154953718,2.551736838540819e-05,-7.983684213286324e-05,6.315789473685072,5.684341886080801e-13,-1.1368683772161603e-12,-1.8189894035458565e-11,262.2778947368417,70.0,0.0,255.0,0.0
12.350000000000033,35.72399552288496,51.275089378991424,1394.8421060685068,2.551736844225161e-05,-7.983684213286324e-05,6.315789473683253,5.684341886080801e-13,0.0,-1.8189894035458565e-11,261.6426315789469,70.0,0.0,255.0,0.0
12.400000000000034,35.723996229591464,51.2750848739675,1395.1578966546804,2.551736844225161e-05,-7.983684213286324e-05,6.315789473683253,0.0,1.1368683772161603e-12,1.8189894035458565e-11,261.0073684210522,70.0,0.0,255.0,0.0
12.450000000000035,35.72399693169329,51.275080376713795,1395.4736872483045,2.551736844225161e-05,-7.98368420191764e-05,6.315789473685072,5.684341886080801e-13,1.1368683772161603e-12,1.8189894035458565e-11,260.37210526315744,70.0,0.0,255.0,0.0
12.500000000000036,35.72399762926099,51.27507588729243,1395.7894778540358,2.5517368499095028e-05,-7.98368420191764e-05,6.315789473685072,0.0,-1.1368683772161603e-12,-1.8189894035458565e-11,259.7368421052627,70.0,0.0,255.0,0.0
12.550000000000036,35.72399832236563,51.27507140576457,1396.1052684690803,2.551736844225161e-05,-7.983684213286324e-05,6.315789473683253,-1.1368683772161603e-12,-1.1368683772161603e-12,-1.8189894035458565e-11,259.10157894736795,70.0,0.0,255.0,0.0
12.600000000000037,35.72399901107886,51.27506693219042,1396.4210590943694,2.551736838540819e-05,-7.983684213286324e-05,6.315789473683253,-5.684341886080801e-13,0.0,0.0,258.46631578947324,70.0,0.0,255.0,0.0
12.650000000000038,35.72399969547287,51.27506246662917,1396.736849727109,2.551736838540819e-05,-7.983684213286324e-05,6.315789473683253,5.684341886080801e-13,0.0,1.8189894035458565e-11,257.8310526315785,70.0,0.0,255.0,0.0
12.700000000000038,35.72400037562036,51.2750580091391,1397.0526403700933,2.551736844225161e-05,-7.983684213286324e-05,6.315789473685072,5.684341886080801e-13,0.0,1.8189894035458565e-11,257.1957894736837,70.0,0.0,255.0,0.0
12.750000000000039,35.72400105159455,51.27505355977743,1397.368431023322,2.551736844225161e-05,-7.983684213286324e-05,6.315789473685072,-5.684341886080801e-13,0.0,-1.8189894035458565e-11,256.560526315789,70.0,0.0,255.0,0.0
12.80000000000004,35.724001723469215,51.275049118600386,1397.6842216840014,2.551736838540819e-05,-7.983684213286324e-05,6.315789473683253,-5.684341886080801e-13,0.0,-1.8189894035458565e-11,255.92526315789422,70.0,0.0,255.0,0.0
12.85000000000004,35.72400239131859,51.27504468566322,1398.0000123512,2.551736838540819e-05,-7.983684213286324e-05,6.315789473683253,5.684341886080801e-13,0.0,1.8189894035458565e-11,255.28999999999948,70.0,0.0,255.0,0.0
12.900000000000041,35.72400305521742,51.27504026102015,1398.3158030286431,2.551736844225161e-05,-7.983684213286324e-05,6.315789473685072,5.684341886080801e-13,1.1368683772161603e-12,1.8189894035458565e-11,254.65473684210474,70.0,0.0,255.0,0.0
12.950000000000042,35.72400371524095,51.27503584472441,1398.6315937126055,2.551736844225161e-05,-7.98368420191764e-05,6.315789473685072,-5.684341886080801e-13,1.1368683772161603e-12,-1.8189894035458565e-11,254.01947368421,70.0,0.0,255.0,0.0
13.000000000000043,35.72400437146485,51.27503143682814,1398.9473844058812,2.551736838540819e-05,-7.98368420191764e-05,6.315789473683253,-5.684341886080801e-13,-1.1368683772161603e-12,-1.8189894035458565e-11,253.38421052631526,70.0,0.0,255.0,0.0
13.050000000000043,35.72400502396534,51.27502703738248,1399.263175105676,2.551736838540819e-05,-7.983684213286324e-05,6.315789473683253,5.684341886080801e-13,-1.1368683772161603e-12,1.8189894035458565e-11,252.7489473684205,70.0,0.0,255.0,0.0
13.100000000000044,35.72400567281901,51.27502264643757,1399.5789658129215,2.551736844225161e-05,-7.983684213286324e-05,6.315789473685072,5.684341886080801e-13,0.0,1.8189894035458565e-11,252.11368421052575,70.0,0.0,255.0,0.0
13.150000000000045,35.724006318102965,51.27501826404245,1399.894756525755,2.551736844225161e-05,-7.983684213286324e-05,6.315789473685072,-5.684341886080801e-13,0.0,-1.8189894035458565e-11,251.478421052631,70.0,0.0,255.0,0.0
13.200000000000045,35.724006959894716,51.27501389024514,1400.2105472469702,2.551736838540819e-05,-7.983684213286324e-05,6.315789473683253,-5.684341886080801e-13,0.0,-1.8189894035458565e-11,250.84315789473627,70.0,0.0,255.0,0.0
13.250000000000046,35.724007598272216,51.27500952509259,1400.5263379737735,2.551736838540819e-05,-7.983684213286324e-05,6.315789473683253,5.684341886080801e-13,0.0,0.0,250.20789473684152,70.0,0.0,255.0,0.0
13.300000000000047,35.724008233313825,51.275005168630685,1400.8421287061647,2.551736844225161e-05,-7.983684213286324e-05,6.315789473683253,5.684341886080801e-13,0.0,3.637978807091713e-11,249.57263157894675,70.0,0.0,255.0,0.0
13.350000000000048,35.724008865098334,51.27500082090426,1401.1579194441438,2.551736844225161e-05,-7.983684213286324e-05,6.315789473686891,-5.684341886080801e-13,0.0,1.8189894035458565e-11,248.937368421052,70.0,0.0,255.0,0.0
13.400000000000048,35.72400949370491,51.27499648195704,1401.4737101886421,2.551736838540819e-05,-7.983684213286324e-05,6.315789473685072,5.684341886080801e-13,0.0,-5.4569682106375694e-11,248.30210526315727,70.0,0.0,255.0,0.0
13.450000000000049,35.72401011921312,51.27499215183172,1401.7895009368658,2.5517368499095028e-05,-7.983684213286324e-05,6.315789473681434,1.1368683772161603e-12,1.1368683772161603e-12,-1.8189894035458565e-11,247.66684210526253,70.0,0.0,255.0,0.0
13.50000000000005,35.72401074170292,51.27498783056987,1402.1052916916087,2.5517368499095028e-05,-7.98368420191764e-05,6.315789473683253,-1.1368683772161603e-12,1.1368683772161603e-12,5.4569682106375694e-11,247.0315789473678,70.0,0.0,255.0,0.0
13.55000000000005,35.72401136125462,51.274983518212,1402.4210824519396,2.551736838540819e-05,-7.98368420191764e-05,6.315789473686891,-1.1368683772161603e-12,-1.1368683772161603e-12,3.637978807091713e-11,246.39631578947305,70.0,0.0,255.0,0.0
13.600000000000051,35.724011977948926,51.27497921479749,1402.7368732132018,2.551736838540819e-05,-7.983684213286324e-05,6.315789473686891,5.684341886080801e-13,-1.1368683772161603e-12,-3.637978807091713e-11,245.7610526315783,70.0,0.0,255.0,0.0
13.650000000000052,35.724012591866845,51.27497492036465,1403.0526639837772,2.551736844225161e-05,-7.983684213286324e-05,6.315789473683253,5.684341886080801e-13,0.0,-3.637978807091713e-11,245.12578947368354,70.0,0.0,255.0,0.0
13.700000000000053,35.72401320308976,51.274970634950684,1403.368454755284,2.551736844225161e-05,-7.983684213286324e-05,6.315789473683253,-5.684341886080801e-13,1.1368683772161603e-12,1.8189894035458565e-11,244.4905263157888,70.0,0.0,255.0,0.0
13.750000000000053,35.72401381169937,51.27496635859166,1403.6842455314472,2.551736838540819e-05,-7.98368420191764e-05,6.315789473685072,-5.684341886080801e-13,1.1368683772161603e-12,1.8189894035458565e-11,243.85526315789406,70.0,0.0,255.0,0.0
13.800000000000054,35.72401441777773,51.27496209132259,1404.0000363104045,2.551736838540819e-05,-7.98368420191764e-05,6.315789473685072,5.684341886080801e-13,-1.1368683772161603e-12,-1.8189894035458565e-11,243.21999999999932,70.0,0.0,255.0,0.0
13.850000000000055,35.72401502140715,51.274957833177275,1404.3158270921558,2.551736844225161e-05,-7.983684213286324e-05,6.315789473683253,5.684341886080801e-13,-1.1368683772161603e-12,-1.8189894035458565e-11,242.58473684210458,70.0,0.0,255.0,0.0
13.900000000000055,35.72401562267027,51.274953584188516,1404.6316178785637,2.551736844225161e-05,-7.983684213286324e-05,6.315789473683253,-5.684341886080801e-13,0.0,0.0,241.9494736842098,70.0,0.0,255.0,0.0
13.950000000000056,35.724016221650054,51.27494934438788,1404.9474086649716,2.551736838540819e-05,-7.983684213286324e-05,6.315789473683253,-5.684341886080801e-13,0.0,1.8189894035458565e-11,241.31421052631507,70.0,0.0,255.0,0.0
14.000000000000057,35.724016818429654,51.27494511380584,1405.263199456036,2.551736838540819e-05,-7.983684213286324e-05,6.315789473685072,5.684341886080801e-13,0.0,1.8189894035458565e-11,240.67894736842032,70.0,0.0,255.0,0.0
14.050000000000058,35.724017413092604,51.274940892471804,1405.578990248032,2.551736844225161e-05,-7.983684213286324e-05,6.315789473685072,5.684341886080801e-13,0.0,-1.8189894035458565e-11,240.04368421052558,70.0,0.0,255.0,0.0
14.100000000000058,35.72401800572262,51.27493668041391,1405.8947810418904,2.551736844225161e-05,-7.983684213286324e-05,6.315789473683253,-5.684341886080801e-13,0.0,-1.8189894035458565e-11,239.40842105263084,70.0,0.0,255.0,0.0
14.150000000000059,35.72401859640371,51.27493247765928,1406.2105718376115,2.551736838540819e-05,-7.983684213286324e-05,6.315789473683253,-5.684341886080801e-13,0.0,1.8189894035458565e-11,238.77315789473607,70.0,0.0,255.0,0.0
14.20000000000006,35.72401918522008,51.27492828423381,1406.5263626351953,2.551736838540819e-05,-7.983684213286324e-05,6.315789473685072,5.684341886080801e-13,1.1368683772161603e-12,1.8189894035458565e-11,238.13789473684136,70.0,0.0,255.0,0.0
14.25000000000006,35.7240197722562,51.274924100162295,1406.8421534318477,2.551736844225161e-05,-7.98368420191764e-05,6.315789473685072,5.684341886080801e-13,1.1368683772161603e-12,-1.8189894035458565e-11,237.5026315789466,70.0,0.0,255.0,0.0
14.300000000000061,35.72402035759677,51.27491992546836,1407.1579442331567,2.551736844225161e-05,-7.98368420191764e-05,6.315789473683253,-5.684341886080801e-13,-1.1368683772161603e-12,-1.8189894035458565e-11,236.86736842105185,70.0,0.0,255.0,0.0
14.350000000000062,35.72402094132666,51.274915760174494,1407.4737350316718,2.551736838540819e-05,-7.983684213286324e-05,6.315789473683253,-5.684341886080801e-13,-1.1368683772161603e-12,0.0,236.2321052631571,70.0,0.0,255.0,0.0
14.400000000000063,35.724021523530936,51.27491160430199,1407.7895258320495,2.551736838540819e-05,-7.983684213286324e-05,6.315789473683253,1.1368683772161603e-12,0.0,1.8189894035458565e-11,235.59684210526237,70.0,0.0,255.0,0.0
14.450000000000063,35.72402210429489,51.274907457871045,1408.105316631496,2.5517368499095028e-05,-7.983684213286324e-05,6.315789473685072,1.1368683772161603e-12,0.0,1.8189894035458565e-11,234.96157894736763,70.0,0.0,255.0,0.0
14.500000000000064,35.72402268370401,51.27490332090065,1408.421107432805,2.5517368499095028e-05,-7.983684213286324e-05,6.315789473685072,-1.1368683772161603e-12,1.1368683772161603e-12,-1.8189894035458565e-11,234.32631578947286,70.0,0.0,255.0,0.0
14.550000000000065,35.72402326184384,51.27489919340863,1408.73689823132,2.551736838540819e-05,-7.98368420191764e-05,6.315789473683253,-5.684341886080801e-13,1.1368683772161603e-12,-1.8189894035458565e-11,233.69105263157812,70.0,0.0,255.0,0.0
14.600000000000065,35.724023838800186,51.27489507541168,1409.0526890289038,2.551736844225161e-05,-7.98368420191764e-05,6.315789473683253,5.684341886080801e-13,-1.1368683772161603e-12,1.8189894035458565e-11,233.05578947368338,70.0,0.0,255.0,0.0
14.650000000000066,35.72402441465898,51.27489096692529,1409.3684798283502,2.551736844225161e-05,-7.983684213286324e-05,6.315789473685072,-5.684341886080801e-13,-1.1368683772161603e-12,1.8189894035458565e-11,232.42052631578863,70.0,0.0,255.0,0.0
14.700000000000067,35.724024989506255,51.27488686796382,1409.6842706240714,2.551736838540819e-05,-7.983684213286324e-05,6.315789473685072,-5.684341886080801e-13,0.0,-1.8189894035458565e-11,231.7852631578939,70.0,0.0,255.0,0.0
14.750000000000068,35.72402556342821,51.27488277854041,1410.0000614179298,2.551736838540819e-05,-7.983684213286324e-05,6.315789473683253,5.684341886080801e-13,0.0,-1.8189894035458565e-11,231.14999999999912,70.0,0.0,255.0,0.0
14.800000000000068,35.7240261365111,51.27487869866708,1410.3158522089943,2.551736844225161e-05,-7.983684213286324e-05,6.315789473683253,5.684341886080801e-13,0.0,3.637978807091713e-11,230.51473684210438,70.0,0.0,255.0,0.0
14.850000000000069,35.72402670884136,51.27487462835464,1410.6316430000588,2.551736844225161e-05,-7.983684213286324e-05,6.315789473686891,-5.684341886080801e-13,0.0,1.8189894035458565e-11,229.87947368420964,70.0,0.0,255.0,0.0
14.90000000000007,35.72402728050544,51.27487056761274,1410.9474337892607,2.551736838540819e-05,-7.983684213286324e-05,6.315789473685072,-5.684341886080801e-13,0.0,-5.4569682106375694e-11,229.2442105263149,70.0,0.0,255.0,0.0
14.95000000000007,35.72402785158993,51.27486651644983,1411.2632245756686,2.551736838540819e-05,-7.983684213286324e-05,6.315789473681434,5.684341886080801e-13,0.0,-1.8189894035458565e-11,228.60894736842016,70.0,0.0,255.0,0.0
15.000000000000071,35.72402842218148,51.274862474873224,1411.5790153574198,2.551736844225161e-05,-7.983684213286324e-05,6.315789473683253,5.684341886080801e-13,1.1368683772161603e-12,5.4569682106375694e-11,227.9736842105254,70.0,0.0,255.0,0.0
15.050000000000072,35.72402899236676,51.27485844288903,1411.8948061373085,2.551736844225161e-05,-7.98368420191764e-05,6.315789473686891,-5.684341886080801e-13,1.1368683772161603e-12,3.637978807091713e-11,227.33842105263068,70.0,0.0,255.0,0.0
15.100000000000072,35.72402956223254,51.27485442050218,1412.2105969134718,2.551736838540819e-05,-7.98368420191764e-05,6.315789473686891,-5.684341886080801e-13,-1.1368683772161603e-12,-3.637978807091713e-11,226.7031578947359,70.0,0.0,255.0,0.0
15.150000000000073,35.724030131865604,51.27485040771643,1412.5263876849785,2.551736838540819e-05,-7.983684213286324e-05,6.315789473683253,5.684341886080801e-13,-1.1368683772161603e-12,-3.637978807091713e-11,226.06789473684117,70.0,0.0,255.0,0.0
15.200000000000074,35.72403070135277,51.274846404534344,1412.84217845276,2.551736844225161e-05,-7.983684213286324e-05,6.315789473683253,5.684341886080801e-13,0.0,0.0,225.43263157894643,70.0,0.0,255.0,0.0
15.250000000000075,35.72403127078089,51.274842410957326,1413.1579692177474,2.551736844225161e-05,-7.983684213286324e-05,6.315789473683253,-5.684341886080801e-13,0.0,1.8189894035458565e-11,224.79736842105166,70.0,0.0,255.0,0.0
15.300000000000075,35.72403184023678,51.274838426985575,1413.4737599780783,2.551736838540819e-05,-7.983684213286324e-05,6.315789473685072,-5.684341886080801e-13,0.0,1.8189894035458565e-11,224.16210526315695,70.0,0.0,255.0,0.0
15.350000000000076,35.724032409807286,51.27483445261815,1413.7895507346839,2.551736838540819e-05,-7.983684213286324e-05,6.315789473685072,5.684341886080801e-13,0.0,-1.8189894035458565e-11,223.52684210526218,70.0,0.0,255.0,0.0
15.400000000000077,35.724032979579256,51.27483048785287,1414.1053414847702,2.551736844225161e-05,-7.983684213286324e-05,6.315789473683253,1.1368683772161603e-12,0.0,-1.8189894035458565e-11,222.89157894736744,70.0,0.0,255.0,0.0
15.450000000000077,35.72403354963947,51.27482653268642,1414.4211322301999,2.5517368499095028e-05,-7.983684213286324e-05,6.315789473683253,0.0,0.0,1.8189894035458565e-11,222.2563157894727,70.0,0.0,255.0,0.0
15.500000000000078,35.724034120074705,51.2748225871143,1414.7369229691103,2.551736844225161e-05,-7.983684213286324e-05,6.315789473685072,-5.684341886080801e-13,1.1368683772161603e-12,1.8189894035458565e-11,221.62105263157795,70.0,0.0,255.0,0.0
15.550000000000079,35.72403469097166,51.27481865113079,1415.0527137052268,2.551736844225161e-05,-7.98368420191764e-05,6.315789473685072,0.0,1.1368683772161603e-12,-1.8189894035458565e-11,220.9857894736832,70.0,0.0,255.0,0.0
15.60000000000008,35.724035262417026,51.27481472472907,1415.3685044310987,2.551736844225161e-05,-7.98368420191764e-05,6.315789473683253,-5.684341886080801e-13,-1.1368683772161603e-12,-1.8189894035458565e-11,220.35052631578844,70.0,0.0,255.0,0.0
15.65000000000008,35.72403583449738,51.27481080790105,1415.6842951532453,2.551736838540819e-05,-7.983684213286324e-05,6.315789473683253,-5.684341886080801e-13,-1.1368683772161603e-12,0.0,219.71526315789373,70.0,0.0,255.0,0.0
15.700000000000081,35.72403640729925,51.27480690063754,1416.0000858679414,2.551736838540819e-05,-7.983684213286324e-05,6.315789473683253,5.684341886080801e-13,0.0,1.8189894035458565e-11,219.07999999999896,70.0,0.0,255.0,0.0
15.750000000000082,35.72403698090905,51.27480300292811,1416.3158765770495,2.551736844225161e-05,-7.983684213286324e-05,6.315789473685072,5.684341886080801e-13,0.0,1.8189894035458565e-11,218.44473684210422,70.0,0.0,255.0,0.0
15.800000000000082,35.724037555413105,51.2747991147612,1416.6316672796384,2.551736844225161e-05,-7.983684213286324e-05,6.315789473685072,-5.684341886080801e-13,1.1368683772161603e-12,-1.8189894035458565e-11,217.80947368420948,70.0,0.0,255.0,0.0
15.850000000000083,35.72403813089767,51.27479523612409,1416.9474579738453,2.551736838540819e-05,-7.98368420191764e-05,6.315789473683253,-5.684341886080801e-13,1.1368683772161603e-12,-1.8189894035458565e-11,217.1742105263147,70.0,0.0,255.0,0.0
15.900000000000084,35.724038707448805,51.27479136700284,1417.2632486606017,2.551736838540819e-05,-7.98368420191764e-05,6.315789473683253,5.684341886080801e-13,-1.1368683772161603e-12,1.8189894035458565e-11,216.53894736842,70.0,0.0,255.0,0.0
15.950000000000085,35.724039285152486,51.27478750738236,1417.5790393399075,2.551736844225161e-05,-7.983684213286324e-05,6.315789473685072,5.684341886080801e-13,-1.1368683772161603e-12,1.8189894035458565e-11,215.90368421052523,70.0,0.0,255.0,0.0
16.000000000000085,35.72403986409457,51.274783657246395,1417.894830012694,2.551736844225161e-05,-7.983684213286324e-05,6.315789473685072,-5.684341886080801e-13,0.0,-1.8189894035458565e-11,215.2684210526305,70.0,0.0,255.0,0.0
16.050000000000086,35.72404044436069,51.274779816577535,1418.2106206770986,2.551736838540819e-05,-7.983684213286324e-05,6.315789473683253,-5.684341886080801e-13,0.0,-1.8189894035458565e-11,214.63315789473575,70.0,0.0,255.0,0.0
16.100000000000087,35.72404102603636,51.27477598535718,1418.5264113312587,2.551736838540819e-05,-7.983684213286324e-05,6.315789473683253,5.684341886080801e-13,0.0,1.8189894035458565e-11,213.997894736841,70.0,0.0,255.0,0.0
16.150000000000087,35.724041609206964,51.27477216356561,1418.8422019779682,2.551736844225161e-05,-7.983684213286324e-05,6.315789473685072,5.684341886080801e-13,0.0,1.8189894035458565e-11,213.36263157894626,70.0,0.0,255.0,0.0
16.200000000000088,35.7240421939576,51.274768351181876,1419.1579926172271,2.551736844225161e-05,-7.983684213286324e-05,6.315789473685072,-5.684341886080801e-13,0.0,-1.8189894035458565e-11,212.7273684210515,70.0,0.0,255.0,0.0
16.25000000000009,35.72404278037325,51.27476454818395,1419.4737832471728,2.551736838540819e-05,-7.983684213286324e-05,6.315789473683253,-5.684341886080801e-13,0.0,-1.8189894035458565e-11,212.09210526315678,70.0,0.0,255.0,0.0
16.30000000000009,35.72404336853866,51.27476075454862,1419.789573866874,2.551736838540819e-05,-7.983684213286324e-05,6.315789473683253,5.684341886080801e-13,1.1368683772161603e-12,0.0,211.456842105262,70.0,0.0,255.0,0.0
16.35000000000009,35.724043958538395,51.27475697025151,1420.1053644753993,2.551736844225161e-05,-7.98368420191764e-05,6.315789473683253,5.684341886080801e-13,1.1368683772161603e-12,3.637978807091713e-11,210.82157894736727,70.0,0.0,255.0,0.0
16.40000000000009,35.724044550456746,51.2747531952671,1420.4211550774053,2.551736844225161e-05,-7.98368420191764e-05,6.315789473686891,0.0,-1.1368683772161603e-12,1.8189894035458565e-11,210.18631578947253,70.0,0.0,255.0,0.0
16.45000000000009,35.7240451443778,51.27474942956873,1420.7369456663728,2.551736844225161e-05,-7.983684213286324e-05,6.315789473685072,5.684341886080801e-13,-1.1368683772161603e-12,-5.4569682106375694e-11,209.55105263157776,70.0,0.0,255.0,0.0
16.500000000000092,35.724045740385385,51.27474567312861,1421.0527362469584,2.5517368499095028e-05,-7.983684213286324e-05,6.315789473681434,0.0,0.0,-1.8189894035458565e-11,208.91578947368305,70.0,0.0,255.0,0.0
16.550000000000093,35.724046338563085,51.27474192591779,1421.3685268182307,2.551736844225161e-05,-7.983684213286324e-05,6.315789473683253,-1.1368683772161603e-12,1.1368683772161603e-12,5.4569682106375694e-11,208.28052631578828,70.0,0.0,255.0,0.0
16.600000000000094,35.72404693899419,51.274738187906195,1421.684317377396,2.551736838540819e-05,-7.98368420191764e-05,6.315789473686891,-5.684341886080801e-13,1.1368683772161603e-12,3.637978807091713e-11,207.64526315789354,70.0,0.0,255.0,0.0
16.650000000000095,35.724047541761735,51.27473445906264,1422.000107924454,2.551736838540819e-05,-7.98368420191764e-05,6.315789473686891,5.684341886080801e-13,-1.1368683772161603e-12,-3.637978807091713e-11,207.0099999999988,70.0,0.0,255.0,0.0
16.700000000000095,35.7240481469485,51.27473073935477,1422.3158984612674,2.551736844225161e-05,-7.983684213286324e-05,6.315789473683253,5.684341886080801e-13,-1.1368683772161603e-12,-3.637978807091713e-11,206.37473684210403,70.0,0.0,255.0,0.0
16.750000000000096,35.72404875463688,51.27472702874914,1422.6316889887676,2.551736844225161e-05,-7.983684213286324e-05,6.315789473683253,-5.684341886080801e-13,0.0,1.8189894035458565e-11,205.73947368420932,70.0,0.0,255.0,0.0
16.800000000000097,35.72404936490905,51.274723327211184,1422.9474795032293,2.551736838540819e-05,-7.983684213286324e-05,6.315789473685072,-5.684341886080801e-13,0.0,1.8189894035458565e-11,205.10421052631455,70.0,0.0,255.0,0.0
16.850000000000097,35.72404997784683,51.27471963470521,1423.2632700074464,2.551736838540819e-05,-7.983684213286324e-05,6.315789473685072,5.684341886080801e-13,0.0,-1.8189894035458565e-11,204.4689473684198,70.0,0.0,255.0,0.0
16.900000000000098,35.7240505935317,51.274715951194416,1423.5790604967624,2.551736844225161e-05,-7.983684213286324e-05,6.315789473683253,5.684341886080801e-13,0.0,-1.8189894035458565e-11,203.83368421052506,70.0,0.0,255.0,0.0
16.9500000000001,35.72405121204481,51.274712276640884,1423.8948509786278,2.551736844225161e-05,-7.983684213286324e-05,6.315789473683253,-5.684341886080801e-13,0.0,0.0,203.19842105263032,70.0,0.0,255.0,0.0
17.0000000000001,35.724051833467,51.274708611005636,1424.2106414446607,2.551736838540819e-05,-7.983684213286324e-05,6.315789473683253,-5.684341886080801e-13,0.0,1.8189894035458565e-11,202.56315789473558,70.0,0.0,255.0,0.0
17.0500000000001,35.72405245787869,51.27470495424855,1424.5264318995178,2.551736838540819e-05,-7.983684213286324e-05,6.315789473685072,5.684341886080801e-13,0.0,1.8189894035458565e-11,201.9278947368408,70.0,0.0,255.0,0.0
17.1000000000001,35.72405308535999,51.274701306328446,1424.8422223413363,2.551736844225161e-05,-7.983684213286324e-05,6.315789473685072,5.684341886080801e-13,1.1368683772161603e-12,-1.8189894035458565e-11,201.2926315789461,70.0,0.0,255.0,0.0
17.1500000000001,35.724053715990586,51.27469766720303,1425.1580127701163,2.551736844225161e-05,-7.98368420191764e-05,6.315789473683253,-5.684341886080801e-13,1.1368683772161603e-12,-1.8189894035458565e-11,200.65736842105133,70.0,0.0,255.0,0.0
17.200000000000102,35.7240543498498,51.27469403682896,1425.4738031858578,2.551736838540819e-05,-7.98368420191764e-05,6.315789473683253,-5.684341886080801e-13,-1.1368683772161603e-12,1.8189894035458565e-11,200.0221052631566,70.0,0.0,255.0,0.0
17.250000000000103,35.724054987016565,51.27469041516179,1425.7895935885608,2.551736838540819e-05,-7.983684213286324e-05,6.315789473685072,5.684341886080801e-13,-1.1368683772161603e-12,1.8189894035458565e-11,199.38684210526185,70.0,0.0,255.0,0.0
17.300000000000104,35.724055627569385,51.27468680215601,1426.1053839782253,2.551736844225161e-05,-7.983684213286324e-05,6.315789473685072,5.684341886080801e-13,0.0,-1.8189894035458565e-11,198.75157894736708,70.0,0.0,255.0,0.0
17.350000000000104,35.72405627158638,51.27468319776506,1426.4211743548512,2.551736844225161e-05,-7.983684213286324e-05,6.315789473683253,-5.684341886080801e-13,0.0,-1.8189894035458565e-11,198.11631578947237,70.0,0.0,255.0,0.0
17.400000000000105,35.72405691914519,51.27467960194129,1426.7369647156447,2.551736838540819e-05,-7.983684213286324e-05,6.315789473683253,5.684341886080801e-13,0.0,1.8189894035458565e-11,197.4810526315776,70.0,0.0,255.0,0.0
17.450000000000106,35.724057570323076,51.274676014636036,1427.0527550633997,2.5517368499095028e-05,-7.983684213286324e-05,6.315789473685072,1.1368683772161603e-12,0.0,1.8189894035458565e-11,196.84578947368286,70.0,0.0,255.0,0.0
17.500000000000107,35.72405822519684,51.274672435799566,1427.368545398116,2.5517368499095028e-05,-7.983684213286324e-05,6.315789473685072,-1.1368683772161603e-12,0.0,-1.8189894035458565e-11,196.21052631578812,70.0,0.0,255.0,0.0
17.550000000000107,35.724058883842794,51.274668865381074,1427.6843357179314,2.551736838540819e-05,-7.983684213286324e-05,6.315789473683253,-1.1368683772161603e-12,0.0,-1.8189894035458565e-11,195.57526315789335,70.0,0.0,255.0,0.0
17.600000000000108,35.72405954633682,51.27466530332881,1428.0001260228455,2.551736838540819e-05,-7.983684213286324e-05,6.315789473683253,5.684341886080801e-13,1.1368683772161603e-12,0.0,194.93999999999863,70.0,0.0,255.0,0.0
17.65000000000011,35.724060212754345,51.27466174958989,1428.3159163137898,2.551736844225161e-05,-7.98368420191764e-05,6.315789473683253,5.684341886080801e-13,1.1368683772161603e-12,1.8189894035458565e-11,194.30473684210386,70.0,0.0,255.0,0.0
17.70000000000011,35.72406088317026,51.27465820411049,1428.6317065889016,2.551736844225161e-05,-7.98368420191764e-05,6.315789473685072,-5.684341886080801e-13,-1.1368683772161603e-12,1.8189894035458565e-11,193.66947368420912,70.0,0.0,255.0,0.0
17.75000000000011,35.724061557659006,51.27465466683572,1428.9474968500435,2.551736838540819e-05,-7.983684213286324e-05,6.315789473685072,-5.684341886080801e-13,-1.1368683772161603e-12,-1.8189894035458565e-11,193.03421052631438,70.0,0.0,255.0,0.0
17.80000000000011,35.724062236294515,51.274651137709704,1429.2632870972157,2.551736838540819e-05,-7.983684213286324e-05,6.315789473683253,5.684341886080801e-13,0.0,-1.8189894035458565e-11,192.39894736841964,70.0,0.0,255.0,0.0
17.85000000000011,35.724062919150185,51.27464761667555,1429.579077327624,2.551736844225161e-05,-7.983684213286324e-05,6.315789473683253,5.684341886080801e-13,1.1368683772161603e-12,3.637978807091713e-11,191.7636842105249,70.0,0.0,255.0,0.0
17.900000000000112,35.72406360629894,51.27464410367539,1429.894867543131,2.551736844225161e-05,-7.98368420191764e-05,6.315789473686891,-5.684341886080801e-13,1.1368683772161603e-12,1.8189894035458565e-11,191.12842105263013,70.0,0.0,255.0,0.0
17.950000000000113,35.72406429781313,51.27464059865038,1430.2106577418745,2.551736838540819e-05,-7.98368420191764e-05,6.315789473685072,-5.684341886080801e-13,-1.1368683772161603e-12,-5.4569682106375694e-11,190.49315789473542,70.0,0.0,255.0,0.0
18.000000000000114,35.72406499376461,51.274637101540634,1430.5264479257166,2.551736838540819e-05,-7.983684213286324e-05,6.315789473681434,5.684341886080801e-13,-1.1368683772161603e-12,-1.8189894035458565e-11,189.85789473684065,70.0,0.0,255.0,0.0
18.050000000000114,35.72406569422466,51.274633612285356,1430.842238092795,2.551736844225161e-05,-7.983684213286324e-05,6.315789473683253,5.684341886080801e-13,0.0,5.4569682106375694e-11,189.2226315789459,70.0,0.0,255.0,0.0
18.100000000000115,35.724066399264,51.27463013082275,1431.1580282459036,2.551736844225161e-05,-7.983684213286324e-05,6.315789473686891,-5.684341886080801e-13,0.0,3.637978807091713e-11,188.58736842105117,70.0,0.0,255.0,0.0
18.150000000000116,35.72406710895283,51.27462665709009,1431.473818381317,2.551736838540819e-05,-7.983684213286324e-05,6.315789473686891,-5.684341886080801e-13,0.0,-3.637978807091713e-11,187.9521052631564,70.0,0.0,255.0,0.0
18.200000000000117,35.72406782336073,51.27462319102368,1431.7896085018292,2.551736838540819e-05,-7.983684213286324e-05,6.315789473683253,5.684341886080801e-13,0.0,-3.637978807091713e-11,187.31684210526168,70.0,0.0,255.0,0.0
18.250000000000117,35.724068542556715,51.274619732558875,1432.1053986046463,2.551736844225161e-05,-7.983684213286324e-05,6.315789473683253,5.684341886080801e-13,0.0,0.0,186.68157894736692,70.0,0.0,255.0,0.0
18.300000000000118,35.72406926660924,51.274616281630124,1432.4211886897683,2.551736844225161e-05,-7.983684213286324e-05,6.315789473683253,-5.684341886080801e-13,0.0,1.8189894035458565e-11,186.04631578947217,70.0,0.0,255.0,0.0
18.35000000000012,35.72406999558613,51.274612838170896,1432.7369787609205,2.551736838540819e-05,-7.983684213286324e-05,6.315789473685072,-5.684341886080801e-13,0.0,1.8189894035458565e-11,185.41105263157743,70.0,0.0,255.0,0.0
18.40000000000012,35.72407072955461,51.27460940211382,1433.0527688153088,2.551736838540819e-05,-7.983684213286324e-05,6.315789473685072,1.1368683772161603e-12,1.1368683772161603e-12,-1.8189894035458565e-11,184.7757894736827,70.0,0.0,255.0,0.0
18.45000000000012,35.72407146858129,51.27460597339054,1433.3685588501394,2.5517368499095028e-05,-7.98368420191764e-05,6.315789473683253,1.1368683772161603e-12,1.1368683772161603e-12,-1.8189894035458565e-11,184.14052631578795,70.0,0.0,255.0,0.0
18.50000000000012,35.72407221273219,51.274602551931864,1433.6843488682061,2.5517368499095028e-05,-7.98368420191764e-05,6.315789473683253,-1.1368683772161603e-12,-1.1368683772161603e-12,1.8189894035458565e-11,183.50526315789318,70.0,0.0,255.0,0.0
18.55000000000012,35.72407296207263,51.274599137667636,1434.000138872303,2.551736838540819e-05,-7.983684213286324e-05,6.315789473685072,-5.684341886080801e-13,-1.1368683772161603e-12,1.8189894035458565e-11,182.86999999999847,70.0,0.0,255.0,0.0
18.600000000000122,35.72407371666738,51.27459573052687,1434.315928855911,2.551736844225161e-05,-7.983684213286324e-05,6.315789473685072,5.684341886080801e-13,0.0,-1.8189894035458565e-11,182.2347368421037,70.0,0.0,255.0,0.0
18.650000000000123,35.72407447658049,51.2745923304377,1434.6317188236862,2.551736844225161e-05,-7.983684213286324e-05,6.315789473683253,-5.684341886080801e-13,1.1368683772161603e-12,-1.8189894035458565e-11,181.59947368420896,70.0,0.0,255.0,0.0
18.700000000000124,35.72407524187539,51.27458893732736,1434.9475087737665,2.551736838540819e-05,-7.98368420191764e-05,6.315789473683253,-5.684341886080801e-13,1.1368683772161603e-12,1.8189894035458565e-11,180.96421052631422,70.0,0.0,255.0,0.0
18.750000000000124,35.72407601261487,51.27458555112227,1435.2632987070829,2.551736838540819e-05,-7.98368420191764e-05,6.315789473685072,5.684341886080801e-13,-1.1368683772161603e-12,1.8189894035458565e-11,180.32894736841945,70.0,0.0,255.0,0.0
18.800000000000125,35.724076788861,51.27458217174795,1435.5790886208415,2.551736844225161e-05,-7.983684213286324e-05,6.315789473685072,5.684341886080801e-13,-1.1368683772161603e-12,-1.8189894035458565e-11,179.69368421052474,70.0,0.0,255.0,0.0
18.850000000000126,35.7240775706752,51.27457879912914,1435.8948785187677,2.551736844225161e-05,-7.983684213286324e-05,6.315789473683253,-5.684341886080801e-13,0.0,-1.8189894035458565e-11,179.05842105262997,70.0,0.0,255.0,0.0
18.900000000000126,35.72407835811819,51.27457543318969,1436.2106683980674,2.551736838540819e-05,-7.983684213286324e-05,6.315789473683253,-5.684341886080801e-13,0.0,0.0,178.42315789473523,70.0,0.0,255.0,0.0
18.950000000000127,35.72407915125006,51.27457207385267,1436.526458259672,2.551736838540819e-05,-7.983684213286324e-05,6.315789473683253,5.684341886080801e-13,0.0,1.8189894035458565e-11,177.78789473684049,70.0,0.0,255.0,0.0
19.000000000000128,35.72407995013011,51.274568721040325,1436.8422481017187,2.551736844225161e-05,-7.983684213286324e-05,6.315789473685072,5.684341886080801e-13,0.0,1.8189894035458565e-11,177.15263157894572,70.0,0.0,255.0,0.0
19.05000000000013,35.72408075481699,51.27456537467409,1437.158037927933,2.551736844225161e-05,-7.983684213286324e-05,6.315789473685072,-5.684341886080801e-13,0.0,-1.8189894035458565e-11,176.517368421051,70.0,0.0,255.0,0.0
19.10000000000013,35.72408156536863,51.274562034674624,1437.4738277345896,2.551736838540819e-05,-7.983684213286324e-05,6.315789473683253,-5.684341886080801e-13,0.0,-1.8189894035458565e-11,175.88210526315623,70.0,0.0,255.0,0.0
19.15000000000013,35.72408238184223,51.27455870096179,1437.7896175244823,2.551736838540819e-05,-7.983684213286324e-05,6.315789473683253,5.684341886080801e-13,1.1368683772161603e-12,1.8189894035458565e-11,175.2468421052615,70.0,0.0,255.0,0.0
19.20000000000013,35.72408320429423,51.27455537345469,1438.1054072948173,2.551736844225161e-05,-7.98368420191764e-05,6.315789473685072,5.684341886080801e-13,1.1368683772161603e-12,1.8189894035458565e-11,174.61157894736675,70.0,0.0,255.0,0.0
19.25000000000013,35.72408403278041,51.27455205207166,1438.4211970455945,2.551736844225161e-05,-7.98368420191764e-05,6.315789473685072,-5.684341886080801e-13,-1.1368683772161603e-12,-1.8189894035458565e-11,173.976315789472,70.0,0.0,255.0,0.0
19.300000000000132,35.72408486735574,51.27454873673027,1438.7369867814705,2.551736838540819e-05,-7.983684213286324e-05,6.315789473683253,-5.684341886080801e-13,-1.1368683772161603e-12,-1.8189894035458565e-11,173.34105263157727,70.0,0.0,255.0,0.0
19.350000000000133,35.7240857080745,51.27454542734734,1439.0527764949948,2.551736838540819e-05,-7.983684213286324e-05,6.315789473683253,5.684341886080801e-13,0.0,3.637978807091713e-11,172.7057894736825,70.0,0.0,255.0,0.0
19.400000000000134,35.72408655499012,51.27454212383902,1439.3685661926866,2.551736844225161e-05,-7.983684213286324e-05,6.315789473686891,1.1368683772161603e-12,0.0,1.8189894035458565e-11,172.0705263157878,70.0,0.0,255.0,0.0
19.450000000000134,35.7240874081554,51.27453882612065,1439.684355871752,2.5517368499095028e-05,-7.983684213286324e-05,6.315789473685072,0.0,0.0,-5.4569682106375694e-11,171.43526315789302,70.0,0.0,255.0,0.0
19.500000000000135,35.72408826762228,51.27453553410691,1440.0001455293968,2.551736844225161e-05,-7.983684213286324e-05,6.315789473681434,-5.684341886080801e-13,0.0,-1.8189894035458565e-11,170.79999999999828,70.0,0.0,255.0,0.0
19.550000000000136,35.72408913344193,51.2745322477118,1440.3159351684153,2.551736844225161e-05,-7.983684213286324e-05,6.315789473683253,0.0,0.0,1.8189894035458565e-11,170.16473684210354,70.0,0.0,255.0,0.0
19.600000000000136,35.72409000566476,51.27452896684855,1440.6317247897387,2.551736844225161e-05,-7.983684213286324e-05,6.315789473683253,-5.684341886080801e-13,0.0,3.637978807091713e-11,169.52947368420877,70.0,0.0,255.0,0.0
19.650000000000137,35.72409088434042,51.2745256914298,1440.9475143924356,2.551736838540819e-05,-7.983684213286324e-05,6.315789473686891,-5.684341886080801e-13,0.0,3.637978807091713e-11,168.89421052631405,70.0,0.0,255.0,0.0
19.700000000000138,35.7240917695177,51.27452242136744,1441.2633039793,2.551736838540819e-05,-7.983684213286324e-05,6.315789473686891,5.684341886080801e-13,1.1368683772161603e-12,-3.637978807091713e-11,168.25894736841929,70.0,0.0,255.0,0.0
19.75000000000014,35.724092661244626,51.27451915657278,1441.5790935438126,2.551736844225161e-05,-7.98368420191764e-05,6.315789473683253,5.684341886080801e-13,1.1368683772161603e-12,-3.637978807091713e-11,167.62368421052454,70.0,0.0,255.0,0.0
19.80000000000014,35.724093559568466,51.27451589695643,1441.8948830896989,2.551736844225161e-05,-7.98368420191764e-05,6.315789473683253,-5.684341886080801e-13,-1.1368683772161603e-12,1.8189894035458565e-11,166.9884210526298,70.0,0.0,255.0,0.0
19.85000000000014,35.72409446453559,51.27451264242836,1442.21067261789,2.551736838540819e-05,-7.983684213286324e-05,6.315789473685072,-5.684341886080801e-13,-1.1368683772161603e-12,1.8189894035458565e-11,166.35315789473503,70.0,0.0,255.0,0.0
19.90000000000014,35.7240953761916,51.27450939289795,1442.5264621265233,2.551736838540819e-05,-7.983684213286324e-05,6.315789473685072,5.684341886080801e-13,0.0,-1.8189894035458565e-11,165.71789473684032,70.0,0.0,255.0,0.0
19.95000000000014,35.72409629458128,51.27450614827393,1442.8422516146675,2.551736844225161e-05,-7.983684213286324e-05,6.315789473683253,5.684341886080801e-13,1.1368683772161603e-12,-1.8189894035458565e-11,165.08263157894555,70.0,0.0,255.0,0.0
20.000000000000142,35.72409721974855,51.27450290846447,1443.1580410841852,2.551736844225161e-05,-7.98368420191764e-05,6.315789473683253,-5.684341886080801e-13,1.1368683772161603e-12,1.8189894035458565e-11,164.4473684210508,70.0,0.0,255.0,0.0
20.050000000000143,35.72409815173655,51.274499673377086,1443.4738305360079,2.551736838540819e-05,-7.98368420191764e-05,6.315789473685072,-5.684341886080801e-13,-1.1368683772161603e-12,1.8189894035458565e-11,163.81210526315607,70.0,0.0,255.0,0.0
20.100000000000144,35.724099090587536,51.274496442918796,1443.7896199701354,2.551736838540819e-05,-7.983684213286324e-05,6.315789473685072,5.684341886080801e-13,-1.1368683772161603e-12,-1.8189894035458565e-11,163.17684210526133,70.0,0.0,255.0,0.0
20.150000000000144,35.72410003634294,51.27449321699594,1444.1054093828425,2.551736844225161e-05,-7.983684213286324e-05,6.315789473683253,5.684341886080801e-13,0.0,-1.8189894035458565e-11,162.5415789473666,70.0,0.0,255.0,0.0
20.200000000000145,35.72410098904335,51.27448999551442,1444.4211987769231,2.551736844225161e-05,-7.983684213286324e-05,6.315789473683253,-5.684341886080801e-13,0.0,0.0,161.90631578947185,70.0,0.0,255.0,0.0
20.250000000000146,35.72410194872849,51.274486778379504,1444.7369881523773,2.551736838540819e-05,-7.983684213286324e-05,6.315789473683253,-5.684341886080801e-13,0.0,1.8189894035458565e-11,161.27105263157708,70.0,0.0,255.0,0.0
20.300000000000146,35.7241029154372,51.27448356549599,1445.0527775082737,2.551736838540819e-05,-7.983684213286324e-05,6.315789473685072,5.684341886080801e-13,0.0,1.8189894035458565e-11,160.63578947368234,70.0,0.0,255.0,0.0
20.350000000000147,35.724103889207534,51.274480356768066,1445.368566846475,2.551736844225161e-05,-7.983684213286324e-05,6.315789473685072,5.684341886080801e-13,0.0,-1.8189894035458565e-11,160.0005263157876,70.0,0.0,255.0,0.0
20.400000000000148,35.72410487007659,51.27447715209951,1445.6843561641872,2.551736844225161e-05,-7.983684213286324e-05,6.315789473683253,0.0,0.0,-1.8189894035458565e-11,159.36526315789285,70.0,0.0,255.0,0.0
20.45000000000015,35.72410585808064,51.274473951393524,1446.0001454642043,2.551736844225161e-05,-7.983684213286324e-05,6.315789473683253,5.684341886080801e-13,1.1368683772161603e-12,1.8189894035458565e-11,158.7299999999981,70.0,0.0,255.0,0.0
20.50000000000015,35.72410685325509,51.274470754552866,1446.3159347437322,2.5517368499095028e-05,-7.98368420191764e-05,6.315789473685072,0.0,1.1368683772161603e-12,1.8189894035458565e-11,158.09473684210334,70.0,0.0,255.0,0.0
20.55000000000015,35.72410785563443,51.27446756147982,1446.6317240046337,2.551736844225161e-05,-7.98368420191764e-05,6.315789473685072,-1.1368683772161603e-12,-1.1368683772161603e-12,-1.8189894035458565e-11,157.4594736842086,70.0,0.0,255.0,0.0
20.60000000000015,35.72410886525227,51.27446437207615,1446.9475132450461,2.551736838540819e-05,-7.983684213286324e-05,6.315789473683253,-5.684341886080801e-13,-1.1368683772161603e-12,-1.8189894035458565e-11,156.82421052631386,70.0,0.0,255.0,0.0
20.65000000000015,35.72410988214135,51.274461186243265,1447.2633024705574,2.551736838540819e-05,-7.983684213286324e-05,6.315789473683253,5.684341886080801e-13,0.0,1.8189894035458565e-11,156.18894736841912,70.0,0.0,255.0,0.0
20.700000000000152,35.7241109063335,51.274458003882046,1447.5790916746482,2.551736844225161e-05,-7.983684213286324e-05,6.315789473685072,5.684341886080801e-13,0.0,1.8189894035458565e-11,155.55368421052438,70.0,0.0,255.0,0.0
20.750000000000153,35.72411193785967,51.27445482489299,1447.894880861044,2.551736844225161e-05,-7.983684213286324e-05,6.315789473685072,-5.684341886080801e-13,1.1368683772161603e-12,-1.8189894035458565e-11,154.91842105262964,70.0,0.0,255.0,0.0
20.800000000000153,35.724112976749886,51.274451649176164,1448.2106700260192,2.551736838540819e-05,-7.98368420191764e-05,6.315789473683253,-5.684341886080801e-13,1.1368683772161603e-12,-1.8189894035458565e-11,154.28315789473487,70.0,0.0,255.0,0.0
20.850000000000154,35.724114023033295,51.27444847663128,1448.526459175162,2.551736838540819e-05,-7.98368420191764e-05,6.315789473683253,5.684341886080801e-13,-1.1368683772161603e-12,0.0,153.64789473684013,70.0,0.0,255.0,0.0
20.900000000000155,35.72411507673809,51.27444530715756,1448.8422483038157,2.551736844225161e-05,-7.983684213286324e-05,6.315789473683253,5.684341886080801e-13,-1.1368683772161603e-12,3.637978807091713e-11,153.0126315789454,70.0,0.0,255.0,0.0
20.950000000000156,35.7241161378916,51.27444214065397,1449.1580374157056,2.551736844225161e-05,-7.983684213286324e-05,6.315789473686891,-5.684341886080801e-13,0.0,1.8189894035458565e-11,152.37736842105065,70.0,0.0,255.0,0.0
21.000000000000156,35.724117206520226,51.274438977019,1449.4738265080377,2.551736838540819e-05,-7.983684213286324e-05,6.315789473685072,-5.684341886080801e-13,0.0,-5.4569682106375694e-11,151.7421052631559,70.0,0.0,255.0,0.0
21.050000000000157,35.724118282649435,51.27443581615087,1449.7896155817434,2.551736838540819e-05,-7.983684213286324e-05,6.315789473681434,5.684341886080801e-13,0.0,-1.8189894035458565e-11,151.10684210526117,70.0,0.0,255.0,0.0
21.100000000000158,35.72411936630377,51.27443265794743,1450.10540463496,2.551736844225161e-05,-7.983684213286324e-05,6.315789473683253,5.684341886080801e-13,0.0,5.4569682106375694e-11,150.4715789473664,70.0,0.0,255.0,0.0
21.15000000000016,35.72412045750687,51.27442950230617,1450.4211936732754,2.551736844225161e-05,-7.983684213286324e-05,6.315789473686891,-5.684341886080801e-13,0.0,3.637978807091713e-11,149.83631578947166,70.0,0.0,255.0,0.0
21.20000000000016,35.72412155628145,51.274426349124326,1450.7369826911017,2.551736838540819e-05,-7.983684213286324e-05,6.315789473686891,-5.684341886080801e-13,0.0,-3.637978807091713e-11,149.2010526315769,70.0,0.0,255.0,0.0
21.25000000000016,35.72412266264924,51.27442319829878,1451.0527716930956,2.551736838540819e-05,-7.983684213286324e-05,6.315789473683253,5.684341886080801e-13,1.1368683772161603e-12,-3.637978807091713e-11,148.56578947368217,70.0,0.0,255.0,0.0
21.30000000000016,35.72412377663112,51.27442004972615,1451.368560673669,2.551736844225161e-05,-7.98368420191764e-05,6.315789473683253,5.684341886080801e-13,1.1368683772161603e-12,0.0,147.93052631578743,70.0,0.0,255.0,0.0
21.35000000000016,35.72412489824696,51.2744169033028,1451.6843496374786,2.551736844225161e-05,-7.98368420191764e-05,6.315789473683253,-5.684341886080801e-13,-1.1368683772161603e-12,1.8189894035458565e-11,147.2952631578927,70.0,0.0,255.0,0.0
21.400000000000162,35.72412602751573,51.27441375892476,1452.0001385826617,2.551736838540819e-05,-7.983684213286324e-05,6.315789473685072,5.684341886080801e-13,-1.1368683772161603e-12,1.8189894035458565e-11,146.65999999999792,70.0,0.0,255.0,0.0
21.450000000000163,35.724127164455446,51.27441061648787,1452.3159275101498,2.5517368499095028e-05,-7.983684213286324e-05,6.315789473685072,1.1368683772161603e-12,0.0,-1.8189894035458565e-11,146.02473684210318,70.0,0.0,255.0,0.0
21.500000000000163,35.72412830908322,51.2744074758877,1452.6317164199427,2.5517368499095028e-05,-7.983684213286324e-05,6.315789473683253,-1.1368683772161603e-12,0.0,-1.8189894035458565e-11,145.38947368420844,70.0,0.0,255.0,0.0
21.550000000000164,35.72412946141513,51.27440433701964,1452.9475053120404,2.551736838540819e-05,-7.983684213286324e-05,6.315789473683253,-1.1368683772161603e-12,0.0,1.8189894035458565e-11,144.7542105263137,70.0,0.0,255.0,0.0
21.600000000000165,35.724130621466394,51.274401199778794,1453.2632941873744,2.551736838540819e-05,-7.983684213286324e-05,6.315789473685072,5.684341886080801e-13,0.0,1.8189894035458565e-11,144.11894736841896,70.0,0.0,255.0,0.0
21.650000000000166,35.724131789251246,51.27439806406013,1453.5790830450132,2.551736844225161e-05,-7.983684213286324e-05,6.315789473685072,5.684341886080801e-13,0.0,-1.8189894035458565e-11,143.4836842105242,70.0,0.0,255.0,0.0
21.700000000000166,35.72413296478297,51.27439492975838,1453.8948718840256,2.551736844225161e-05,-7.983684213286324e-05,6.315789473683253,-5.684341886080801e-13,0.0,-1.8189894035458565e-11,142.84842105262945,70.0,0.0,255.0,0.0
21.750000000000167,35.724134148073894,51.27439179676816,1454.2106607062742,2.551736838540819e-05,-7.983684213286324e-05,6.315789473683253,-5.684341886080801e-13,1.1368683772161603e-12,1.8189894035458565e-11,142.2131578947347,70.0,0.0,255.0,0.0
21.800000000000168,35.7241353391354,51.27438866498386,1454.5264495108277,2.551736838540819e-05,-7.98368420191764e-05,6.315789473685072,5.684341886080801e-13,1.1368683772161603e-12,1.8189894035458565e-11,141.57789473683997,70.0,0.0,255.0,0.0
21.85000000000017,35.72413653797793,51.27438553429977,1454.8422382958233,2.551736844225161e-05,-7.98368420191764e-05,6.315789473685072,5.684341886080801e-13,-1.1368683772161603e-12,-1.8189894035458565e-11,140.94263157894522,70.0,0.0,255.0,0.0
21.90000000000017,35.724137744610914,51.27438240461002,1455.1580270677805,2.551736844225161e-05,-7.983684213286324e-05,6.315789473683253,-5.684341886080801e-13,-1.1368683772161603e-12,-1.8189894035458565e-11,140.30736842105048,70.0,0.0,255.0,0.0
21.95000000000017,35.724138959042904,51.27437927580863,1455.4738158201799,2.551736838540819e-05,-7.983684213286324e-05,6.315789473683253,-5.684341886080801e-13,0.0,1.8189894035458565e-11,139.67210526315571,70.0,0.0,255.0,0.0
22.00000000000017,35.724140181281435,51.2743761477895,1455.789604557678,2.551736838540819e-05,-7.983684213286324e-05,6.315789473685072,5.684341886080801e-13,0.0,1.8189894035458565e-11,139.03684210526097,70.0,0.0,255.0,0.0
22.05000000000017,35.72414141133308,51.27437302044644,1456.1053932756186,2.551736844225161e-05,-7.983684213286324e-05,6.315789473685072,5.684341886080801e-13,1.1368683772161603e-12,-1.8189894035458565e-11,138.40157894736623,70.0,0.0,255.0,0.0
22.100000000000172,35.72414264920349,51.274369893673196,1456.4211819805205,2.551736844225161e-05,-7.98368420191764e-05,6.315789473683253,-5.684341886080801e-13,1.1368683772161603e-12,-1.8189894035458565e-11,137.7663157894715,70.0,0.0,255.0,0.0
22.150000000000173,35.72414389489736,51.2743667673634,1456.7369706686586,2.551736838540819e-05,-7.98368420191764e-05,6.315789473683253,-5.684341886080801e-13,-1.1368683772161603e-12,0.0,137.13105263157675,70.0,0.0,255.0,0.0
22.200000000000173,35.72414514841834,51.27436364141066,1457.0527593409643,2.551736838540819e-05,-7.983684213286324e-05,6.315789473683253,5.684341886080801e-13,-1.1368683772161603e-12,1.8189894035458565e-11,136.495789473682,70.0,0.0,255.0,0.0
22.250000000000174,35.72414640976922,51.274360515708516,1457.3685479946434,2.551736844225161e-05,-7.983684213286324e-05,6.315789473685072,5.684341886080801e-13,0.0,1.8189894035458565e-11,135.86052631578724,70.0,0.0,255.0,0.0
22.300000000000175,35.72414767895177,51.27435739015052,1457.6843366315588,2.551736844225161e-05,-7.983684213286324e-05,6.315789473685072,-5.684341886080801e-13,0.0,-1.8189894035458565e-11,135.2252631578925,70.0,0.0,255.0,0.0
22.350000000000176,35.72414895596682,51.27435426463017,1458.0001252554357,2.551736838540819e-05,-7.983684213286324e-05,6.315789473683253,-5.684341886080801e-13,0.0,-1.8189894035458565e-11,134.58999999999776,70.0,0.0,255.0,0.0
22.400000000000176,35.72415024081422,51.274351139040974,1458.3159138616174,2.551736838540819e-05,-7.983684213286324e-05,6.315789473683253,1.1368683772161603e-12,0.0,3.637978807091713e-11,133.95473684210302,70.0,0.0,255.0,0.0
22.450000000000177,35.72415153349285,51.274348013276416,1458.631702452898,2.5517368499095028e-05,-7.983684213286324e-05,6.315789473686891,1.1368683772161603e-12,0.0,1.8189894035458565e-11,133.31947368420828,70.0,0.0,255.0,0.0
22.500000000000178,35.724152834000684,51.27434488723007,1458.9474910264835,2.5517368499095028e-05,-7.983684213286324e-05,6.315789473685072,-1.1368683772161603e-12,0.0,-5.4569682106375694e-11,132.68421052631354,70.0,0.0,255.0,0.0
22.55000000000018,35.724154142334655,51.274341760795465,1459.2632795870304,2.551736838540819e-05,-7.983684213286324e-05,6.315789473681434,-5.684341886080801e-13,1.1368683772161603e-12,-1.8189894035458565e-11,132.04894736841877,70.0,0.0,255.0,0.0
22.60000000000018,35.72415545849078,51.274338633866236,1459.5790681317449,2.551736844225161e-05,-7.98368420191764e-05,6.315789473683253,5.684341886080801e-13,1.1368683772161603e-12,1.8189894035458565e-11,131.41368421052402,70.0,0.0,255.0,0.0
22.65000000000018,35.7241567824641,51.274335506336065,1459.8948566634208,2.551736844225161e-05,-7.98368420191764e-05,6.315789473683253,-5.684341886080801e-13,-1.1368683772161603e-12,3.637978807091713e-11,130.77842105262928,70.0,0.0,255.0,0.0
22.70000000000018,35.72415811424873,51.274332378098684,1460.210645178333,2.551736838540819e-05,-7.983684213286324e-05,6.315789473686891,-5.684341886080801e-13,-1.1368683772161603e-12,3.637978807091713e-11,130.14315789473454,70.0,0.0,255.0,0.0
22.75000000000018,35.72415945383777,51.27432924904793,1460.5264336792752,2.551736838540819e-05,-7.983684213286324e-05,6.315789473686891,5.684341886080801e-13,0.0,-3.637978807091713e-11,129.5078947368398,70.0,0.0,255.0,0.0
22.800000000000182,35.724160801223405,51.27432611907775,1460.8422221653163,2.551736844225161e-05,-7.983684213286324e-05,6.315789473683253,5.684341886080801e-13,1.1368683772161603e-12,-3.637978807091713e-11,128.87263157894503,70.0,0.0,255.0,0.0
22.850000000000183,35.724162156396815,51.27432298808219,1461.158010638319,2.551736844225161e-05,-7.98368420191764e-05,6.315789473683253,-5.684341886080801e-13,1.1368683772161603e-12,1.8189894035458565e-11,128.2373684210503,70.0,0.0,255.0,0.0
22.900000000000183,35.72416351934826,51.274319855955454,1461.473799095489,2.551736838540819e-05,-7.98368420191764e-05,6.315789473685072,-5.684341886080801e-13,-1.1368683772161603e-12,1.8189894035458565e-11,127.60210526315555,70.0,0.0,255.0,0.0
22.950000000000184,35.72416489006705,51.2743167225918,1461.7895875396207,2.551736838540819e-05,-7.983684213286324e-05,6.315789473685072,5.684341886080801e-13,-1.1368683772161603e-12,-1.8189894035458565e-11,126.96684210526081,70.0,0.0,255.0,0.0
23.000000000000185,35.724166268541495,51.27431358788573,1462.1053759707138,2.551736844225161e-05,-7.983684213286324e-05,6.315789473683253,5.684341886080801e-13,0.0,-1.8189894035458565e-11,126.33157894736607,70.0,0.0,255.0,0.0
23.050000000000185,35.724167654759015,51.27431045173187,1462.4211643869057,2.551736844225161e-05,-7.983684213286324e-05,6.315789473683253,-5.684341886080801e-13,0.0,1.8189894035458565e-11,125.69631578947133,70.0,0.0,255.0,0.0
23.100000000000186,35.72416904870602,51.27430731402503,1462.7369527900591,2.551736838540819e-05,-7.983684213286324e-05,6.315789473685072,-5.684341886080801e-13,0.0,1.8189894035458565e-11,125.06105263157656,70.0,0.0,255.0,0.0
23.150000000000187,35.724170450368,51.274304174660216,1463.052741180174,2.551736838540819e-05,-7.983684213286324e-05,6.315789473685072,5.684341886080801e-13,0.0,-1.8189894035458565e-11,124.42578947368182,70.0,0.0,255.0,0.0
23.200000000000188,35.72417185972949,51.27430103353262,1463.3685295572504,2.551736844225161e-05,-7.983684213286324e-05,6.315789473683253,5.684341886080801e-13,0.0,-1.8189894035458565e-11,123.79052631578708,70.0,0.0,255.0,0.0
23.25000000000019,35.724173276774096,51.274297890537675,1463.6843179212883,2.551736844225161e-05,-7.983684213286324e-05,6.315789473683253,-5.684341886080801e-13,0.0,1.8189894035458565e-11,123.15526315789234,70.0,0.0,255.0,0.0
23.30000000000019,35.72417470148443,51.27429474557102,1464.0001062722877,2.551736838540819e-05,-7.983684213286324e-05,6.315789473685072,-5.684341886080801e-13,0.0,1.8189894035458565e-11,122.5199999999976,70.0,0.0,255.0,0.0
23.35000000000019,35.72417613384222,51.27429159852856,1464.3158946102485,2.551736838540819e-05,-7.983684213286324e-05,6.315789473685072,5.684341886080801e-13,1.1368683772161603e-12,-1.8189894035458565e-11,121.88473684210285,70.0,0.0,255.0,0.0
23.40000000000019,35.72417757382821,51.274288449306454,1464.6316829379648,2.551736844225161e-05,-7.98368420191764e-05,6.315789473683253,1.1368683772161603e-12,1.1368683772161603e-12,-1.8189894035458565e-11,121.24947368420808,70.0,0.0,255.0,0.0
23.45000000000019,35.72417902142223,51.27428529780109,1464.947471253574,2.5517368499095028e-05,-7.98368420191764e-05,6.315789473683253,0.0,-1.1368683772161603e-12,0.0,120.61421052631334,70.0,0.0,255.0,0.0
23.500000000000192,35.7241804766032,51.27428214390918,1465.2632595561445,2.551736844225161e-05,-7.983684213286324e-05,6.315789473683253,-5.684341886080801e-13,-1.1368683772161603e-12,1.8189894035458565e-11,119.9789473684186,70.0,0.0,255.0,0.0
23.550000000000193,35.72418193934901,51.274278987527715,1465.5790478466079,2.551736844225161e-05,-7.983684213286324e-05,6.315789473685072,0.0,0.0,1.8189894035458565e-11,119.34368421052386,70.0,0.0,255.0,0.0
23.600000000000193,35.724183409636744,51.274275828553996,1465.8948361268267,2.551736844225161e-05,-7.983684213286324e-05,6.315789473685072,-5.684341886080801e-13,0.0,-1.8189894035458565e-11,118.70842105262912,70.0,0.0,255.0,0.0
23.650000000000194,35.72418488744248,51.27427266688562,1466.210624394007,2.551736838540819e-05,-7.983684213286324e-05,6.315789473683253,-5.684341886080801e-13,0.0,-1.8189894035458565e-11,118.07315789473438,70.0,0.0,255.0,0.0
23.700000000000195,35.72418637274141,51.27426950242055,1466.5264126528054,2.551736838540819e-05,-7.983684213286324e-05,6.315789473683253,5.684341886080801e-13,0.0,1.8189894035458565e-11,117.43789473683961,70.0,0.0,255.0,0.0
23.750000000000195,35.72418786550776,51.27426633505707,1466.8422008994967,2.551736844225161e-05,-7.983684213286324e-05,6.315789473685072,5.684341886080801e-13,0.0,1.8189894035458565e-11,116.80263157894487,70.0,0.0,255.0,0.0
23.800000000000196,35.72418936571487,51.27426316469384,1467.1579891368747,2.551736844225161e-05,-7.983684213286324e-05,6.315789473685072,-5.684341886080801e-13,0.0,-1.8189894035458565e-11,116.16736842105013,70.0,0.0,255.0,0.0
23.850000000000197,35.724190873335175,51.274259991229854,1467.4737773621455,2.551736838540819e-05,-7.983684213286324e-05,6.315789473683253,-5.684341886080801e-13,1.1368683772161603e-12,-1.8189894035458565e-11,115.53210526315539,70.0,0.0,255.0,0.0
23.900000000000198,35.72419238834018,51.27425681456452,1467.7895655771717,2.551736838540819e-05,-7.98368420191764e-05,6.315789473683253,5.684341886080801e-13,1.1368683772161603e-12,0.0,114.89684210526065,70.0,0.0,255.0,0.0
23.9500000000002,35.72419391070047,51.27425363459762,1468.1053537847474,2.551736844225161e-05,-7.98368420191764e-05,6.315789473683253,5.684341886080801e-13,-1.1368683772161603e-12,3.637978807091713e-11,114.26157894736588,70.0,0.0,255.0,0.0
24.0000000000002,35.72419544038578,51.27425045122937,1468.4211419811472,2.551736844225161e-05,-7.983684213286324e-05,6.315789473686891,-5.684341886080801e-13,-1.1368683772161603e-12,1.8189894035458565e-11,113.62631578947114,70.0,0.0,255.0,0.0
24.0500000000002,35.72419697736488,51.274247264360355,1468.7369301691651,2.551736838540819e-05,-7.983684213286324e-05,6.315789473685072,-5.684341886080801e-13,0.0,-5.4569682106375694e-11,112.9910526315764,70.0,0.0,255.0,0.0
24.1000000000002,35.72419852160567,51.274244073891644,1469.0527183478698,2.551736838540819e-05,-7.983684213286324e-05,6.315789473681434,5.684341886080801e-13,1.1368683772161603e-12,-1.8189894035458565e-11,112.35578947368165,70.0,0.0,255.0,0.0
24.1500000000002,35.72420007307518,51.2742408797247,1469.368506513536,2.551736844225161e-05,-7.98368420191764e-05,6.315789473683253,5.684341886080801e-13,1.1368683772161603e-12,5.4569682106375694e-11,111.72052631578691,70.0,0.0,255.0,0.0
24.200000000000202,35.724201631739504,51.2742376817615,1469.6842946745455,2.551736844225161e-05,-7.98368420191764e-05,6.315789473686891,-5.684341886080801e-13,-1.1368683772161603e-12,3.637978807091713e-11,111.08526315789217,70.0,0.0,255.0,0.0
24.250000000000203,35.724203197563895,51.27423447990443,1470.0000828262419,2.551736838540819e-05,-7.983684213286324e-05,6.315789473686891,-5.684341886080801e-13,-1.1368683772161603e-12,-3.637978807091713e-11,110.4499999999974,70.0,0.0,255.0,0.0
24.300000000000203,35.7242047705127,51.27423127405637,1470.3158709695563,2.551736838540819e-05,-7.983684213286324e-05,6.315789473683253,5.684341886080801e-13,0.0,-3.637978807091713e-11,109.81473684210266,70.0,0.0,255.0,0.0
24.350000000000204,35.7242063505494,51.2742280641207,1470.6316591063514,2.551736844225161e-05,-7.983684213286324e-05,6.315789473683253,5.684341886080801e-13,0.0,1.8189894035458565e-11,109.17947368420792,70.0,0.0,255.0,0.0
24.400000000000205,35.7242079376366,51.2742248500013,1470.947447232902,2.551736844225161e-05,-7.983684213286324e-05,6.315789473685072,0.0,0.0,1.8189894035458565e-11,108.54421052631318,70.0,0.0,255.0,0.0
24.450000000000205,35.724209531736044,51.27422163160261,1471.2632353538647,2.551736844225161e-05,-7.983684213286324e-05,6.315789473685072,5.684341886080801e-13,0.0,-1.8189894035458565e-11,107.90894736841844,70.0,0.0,255.0,0.0
24.500000000000206,35.72421113280862,51.27421840882947,1471.5790234645829,2.5517368499095028e-05,-7.983684213286324e-05,6.315789473683253,0.0,0.0,-1.8189894035458565e-11,107.2736842105237,70.0,0.0,255.0,0.0
24.550000000000207,35.72421274081432,51.27421518158738,1471.8948115715757,2.551736844225161e-05,-7.983684213286324e-05,6.315789473683253,-1.1368683772161603e-12,0.0,1.8189894035458565e-11,106.63842105262893,70.0,0.0,255.0,0.0
24.600000000000207,35.724214355712355,51.27421194978237,1472.2105996701866,2.551736838540819e-05,-7.983684213286324e-05,6.315789473685072,-5.684341886080801e-13,0.0,1.8189894035458565e-11,106.00315789473419,70.0,0.0,255.0,0.0
24.650000000000208,35.72421597746099,51.27420871332096,1472.526387764141,2.551736838540819e-05,-7.983684213286324e-05,6.315789473685072,5.684341886080801e-13,1.1368683772161603e-12,-1.8189894035458565e-11,105.36789473683945,70.0,0.0,255.0,0.0
24.70000000000021,35.72421760601776,51.274205472110324,1472.8421758497134,2.551736844225161e-05,-7.98368420191764e-05,6.315789473683253,5.684341886080801e-13,1.1368683772161603e-12,-1.8189894035458565e-11,104.7326315789447,70.0,0.0,255.0,0.0
24.75000000000021,35.72421924133929,51.27420222605819,1473.1579639306292,2.551736844225161e-05,-7.98368420191764e-05,6.315789473683253,-5.684341886080801e-13,-1.1368683772161603e-12,0.0,104.09736842104996,70.0,0.0,255.0,0.0
24.80000000000021,35.72422088338139,51.27419897507286,1473.4737520040944,2.551736838540819e-05,-7.983684213286324e-05,6.315789473683253,-5.684341886080801e-13,-1.1368683772161603e-12,1.8189894035458565e-11,103.46210526315522,70.0,0.0,255.0,0.0
24.85000000000021,35.72422253209905,51.27419571906327,1473.789540075697,2.551736838540819e-05,-7.983684213286324e-05,6.315789473685072,5.684341886080801e-13,0.0,1.8189894035458565e-11,102.82684210526045,70.0,0.0,255.0,0.0
24.90000000000021,35.724224187446424,51.27419245793895,1474.1053281389177,2.551736844225161e-05,-7.983684213286324e-05,6.315789473685072,5.684341886080801e-13,1.1368683772161603e-12,-1.8189894035458565e-11,102.19157894736571,70.0,0.0,255.0,0.0
24.950000000000212,35.724225849376865,51.274189191610084,1474.4211161974818,2.551736844225161e-05,-7.98368420191764e-05,6.315789473683253,-5.684341886080801e-13,1.1368683772161603e-12,-1.8189894035458565e-11,101.55631578947097,70.0,0.0,255.0,0.0
25.000000000000213,35.72422751784292,51.2741859199875,1474.7369042513892,2.551736838540819e-05,-7.98368420191764e-05,6.315789473683253,-5.684341886080801e-13,-1.1368683772161603e-12,1.8189894035458565e-11,100.92105263157623,70.0,0.0,255.0,0.0
25.050000000000214,35.72422919279632,51.27418264298263,1475.05269230064,2.551736838540819e-05,-7.983684213286324e-05,6.315789473685072,5.684341886080801e-13,-1.1368683772161603e-12,1.8189894035458565e-11,100.28578947368149,70.0,0.0,255.0,0.0
25.100000000000215,35.72423087418801,51.27417936050761,1475.3684803452343,2.551736844225161e-05,-7.983684213286324e-05,6.315789473685072,5.684341886080801e-13,0.0,-1.8189894035458565e-11,99.65052631578672,70.0,0.0,255.0,0.0
25.150000000000215,35.72423256196813,51.27417607247525,1475.6842683898285,2.551736844225161e-05,-7.983684213286324e-05,6.315789473683253,-5.684341886080801e-13,0.0,-1.8189894035458565e-11,99.01526315789198,70.0,0.0,255.0,0.0
25.200000000000216,35.724234256086056,51.27417277879901,1476.0000564260408,2.551736838540819e-05,-7.983684213286324e-05,6.315789473683253,-5.684341886080801e-13,0.0,0.0,98.37999999999724,70.0,0.0,255.0,0.0
25.250000000000217,35.72423595649037,51.274169479393095,1476.3158444585279,2.551736838540819e-05,-7.983684213286324e-05,6.315789473683253,5.684341886080801e-13,0.0,1.8189894035458565e-11,97.7447368421025,70.0,0.0,255.0,0.0
25.300000000000217,35.72423766312885,51.27416617417236,1476.6316324919462,2.551736844225161e-05,-7.983684213286324e-05,6.315789473685072,5.684341886080801e-13,0.0,1.8189894035458565e-11,97.10947368420776,70.0,0.0,255.0,0.0
25.350000000000218,35.724239375948585,51.2741628630524,1476.947420520708,2.551736844225161e-05,-7.983684213286324e-05,6.315789473685072,-5.684341886080801e-13,0.0,-1.8189894035458565e-11,96.47421052631302,70.0,0.0,255.0,0.0
25.40000000000022,35.724241094895845,51.27415954594953,1477.2632085457444,2.551736838540819e-05,-7.983684213286324e-05,6.315789473683253,5.684341886080801e-13,1.1368683772161603e-12,-1.8189894035458565e-11,95.83894736841825,70.0,0.0,255.0,0.0
25.45000000000022,35.72424281991614,51.27415622278082,1477.5789965717122,2.5517368499095028e-05,-7.98368420191764e-05,6.315789473683253,1.1368683772161603e-12,1.1368683772161603e-12,3.637978807091713e-11,95.2036842105235,70.0,0.0,255.0,0.0
25.50000000000022,35.724244550954296,51.274152893464056,1477.8947845930234,2.5517368499095028e-05,-7.98368420191764e-05,6.315789473686891,-1.1368683772161603e-12,-1.1368683772161603e-12,1.8189894035458565e-11,94.56842105262876,70.0,0.0,255.0,0.0
25.55000000000022,35.72424628795434,51.2741495579178,1478.2105726134032,2.551736838540819e-05,-7.983684213286324e-05,6.315789473685072,-1.1368683772161603e-12,-1.1368683772161603e-12,-5.4569682106375694e-11,93.93315789473402,70.0,0.0,255.0,0.0
25.60000000000022,35.724248030859556,51.274146216061375,1478.5263606319204,2.551736838540819e-05,-7.983684213286324e-05,6.315789473681434,5.684341886080801e-13,0.0,-1.8189894035458565e-11,93.29789473683928,70.0,0.0,255.0,0.0
25.650000000000222,35.72424977961256,51.27414286781487,1478.8421486476436,2.551736844225161e-05,-7.983684213286324e-05,6.315789473683253,5.684341886080801e-13,0.0,5.4569682106375694e-11,92.66263157894454,70.0,0.0,255.0,0.0
25.700000000000223,35.724251534155215,51.274139513099186,1479.1579366661608,2.551736844225161e-05,-7.983684213286324e-05,6.315789473686891,-5.684341886080801e-13,0.0,3.637978807091713e-11,92.02736842104977,70.0,0.0,255.0,0.0
25.750000000000224,35.724253294428685,51.274136151835975,1479.4737246800214,2.551736838540819e-05,-7.983684213286324e-05,6.315789473686891,-5.684341886080801e-13,0.0,-3.637978807091713e-11,91.39210526315503,70.0,0.0,255.0,0.0
25.800000000000225,35.724255060373395,51.274132783947735,1479.7895126976073,2.551736838540819e-05,-7.983684213286324e-05,6.315789473683253,5.684341886080801e-13,0.0,-3.637978807091713e-11,90.75684210526029,70.0,0.0,255.0,0.0
25.850000000000225,35.72425683192912,51.27412940935776,1480.1053007123992,2.551736844225161e-05,-7.983684213286324e-05,6.315789473683253,5.684341886080801e-13,0.0,0.0,90.12157894736555,70.0,0.0,255.0,0.0
25.900000000000226,35.724258609034926,51.274126027990185,1480.4210887281224,2.551736844225161e-05,-7.983684213286324e-05,6.315789473683253,-5.684341886080801e-13,0.0,1.8189894035458565e-11,89.48631578947081,70.0,0.0,255.0,0.0
25.950000000000227,35.72426039162918,51.274122639769935,1480.7368767438456,2.551736838540819e-05,-7.983684213286324e-05,6.315789473685072,-5.684341886080801e-13,1.1368683772161603e-12,1.8189894035458565e-11,88.85105263157607,70.0,0.0,255.0,0.0
26.000000000000227,35.724262179649614,51.27411924462283,1481.0526647614315,2.551736838540819e-05,-7.98368420191764e-05,6.315789473685072,5.684341886080801e-13,1.1368683772161603e-12,-1.8189894035458565e-11,88.2157894736813,70.0,0.0,255.0,0.0
26.050000000000228,35.724263973033224,51.27411584247552,1481.368452778086,2.551736844225161e-05,-7.98368420191764e-05,6.315789473683253,5.684341886080801e-13,-1.1368683772161603e-12,-1.8189894035458565e-11,87.58052631578656,70.0,0.0,255.0,0.0
26.10000000000023,35.724265771716446,51.274112433255496,1481.6842407975346,2.551736844225161e-05,-7.983684213286324e-05,6.315789473683253,-5.684341886080801e-13,-1.1368683772161603e-12,1.8189894035458565e-11,86.94526315789182,70.0,0.0,255.0,0.0
26.15000000000023,35.724267575634975,51.274109016891146,1482.0000288179144,2.551736838540819e-05,-7.983684213286324e-05,6.315789473685072,-5.684341886080801e-13,0.0,1.8189894035458565e-11,86.30999999999707,70.0,0.0,255.0,0.0
26.20000000000023,35.7242693847239,51.27410559331173,1482.3158168392256,2.551736838540819e-05,-7.983684213286324e-05,6.315789473685072,5.684341886080801e-13,1.1368683772161603e-12,-1.8189894035458565e-11,85.67473684210233,70.0,0.0,255.0,0.0
26.25000000000023,35.72427119891768,51.27410216244738,1482.6316048651934,2.551736844225161e-05,-7.98368420191764e-05,6.315789473683253,5.684341886080801e-13,1.1368683772161603e-12,-1.8189894035458565e-11,85.03947368420756,70.0,0.0,255.0,0.0
26.30000000000023,35.72427301815012,51.274098724229155,1482.9473928902298,2.551736844225161e-05,-7.98368420191764e-05,6.315789473683253,-5.684341886080801e-13,-1.1368683772161603e-12,1.8189894035458565e-11,84.40421052631282,70.0,0.0,255.0,0.0
26.350000000000232,35.72427484235446,51.27409527858898,1483.2631809217855,2.551736838540819e-05,-7.983684213286324e-05,6.315789473685072,-5.684341886080801e-13,-1.1368683772161603e-12,1.8189894035458565e-11,83.76894736841808,70.0,0.0,255.0,0.0
26.400000000000233,35.72427667146326,51.274091825459706,1483.5789689533412,2.551736838540819e-05,-7.983684213286324e-05,6.315789473685072,1.1368683772161603e-12,0.0,-1.8189894035458565e-11,83.13368421052334,70.0,0.0,255.0,0.0
26.450000000000234,35.724278505408506,51.27408836477513,1483.8947569923475,2.5517368499095028e-05,-7.983684213286324e-05,6.315789473683253,1.1368683772161603e-12,0.0,-1.8189894035458565e-11,82.4984210526286,70.0,0.0,255.0,0.0
26.500000000000234,35.72428034412163,51.27408489646995,1484.2105450294912,2.5517368499095028e-05,-7.983684213286324e-05,6.315789473683253,-1.1368683772161603e-12,0.0,0.0,81.86315789473386,70.0,0.0,255.0,0.0
26.550000000000235,35.7242821875334,51.274081420479796,1484.526333073154,2.551736838540819e-05,-7.983684213286324e-05,6.315789473683253,-5.684341886080801e-13,0.0,1.8189894035458565e-11,81.22789473683909,70.0,0.0,255.0,0.0
26.600000000000236,35.724284035574065,51.274077936741264,1484.8421211205423,2.551736844225161e-05,-7.983684213286324e-05,6.315789473685072,5.684341886080801e-13,0.0,1.8189894035458565e-11,80.59263157894435,70.0,0.0,255.0,0.0
26.650000000000237,35.72428588817329,51.274074445191886,1485.1579091716558,2.551736844225161e-05,-7.983684213286324e-05,6.315789473685072,-5.684341886080801e-13,0.0,-1.8189894035458565e-11,79.95736842104961,70.0,0.0,255.0,0.0
26.700000000000237,35.72428774526016,51.27407094577017,1485.4736972292885,2.551736838540819e-05,-7.983684213286324e-05,6.315789473683253,-5.684341886080801e-13,1.1368683772161603e-12,-1.8189894035458565e-11,79.32210526315487,70.0,0.0,255.0,0.0
26.750000000000238,35.72428960676326,51.27406743841558,1485.7894852897152,2.551736838540819e-05,-7.98368420191764e-05,6.315789473683253,5.684341886080801e-13,1.1368683772161603e-12,1.8189894035458565e-11,78.68684210526013,70.0,0.0,255.0,0.0
26.80000000000024,35.72429147261055,51.27406392306856,1486.1052733566612,2.551736844225161e-05,-7.98368420191764e-05,6.315789473685072,5.684341886080801e-13,-1.1368683772161603e-12,1.8189894035458565e-11,78.05157894736539,70.0,0.0,255.0,0.0
26.85000000000024,35.724293342729524,51.274060399670525,1486.421061429195,2.551736844225161e-05,-7.983684213286324e-05,6.315789473685072,-5.684341886080801e-13,-1.1368683772161603e-12,-1.8189894035458565e-11,77.41631578947062,70.0,0.0,255.0,0.0
26.90000000000024,35.72429521704716,51.27405686816389,1486.7368495054543,2.551736838540819e-05,-7.983684213286324e-05,6.315789473683253,-5.684341886080801e-13,0.0,-1.8189894035458565e-11,76.78105263157588,70.0,0.0,255.0,0.0
26.95000000000024,35.724297095489845,51.27405332849208,1487.0526375910267,2.551736838540819e-05,-7.983684213286324e-05,6.315789473683253,5.684341886080801e-13,1.1368683772161603e-12,0.0,76.14578947368113,70.0,0.0,255.0,0.0
27.00000000000024,35.72429897798352,51.27404978059949,1487.3684256803244,2.551736844225161e-05,-7.98368420191764e-05,6.315789473683253,5.684341886080801e-13,1.1368683772161603e-12,1.8189894035458565e-11,75.5105263157864,70.0,0.0,255.0,0.0
27.050000000000242,35.72430086445362,51.27404622443157,1487.6842137789354,2.551736844225161e-05,-7.98368420191764e-05,6.315789473685072,-5.684341886080801e-13,-1.1368683772161603e-12,1.8189894035458565e-11,74.87526315789165,70.0,0.0,255.0,0.0
27.100000000000243,35.72430275482506,51.27404265993475,1488.000001882203,2.551736838540819e-05,-7.983684213286324e-05,6.315789473685072,-5.684341886080801e-13,-1.1368683772161603e-12,-1.8189894035458565e-11,74.23999999999691,70.0,0.0,255.0,0.0
27.150000000000244,35.724304649022336,51.27403908705649,1488.3157899919897,2.551736838540819e-05,-7.983684213286324e-05,6.315789473683253,5.684341886080801e-13,0.0,-1.8189894035458565e-11,73.60473684210214,70.0,0.0,255.0,0.0
27.200000000000244,35.724306546969416,51.27403550574528,1488.6315781101584,2.551736844225161e-05,-7.983684213286324e-05,6.315789473683253,5.684341886080801e-13,0.0,3.637978807091713e-11,72.9694736842074,70.0,0.0,255.0,0.0
27.250000000000245,35.72430844858981,51.27403191595069,1488.9473662348464,2.551736844225161e-05,-7.983684213286324e-05,6.315789473686891,-5.684341886080801e-13,0.0,3.637978807091713e-11,72.33421052631266,70.0,0.0,255.0,0.0
27.300000000000246,35.724310353806615,51.274028317623255,1489.2631543688476,2.551736838540819e-05,-7.983684213286324e-05,6.315789473686891,-5.684341886080801e-13,0.0,-3.637978807091713e-11,71.69894736841792,70.0,0.0,255.0,0.0
27.350000000000247,35.72431226254247,51.27402471071462,1489.5789425102994,2.551736838540819e-05,-7.983684213286324e-05,6.315789473683253,5.684341886080801e-13,0.0,-3.637978807091713e-11,71.06368421052318,70.0,0.0,255.0,0.0
27.400000000000247,35.72431417471955,51.274021095177474,1489.8947306638584,2.551736844225161e-05,-7.983684213286324e-05,6.315789473683253,1.1368683772161603e-12,0.0,1.8189894035458565e-11,70.42842105262841,70.0,0.0,255.0,0.0
27.450000000000248,35.72431609025965,51.274017470965525,1490.2105188211426,2.5517368499095028e-05,-7.983684213286324e-05,6.315789473685072,0.0,0.0,1.8189894035458565e-11,69.79315789473367,70.0,0.0,255.0,0.0
27.50000000000025,35.72431800908414,51.27401383803362,1490.5263069914654,2.551736844225161e-05,-7.983684213286324e-05,6.315789473685072,-5.684341886080801e-13,1.1368683772161603e-12,-1.8189894035458565e-11,69.15789473683893,70.0,0.0,255.0,0.0
27.55000000000025,35.72431993111395,51.274010196337606,1490.8420951683074,2.551736844225161e-05,-7.98368420191764e-05,6.315789473683253,0.0,1.1368683772161603e-12,-1.8189894035458565e-11,68.52263157894419,70.0,0.0,255.0,0.0
27.60000000000025,35.724321856269704,51.274006545834474,1491.157883355394,2.551736844225161e-05,-7.98368420191764e-05,6.315789473683253,-5.684341886080801e-13,-1.1368683772161603e-12,1.8189894035458565e-11,67.88736842104944,70.0,0.0,255.0,0.0
27.65000000000025,35.72432378447151,51.27400288648223,1491.4736715527251,2.551736838540819e-05,-7.983684213286324e-05,6.315789473685072,-5.684341886080801e-13,-1.1368683772161603e-12,1.8189894035458565e-11,67.2521052631547,70.0,0.0,255.0,0.0
27.70000000000025,35.724325715639246,51.27399921824002,1491.7894597612321,2.551736838540819e-05,-7.983684213286324e-05,6.315789473685072,5.684341886080801e-13,0.0,-1.8189894035458565e-11,66.61684210525993,70.0,0.0,255.0,0.0
27.750000000000252,35.72432764969231,51.273995541068054,1492.105247978121,2.551736844225161e-05,-7.983684213286324e-05,6.315789473683253,5.684341886080801e-13,0.0,-1.8189894035458565e-11,65.9815789473652,70.0,0.0,255.0,0.0
27.800000000000253,35.72432958654981,51.27399185492765,1492.4210362061858,2.551736844225161e-05,-7.983684213286324e-05,6.315789473683253,-5.684341886080801e-13,0.0,0.0,65.34631578947045,70.0,0.0,255.0,0.0
27.850000000000254,35.72433152613047,51.27398815978125,1492.7368244444951,2.551736838540819e-05,-7.983684213286324e-05,6.315789473683253,-5.684341886080801e-13,0.0,1.8189894035458565e-11,64.71105263157571,70.0,0.0,255.0,0.0
27.900000000000254,35.72433346835275,51.273984455592355,1493.0526126949117,2.551736838540819e-05,-7.983684213286324e-05,6.315789473685072,5.684341886080801e-13,0.0,1.8189894035458565e-11,64.07578947368097,70.0,0.0,255.0,0.0
27.950000000000255,35.72433541313465,51.273980742325605,1493.3684009574354,2.551736844225161e-05,-7.983684213286324e-05,6.315789473685072,5.684341886080801e-13,0.0,-1.8189894035458565e-11,63.44052631578623,70.0,0.0,255.0,0.0
28.000000000000256,35.72433736039402,51.27397701994676,1493.684189231135,2.551736844225161e-05,-7.983684213286324e-05,6.315789473683253,-5.684341886080801e-13,1.1368683772161603e-12,-1.8189894035458565e-11,62.80526315789146,70.0,0.0,255.0,0.0
28.050000000000257,35.72433931004828,51.27397328842272,1493.999977517873,2.551736838540819e-05,-7.98368420191764e-05,6.315789473683253,-5.684341886080801e-13,1.1368683772161603e-12,1.8189894035458565e-11,62.16999999999672,70.0,0.0,255.0,0.0
28.100000000000257,35.724341262014626,51.27396954772145,1494.3157658139244,2.551736838540819e-05,-7.98368420191764e-05,6.315789473685072,5.684341886080801e-13,-1.1368683772161603e-12,1.8189894035458565e-11,61.53473684210198,70.0,0.0,255.0,0.0
28.150000000000258,35.724343216209924,51.27396579781209,1494.6315541239455,2.551736844225161e-05,-7.983684213286324e-05,6.315789473685072,5.684341886080801e-13,-1.1368683772161603e-12,-1.8189894035458565e-11,60.89947368420724,70.0,0.0,255.0,0.0
28.20000000000026,35.7243451725508,51.273962038664884,1494.947342446074,2.551736844225161e-05,-7.983684213286324e-05,6.315789473683253,-5.684341886080801e-13,0.0,-1.8189894035458565e-11,60.264210526312496,70.0,0.0,255.0,0.0
28.25000000000026,35.72434713095358,51.27395827025126,1495.263130782172,2.551736838540819e-05,-7.983684213286324e-05,6.315789473683253,-5.684341886080801e-13,0.0,0.0,59.628947368417755,70.0,0.0,255.0,0.0
28.30000000000026,35.72434909133441,51.27395449254373,1495.5789191303775,2.551736838540819e-05,-7.983684213286324e-05,6.315789473683253,5.684341886080801e-13,1.1368683772161603e-12,1.8189894035458565e-11,58.993684210522986,70.0,0.0,255.0,0.0
28.35000000000026,35.72435105360909,51.27395070551598,1495.894707493484,2.551736844225161e-05,-7.98368420191764e-05,6.315789473685072,5.684341886080801e-13,1.1368683772161603e-12,1.8189894035458565e-11,58.358421052628245,70.0,0.0,255.0,0.0
28.40000000000026,35.724353017693254,51.27394690914282,1496.2104958686978,2.551736844225161e-05,-7.98368420191764e-05,6.315789473685072,0.0,-1.1368683772161603e-12,-1.8189894035458565e-11,57.723157894733504,70.0,0.0,255.0,0.0
28.450000000000262,35.724354983502316,51.27394310340023,1496.5262842588127,2.551736844225161e-05,-7.983684213286324e-05,6.315789473683253,5.684341886080801e-13,-1.1368683772161603e-12,-1.8189894035458565e-11,57.08789473683876,70.0,0.0,255.0,0.0
28.500000000000263,35.72435695095144,51.27393928826533,1496.8420726610348,2.5517368499095028e-05,-7.983684213286324e-05,6.315789473683253,0.0,0.0,3.637978807091713e-11,56.45263157894402,70.0,0.0,255.0,0.0
28.550000000000264,35.72435891995562,51.2739354637164,1497.1578610800207,2.551736844225161e-05,-7.983684213286324e-05,6.315789473686891,-1.1368683772161603e-12,0.0,1.8189894035458565e-11,55.81736842104925,70.0,0.0,255.0,0.0
28.600000000000264,35.724360890429644,51.27393162973288,1497.473649512045,2.551736838540819e-05,-7.983684213286324e-05,6.315789473685072,-5.684341886080801e-13,0.0,-5.4569682106375694e-11,55.18210526315451,70.0,0.0,255.0,0.0
28.650000000000265,35.72436286228813,51.27392778629535,1497.789437959902,2.551736838540819e-05,-7.983684213286324e-05,6.315789473681434,5.684341886080801e-13,0.0,-1.8189894035458565e-11,54.54684210525977,70.0,0.0,255.0,0.0
28.700000000000266,35.72436483544552,51.27392393338558,1498.1052264235914,2.551736844225161e-05,-7.983684213286324e-05,6.315789473683253,5.684341886080801e-13,0.0,5.4569682106375694e-11,53.91157894736503,70.0,0.0,255.0,0.0
28.750000000000266,35.72436680981607,51.273920070986485,1498.4210149031132,2.551736844225161e-05,-7.983684213286324e-05,6.315789473686891,-5.684341886080801e-13,0.0,3.637978807091713e-11,53.27631578947029,70.0,0.0,255.0,0.0
28.800000000000267,35.72436878531394,51.27391619908215,1498.7368033947423,2.551736838540819e-05,-7.983684213286324e-05,6.315789473686891,-5.684341886080801e-13,1.1368683772161603e-12,-3.637978807091713e-11,52.64105263157555,70.0,0.0,255.0,0.0
28.850000000000268,35.72437076185313,51.27391231765785,1499.0525919068605,2.551736838540819e-05,-7.98368420191764e-05,6.315789473683253,5.684341886080801e-13,1.1368683772161603e-12,-3.637978807091713e-11,52.00578947368078,70.0,0.0,255.0,0.0
28.90000000000027,35.72437273934748,51.27390842669999,1499.3683804310858,2.551736844225161e-05,-7.98368420191764e-05,6.315789473683253,5.684341886080801e-13,0.0,1.8189894035458565e-11,51.37052631578604,70.0,0.0,255.0,0.0
28.95000000000027,35.72437471771076,51.27390452619618,1499.6841689730063,2.551736844225161e-05,-7.98368420191764e-05,6.315789473685072,-0.00025517368442457943,0.0007983684201982196,-63.15789473734323,50.735263157891296,70.0,0.0,255.0,0.0
29.0,35.7243766968566,51.27390061613518,1499.9999575316906,0.0,0.0,0.0,14289.75406997026,20509.530773244573,599999.9999935022,50.1,70.0,0.0,255.0,0.0
29.00000000000027,35.7243766968566,51.27390061613518,1499.9999575316906,3.8583227611027995e-09,5.537701279845226e-09,1.620037437524234e-07,14289.75406997026,20509.530773244573,599999.9999935029,50.1,70.0,0.0,255.0,0.0
29.05000000000027,35.72437951216642,51.27390475980429,1499.9999579116702,5.630624997365885e-05,8.287333332646085e-05,0.0,0.0005630239176458378,0.0008286779573886666,-1.620037437524211e-06,50.1,70.0,0.0,255.0,0.0
29.10000000000027,35.72438232747624,51.27390890347341,1499.9999582963064,5.630625008734569e-05,8.287333344014769e-05,0.0,5.684341886080801e-13,0.0,0.0,50.1,70.0,0.0,255.0,0.0
29.150000000000272,35.72438514278607,51.27391304714252,1499.9999586781487,5.630625003050227e-05,8.287333332646085e-05,0.0,-1.1368683772161603e-12,-2.2737367544323206e-12,0.0,50.1,70.0,0.0,255.0,0.0
29.200000000000273,35.72438795809589,51.27391719081163,1499.9999590609223,5.630624997365885e-05,8.287333321277401e-05,0.0,-5.684341886080801e-13,0.0,0.0,50.1,70.0,0.0,255.0,0.0
29.250000000000274,35.724390773405716,51.27392133448074,1499.9999594436958,5.630624997365885e-05,8.287333332646085e-05,0.0,0.0,2.2737367544323206e-12,0.0,50.1,70.0,0.0,255.0,0.0
29.300000000000274,35.72439358871554,51.273925478149856,1499.999959825538,5.630624997365885e-05,8.287333344014769e-05,0.0,0.0,0.0,0.0,50.1,70.0,0.0,255.0,0.0
29.350000000000275,35.724396404025356,51.273929621818965,1499.9999602101743,5.630624997365885e-05,8.287333332646085e-05,0.0,5.684341886080801e-13,-1.1368683772161603e-12,0.0,50.1,70.0,0.0,255.0,0.0
29.400000000000276,35.72439921933518,51.27393376548808,1499.9999605910853,5.630625003050227e-05,8.287333332646085e-05,0.0,5.684341886080801e-13,1.1368683772161603e-12,0.0,50.1,70.0,0.0,255.0,0.0
29.450000000000276,35.72440203464501,51.27393790915719,1499.9999609729275,5.630625003050227e-05,8.287333344014769e-05,0.0,-5.684341886080801e-13,0.0,0.0,50.1,70.0,0.0,255.0,0.0
29.500000000000277,35.72440484995482,51.2739420528263,1499.9999613566324,5.630624997365885e-05,8.287333332646085e-05,0.0,-5.684341886080801e-13,-2.2737367544323206e-12,0.0,50.1,70.0,0.0,255.0,0.0
29.550000000000278,35.72440766526464,51.27394619649542,1499.9999617403373,5.630624997365885e-05,8.287333321277401e-05,0.0,0.0,0.0,0.0,50.1,70.0,0.0,255.0,0.0
29.60000000000028,35.72441048057448,51.273950340164525,1499.9999621221796,5.630624997365885e-05,8.287333332646085e-05,0.0,1.1368683772161603e-12,2.2737367544323206e-12,0.0,50.1,70.0,0.0,255.0,0.0
29.65000000000028,35.7244132958843,51.27395448383364,1499.9999625058845,5.630625008734569e-05,8.287333344014769e-05,0.0,5.684341886080801e-13,0.0,0.0,50.1,70.0,0.0,255.0,0.0
29.70000000000028,35.72441611119412,51.27395862750276,1499.999962888658,5.630625003050227e-05,8.287333332646085e-05,0.0,-1.1368683772161603e-12,-2.2737367544323206e-12,0.0,50.1,70.0,0.0,255.0,0.0
29.75000000000028,35.72441892650395,51.27396277117187,1499.999963269569,5.630624997365885e-05,8.287333321277401e-05,0.0,-5.684341886080801e-13,0.0,0.0,50.1,70.0,0.0,255.0,0.0
29.80000000000028,35.724421741813764,51.273966914840976,1499.9999636523426,5.630624997365885e-05,8.287333332646085e-05,0.0,0.0,2.2737367544323206e-12,0.0,50.1,70.0,0.0,255.0,0.0
29.850000000000282,35.72442455712359,51.27397105851008,1499.9999640360475,5.630624997365885e-05,8.287333344014769e-05,0.0,5.684341886080801e-13,0.0,0.0,50.1,70.0,0.0,255.0,0.0
29.900000000000283,35.72442737243341,51.2739752021792,1499.9999644178897,5.630625003050227e-05,8.287333332646085e-05,0.0,5.684341886080801e-13,-1.1368683772161603e-12,0.0,50.1,70.0,0.0,255.0,0.0
29.950000000000284,35.724430187743245,51.2739793458483,1499.9999647988006,5.630625003050227e-05,8.287333332646085e-05,0.0,-5.684341886080801e-13,0.0,0.0,50.1,70.0,0.0,255.0,0.0
30.000000000000284,35.72443300305306,51.27398348951742,1499.9999651815742,5.630624997365885e-05,8.287333332646085e-05,0.0,-5.684341886080801e-13,0.0,0.0,50.1,70.0,0.0,255.0,0.0
30.050000000000285,35.72443581836287,51.27398763318653,1499.9999655652791,5.630624997365885e-05,8.287333332646085e-05,0.0,0.0,0.0,0.0,50.1,70.0,0.0,255.0,0.0
30.100000000000286,35.7244386336727,51.273991776855645,1499.9999659480527,5.630624997365885e-05,8.287333332646085e-05,0.0,0.0,0.0,0.0,50.1,70.0,0.0,255.0,0.0
30.150000000000286,35.72444144898253,51.27399592052476,1499.9999663308263,5.630624997365885e-05,8.287333332646085e-05,0.0,1.1368683772161603e-12,0.0,0.0,50.1,70.0,0.0,255.0,0.0
30.200000000000287,35.724444264292345,51.274000064193864,1499.9999667135999,5.630625008734569e-05,8.287333332646085e-05,0.0,5.684341886080801e-13,0.0,0.0,50.1,70.0,0.0,255.0,0.0
30.250000000000288,35.72444707960217,51.27400420786297,1499.9999670954421,5.630625003050227e-05,8.287333332646085e-05,0.0,-1.1368683772161603e-12,0.0,0.0,50.1,70.0,0.0,255.0,0.0
30.30000000000029,35.724449894912,51.27400835153209,1499.9999674782157,5.630624997365885e-05,8.287333332646085e-05,0.0,-5.684341886080801e-13,0.0,0.0,50.1,70.0,0.0,255.0,0.0
30.35000000000029,35.72445271022181,51.27401249520121,1499.9999678609893,5.630624997365885e-05,8.287333332646085e-05,0.0,0.0,0.0,0.0,50.1,70.0,0.0,255.0,0.0
30.40000000000029,35.72445552553163,51.274016638870314,1499.9999682446942,5.630624997365885e-05,8.287333332646085e-05,0.0,5.684341886080801e-13,0.0,0.0,50.1,70.0,0.0,255.0,0.0
30.45000000000029,35.724458340841466,51.274020782539424,1499.999968628399,5.630625003050227e-05,8.287333332646085e-05,0.0,5.684341886080801e-13,1.1368683772161603e-12,0.0,50.1,70.0,0.0,255.0,0.0
30.50000000000029,35.724461156151285,51.27402492620855,1499.99996900931,5.630625003050227e-05,8.287333344014769e-05,0.0,-5.684341886080801e-13,0.0,0.0,50.1,70.0,0.0,255.0,0.0
30.550000000000292,35.724463971461105,51.27402906987765,1499.9999693920836,5.630624997365885e-05,8.287333332646085e-05,0.0,-5.684341886080801e-13,-2.2737367544323206e-12,0.0,50.1,70.0,0.0,255.0,0.0
30.600000000000293,35.724466786770925,51.27403321354676,1499.9999697767198,5.630624997365885e-05,8.287333321277401e-05,0.0,0.0,0.0,0.0,50.1,70.0,0.0,255.0,0.0
30.650000000000293,35.72446960208075,51.27403735721587,1499.999970158562,5.630624997365885e-05,8.287333332646085e-05,0.0,0.0,2.2737367544323206e-12,0.0,50.1,70.0,0.0,255.0,0.0
30.700000000000294,35.72447241739058,51.27404150088499,1499.999970539473,5.630624997365885e-05,8.287333344014769e-05,0.0,1.1368683772161603e-12,0.0,0.0,50.1,70.0,0.0,255.0,0.0
30.750000000000295,35.72447523270039,51.27404564455409,1499.999970923178,5.630625008734569e-05,8.287333332646085e-05,0.0,5.684341886080801e-13,-2.2737367544323206e-12,0.0,50.1,70.0,0.0,255.0,0.0
30.800000000000296,35.724478048010226,51.27404978822321,1499.9999713050202,5.630625003050227e-05,8.287333321277401e-05,0.0,-1.1368683772161603e-12,0.0,0.0,50.1,70.0,0.0,255.0,0.0
30.850000000000296,35.72448086332005,51.27405393189232,1499.9999716868624,5.630624997365885e-05,8.287333332646085e-05,0.0,-5.684341886080801e-13,2.2737367544323206e-12,0.0,50.1,70.0,0.0,255.0,0.0
30.900000000000297,35.724483678629866,51.274058075561435,1499.9999720714986,5.630624997365885e-05,8.287333344014769e-05,0.0,0.0,0.0,0.0,50.1,70.0,0.0,255.0,0.0
30.950000000000298,35.724486493939686,51.274062219230544,1499.9999724524096,5.630624997365885e-05,8.287333332646085e-05,0.0,5.684341886080801e-13,-1.1368683772161603e-12,0.0,50.1,70.0,0.0,255.0,0.0
31.0000000000003,35.72448930924952,51.27406636289965,1499.9999728342518,5.630625003050227e-05,8.287333332646085e-05,0.0,5.684341886080801e-13,1.1368683772161603e-12,0.0,50.1,70.0,0.0,255.0,0.0
31.0500000000003,35.72449212455934,51.27407050656877,1499.999973218888,5.630625003050227e-05,8.287333344014769e-05,0.0,-5.684341886080801e-13,0.0,0.0,50.1,70.0,0.0,255.0,0.0
31.1000000000003,35.72449493986916,51.27407465023788,1499.9999736016616,5.630624997365885e-05,8.287333332646085e-05,0.0,-5.684341886080801e-13,-2.2737367544323206e-12,0.0,50.1,70.0,0.0,255.0,0.0
31.1500000000003,35.72449775517898,51.27407879390699,1499.9999739835039,5.630624997365885e-05,8.287333321277401e-05,0.0,0.0,0.0,0.0,50.1,70.0,0.0,255.0,0.0
31.2000000000003,35.7245005704888,51.274082937576104,1499.99997436814,5.630624997365885e-05,8.287333332646085e-05,0.0,5.684341886080801e-13,2.2737367544323206e-12,0.0,50.1,70.0,0.0,255.0,0.0
31.250000000000302,35.72450338579862,51.274087081245206,1499.999974749051,5.630625003050227e-05,8.287333344014769e-05,0.0,1.1368683772161603e-12,0.0,0.0,50.1,70.0,0.0,255.0,0.0
31.300000000000303,35.72450620110846,51.27409122491433,1499.9999751318246,5.630625008734569e-05,8.287333332646085e-05,0.0,-5.684341886080801e-13,-2.2737367544323206e-12,0.0,50.1,70.0,0.0,255.0,0.0
31.350000000000303,35.72450901641828,51.27409536858344,1499.9999755145982,5.630624997365885e-05,8.287333321277401e-05,0.0,-1.1368683772161603e-12,0.0,0.0,50.1,70.0,0.0,255.0,0.0
31.400000000000304,35.7245118317281,51.27409951225255,1499.9999758973718,5.630624997365885e-05,8.287333332646085e-05,0.0,0.0,2.2737367544323206e-12,0.0,50.1,70.0,0.0,255.0,0.0
31.450000000000305,35.724514647037914,51.27410365592165,1499.9999762810767,5.630624997365885e-05,8.287333344014769e-05,0.0,0.0,0.0,0.0,50.1,70.0,0.0,255.0,0.0
31.500000000000306,35.72451746234774,51.27410779959077,1499.9999766619876,5.630624997365885e-05,8.287333332646085e-05,0.0,5.684341886080801e-13,-1.1368683772161603e-12,0.0,50.1,70.0,0.0,255.0,0.0
31.550000000000306,35.72452027765757,51.27411194325988,1499.9999770447612,5.630625003050227e-05,8.287333332646085e-05,0.0,5.684341886080801e-13,0.0,0.0,50.1,70.0,0.0,255.0,0.0
31.600000000000307,35.72452309296739,51.27411608692899,1499.9999774266034,5.630625003050227e-05,8.287333332646085e-05,0.0,-5.684341886080801e-13,0.0,0.0,50.1,70.0,0.0,255.0,0.0
31.650000000000308,35.724525908277215,51.27412023059811,1499.9999778112397,5.630624997365885e-05,8.287333332646085e-05,0.0,-5.684341886080801e-13,0.0,0.0,50.1,70.0,0.0,255.0,0.0
31.70000000000031,35.72452872358703,51.27412437426722,1499.999978193082,5.630624997365885e-05,8.287333332646085e-05,0.0,0.0,0.0,0.0,50.1,70.0,0.0,255.0,0.0
31.75000000000031,35.72453153889685,51.27412851793633,1499.9999785758555,5.630624997365885e-05,8.287333332646085e-05,0.0,5.684341886080801e-13,0.0,0.0,50.1,70.0,0.0,255.0,0.0
31.80000000000031,35.724534354206675,51.27413266160545,1499.999978955835,5.630625003050227e-05,8.287333332646085e-05,0.0,1.1368683772161603e-12,0.0,0.0,50.1,70.0,0.0,255.0,0.0
31.85000000000031,35.7245371695165,51.27413680527455,1499.9999793414026,5.630625008734569e-05,8.287333332646085e-05,0.0,-5.684341886080801e-13,0.0,0.0,50.1,70.0,0.0,255.0,0.0
31.90000000000031,35.724539984826336,51.27414094894367,1499.9999797223136,5.630624997365885e-05,8.287333332646085e-05,0.0,-1.1368683772161603e-12,0.0,0.0,50.1,70.0,0.0,255.0,0.0
31.950000000000312,35.72454280013614,51.274145092612784,1499.9999801060185,5.630624997365885e-05,8.287333332646085e-05,0.0,0.0,0.0,0.0,50.1,70.0,0.0,255.0,0.0
32.00000000000031,35.724545615445976,51.274149236281886,1499.9999804897234,5.630624997365885e-05,8.287333332646085e-05,0.0,0.0,0.0,0.0,50.1,70.0,0.0,255.0,0.0
32.05000000000031,35.72454843075579,51.27415337995099,1499.999980869703,5.630624997365885e-05,8.287333332646085e-05,0.0,5.684341886080801e-13,-1.0842021724855044e-19,0.0,50.1,70.0,0.0,255.0,0.0
32.100000000000314,35.72455124606561,51.27415752362011,1499.999981253408,5.630625003050227e-05,8.287333332646085e-05,0.0,5.684341886080801e-13,0.0,0.0,50.1,70.0,0.0,255.0,0.0
32.15000000000032,35.72455406137544,51.27416166728923,1499.9999816361815,5.630625003050227e-05,8.287333332646085e-05,0.0,-5.684341886080801e-13,1.0842021724855044e-19,0.0,50.1,70.0,0.0,255.0,0.0
32.200000000000315,35.72455687668526,51.27416581095833,1499.9999820198864,5.630624997365885e-05,8.287333332646085e-05,0.0,-5.684341886080801e-13,0.0,0.0,50.1,70.0,0.0,255.0,0.0
32.25000000000031,35.72455969199508,51.274169954627446,1499.9999824007973,5.630624997365885e-05,8.287333332646085e-05,0.0,0.0,-1.0842021724855044e-19,0.0,50.1,70.0,0.0,255.0,0.0
32.30000000000032,35.7245625073049,51.274174098296555,1499.9999827835709,5.630624997365885e-05,8.287333332646085e-05,0.0,5.684341886080801e-13,0.0,0.0,50.1,70.0,0.0,255.0,0.0
32.35000000000032,35.72456532261472,51.27417824196567,1499.999983168207,5.630625003050227e-05,8.287333332646085e-05,0.0,5.684341886080801e-13,1.0842021724855044e-19,0.0,50.1,70.0,0.0,255.0,0.0
32.40000000000032,35.724568137924564,51.27418238563478,1499.999983549118,5.630625003050227e-05,8.287333332646085e-05,0.0,-5.684341886080801e-13,0.0,0.0,50.1,70.0,0.0,255.0,0.0
32.450000000000315,35.72457095323438,51.2741865293039,1499.999983932823,5.630624997365885e-05,8.287333332646085e-05,0.0,-5.684341886080801e-13,-1.0842021724855044e-19,0.0,50.1,70.0,0.0,255.0,0.0
32.50000000000032,35.72457376854421,51.27419067297301,1499.9999843146652,5.630624997365885e-05,8.287333332646085e-05,0.0,0.0,0.0,0.0,50.1,70.0,0.0,255.0,0.0
32.550000000000324,35.724576583854024,51.274194816642115,1499.9999846965075,5.630624997365885e-05,8.287333332646085e-05,0.0,5.684341886080801e-13,1.0842021724855044e-19,0.0,50.1,70.0,0.0,255.0,0.0
32.60000000000032,35.724579399163844,51.27419896031124,1499.999985079281,5.630625003050227e-05,8.287333332646085e-05,0.0,5.684341886080801e-13,1.1368683772161603e-12,0.0,50.1,70.0,0.0,255.0,0.0
32.65000000000032,35.724582214473664,51.27420310398034,1499.9999854639173,5.630625003050227e-05,8.287333344014769e-05,0.0,-5.684341886080801e-13,-1.0842021724855044e-19,0.0,50.1,70.0,0.0,255.0,0.0
32.70000000000032,35.7245850297835,51.27420724764945,1499.9999858457595,5.630624997365885e-05,8.287333332646085e-05,0.0,0.0,-2.2737367544323206e-12,0.0,50.1,70.0,0.0,255.0,0.0
32.75000000000033,35.724587845093325,51.274211391318566,1499.999986228533,5.630625003050227e-05,8.287333321277401e-05,0.0,0.0,1.0842021724855044e-19,0.0,50.1,70.0,0.0,255.0,0.0
32.800000000000324,35.72459066040313,51.274215534987675,1499.9999866113067,5.630624997365885e-05,8.287333332646085e-05,0.0,-1.1368683772161603e-12,2.2737367544323206e-12,0.0,50.1,70.0,0.0,255.0,0.0
32.85000000000032,35.72459347571295,51.274219678656785,1499.9999869940802,5.630624991681543e-05,8.287333344014769e-05,0.0,1.1368683772161603e-12,1.136868268795943e-12,0.0,50.1,70.0,0.0,255.0,0.0
32.900000000000325,35.72459629102278,51.274223822325894,1499.9999873759225,5.630625008734569e-05,8.287333344014769e-05,0.0,1.7053025658242404e-12,-2.2737367544323206e-12,0.0,50.1,70.0,0.0,255.0,0.0
32.95000000000033,35.724599106332604,51.27422796599502,1499.9999877577648,5.630625008734569e-05,8.287333321277401e-05,0.0,-1.1368683772161603e-12,-1.136868268795943e-12,0.0,50.1,70.0,0.0,255.0,0.0
33.00000000000033,35.72460192164242,51.27423210966411,1499.9999881414697,5.630624997365885e-05,8.287333332646085e-05,0.0,-1.1368683772161603e-12,2.2737367544323206e-12,0.0,50.1,70.0,0.0,255.0,0.0
33.050000000000324,35.72460473695225,51.27423625333323,1499.999988523312,5.630624997365885e-05,8.287333344014769e-05,0.0,0.0,1.136868268795943e-12,0.0,50.1,70.0,0.0,255.0,0.0
33.10000000000033,35.724607552262064,51.274240397002345,1499.9999889070168,5.630624997365885e-05,8.287333344014769e-05,0.0,5.684341886080801e-13,-2.2737367544323206e-12,0.0,50.1,70.0,0.0,255.0,0.0
33.15000000000033,35.72461036757189,51.27424454067146,1499.9999892897904,5.630625003050227e-05,8.287333321277401e-05,0.0,5.684341886080801e-13,-2.2737366460121033e-12,0.0,50.1,70.0,0.0,255.0,0.0
33.20000000000033,35.724613182881725,51.27424868434057,1499.9999896716326,5.630625003050227e-05,8.287333321277401e-05,0.0,-5.684341886080801e-13,2.2737367544323206e-12,0.0,50.1,70.0,0.0,255.0,0.0
33.25000000000033,35.72461599819155,51.27425282800967,1499.999990053475,5.630624997365885e-05,8.287333344014769e-05,0.0,-5.684341886080801e-13,2.2737366460121033e-12,0.0,50.1,70.0,0.0,255.0,0.0
33.30000000000033,35.724618813501365,51.274256971678795,1499.9999904353172,5.630624997365885e-05,8.287333344014769e-05,0.0,0.0,-1.1368683772161603e-12,0.0,50.1,70.0,0.0,255.0,0.0
33.350000000000335,35.724621628811185,51.2742611153479,1499.9999908199534,5.630624997365885e-05,8.287333332646085e-05,0.0,5.684341886080801e-13,-2.2737366460121033e-12,0.0,50.1,70.0,0.0,255.0,0.0
33.40000000000033,35.724624444121005,51.27426525901702,1499.999991202727,5.630625003050227e-05,8.287333321277401e-05,0.0,5.684341886080801e-13,0.0,0.0,50.1,70.0,0.0,255.0,0.0
33.45000000000033,35.72462725943083,51.27426940268612,1499.9999915845692,5.630625003050227e-05,8.287333332646085e-05,0.0,-5.684341886080801e-13,1.136868268795943e-12,0.0,50.1,70.0,0.0,255.0,0.0
33.500000000000334,35.72463007474066,51.27427354635524,1499.9999919673428,5.630624997365885e-05,8.287333332646085e-05,0.0,-5.684341886080801e-13,0.0,0.0,50.1,70.0,0.0,255.0,0.0
33.55000000000034,35.72463289005048,51.274277690024356,1499.9999923501164,5.630624997365885e-05,8.287333332646085e-05,0.0,0.0,1.0842021724855044e-19,0.0,50.1,70.0,0.0,255.0,0.0
33.600000000000335,35.7246357053603,51.27428183369346,1499.999992730096,5.630624997365885e-05,8.287333332646085e-05,0.0,0.0,0.0,0.0,50.1,70.0,0.0,255.0,0.0
33.65000000000033,35.72463852067012,51.274285977362574,1499.9999931165949,5.630624997365885e-05,8.287333332646085e-05,0.0,5.684341886080801e-13,-1.0842021724855044e-19,0.0,50.1,70.0,0.0,255.0,0.0
33.70000000000034,35.724641335979946,51.27429012103168,1499.9999934975058,5.630625003050227e-05,8.287333332646085e-05,0.0,1.1368683772161603e-12,0.0,0.0,50.1,70.0,0.0,255.0,0.0
33.75000000000034,35.724644151289766,51.2742942647008,1499.999993879348,5.630625008734569e-05,8.287333332646085e-05,0.0,-5.684341886080801e-13,1.0842021724855044e-19,0.0,50.1,70.0,0.0,255.0,0.0
33.80000000000034,35.72464696659959,51.27429840836991,1499.999994263053,5.630624997365885e-05,8.287333332646085e-05,0.0,-1.7053025658242404e-12,0.0,0.0,50.1,70.0,0.0,255.0,0.0
33.850000000000335,35.72464978190941,51.27430255203902,1499.9999946458265,5.630624991681543e-05,8.287333332646085e-05,0.0,0.0,-1.0842021724855044e-19,0.0,50.1,70.0,0.0,255.0,0.0
33.90000000000034,35.72465259721924,51.274306695708134,1499.9999950276688,5.630624997365885e-05,8.287333332646085e-05,0.0,1.7053025658242404e-12,0.0,0.0,50.1,70.0,0.0,255.0,0.0
33.950000000000344,35.72465541252906,51.27431083937724,1499.9999954113737,5.630625008734569e-05,8.287333332646085e-05,0.0,1.1368683772161603e-12,1.0842021724855044e-19,0.0,50.1,70.0,0.0,255.0,0.0
34.00000000000034,35.72465822783889,51.27431498304635,1499.9999957941473,5.630625008734569e-05,8.287333332646085e-05,0.0,-1.1368683772161603e-12,0.0,0.0,50.1,70.0,0.0,255.0,0.0
34.05000000000034,35.72466104314871,51.27431912671547,1499.9999961769208,5.630624997365885e-05,8.287333332646085e-05,0.0,-1.1368683772161603e-12,-1.0842021724855044e-19,0.0,50.1,70.0,0.0,255.0,0.0
34.10000000000034,35.72466385845854,51.274323270384585,1499.999996558763,5.630624997365885e-05,8.287333332646085e-05,0.0,0.0,0.0,0.0,50.1,70.0,0.0,255.0,0.0
34.15000000000035,35.724666673768354,51.274327414053694,1499.9999969406053,5.630624997365885e-05,8.287333332646085e-05,0.0,0.0,1.0842021724855044e-19,0.0,50.1,70.0,0.0,255.0,0.0
34.200000000000344,35.72466948907817,51.274331557722796,1499.9999973243102,5.630624997365885e-05,8.287333332646085e-05,0.0,5.684341886080801e-13,1.1368683772161603e-12,0.0,50.1,70.0,0.0,255.0,0.0
34.25000000000034,35.724672304388,51.27433570139191,1499.9999977080151,5.630625003050227e-05,8.287333344014769e-05,0.0,5.684341886080801e-13,-1.0842021724855044e-19,0.0,50.1,70.0,0.0,255.0,0.0
34.300000000000345,35.72467511969783,51.27433984506102,1499.999998088926,5.630625003050227e-05,8.287333332646085e-05,0.0,-5.684341886080801e-13,-2.2737367544323206e-12,0.0,50.1,70.0,0.0,255.0,0.0
34.35000000000035,35.72467793500764,51.27434398873014,1499.9999984707683,5.630624997365885e-05,8.287333321277401e-05,0.0,-5.684341886080801e-13,1.0842021724855044e-19,0.0,50.1,70.0,0.0,255.0,0.0
34.40000000000035,35.72468075031747,51.274348132399254,1499.9999988544732,5.630624997365885e-05,8.287333332646085e-05,0.0,0.0,2.2737367544323206e-12,0.0,50.1,70.0,0.0,255.0,0.0
34.450000000000344,35.72468356562729,51.27435227606836,1499.9999992372468,5.630624997365885e-05,8.287333344014769e-05,0.0,5.684341886080801e-13,1.136868268795943e-12,0.0,50.1,70.0,0.0,255.0,0.0
34.50000000000035,35.72468638093711,51.27435641973747,1499.9999996209517,5.630625003050227e-05,8.287333344014769e-05,0.0,5.684341886080801e-13,-2.2737367544323206e-12,0.0,50.1,70.0,0.0,255.0,0.0
34.55000000000035,35.724689196246935,51.27436056340658,1500.000000002794,5.630625003050227e-05,8.287333321277401e-05,0.0,-5.684341886080801e-13,-1.136868268795943e-12,0.0,50.1,70.0,0.0,255.0,0.0
34.60000000000035,35.724692011556755,51.2743647070757,1500.0000003846362,5.630624997365885e-05,8.287333332646085e-05,0.0,-5.684341886080801e-13,2.2737367544323206e-12,0.0,50.1,70.0,0.0,255.0,0.0
34.65000000000035,35.724694826866575,51.2743688507448,1500.0000007692724,5.630624997365885e-05,8.287333344014769e-05,0.0,0.0,1.136868268795943e-12,0.0,50.1,70.0,0.0,255.0,0.0
34.70000000000035,35.72469764217641,51.27437299441393,1500.000001149252,5.630624997365885e-05,8.287333344014769e-05,0.0,1.1368683772161603e-12,-2.2737367544323206e-12,0.0,50.1,70.0,0.0,255.0,0.0
34.750000000000355,35.72470045748623,51.27437713808303,1500.000001532957,5.630625008734569e-05,8.287333321277401e-05,0.0,5.684341886080801e-13,-2.2737366460121033e-12,0.0,50.1,70.0,0.0,255.0,0.0
34.80000000000035,35.724703272796056,51.27438128175215,1500.0000019147992,5.630625003050227e-05,8.287333321277401e-05,0.0,-1.7053025658242404e-12,2.2737367544323206e-12,0.0,50.1,70.0,0.0,255.0,0.0
34.85000000000035,35.724706088105876,51.27438542542125,1500.0000022985041,5.630624991681543e-05,8.287333344014769e-05,0.0,-5.684341886080801e-13,2.2737366460121033e-12,0.0,50.1,70.0,0.0,255.0,0.0
34.900000000000354,35.724708903415696,51.27438956909037,1500.0000026812777,5.630624997365885e-05,8.287333344014769e-05,0.0,1.1368683772161603e-12,-1.1368683772161603e-12,0.0,50.1,70.0,0.0,255.0,0.0
34.95000000000036,35.72471171872552,51.274393712759476,1500.0000030640513,5.630625003050227e-05,8.287333332646085e-05,0.0,0.0,-2.2737366460121033e-12,0.0,50.1,70.0,0.0,255.0,0.0
35.000000000000355,35.72471453403534,51.27439785642858,1500.0000034468248,5.630624997365885e-05,8.287333321277401e-05,0.0,0.0,0.0,0.0,50.1,70.0,0.0,255.0,0.0
35.05000000000035,35.724717349345156,51.274402000097695,1500.0000038305297,5.630625003050227e-05,8.287333332646085e-05,0.0,1.1368683772161603e-12,1.136868268795943e-12,0.0,50.1,70.0,0.0,255.0,0.0
35.10000000000036,35.72472016465498,51.27440614376681,1500.0000042114407,5.630625008734569e-05,8.287333332646085e-05,0.0,-5.684341886080801e-13,0.0,0.0,50.1,70.0,0.0,255.0,0.0
35.15000000000036,35.72472297996481,51.27441028743593,1500.000004593283,5.630624997365885e-05,8.287333332646085e-05,0.0,-1.1368683772161603e-12,1.0842021724855044e-19,0.0,50.1,70.0,0.0,255.0,0.0
35.20000000000036,35.72472579527462,51.274414431105036,1500.0000049769878,5.630624997365885e-05,8.287333332646085e-05,0.0,0.0,0.0,0.0,50.1,70.0,0.0,255.0,0.0
35.250000000000355,35.724728610584464,51.274418574774145,1500.0000053597614,5.630624997365885e-05,8.287333332646085e-05,0.0,5.684341886080801e-13,-1.0842021724855044e-19,0.0,50.1,70.0,0.0,255.0,0.0
35.30000000000036,35.72473142589427,51.27442271844326,1500.000005742535,5.630625003050227e-05,8.287333332646085e-05,0.0,5.684341886080801e-13,0.0,0.0,50.1,70.0,0.0,255.0,0.0
35.350000000000364,35.72473424120411,51.27442686211237,1500.0000061243773,5.630625003050227e-05,8.287333332646085e-05,0.0,-5.684341886080801e-13,1.0842021724855044e-19,0.0,50.1,70.0,0.0,255.0,0.0
35.40000000000036,35.72473705651392,51.27443100578149,1500.0000065071508,5.630624997365885e-05,8.287333332646085e-05,0.0,-5.684341886080801e-13,0.0,0.0,50.1,70.0,0.0,255.0,0.0
35.45000000000036,35.72473987182375,51.27443514945059,1500.0000068908557,5.630624997365885e-05,8.287333332646085e-05,0.0,0.0,-1.0842021724855044e-19,0.0,50.1,70.0,0.0,255.0,0.0
35.50000000000036,35.72474268713357,51.274439293119705,1500.000007272698,5.630624997365885e-05,8.287333332646085e-05,0.0,0.0,0.0,0.0,50.1,70.0,0.0,255.0,0.0
35.55000000000037,35.72474550244339,51.274443436788815,1500.0000076564029,5.630624997365885e-05,8.287333332646085e-05,0.0,5.684341886080801e-13,1.0842021724855044e-19,0.0,50.1,70.0,0.0,255.0,0.0
35.600000000000364,35.72474831775321,51.274447580457924,1500.0000080382451,5.630625003050227e-05,8.287333332646085e-05,0.0,5.684341886080801e-13,0.0,0.0,50.1,70.0,0.0,255.0,0.0
35.65000000000036,35.72475113306304,51.27445172412703,1500.0000084210187,5.630625003050227e-05,8.287333332646085e-05,0.0,-5.684341886080801e-13,-1.0842021724855044e-19,0.0,50.1,70.0,0.0,255.0,0.0
35.700000000000365,35.72475394837285,51.27445586779615,1500.0000088037923,5.630624997365885e-05,8.287333332646085e-05,0.0,-5.684341886080801e-13,0.0,0.0,50.1,70.0,0.0,255.0,0.0
35.75000000000037,35.72475676368268,51.274460011465266,1500.0000091865659,5.630624997365885e-05,8.287333332646085e-05,0.0,0.0,1.0842021724855044e-19,0.0,50.1,70.0,0.0,255.0,0.0
35.80000000000037,35.7247595789925,51.274464155134375,1500.0000095684081,5.630624997365885e-05,8.287333332646085e-05,0.0,5.684341886080801e-13,1.1368683772161603e-12,0.0,50.1,70.0,0.0,255.0,0.0
35.850000000000364,35.724762394302324,51.27446829880349,1500.0000099502504,5.630625003050227e-05,8.287333344014769e-05,0.0,5.684341886080801e-13,-1.0842021724855044e-19,0.0,50.1,70.0,0.0,255.0,0.0
35.90000000000037,35.72476520961215,51.2744724424726,1500.0000103339553,5.630625003050227e-05,8.287333332646085e-05,0.0,0.0,-2.2737367544323206e-12,0.0,50.1,70.0,0.0,255.0,0.0
35.95000000000037,35.72476802492198,51.27447658614171,1500.0000107157975,5.630625003050227e-05,8.287333321277401e-05,0.0,-5.684341886080801e-13,1.0842021724855044e-19,0.0,50.1,70.0,0.0,255.0,0.0
36.00000000000037,35.7247708402318,51.274480729810826,1500.0000110995024,5.630624997365885e-05,8.287333332646085e-05,0.0,-1.1368683772161603e-12,2.2737367544323206e-12,0.0,50.1,70.0,0.0,255.0,0.0
36.05000000000037,35.72477365554162,51.274484873479935,1500.0000114813447,5.630624991681543e-05,8.287333344014769e-05,0.0,1.1368683772161603e-12,1.136868268795943e-12,0.0,50.1,70.0,0.0,255.0,0.0
36.10000000000037,35.724776470851445,51.274489017149044,1500.000011865981,5.630625008734569e-05,8.287333344014769e-05,0.0,1.7053025658242404e-12,-2.2737367544323206e-12,0.0,50.1,70.0,0.0,255.0,0.0
36.150000000000375,35.72477928616127,51.27449316081816,1500.0000122468919,5.630625008734569e-05,8.287333321277401e-05,0.0,-1.1368683772161603e-12,-1.136868268795943e-12,0.0,50.1,70.0,0.0,255.0,0.0
36.20000000000037,35.724782101471085,51.27449730448727,1500.0000126296654,5.630624997365885e-05,8.287333332646085e-05,0.0,-1.1368683772161603e-12,2.2737367544323206e-12,0.0,50.1,70.0,0.0,255.0,0.0
36.25000000000037,35.72478491678091,51.27450144815638,1500.000013012439,5.630624997365885e-05,8.287333344014769e-05,0.0,0.0,1.136868268795943e-12,0.0,50.1,70.0,0.0,255.0,0.0
36.300000000000374,35.72478773209073,51.2745055918255,1500.0000133952126,5.630624997365885e-05,8.287333344014769e-05,0.0,0.0,-2.2737367544323206e-12,0.0,50.1,70.0,0.0,255.0,0.0
36.35000000000038,35.72479054740055,51.274509735494604,1500.0000137761235,5.630624997365885e-05,8.287333321277401e-05,0.0,5.684341886080801e-13,-2.2737366460121033e-12,0.0,50.1,70.0,0.0,255.0,0.0
36.400000000000375,35.72479336271038,51.274513879163706,1500.0000141598284,5.630625003050227e-05,8.287333321277401e-05,0.0,5.684341886080801e-13,2.2737367544323206e-12,0.0,50.1,70.0,0.0,255.0,0.0
36.45000000000037,35.72479617802021,51.27451802283283,1500.000014542602,5.630625003050227e-05,8.287333344014769e-05,0.0,-5.684341886080801e-13,2.2737366460121033e-12,0.0,50.1,70.0,0.0,255.0,0.0
36.50000000000038,35.724798993330026,51.274522166501946,1500.0000149253756,5.630624997365885e-05,8.287333344014769e-05,0.0,-5.684341886080801e-13,-1.1368683772161603e-12,0.0,50.1,70.0,0.0,255.0,0.0
36.55000000000038,35.724801808639846,51.27452631017105,1500.0000153072178,5.630624997365885e-05,8.287333332646085e-05,0.0,0.0,-2.2737366460121033e-12,0.0,50.1,70.0,0.0,255.0,0.0
36.60000000000038,35.72480462394965,51.27453045384016,1500.000015691854,5.630624997365885e-05,8.287333321277401e-05,0.0,5.684341886080801e-13,0.0,0.0,50.1,70.0,0.0,255.0,0.0
36.650000000000375,35.72480743925949,51.27453459750927,1500.000016072765,5.630625003050227e-05,8.287333332646085e-05,0.0,5.684341886080801e-13,1.136868268795943e-12,0.0,50.1,70.0,0.0,255.0,0.0
36.70000000000038,35.72481025456932,51.2745387411784,1500.0000164546072,5.630625003050227e-05,8.287333332646085e-05,0.0,-5.684341886080801e-13,0.0,0.0,50.1,70.0,0.0,255.0,0.0
36.750000000000384,35.72481306987914,51.2745428848475,1500.0000168383121,5.630624997365885e-05,8.287333332646085e-05,0.0,-5.684341886080801e-13,1.0842021724855044e-19,0.0,50.1,70.0,0.0,255.0,0.0
36.80000000000038,35.72481588518897,51.274547028516615,1500.0000172210857,5.630624997365885e-05,8.287333332646085e-05,0.0,0.0,0.0,0.0,50.1,70.0,0.0,255.0,0.0
36.85000000000038,35.72481870049879,51.27455117218572,1500.000017602928,5.630624997365885e-05,8.287333332646085e-05,0.0,0.0,-1.0842021724855044e-19,0.0,50.1,70.0,0.0,255.0,0.0
36.90000000000038,35.7248215158086,51.27455531585483,1500.0000179875642,5.630624997365885e-05,8.287333332646085e-05,0.0,1.1368683772161603e-12,0.0,0.0,50.1,70.0,0.0,255.0,0.0
36.95000000000039,35.72482433111842,51.27455945952395,1500.0000183694065,5.630625008734569e-05,8.287333332646085e-05,0.0,5.684341886080801e-13,1.0842021724855044e-19,0.0,50.1,70.0,0.0,255.0,0.0
37.000000000000384,35.72482714642826,51.27456360319306,1500.0000187512487,5.630625003050227e-05,8.287333332646085e-05,0.0,-1.7053025658242404e-12,0.0,0.0,50.1,70.0,0.0,255.0,0.0
37.05000000000038,35.724829961738074,51.27456774686216,1500.0000191349536,5.630624991681543e-05,8.287333332646085e-05,0.0,-5.684341886080801e-13,-1.0842021724855044e-19,0.0,50.1,70.0,0.0,255.0,0.0
37.100000000000385,35.724832777047894,51.27457189053128,1500.0000195167959,5.630624997365885e-05,8.287333332646085e-05,0.0,1.1368683772161603e-12,0.0,0.0,50.1,70.0,0.0,255.0,0.0
37.15000000000039,35.724835592357735,51.27457603420039,1500.0000198977068,5.630625003050227e-05,8.287333332646085e-05,0.0,1.1368683772161603e-12,1.0842021724855044e-19,0.0,50.1,70.0,0.0,255.0,0.0
37.20000000000039,35.72483840766754,51.2745801778695,1500.000020282343,5.630625008734569e-05,8.287333332646085e-05,0.0,0.0,0.0,0.0,50.1,70.0,0.0,255.0,0.0
37.250000000000384,35.72484122297737,51.27458432153861,1500.0000206641853,5.630625003050227e-05,8.287333332646085e-05,0.0,-1.1368683772161603e-12,-1.0842021724855044e-19,0.0,50.1,70.0,0.0,255.0,0.0
37.30000000000039,35.72484403828719,51.274588465207735,1500.0000210478902,5.630624997365885e-05,8.287333332646085e-05,0.0,-5.684341886080801e-13,0.0,0.0,50.1,70.0,0.0,255.0,0.0
37.35000000000039,35.724846853597015,51.27459260887684,1500.0000214306638,5.630624997365885e-05,8.287333332646085e-05,0.0,0.0,1.0842021724855044e-19,0.0,50.1,70.0,0.0,255.0,0.0
37.40000000000039,35.72484966890683,51.274596752545946,1500.0000218115747,5.630624997365885e-05,8.287333332646085e-05,0.0,5.684341886080801e-13,1.1368683772161603e-12,0.0,50.1,70.0,0.0,255.0,0.0
37.45000000000039,35.72485248421666,51.27460089621506,1500.000022196211,5.630625003050227e-05,8.287333344014769e-05,0.0,5.684341886080801e-13,-1.0842021724855044e-19,0.0,50.1,70.0,0.0,255.0,0.0
37.50000000000039,35.72485529952649,51.27460503988418,1500.0000225789845,5.630625003050227e-05,8.287333332646085e-05,0.0,-5.684341886080801e-13,-2.2737367544323206e-12,0.0,50.1,70.0,0.0,255.0,0.0
37.550000000000395,35.7248581148363,51.27460918355329,1500.0000229608268,5.630624997365885e-05,8.287333321277401e-05,0.0,-5.684341886080801e-13,1.0842021724855044e-19,0.0,50.1,70.0,0.0,255.0,0.0
37.60000000000039,35.72486093014613,51.2746133272224,1500.0000233436003,5.630624997365885e-05,8.287333332646085e-05,0.0,0.0,2.2737367544323206e-12,0.0,50.1,70.0,0.0,255.0,0.0
37.65000000000039,35.72486374545596,51.274617470891506,1500.000023726374,5.630624997365885e-05,8.287333344014769e-05,0.0,0.0,1.136868268795943e-12,0.0,50.1,70.0,0.0,255.0,0.0
