t,lat,lon,alt,vx,vy,vz,ax,ay,az,yaw,mode,ledr,ledg,ledb
10.0,35.698442507826094,51.26868775079475,1320.000459088944,-6.898589290926696e-05,-2.104821433590557e-05,0.0,1.7052830501851115e-12,5.684282254961234e-13,0.0,193.9,70.0,0.0,255.0,0.0
10.05,35.698439016891676,51.268686613888974,1320.0004588272423,-6.89858928240028e-05,-2.104821430748416e-05,0.0,8.526415250925679e-13,1.421082489964226e-12,0.0,193.82758928571428,70.0,0.0,255.0,0.0
10.100000000000001,35.69843552587022,51.268685477047775,1320.000458563678,-6.89858928240028e-05,-2.104821419379732e-05,0.0,-5.684341886080801e-13,0.0,0.0,193.7551785714286,70.0,0.0,255.0,0.0
10.150000000000002,35.69843203476171,51.2686843402713,1320.000458301045,-6.898589288084622e-05,-2.104821430748416e-05,0.0,0.0,-1.1368683772161603e-12,0.0,193.68276785714286,70.0,0.0,255.0,0.0
10.200000000000003,35.69842854356629,51.26868320355968,1320.0004580393434,-6.89858928240028e-05,-2.104821430748416e-05,0.0,0.0,0.0,0.0,193.61035714285714,70.0,0.0,255.0,0.0
10.250000000000004,35.698425052283994,51.268682066913065,1320.0004577776417,-6.898589288084622e-05,-2.104821430748416e-05,0.0,-5.684341886080801e-13,0.0,0.0,193.53794642857142,70.0,0.0,255.0,0.0
10.300000000000004,35.69842156091488,51.268680930331584,1320.00045751594,-6.898589288084622e-05,-2.104821430748416e-05,0.0,5.684341886080801e-13,1.1368683772161603e-12,0.0,193.46553571428572,70.0,0.0,255.0,0.0
10.350000000000005,35.69841806945903,51.26867979381535,1320.000457256101,-6.89858928240028e-05,-2.104821419379732e-05,0.0,0.0,0.0,0.0,193.393125,70.0,0.0,255.0,0.0
10.400000000000006,35.6984145779165,51.268678657364525,1320.0004569953308,-6.898589288084622e-05,-2.104821430748416e-05,0.0,0.0,-1.1368683772161603e-12,0.0,193.32071428571427,70.0,0.0,255.0,0.0
10.450000000000006,35.698411086287365,51.26867752097924,1320.0004567326978,-6.89858928240028e-05,-2.104821430748416e-05,0.0,5.684341886080801e-13,0.0,0.0,193.24830357142858,70.0,0.0,255.0,0.0
10.500000000000007,35.6984075945717,51.2686763846596,1320.0004564719275,-6.89858928240028e-05,-2.104821430748416e-05,0.0,-1.1368683772161603e-12,0.0,0.0,193.17589285714286,70.0,0.0,255.0,0.0
10.550000000000008,35.698404102769565,51.26867524840576,1320.0004562111571,-6.898589293768964e-05,-2.104821430748416e-05,0.0,-5.684341886080801e-13,1.1368683772161603e-12,0.0,193.10348214285713,70.0,0.0,255.0,0.0
10.600000000000009,35.69840061088103,51.26867411221786,1320.0004559503868,-6.898589288084622e-05,-2.104821419379732e-05,0.0,1.1368683772161603e-12,0.0,0.0,193.0310714285714,70.0,0.0,255.0,0.0
10.65000000000001,35.69839711890615,51.26867297609602,1320.0004556905478,-6.89858928240028e-05,-2.104821430748416e-05,0.0,5.684341886080801e-13,-1.1368683772161603e-12,0.0,192.9586607142857,70.0,0.0,255.0,0.0
10.70000000000001,35.698393626845004,51.26867184004039,1320.0004554316401,-6.89858928240028e-05,-2.104821430748416e-05,0.0,0.0,1.1368683772161603e-12,0.0,192.88625,70.0,0.0,255.0,0.0
10.75000000000001,35.69839013469767,51.26867070405108,1320.0004551699385,-6.89858928240028e-05,-2.104821419379732e-05,0.0,-5.684341886080801e-13,0.0,0.0,192.81383928571427,70.0,0.0,255.0,0.0
10.800000000000011,35.69838664246421,51.26866956812825,1320.0004549110308,-6.898589288084622e-05,-2.104821430748416e-05,0.0,0.0,-2.2737367544323206e-12,0.0,192.74142857142857,70.0,0.0,255.0,0.0
10.850000000000012,35.69838315014468,51.26866843227203,1320.0004546502605,-6.89858928240028e-05,-2.1048214421170997e-05,0.0,0.0,0.0,0.0,192.66901785714285,70.0,0.0,255.0,0.0
10.900000000000013,35.69837965773915,51.268667296482526,1320.0004543922842,-6.898589288084622e-05,-2.104821430748416e-05,0.0,-1.1368683772161603e-12,2.2737367544323206e-12,0.0,192.59660714285712,70.0,0.0,255.0,0.0
10.950000000000014,35.698376165247716,51.268666160759906,1320.0004541315138,-6.898589293768964e-05,-2.104821419379732e-05,0.0,5.684341886080801e-13,0.0,0.0,192.5241964285714,70.0,0.0,255.0,0.0
11.000000000000014,35.6983726726704,51.268665025104276,1320.0004538726062,-6.89858928240028e-05,-2.104821430748416e-05,0.0,1.1368683772161603e-12,-1.1368683772161603e-12,0.0,192.4517857142857,70.0,0.0,255.0,0.0
11.050000000000015,35.698369180007326,51.26866388951578,1320.0004536146298,-6.89858928240028e-05,-2.104821430748416e-05,0.0,-5.684341886080801e-13,0.0,0.0,192.37937499999998,70.0,0.0,255.0,0.0
11.100000000000016,35.69836568725853,51.26866275399455,1320.0004533566535,-6.898589288084622e-05,-2.104821430748416e-05,0.0,0.0,0.0,0.0,192.30696428571426,70.0,0.0,255.0,0.0
11.150000000000016,35.698362194424085,51.26866161854071,1320.0004530949518,-6.89858928240028e-05,-2.104821430748416e-05,0.0,0.0,1.1368683772161603e-12,0.0,192.23455357142856,70.0,0.0,255.0,0.0
11.200000000000017,35.69835870150406,51.26866048315442,1320.0004528369755,-6.898589288084622e-05,-2.104821419379732e-05,0.0,-5.684341886080801e-13,0.0,0.0,192.16214285714284,70.0,0.0,255.0,0.0
11.250000000000018,35.69835520849853,51.26865934783579,1320.0004525771365,-6.898589288084622e-05,-2.104821430748416e-05,0.0,5.684341886080801e-13,-1.1368683772161603e-12,0.0,192.08973214285712,70.0,0.0,255.0,0.0
11.300000000000018,35.698351715407576,51.26865821258495,1320.0004523200914,-6.89858928240028e-05,-2.104821430748416e-05,0.0,0.0,1.1368683772161603e-12,0.0,192.01732142857142,70.0,0.0,255.0,0.0
11.35000000000002,35.698348222231225,51.26865707740205,1320.000452062115,-6.898589288084622e-05,-2.104821419379732e-05,0.0,0.0,0.0,0.0,191.9449107142857,70.0,0.0,255.0,0.0
11.40000000000002,35.698344728969595,51.26865594228721,1320.0004518060014,-6.89858928240028e-05,-2.104821430748416e-05,0.0,5.684341886080801e-13,-1.1368683772161603e-12,0.0,191.87249999999997,70.0,0.0,255.0,0.0
11.45000000000002,35.69834123562275,51.268654807240544,1320.0004515489563,-6.89858928240028e-05,-2.104821430748416e-05,0.0,-1.1368683772161603e-12,0.0,0.0,191.80008928571425,70.0,0.0,255.0,0.0
11.500000000000021,35.69833774219072,51.268653672262225,1320.0004512900487,-6.898589293768964e-05,-2.104821430748416e-05,0.0,-5.684341886080801e-13,0.0,0.0,191.72767857142856,70.0,0.0,255.0,0.0
11.550000000000022,35.698334248673625,51.268652537352345,1320.000451033935,-6.898589288084622e-05,-2.104821430748416e-05,0.0,1.1368683772161603e-12,1.1368683772161603e-12,0.0,191.65526785714283,70.0,0.0,255.0,0.0
11.600000000000023,35.69833075507152,51.26865140251107,1320.0004507759586,-6.89858928240028e-05,-2.104821419379732e-05,0.0,0.0,0.0,0.0,191.5828571428571,70.0,0.0,255.0,0.0
11.650000000000023,35.69832726138445,51.26865026773851,1320.0004505207762,-6.898589288084622e-05,-2.104821430748416e-05,0.0,0.0,-2.2737367544323206e-12,0.0,191.5104464285714,70.0,0.0,255.0,0.0
11.700000000000024,35.69832376761251,51.268649133034806,1320.0004502637312,-6.89858928240028e-05,-2.1048214421170997e-05,0.0,5.684341886080801e-13,0.0,0.0,191.4380357142857,70.0,0.0,255.0,0.0
11.750000000000025,35.69832027375577,51.26864799840008,1320.0004500057548,-6.89858928240028e-05,-2.104821430748416e-05,0.0,0.0,2.2737367544323206e-12,0.0,191.36562499999997,70.0,0.0,255.0,0.0
11.800000000000026,35.6983167798143,51.26864686383447,1320.0004497505724,-6.89858928240028e-05,-2.104821419379732e-05,0.0,-5.684341886080801e-13,0.0,0.0,191.29321428571424,70.0,0.0,255.0,0.0
11.850000000000026,35.69831328578817,51.26864572933811,1320.00044949539,-6.898589288084622e-05,-2.104821430748416e-05,0.0,-1.1368683772161603e-12,-1.1368683772161603e-12,0.0,191.22080357142855,70.0,0.0,255.0,0.0
11.900000000000027,35.69830979167745,51.268644594911116,1320.000449238345,-6.898589293768964e-05,-2.104821430748416e-05,0.0,5.684341886080801e-13,1.1368683772161603e-12,0.0,191.14839285714282,70.0,0.0,255.0,0.0
11.950000000000028,35.69830629748221,51.26864346055364,1320.0004489831626,-6.89858928240028e-05,-2.104821419379732e-05,0.0,1.1368683772161603e-12,0.0,0.0,191.0759821428571,70.0,0.0,255.0,0.0
12.000000000000028,35.698302803202544,51.268642326265805,1320.0004487261176,-6.89858928240028e-05,-2.104821430748416e-05,0.0,-5.684341886080801e-13,-1.1368683772161603e-12,0.0,191.0035714285714,70.0,0.0,255.0,0.0
12.05000000000003,35.69829930883848,51.26864119204774,1320.0004484727979,-6.898589288084622e-05,-2.104821430748416e-05,0.0,0.0,0.0,0.0,190.93116071428568,70.0,0.0,255.0,0.0
12.10000000000003,35.698295814390114,51.268640057899574,1320.0004482176155,-6.89858928240028e-05,-2.104821430748416e-05,0.0,0.0,0.0,0.0,190.85874999999996,70.0,0.0,255.0,0.0
12.15000000000003,35.698292319857536,51.268638923821435,1320.0004479615018,-6.898589288084622e-05,-2.104821430748416e-05,0.0,-5.684341886080801e-13,1.1368683772161603e-12,0.0,190.78633928571423,70.0,0.0,255.0,0.0
12.200000000000031,35.69828882524079,51.26863778981346,1320.000447708182,-6.898589288084622e-05,-2.104821419379732e-05,0.0,5.684341886080801e-13,0.0,0.0,190.71392857142854,70.0,0.0,255.0,0.0
12.250000000000032,35.69828533053996,51.26863665587578,1320.0004474548623,-6.89858928240028e-05,-2.104821430748416e-05,0.0,0.0,-1.1368683772161603e-12,0.0,190.64151785714282,70.0,0.0,255.0,0.0
12.300000000000033,35.69828183575511,51.268635522008516,1320.0004472006112,-6.898589288084622e-05,-2.104821430748416e-05,0.0,0.0,0.0,0.0,190.5691071428571,70.0,0.0,255.0,0.0
12.350000000000033,35.69827834088633,51.268634388211815,1320.0004469454288,-6.89858928240028e-05,-2.104821430748416e-05,0.0,5.684341886080801e-13,0.0,0.0,190.4966964285714,70.0,0.0,255.0,0.0
12.400000000000034,35.69827484593368,51.268633254485785,1320.0004466939718,-6.89858928240028e-05,-2.104821430748416e-05,0.0,-1.1368683772161603e-12,1.1368683772161603e-12,0.0,190.42428571428567,70.0,0.0,255.0,0.0
12.450000000000035,35.69827135089723,51.26863212083057,1320.000446440652,-6.898589293768964e-05,-2.104821419379732e-05,0.0,-5.684341886080801e-13,0.0,0.0,190.35187499999995,70.0,0.0,255.0,0.0
12.500000000000036,35.69826785577707,51.26863098724629,1320.0004461845383,-6.898589288084622e-05,-2.104821430748416e-05,0.0,1.1368683772161603e-12,-1.1368683772161603e-12,0.0,190.27946428571423,70.0,0.0,255.0,0.0
12.550000000000036,35.698264360573255,51.26862985373309,1320.0004459330812,-6.89858928240028e-05,-2.104821430748416e-05,0.0,0.0,1.1368683772161603e-12,0.0,190.20705357142853,70.0,0.0,255.0,0.0
12.600000000000037,35.698260865285874,51.2686287202911,1320.0004456806928,-6.898589288084622e-05,-2.104821419379732e-05,0.0,0.0,0.0,0.0,190.1346428571428,70.0,0.0,255.0,0.0
12.650000000000038,35.69825736991497,51.268627586920424,1320.0004454283044,-6.89858928240028e-05,-2.104821430748416e-05,0.0,5.684341886080801e-13,-2.2737367544323206e-12,0.0,190.06223214285708,70.0,0.0,255.0,0.0
12.700000000000038,35.698253874460676,51.26862645362121,1320.0004451749846,-6.89858928240028e-05,-2.1048214421170997e-05,0.0,0.0,0.0,0.0,189.9898214285714,70.0,0.0,255.0,0.0
12.750000000000039,35.69825037892299,51.26862532039359,1320.0004449225962,-6.89858928240028e-05,-2.104821430748416e-05,0.0,-5.684341886080801e-13,2.2737367544323206e-12,0.0,189.91741071428567,70.0,0.0,255.0,0.0
12.80000000000004,35.69824688330205,51.268624187237684,1320.0004446711391,-6.898589288084622e-05,-2.104821419379732e-05,0.0,-1.1368683772161603e-12,1.1368683772161603e-12,0.0,189.84499999999994,70.0,0.0,255.0,0.0
12.85000000000004,35.698243387597884,51.26862305415362,1320.0004444206133,-6.898589293768964e-05,-2.104821419379732e-05,0.0,5.684341886080801e-13,-1.1368683772161603e-12,0.0,189.77258928571422,70.0,0.0,255.0,0.0
12.900000000000041,35.6982398918106,51.26862192114156,1320.000444168225,-6.89858928240028e-05,-2.104821430748416e-05,0.0,1.1368683772161603e-12,-2.2737367544323206e-12,0.0,189.70017857142852,70.0,0.0,255.0,0.0
12.950000000000042,35.698236395940256,51.268620788201574,1320.0004439176992,-6.89858928240028e-05,-2.1048214421170997e-05,0.0,-5.684341886080801e-13,0.0,0.0,189.6277678571428,70.0,0.0,255.0,0.0
13.000000000000043,35.69823289998693,51.26861965533383,1320.0004436671734,-6.898589288084622e-05,-2.104821430748416e-05,0.0,0.0,2.2737367544323206e-12,0.0,189.55535714285708,70.0,0.0,255.0,0.0
13.050000000000043,35.6982294039507,51.26861852253845,1320.000443414785,-6.89858928240028e-05,-2.104821419379732e-05,0.0,0.0,0.0,0.0,189.48294642857138,70.0,0.0,255.0,0.0
13.100000000000044,35.698225907831635,51.26861738981556,1320.0004431642592,-6.898589288084622e-05,-2.104821430748416e-05,0.0,-1.1368683772161603e-12,-1.1368683772161603e-12,0.0,189.41053571428566,70.0,0.0,255.0,0.0
13.150000000000045,35.69822241162979,51.26861625716529,1320.0004429137334,-6.898589293768964e-05,-2.104821430748416e-05,0.0,5.684341886080801e-13,1.1368683772161603e-12,0.0,189.33812499999993,70.0,0.0,255.0,0.0
13.200000000000045,35.69821891534528,51.26861512458777,1320.000442664139,-6.89858928240028e-05,-2.104821419379732e-05,0.0,1.1368683772161603e-12,0.0,0.0,189.26571428571424,70.0,0.0,255.0,0.0
13.250000000000046,35.698215418978165,51.26861399208312,1320.0004424136132,-6.89858928240028e-05,-2.104821430748416e-05,0.0,0.0,-1.1368683772161603e-12,0.0,189.19330357142852,70.0,0.0,255.0,0.0
13.300000000000047,35.6982119225285,51.26861285965145,1320.0004421640188,-6.89858928240028e-05,-2.104821430748416e-05,0.0,0.0,0.0,0.0,189.1208928571428,70.0,0.0,255.0,0.0
13.350000000000048,35.69820842599639,51.26861172729294,1320.000441916287,-6.89858928240028e-05,-2.104821430748416e-05,0.0,-1.1368683772161603e-12,0.0,0.0,189.04848214285707,70.0,0.0,255.0,0.0
13.400000000000048,35.69820492938188,51.26861059500768,1320.0004416676238,-6.898589293768964e-05,-2.104821430748416e-05,0.0,-5.684341886080801e-13,1.1368683772161603e-12,0.0,188.97607142857137,70.0,0.0,255.0,0.0
13.450000000000049,35.698201432685075,51.2686094627958,1320.0004414180294,-6.898589288084622e-05,-2.104821419379732e-05,0.0,1.1368683772161603e-12,0.0,0.0,188.90366071428565,70.0,0.0,255.0,0.0
13.50000000000005,35.698197935906045,51.268608330657436,1320.0004411693662,-6.89858928240028e-05,-2.104821430748416e-05,0.0,0.0,-2.2737367544323206e-12,0.0,188.83124999999993,70.0,0.0,255.0,0.0
13.55000000000005,35.698194439044855,51.26860719859272,1320.000440920703,-6.898589288084622e-05,-2.1048214421170997e-05,0.0,0.0,0.0,0.0,188.75883928571423,70.0,0.0,255.0,0.0
13.600000000000051,35.69819094210157,51.26860606660177,1320.0004406729713,-6.89858928240028e-05,-2.104821430748416e-05,0.0,5.684341886080801e-13,2.2737367544323206e-12,0.0,188.6864285714285,70.0,0.0,255.0,0.0
13.650000000000052,35.69818744507628,51.26860493468471,1320.0004404252395,-6.89858928240028e-05,-2.104821419379732e-05,0.0,0.0,1.1368683772161603e-12,0.0,188.61401785714278,70.0,0.0,255.0,0.0
13.700000000000053,35.69818394796908,51.26860380284167,1320.0004401775077,-6.89858928240028e-05,-2.104821419379732e-05,0.0,-5.684341886080801e-13,-1.1368683772161603e-12,0.0,188.54160714285706,70.0,0.0,255.0,0.0
13.750000000000053,35.69818045078002,51.26860267107278,1320.000439929776,-6.898589288084622e-05,-2.104821430748416e-05,0.0,-1.1368683772161603e-12,-1.1368683772161603e-12,0.0,188.46919642857137,70.0,0.0,255.0,0.0
13.800000000000054,35.69817695350919,51.26860153937816,1320.000439682044,-6.898589293768964e-05,-2.104821430748416e-05,0.0,5.684341886080801e-13,1.1368683772161603e-12,0.0,188.39678571428564,70.0,0.0,255.0,0.0
13.850000000000055,35.69817345615666,51.268600407757944,1320.0004394352436,-6.89858928240028e-05,-2.104821419379732e-05,0.0,1.1368683772161603e-12,0.0,0.0,188.32437499999992,70.0,0.0,255.0,0.0
13.900000000000055,35.69816995872251,51.268599276212264,1320.0004391875118,-6.89858928240028e-05,-2.104821430748416e-05,0.0,-5.684341886080801e-13,-2.2737367544323206e-12,0.0,188.25196428571422,70.0,0.0,255.0,0.0
13.950000000000056,35.69816646120682,51.26859814474124,1320.000438942574,-6.898589288084622e-05,-2.1048214421170997e-05,0.0,0.0,0.0,0.0,188.1795535714285,70.0,0.0,255.0,0.0
14.000000000000057,35.69816296360963,51.26859701334499,1320.0004386976361,-6.89858928240028e-05,-2.104821430748416e-05,0.0,0.0,2.2737367544323206e-12,0.0,188.10714285714278,70.0,0.0,255.0,0.0
14.050000000000058,35.69815946593108,51.26859588202365,1320.0004384508356,-6.898589288084622e-05,-2.104821419379732e-05,0.0,-1.1368683772161603e-12,0.0,0.0,188.03473214285705,70.0,0.0,255.0,0.0
14.100000000000058,35.69815596817122,51.26859475077733,1320.0004382068291,-6.898589293768964e-05,-2.104821430748416e-05,0.0,5.684341886080801e-13,-1.1368683772161603e-12,0.0,187.96232142857136,70.0,0.0,255.0,0.0
14.150000000000059,35.6981524703301,51.26859361960618,1320.0004379600286,-6.89858928240028e-05,-2.104821430748416e-05,0.0,1.1368683772161603e-12,0.0,0.0,187.88991071428563,70.0,0.0,255.0,0.0
14.20000000000006,35.69814897240786,51.26859248851033,1320.0004377150908,-6.89858928240028e-05,-2.104821430748416e-05,0.0,0.0,0.0,0.0,187.8174999999999,70.0,0.0,255.0,0.0
14.25000000000006,35.698145474404505,51.26859135748987,1320.0004374710843,-6.89858928240028e-05,-2.104821430748416e-05,0.0,0.0,1.1368683772161603e-12,0.0,187.74508928571422,70.0,0.0,255.0,0.0
14.300000000000061,35.698141976320166,51.26859022654495,1320.0004372270778,-6.89858928240028e-05,-2.104821419379732e-05,0.0,-1.1368683772161603e-12,0.0,0.0,187.6726785714285,70.0,0.0,255.0,0.0
14.350000000000062,35.698138478154895,51.268589095675694,1320.00043698214,-6.898589293768964e-05,-2.104821430748416e-05,0.0,-5.684341886080801e-13,-1.1368683772161603e-12,0.0,187.60026785714277,70.0,0.0,255.0,0.0
14.400000000000063,35.698134979908765,51.26858796488222,1320.0004367381334,-6.898589288084622e-05,-2.104821430748416e-05,0.0,1.1368683772161603e-12,1.1368683772161603e-12,0.0,187.52785714285704,70.0,0.0,255.0,0.0
14.450000000000063,35.698131481581896,51.268586834164665,1320.0004364922643,-6.89858928240028e-05,-2.104821419379732e-05,0.0,0.0,0.0,0.0,187.45544642857135,70.0,0.0,255.0,0.0
14.500000000000064,35.69812798317431,51.26858570352315,1320.0004362501204,-6.898589288084622e-05,-2.104821430748416e-05,0.0,0.0,-1.1368683772161603e-12,0.0,187.38303571428563,70.0,0.0,255.0,0.0
14.550000000000065,35.698124484686105,51.268584572957785,1320.0004360079765,-6.89858928240028e-05,-2.104821430748416e-05,0.0,5.684341886080801e-13,0.0,0.0,187.3106249999999,70.0,0.0,255.0,0.0
14.600000000000065,35.6981209861174,51.268583442468724,1320.0004357658327,-6.89858928240028e-05,-2.104821430748416e-05,0.0,-1.1368683772161603e-12,0.0,0.0,187.2382142857142,70.0,0.0,255.0,0.0
14.650000000000066,35.69811748746821,51.26858231205606,1320.0004355218261,-6.898589293768964e-05,-2.104821430748416e-05,0.0,-5.684341886080801e-13,1.1368683772161603e-12,0.0,187.16580357142848,70.0,0.0,255.0,0.0
14.700000000000067,35.69811398873866,51.26858118171993,1320.000435281545,-6.898589288084622e-05,-2.104821419379732e-05,0.0,1.1368683772161603e-12,0.0,0.0,187.09339285714276,70.0,0.0,255.0,0.0
14.750000000000068,35.69811048992882,51.268580051460475,1320.0004350375384,-6.89858928240028e-05,-2.104821430748416e-05,0.0,5.684341886080801e-13,-2.2737367544323206e-12,0.0,187.02098214285704,70.0,0.0,255.0,0.0
14.800000000000068,35.69810699103874,51.26857892127779,1320.0004347944632,-6.89858928240028e-05,-2.1048214421170997e-05,0.0,0.0,0.0,0.0,186.94857142857134,70.0,0.0,255.0,0.0
14.850000000000069,35.69810349206854,51.26857779117202,1320.000434556976,-6.89858928240028e-05,-2.104821430748416e-05,0.0,-5.684341886080801e-13,2.2737367544323206e-12,0.0,186.87616071428562,70.0,0.0,255.0,0.0
14.90000000000007,35.69809999301829,51.2685766611433,1320.0004343129694,-6.898589288084622e-05,-2.104821419379732e-05,0.0,0.0,0.0,0.0,186.8037499999999,70.0,0.0,255.0,0.0
14.95000000000007,35.69809649388804,51.268575531191715,1320.0004340736195,-6.89858928240028e-05,-2.104821430748416e-05,0.0,0.0,-1.1368683772161603e-12,0.0,186.7313392857142,70.0,0.0,255.0,0.0
15.000000000000071,35.6980929946779,51.268574401317416,1320.0004338314757,-6.898589288084622e-05,-2.104821430748416e-05,0.0,-1.1368683772161603e-12,1.1368683772161603e-12,0.0,186.65892857142848,70.0,0.0,255.0,0.0
15.050000000000072,35.69808949538793,51.26857327152054,1320.0004335911945,-6.898589293768964e-05,-2.104821419379732e-05,0.0,5.684341886080801e-13,0.0,0.0,186.58651785714275,70.0,0.0,255.0,0.0
15.100000000000072,35.69808599601823,51.26857214180116,1320.0004333509132,-6.89858928240028e-05,-2.104821430748416e-05,0.0,1.1368683772161603e-12,-1.1368683772161603e-12,0.0,186.51410714285703,70.0,0.0,255.0,0.0
15.150000000000073,35.698082496568865,51.26857101215945,1320.0004331115633,-6.89858928240028e-05,-2.104821430748416e-05,0.0,0.0,0.0,0.0,186.44169642857133,70.0,0.0,255.0,0.0
15.200000000000074,35.69807899703992,51.268569882595514,1320.000432871282,-6.89858928240028e-05,-2.104821430748416e-05,0.0,0.0,0.0,0.0,186.3692857142856,70.0,0.0,255.0,0.0
15.250000000000075,35.69807549743147,51.26856875310947,1320.0004326328635,-6.89858928240028e-05,-2.104821430748416e-05,0.0,-1.1368683772161603e-12,1.1368683772161603e-12,0.0,186.2968749999999,70.0,0.0,255.0,0.0
15.300000000000075,35.6980719977436,51.26856762370146,1320.0004323935136,-6.898589293768964e-05,-2.104821419379732e-05,0.0,-5.684341886080801e-13,0.0,0.0,186.2244642857142,70.0,0.0,255.0,0.0
15.350000000000076,35.698068497976394,51.26856649437158,1320.0004321569577,-6.898589288084622e-05,-2.104821430748416e-05,0.0,1.1368683772161603e-12,-1.1368683772161603e-12,0.0,186.15205357142847,70.0,0.0,255.0,0.0
15.400000000000077,35.69806499812994,51.268565365119976,1320.0004319166765,-6.89858928240028e-05,-2.104821430748416e-05,0.0,0.0,0.0,0.0,186.07964285714274,70.0,0.0,255.0,0.0
15.450000000000077,35.6980614982043,51.26856423594676,1320.0004316801205,-6.898589288084622e-05,-2.104821430748416e-05,0.0,0.0,0.0,0.0,186.00723214285705,70.0,0.0,255.0,0.0
15.500000000000078,35.69805799819956,51.26856310685206,1320.000431441702,-6.89858928240028e-05,-2.104821430748416e-05,0.0,5.684341886080801e-13,1.1368683772161603e-12,0.0,185.93482142857133,70.0,0.0,255.0,0.0
15.550000000000079,35.6980544981158,51.268561977836,1320.0004312032834,-6.89858928240028e-05,-2.104821419379732e-05,0.0,-1.1368683772161603e-12,0.0,0.0,185.8624107142856,70.0,0.0,255.0,0.0
15.60000000000008,35.6980509979531,51.268560848898694,1320.0004309667274,-6.898589293768964e-05,-2.104821430748416e-05,0.0,-5.684341886080801e-13,-1.1368683772161603e-12,0.0,185.78999999999988,70.0,0.0,255.0,0.0
15.65000000000008,35.69804749771157,51.26855972004026,1320.0004307292402,-6.898589288084622e-05,-2.104821430748416e-05,0.0,1.1368683772161603e-12,1.1368683772161603e-12,0.0,185.71758928571418,70.0,0.0,255.0,0.0
15.700000000000081,35.69804399739125,51.26855859126083,1320.0004304954782,-6.89858928240028e-05,-2.104821419379732e-05,0.0,5.684341886080801e-13,0.0,0.0,185.64517857142846,70.0,0.0,255.0,0.0
15.750000000000082,35.69804049699225,51.26855746256053,1320.0004302561283,-6.89858928240028e-05,-2.104821430748416e-05,0.0,0.0,-2.2737367544323206e-12,0.0,185.57276785714274,70.0,0.0,255.0,0.0
15.800000000000082,35.69803699651463,51.268556333939465,1320.0004300205037,-6.89858928240028e-05,-2.1048214421170997e-05,0.0,-5.684341886080801e-13,0.0,0.0,185.50035714285704,70.0,0.0,255.0,0.0
15.850000000000083,35.698033495958484,51.26855520539777,1320.0004297858104,-6.898589288084622e-05,-2.104821430748416e-05,0.0,0.0,2.2737367544323206e-12,0.0,185.42794642857132,70.0,0.0,255.0,0.0
15.900000000000084,35.6980299953239,51.26855407693558,1320.0004295501858,-6.89858928240028e-05,-2.104821419379732e-05,0.0,0.0,0.0,0.0,185.3555357142856,70.0,0.0,255.0,0.0
15.950000000000085,35.69802649461094,51.26855294855299,1320.0004293154925,-6.898589288084622e-05,-2.104821430748416e-05,0.0,-1.1368683772161603e-12,-1.1368683772161603e-12,0.0,185.28312499999987,70.0,0.0,255.0,0.0
16.000000000000085,35.698022993819706,51.26855182025012,1320.0004290789366,-6.898589293768964e-05,-2.104821430748416e-05,0.0,5.684341886080801e-13,0.0,0.0,185.21071428571418,70.0,0.0,255.0,0.0
16.050000000000086,35.69801949295027,51.26855069202712,1320.000428846106,-6.89858928240028e-05,-2.104821430748416e-05,0.0,1.1368683772161603e-12,0.0,0.0,185.13830357142845,70.0,0.0,255.0,0.0
16.100000000000087,35.69801599200272,51.26854956388408,1320.0004286132753,-6.89858928240028e-05,-2.104821430748416e-05,0.0,0.0,1.1368683772161603e-12,0.0,185.06589285714273,70.0,0.0,255.0,0.0
16.150000000000087,35.69801249097714,51.268548435821145,1320.0004283767194,-6.89858928240028e-05,-2.104821419379732e-05,0.0,0.0,0.0,0.0,184.99348214285703,70.0,0.0,255.0,0.0
16.200000000000088,35.69800898987361,51.26854730783843,1320.0004281438887,-6.89858928240028e-05,-2.104821430748416e-05,0.0,-1.1368683772161603e-12,-1.1368683772161603e-12,0.0,184.9210714285713,70.0,0.0,255.0,0.0
16.25000000000009,35.69800548869221,51.268546179936045,1320.000427911058,-6.898589293768964e-05,-2.104821430748416e-05,0.0,-5.684341886080801e-13,1.1368683772161603e-12,0.0,184.8486607142856,70.0,0.0,255.0,0.0
16.30000000000009,35.698001987433,51.26854505211411,1320.000427677296,-6.898589288084622e-05,-2.104821419379732e-05,0.0,1.1368683772161603e-12,0.0,0.0,184.77624999999986,70.0,0.0,255.0,0.0
16.35000000000009,35.69799848609612,51.268543924372764,1320.0004274472594,-6.89858928240028e-05,-2.104821430748416e-05,0.0,0.0,-1.1368683772161603e-12,0.0,184.70383928571417,70.0,0.0,255.0,0.0
16.40000000000009,35.69799498468161,51.26854279671211,1320.0004272134975,-6.898589288084622e-05,-2.104821430748416e-05,0.0,0.0,0.0,0.0,184.63142857142844,70.0,0.0,255.0,0.0
16.45000000000009,35.697991483189554,51.26854166913228,1320.0004269815981,-6.89858928240028e-05,-2.104821430748416e-05,0.0,5.684341886080801e-13,0.0,0.0,184.55901785714272,70.0,0.0,255.0,0.0
16.500000000000092,35.69798798162005,51.26854054163338,1320.0004267506301,-6.89858928240028e-05,-2.104821430748416e-05,0.0,-1.1368683772161603e-12,1.1368683772161603e-12,0.0,184.48660714285703,70.0,0.0,255.0,0.0
16.550000000000093,35.69798447997319,51.26853941421553,1320.0004265177995,-6.898589293768964e-05,-2.104821419379732e-05,0.0,-5.684341886080801e-13,0.0,0.0,184.4141964285713,70.0,0.0,255.0,0.0
16.600000000000094,35.697980978249014,51.26853828687887,1320.0004262886941,-6.898589288084622e-05,-2.104821430748416e-05,0.0,1.1368683772161603e-12,-2.2737367544323206e-12,0.0,184.34178571428558,70.0,0.0,255.0,0.0
16.650000000000095,35.69797747644766,51.26853715962352,1320.0004260577261,-6.89858928240028e-05,-2.1048214421170997e-05,0.0,5.684341886080801e-13,0.0,0.0,184.26937499999985,70.0,0.0,255.0,0.0
16.700000000000095,35.697973974569166,51.26853603244957,1320.0004258267581,-6.89858928240028e-05,-2.104821430748416e-05,0.0,0.0,2.2737367544323206e-12,0.0,184.19696428571416,70.0,0.0,255.0,0.0
16.750000000000096,35.69797047261366,51.268534905357164,1320.0004255985841,-6.89858928240028e-05,-2.104821419379732e-05,0.0,-5.684341886080801e-13,0.0,0.0,184.12455357142844,70.0,0.0,255.0,0.0
16.800000000000097,35.6979669705812,51.26853377834641,1320.0004253666848,-6.898589288084622e-05,-2.104821430748416e-05,0.0,0.0,-1.1368683772161603e-12,0.0,184.0521428571427,70.0,0.0,255.0,0.0
16.850000000000097,35.69796346847186,51.26853265141743,1320.0004251375794,-6.89858928240028e-05,-2.104821430748416e-05,0.0,0.0,1.1368683772161603e-12,0.0,183.97973214285702,70.0,0.0,255.0,0.0
16.900000000000098,35.69795996628575,51.26853152457034,1320.0004249094054,-6.898589288084622e-05,-2.104821419379732e-05,0.0,-1.1368683772161603e-12,0.0,0.0,183.9073214285713,70.0,0.0,255.0,0.0
16.9500000000001,35.69795646402293,51.26853039780527,1320.0004246803,-6.898589293768964e-05,-2.104821430748416e-05,0.0,5.684341886080801e-13,-1.1368683772161603e-12,0.0,183.83491071428557,70.0,0.0,255.0,0.0
17.0000000000001,35.69795296168351,51.26852927112233,1320.000424452126,-6.89858928240028e-05,-2.104821430748416e-05,0.0,1.1368683772161603e-12,0.0,0.0,183.76249999999987,70.0,0.0,255.0,0.0
17.0500000000001,35.69794945926756,51.268528144521646,1320.000424223952,-6.89858928240028e-05,-2.104821430748416e-05,0.0,-5.684341886080801e-13,0.0,0.0,183.69008928571415,70.0,0.0,255.0,0.0
17.1000000000001,35.69794595677515,51.26852701800331,1320.0004239967093,-6.898589288084622e-05,-2.104821430748416e-05,0.0,0.0,1.1368683772161603e-12,0.0,183.61767857142843,70.0,0.0,255.0,0.0
17.1500000000001,35.6979424542064,51.268525891567485,1320.0004237694666,-6.89858928240028e-05,-2.104821419379732e-05,0.0,0.0,0.0,0.0,183.5452678571427,70.0,0.0,255.0,0.0
17.200000000000102,35.697938951561376,51.26852476521426,1320.0004235431552,-6.898589288084622e-05,-2.104821430748416e-05,0.0,-5.684341886080801e-13,-1.1368683772161603e-12,0.0,183.472857142857,70.0,0.0,255.0,0.0
17.250000000000103,35.69793544884016,51.268523638943755,1320.0004233149812,-6.898589288084622e-05,-2.104821430748416e-05,0.0,5.684341886080801e-13,0.0,0.0,183.40044642857129,70.0,0.0,255.0,0.0
17.300000000000104,35.69793194604285,51.26852251275609,1320.0004230877385,-6.89858928240028e-05,-2.104821430748416e-05,0.0,0.0,0.0,0.0,183.32803571428556,70.0,0.0,255.0,0.0
17.350000000000104,35.697928443169516,51.26852138665137,1320.0004228632897,-6.898589288084622e-05,-2.104821430748416e-05,0.0,0.0,1.1368683772161603e-12,0.0,183.25562499999984,70.0,0.0,255.0,0.0
17.400000000000105,35.69792494022024,51.26852026062975,1320.0004226379097,-6.89858928240028e-05,-2.104821419379732e-05,0.0,5.684341886080801e-13,0.0,0.0,183.18321428571414,70.0,0.0,255.0,0.0
17.450000000000106,35.697921437195134,51.26851913469132,1320.0004224125296,-6.89858928240028e-05,-2.104821430748416e-05,0.0,-1.1368683772161603e-12,-1.1368683772161603e-12,0.0,183.11080357142842,70.0,0.0,255.0,0.0
17.500000000000107,35.697917934094264,51.268518008836196,1320.0004221871495,-6.898589293768964e-05,-2.104821430748416e-05,0.0,-5.684341886080801e-13,1.1368683772161603e-12,0.0,183.0383928571427,70.0,0.0,255.0,0.0
17.550000000000107,35.697914430917706,51.2685168830645,1320.0004219617695,-6.898589288084622e-05,-2.104821419379732e-05,0.0,1.1368683772161603e-12,0.0,0.0,182.965982142857,70.0,0.0,255.0,0.0
17.600000000000108,35.69791092766558,51.268515757376356,1320.000421738252,-6.89858928240028e-05,-2.104821430748416e-05,0.0,5.684341886080801e-13,-2.2737367544323206e-12,0.0,182.89357142857128,70.0,0.0,255.0,0.0
17.65000000000011,35.69790742433794,51.26851463177187,1320.0004215147346,-6.89858928240028e-05,-2.1048214421170997e-05,0.0,0.0,0.0,0.0,182.82116071428555,70.0,0.0,255.0,0.0
17.70000000000011,35.69790392093489,51.26851350625117,1320.0004212921485,-6.89858928240028e-05,-2.104821430748416e-05,0.0,-5.684341886080801e-13,2.2737367544323206e-12,0.0,182.74874999999986,70.0,0.0,255.0,0.0
17.75000000000011,35.6979004174565,51.26851238081436,1320.0004210667685,-6.898589288084622e-05,-2.104821419379732e-05,0.0,0.0,1.1368683772161603e-12,0.0,182.67633928571414,70.0,0.0,255.0,0.0
17.80000000000011,35.69789691390289,51.26851125546157,1320.0004208451137,-6.89858928240028e-05,-2.104821419379732e-05,0.0,0.0,-1.1368683772161603e-12,0.0,182.6039285714284,70.0,0.0,255.0,0.0
17.85000000000011,35.6978934102741,51.26851013019291,1320.0004206225276,-6.898589288084622e-05,-2.104821430748416e-05,0.0,-1.1368683772161603e-12,-2.2737367544323206e-12,0.0,182.5315178571427,70.0,0.0,255.0,0.0
17.900000000000112,35.697889906570246,51.26850900500848,1320.0004203999415,-6.898589293768964e-05,-2.1048214421170997e-05,0.0,5.684341886080801e-13,0.0,0.0,182.459107142857,70.0,0.0,255.0,0.0
17.950000000000113,35.697886402791426,51.268507879908434,1320.0004201773554,-6.89858928240028e-05,-2.104821430748416e-05,0.0,1.1368683772161603e-12,2.2737367544323206e-12,0.0,182.38669642857127,70.0,0.0,255.0,0.0
18.000000000000114,35.69788289893769,51.26850675489286,1320.0004199575633,-6.89858928240028e-05,-2.104821419379732e-05,0.0,-5.684341886080801e-13,0.0,0.0,182.31428571428555,70.0,0.0,255.0,0.0
18.050000000000114,35.69787939500915,51.26850562996188,1320.0004197368398,-6.898589288084622e-05,-2.104821430748416e-05,0.0,0.0,-1.1368683772161603e-12,0.0,182.24187499999985,70.0,0.0,255.0,0.0
18.100000000000115,35.69787589100589,51.26850450511561,1320.0004195133224,-6.89858928240028e-05,-2.104821430748416e-05,0.0,0.0,1.1368683772161603e-12,0.0,182.16946428571413,70.0,0.0,255.0,0.0
18.150000000000116,35.69787238692801,51.26850338035417,1320.0004192944616,-6.898589288084622e-05,-2.104821419379732e-05,0.0,-5.684341886080801e-13,0.0,0.0,182.0970535714284,70.0,0.0,255.0,0.0
18.200000000000117,35.69786888277557,51.26850225567767,1320.0004190737382,-6.898589288084622e-05,-2.104821430748416e-05,0.0,5.684341886080801e-13,-1.1368683772161603e-12,0.0,182.02464285714268,70.0,0.0,255.0,0.0
18.250000000000117,35.697865378548684,51.268501131086225,1320.0004188548774,-6.89858928240028e-05,-2.104821430748416e-05,0.0,0.0,0.0,0.0,181.95223214285699,70.0,0.0,255.0,0.0
18.300000000000118,35.697861874247415,51.26850000657995,1320.0004186360165,-6.898589288084622e-05,-2.104821430748416e-05,0.0,0.0,0.0,0.0,181.87982142857126,70.0,0.0,255.0,0.0
18.35000000000012,35.697858369871874,51.26849888215896,1320.0004184171557,-6.89858928240028e-05,-2.104821430748416e-05,0.0,5.684341886080801e-13,1.1368683772161603e-12,0.0,181.80741071428554,70.0,0.0,255.0,0.0
18.40000000000012,35.69785486542214,51.26849775782338,1320.000418198295,-6.89858928240028e-05,-2.104821419379732e-05,0.0,-1.1368683772161603e-12,0.0,0.0,181.73499999999984,70.0,0.0,255.0,0.0
18.45000000000012,35.697851360898284,51.26849663357332,1320.0004179794341,-6.898589293768964e-05,-2.104821430748416e-05,0.0,-5.684341886080801e-13,-2.2737367544323206e-12,0.0,181.66258928571412,70.0,0.0,255.0,0.0
18.50000000000012,35.69784785630041,51.268495509408886,1320.0004177633673,-6.898589288084622e-05,-2.1048214421170997e-05,0.0,1.1368683772161603e-12,0.0,0.0,181.5901785714284,70.0,0.0,255.0,0.0
18.55000000000012,35.6978443516286,51.26849438533021,1320.0004175454378,-6.89858928240028e-05,-2.104821430748416e-05,0.0,0.0,2.2737367544323206e-12,0.0,181.51776785714267,70.0,0.0,255.0,0.0
18.600000000000122,35.69784084688297,51.26849326133738,1320.0004173275083,-6.898589288084622e-05,-2.104821419379732e-05,0.0,0.0,1.1368683772161603e-12,0.0,181.44535714285698,70.0,0.0,255.0,0.0
18.650000000000123,35.69783734206358,51.268492137430535,1320.0004171095788,-6.89858928240028e-05,-2.104821419379732e-05,0.0,5.684341886080801e-13,-1.1368683772161603e-12,0.0,181.37294642857125,70.0,0.0,255.0,0.0
18.700000000000124,35.69783383717052,51.268491013609776,1320.0004168944433,-6.89858928240028e-05,-2.104821430748416e-05,0.0,0.0,-1.1368683772161603e-12,0.0,181.30053571428553,70.0,0.0,255.0,0.0
18.750000000000124,35.69783033220389,51.26848988987523,1320.0004166783765,-6.89858928240028e-05,-2.104821430748416e-05,0.0,-5.684341886080801e-13,1.1368683772161603e-12,0.0,181.22812499999984,70.0,0.0,255.0,0.0
18.800000000000125,35.69782682716379,51.26848876622699,1320.0004164623097,-6.898589288084622e-05,-2.104821419379732e-05,0.0,-1.1368683772161603e-12,0.0,0.0,181.1557142857141,70.0,0.0,255.0,0.0
18.850000000000126,35.697823322050255,51.26848764266519,1320.0004162490368,-6.898589293768964e-05,-2.104821430748416e-05,0.0,5.684341886080801e-13,-2.2737367544323206e-12,0.0,181.0833035714284,70.0,0.0,255.0,0.0
18.900000000000126,35.69781981686343,51.268486519189935,1320.0004160339013,-6.89858928240028e-05,-2.1048214421170997e-05,0.0,1.1368683772161603e-12,0.0,0.0,181.01089285714266,70.0,0.0,255.0,0.0
18.950000000000127,35.69781631160339,51.26848539580133,1320.0004158178344,-6.89858928240028e-05,-2.104821430748416e-05,0.0,-5.684341886080801e-13,2.2737367544323206e-12,0.0,180.93848214285697,70.0,0.0,255.0,0.0
19.000000000000128,35.69781280627021,51.26848427249951,1320.0004156036302,-6.898589288084622e-05,-2.104821419379732e-05,0.0,0.0,0.0,0.0,180.86607142857125,70.0,0.0,255.0,0.0
19.05000000000013,35.697809300863995,51.268483149284556,1320.0004153903574,-6.89858928240028e-05,-2.104821430748416e-05,0.0,0.0,-1.1368683772161603e-12,0.0,180.79366071428552,70.0,0.0,255.0,0.0
19.10000000000013,35.69780579538483,51.26848202615661,1320.0004151761532,-6.898589288084622e-05,-2.104821430748416e-05,0.0,-5.684341886080801e-13,0.0,0.0,180.72124999999983,70.0,0.0,255.0,0.0
19.15000000000013,35.697802289832815,51.26848090311578,1320.0004149638116,-6.898589288084622e-05,-2.104821430748416e-05,0.0,5.684341886080801e-13,0.0,0.0,180.6488392857141,70.0,0.0,255.0,0.0
19.20000000000013,35.69779878420802,51.26847978016217,1320.00041475147,-6.89858928240028e-05,-2.104821430748416e-05,0.0,0.0,1.1368683772161603e-12,0.0,180.57642857142838,70.0,0.0,255.0,0.0
19.25000000000013,35.69779527851053,51.268478657295894,1320.0004145391285,-6.898589288084622e-05,-2.104821419379732e-05,0.0,0.0,0.0,0.0,180.50401785714268,70.0,0.0,255.0,0.0
19.300000000000132,35.697791772740466,51.26847753451708,1320.0004143277183,-6.89858928240028e-05,-2.104821430748416e-05,0.0,5.684341886080801e-13,-1.1368683772161603e-12,0.0,180.43160714285696,70.0,0.0,255.0,0.0
19.350000000000133,35.697788266897895,51.26847641182581,1320.0004141172394,-6.89858928240028e-05,-2.104821430748416e-05,0.0,-1.1368683772161603e-12,1.1368683772161603e-12,0.0,180.35919642857124,70.0,0.0,255.0,0.0
19.400000000000134,35.69778476098292,51.26847528922222,1320.0004139048979,-6.898589293768964e-05,-2.104821419379732e-05,0.0,-5.684341886080801e-13,0.0,0.0,180.28678571428551,70.0,0.0,255.0,0.0
19.450000000000134,35.69778125499561,51.26847416670643,1320.0004136934876,-6.898589288084622e-05,-2.104821430748416e-05,0.0,1.1368683772161603e-12,-1.1368683772161603e-12,0.0,180.21437499999982,70.0,0.0,255.0,0.0
19.500000000000135,35.6977777489361,51.26847304427854,1320.0004134830087,-6.89858928240028e-05,-2.104821430748416e-05,0.0,0.0,0.0,0.0,180.1419642857141,70.0,0.0,255.0,0.0
19.550000000000136,35.69777424280442,51.26847192193864,1320.0004132743925,-6.898589288084622e-05,-2.104821430748416e-05,0.0,0.0,0.0,0.0,180.06955357142837,70.0,0.0,255.0,0.0
19.600000000000136,35.697770736600695,51.26847079968687,1320.0004130639136,-6.89858928240028e-05,-2.104821430748416e-05,0.0,5.684341886080801e-13,1.1368683772161603e-12,0.0,179.99714285714265,70.0,0.0,255.0,0.0
19.650000000000137,35.69776723032503,51.26846967752332,1320.0004128552973,-6.89858928240028e-05,-2.104821419379732e-05,0.0,0.0,0.0,0.0,179.92473214285695,70.0,0.0,255.0,0.0
19.700000000000138,35.697763723977474,51.26846855544814,1320.000412646681,-6.89858928240028e-05,-2.104821430748416e-05,0.0,-5.684341886080801e-13,-2.2737367544323206e-12,0.0,179.85232142857123,70.0,0.0,255.0,0.0
19.75000000000014,35.69776021755816,51.268467433461396,1320.0004124371335,-6.898589288084622e-05,-2.1048214421170997e-05,0.0,-1.1368683772161603e-12,0.0,0.0,179.7799107142855,70.0,0.0,255.0,0.0
19.80000000000014,35.697756711067164,51.26846631156322,1320.0004122285172,-6.898589293768964e-05,-2.104821430748416e-05,0.0,5.684341886080801e-13,2.2737367544323206e-12,0.0,179.7074999999998,70.0,0.0,255.0,0.0
19.85000000000014,35.697753204504565,51.268465189753734,1320.0004120217636,-6.89858928240028e-05,-2.104821419379732e-05,0.0,1.1368683772161603e-12,0.0,0.0,179.6350892857141,70.0,0.0,255.0,0.0
19.90000000000014,35.69774969787048,51.26846406803304,1320.00041181501,-6.89858928240028e-05,-2.104821430748416e-05,0.0,-5.684341886080801e-13,-1.1368683772161603e-12,0.0,179.56267857142836,70.0,0.0,255.0,0.0
19.95000000000014,35.697746191164974,51.268462946401215,1320.0004116082564,-6.898589288084622e-05,-2.104821430748416e-05,0.0,0.0,1.1368683772161603e-12,0.0,179.49026785714267,70.0,0.0,255.0,0.0
20.000000000000142,35.69774268438814,51.26846182485843,1320.0004114015028,-6.89858928240028e-05,-2.104821419379732e-05,0.0,0.0,0.0,0.0,179.41785714285695,70.0,0.0,255.0,0.0
20.050000000000143,35.697739177540114,51.268460703404756,1320.0004111947492,-6.898589288084622e-05,-2.104821430748416e-05,0.0,-1.1368683772161603e-12,-1.1368683772161603e-12,0.0,179.34544642857122,70.0,0.0,255.0,0.0
20.100000000000144,35.69773567062093,51.26845958204032,1320.0004109917209,-6.898589293768964e-05,-2.104821430748416e-05,0.0,5.684341886080801e-13,0.0,0.0,179.2730357142855,70.0,0.0,255.0,0.0
20.150000000000144,35.697732163630704,51.26845846076522,1320.0004107849672,-6.89858928240028e-05,-2.104821430748416e-05,0.0,1.1368683772161603e-12,0.0,0.0,179.2006249999998,70.0,0.0,255.0,0.0
20.200000000000145,35.69772865656953,51.26845733957956,1320.0004105810076,-6.89858928240028e-05,-2.104821430748416e-05,0.0,0.0,1.1368683772161603e-12,0.0,179.12821428571408,70.0,0.0,255.0,0.0
20.250000000000146,35.697725149437495,51.268456218483465,1320.000410377048,-6.89858928240028e-05,-2.104821419379732e-05,0.0,0.0,0.0,0.0,179.05580357142836,70.0,0.0,255.0,0.0
20.300000000000146,35.69772164223471,51.26845509747705,1320.000410172157,-6.89858928240028e-05,-2.104821430748416e-05,0.0,-1.1368683772161603e-12,-1.1368683772161603e-12,0.0,178.98339285714266,70.0,0.0,255.0,0.0
20.350000000000147,35.69771813496124,51.2684539765604,1320.000409967266,-6.898589293768964e-05,-2.104821430748416e-05,0.0,-5.684341886080801e-13,0.0,0.0,178.91098214285694,70.0,0.0,255.0,0.0
20.400000000000148,35.69771462761719,51.268452855733656,1320.0004097642377,-6.898589288084622e-05,-2.104821430748416e-05,0.0,1.1368683772161603e-12,0.0,0.0,178.8385714285712,70.0,0.0,255.0,0.0
20.45000000000015,35.69771112020266,51.2684517349969,1320.000409560278,-6.89858928240028e-05,-2.104821430748416e-05,0.0,0.0,1.1368683772161603e-12,0.0,178.7661607142855,70.0,0.0,255.0,0.0
20.50000000000015,35.69770761271773,51.26845061435026,1320.000409360975,-6.898589288084622e-05,-2.104821419379732e-05,0.0,0.0,0.0,0.0,178.6937499999998,70.0,0.0,255.0,0.0
20.55000000000015,35.6977041051625,51.26844949379383,1320.000409158878,-6.89858928240028e-05,-2.104821430748416e-05,0.0,5.684341886080801e-13,-1.1368683772161603e-12,0.0,178.62133928571407,70.0,0.0,255.0,0.0
20.60000000000015,35.69770059753706,51.26844837332773,1320.0004089558497,-6.89858928240028e-05,-2.104821430748416e-05,0.0,0.0,1.1368683772161603e-12,0.0,178.54892857142835,70.0,0.0,255.0,0.0
20.65000000000015,35.69769708984151,51.26844725295205,1320.0004087556154,-6.89858928240028e-05,-2.104821419379732e-05,0.0,-5.684341886080801e-13,0.0,0.0,178.47651785714265,70.0,0.0,255.0,0.0
20.700000000000152,35.697693582075935,51.26844613266694,1320.0004085544497,-6.898589288084622e-05,-2.104821430748416e-05,0.0,-1.1368683772161603e-12,-2.2737367544323206e-12,0.0,178.40410714285693,70.0,0.0,255.0,0.0
20.750000000000153,35.697690074240434,51.268445012472455,1320.0004083542153,-6.898589293768964e-05,-2.1048214421170997e-05,0.0,5.684341886080801e-13,0.0,0.0,178.3316964285712,70.0,0.0,255.0,0.0
20.800000000000153,35.69768656633508,51.268443892368744,1320.000408153981,-6.89858928240028e-05,-2.104821430748416e-05,0.0,1.1368683772161603e-12,2.2737367544323206e-12,0.0,178.25928571428548,70.0,0.0,255.0,0.0
20.850000000000154,35.697683058360006,51.2684427723559,1320.0004079537466,-6.89858928240028e-05,-2.104821419379732e-05,0.0,-5.684341886080801e-13,0.0,0.0,178.1868749999998,70.0,0.0,255.0,0.0
20.900000000000155,35.697679550315264,51.26844165243402,1320.0004077563062,-6.898589288084622e-05,-2.104821430748416e-05,0.0,0.0,-1.1368683772161603e-12,0.0,178.11446428571406,70.0,0.0,255.0,0.0
20.950000000000156,35.69767604220098,51.26844053260322,1320.0004075570032,-6.89858928240028e-05,-2.104821430748416e-05,0.0,0.0,0.0,0.0,178.04205357142834,70.0,0.0,255.0,0.0
21.000000000000156,35.697672534017244,51.268439412863636,1320.0004073586315,-6.898589288084622e-05,-2.104821430748416e-05,0.0,-1.1368683772161603e-12,0.0,0.0,177.96964285714265,70.0,0.0,255.0,0.0
21.050000000000157,35.697669025764135,51.26843829321533,1320.0004071621224,-6.898589293768964e-05,-2.104821430748416e-05,0.0,5.684341886080801e-13,1.1368683772161603e-12,0.0,177.89723214285692,70.0,0.0,255.0,0.0
21.100000000000158,35.69766551744176,51.268437173658434,1320.000406964682,-6.89858928240028e-05,-2.104821419379732e-05,0.0,1.1368683772161603e-12,0.0,0.0,177.8248214285712,70.0,0.0,255.0,0.0
21.15000000000016,35.6976620090502,51.26843605419305,1320.000406768173,-6.89858928240028e-05,-2.104821430748416e-05,0.0,0.0,-1.1368683772161603e-12,0.0,177.75241071428547,70.0,0.0,255.0,0.0
21.20000000000016,35.69765850058955,51.2684349348193,1320.0004065698013,-6.89858928240028e-05,-2.104821430748416e-05,0.0,0.0,1.1368683772161603e-12,0.0,177.67999999999978,70.0,0.0,255.0,0.0
21.25000000000016,35.69765499205992,51.268433815537264,1320.0004063732922,-6.89858928240028e-05,-2.104821419379732e-05,0.0,-1.1368683772161603e-12,0.0,0.0,177.60758928571406,70.0,0.0,255.0,0.0
21.30000000000016,35.6976514834614,51.26843269634707,1320.0004061786458,-6.898589293768964e-05,-2.104821430748416e-05,0.0,-5.684341886080801e-13,-1.1368683772161603e-12,0.0,177.53517857142833,70.0,0.0,255.0,0.0
21.35000000000016,35.697647974794066,51.2684315772488,1320.0004059839994,-6.898589288084622e-05,-2.104821430748416e-05,0.0,1.1368683772161603e-12,0.0,0.0,177.46276785714264,70.0,0.0,255.0,0.0
21.400000000000162,35.697644466058044,51.26843045824259,1320.0004057874903,-6.89858928240028e-05,-2.104821430748416e-05,0.0,0.0,0.0,0.0,177.3903571428569,70.0,0.0,255.0,0.0
21.450000000000163,35.69764095725341,51.268429339328534,1320.0004055947065,-6.898589288084622e-05,-2.104821430748416e-05,0.0,0.0,1.1368683772161603e-12,0.0,177.3179464285712,70.0,0.0,255.0,0.0
21.500000000000163,35.69763744838025,51.26842822050674,1320.0004054000601,-6.89858928240028e-05,-2.104821419379732e-05,0.0,5.684341886080801e-13,0.0,0.0,177.2455357142855,70.0,0.0,255.0,0.0
21.550000000000164,35.69763393943868,51.268427101777306,1320.000405206345,-6.89858928240028e-05,-2.104821430748416e-05,0.0,0.0,-2.2737367544323206e-12,0.0,177.17312499999977,70.0,0.0,255.0,0.0
21.600000000000165,35.69763043042878,51.26842598314034,1320.00040501263,-6.89858928240028e-05,-2.1048214421170997e-05,0.0,-5.684341886080801e-13,0.0,0.0,177.10071428571405,70.0,0.0,255.0,0.0
21.650000000000166,35.69762692135066,51.268424864595964,1320.0004048207775,-6.898589288084622e-05,-2.104821430748416e-05,0.0,-1.1368683772161603e-12,2.2737367544323206e-12,0.0,177.02830357142832,70.0,0.0,255.0,0.0
21.700000000000166,35.697623412204415,51.268423746144265,1320.000404628925,-6.898589293768964e-05,-2.104821419379732e-05,0.0,5.684341886080801e-13,0.0,0.0,176.95589285714263,70.0,0.0,255.0,0.0
21.750000000000167,35.69761990299011,51.26842262778534,1320.0004044361413,-6.89858928240028e-05,-2.104821430748416e-05,0.0,1.1368683772161603e-12,-1.1368683772161603e-12,0.0,176.8834821428569,70.0,0.0,255.0,0.0
21.800000000000168,35.697616393707875,51.26842150951932,1320.0004042433575,-6.89858928240028e-05,-2.104821430748416e-05,0.0,-5.684341886080801e-13,1.1368683772161603e-12,0.0,176.81107142857118,70.0,0.0,255.0,0.0
21.85000000000017,35.69761288435779,51.26842039134631,1320.000404054299,-6.898589288084622e-05,-2.104821419379732e-05,0.0,0.0,1.1368683772161603e-12,0.0,176.73866071428546,70.0,0.0,255.0,0.0
21.90000000000017,35.697609374939944,51.268419273266396,1320.0004038624465,-6.89858928240028e-05,-2.104821419379732e-05,0.0,0.0,-1.1368683772161603e-12,0.0,176.66624999999976,70.0,0.0,255.0,0.0
21.95000000000017,35.69760586545446,51.2684181552797,1320.000403673388,-6.898589288084622e-05,-2.104821430748416e-05,0.0,-1.1368683772161603e-12,-2.2737367544323206e-12,0.0,176.59383928571404,70.0,0.0,255.0,0.0
22.00000000000017,35.69760235590142,51.26841703738631,1320.0004034833983,-6.898589293768964e-05,-2.1048214421170997e-05,0.0,5.684341886080801e-13,0.0,0.0,176.52142857142832,70.0,0.0,255.0,0.0
22.05000000000017,35.69759884628092,51.26841591958633,1320.0004032924771,-6.89858928240028e-05,-2.104821430748416e-05,0.0,1.1368683772161603e-12,2.2737367544323206e-12,0.0,176.44901785714262,70.0,0.0,255.0,0.0
22.100000000000172,35.697595336593054,51.26841480187987,1320.00040310435,-6.89858928240028e-05,-2.104821419379732e-05,0.0,0.0,0.0,0.0,176.3766071428569,70.0,0.0,255.0,0.0
22.150000000000173,35.6975918268379,51.268413684267045,1320.0004029180855,-6.89858928240028e-05,-2.104821430748416e-05,0.0,0.0,-1.1368683772161603e-12,0.0,176.30419642857117,70.0,0.0,255.0,0.0
22.200000000000173,35.69758831701559,51.268412566747955,1320.0004027299583,-6.89858928240028e-05,-2.104821430748416e-05,0.0,-1.1368683772161603e-12,0.0,0.0,176.23178571428548,70.0,0.0,255.0,0.0
22.250000000000174,35.6975848071262,51.268411449322706,1320.0004025418311,-6.898589293768964e-05,-2.104821430748416e-05,0.0,-5.684341886080801e-13,0.0,0.0,176.15937499999976,70.0,0.0,255.0,0.0
22.300000000000175,35.69758129716983,51.26841033199138,1320.0004023555666,-6.898589288084622e-05,-2.104821430748416e-05,0.0,1.1368683772161603e-12,1.1368683772161603e-12,0.0,176.08696428571403,70.0,0.0,255.0,0.0
22.350000000000176,35.697577787146585,51.268409214754094,1320.000402169302,-6.89858928240028e-05,-2.104821419379732e-05,0.0,0.0,0.0,0.0,176.0145535714283,70.0,0.0,255.0,0.0
22.400000000000176,35.697574277056546,51.26840809761097,1320.000401983969,-6.898589288084622e-05,-2.104821430748416e-05,0.0,0.0,-1.1368683772161603e-12,0.0,175.9421428571426,70.0,0.0,255.0,0.0
22.450000000000177,35.69757076689982,51.26840698056209,1320.0004017958418,-6.89858928240028e-05,-2.104821430748416e-05,0.0,5.684341886080801e-13,1.1368683772161603e-12,0.0,175.8697321428569,70.0,0.0,255.0,0.0
22.500000000000178,35.697567256676514,51.26840586360756,1320.0004016114399,-6.89858928240028e-05,-2.104821419379732e-05,0.0,-1.1368683772161603e-12,0.0,0.0,175.79732142857117,70.0,0.0,255.0,0.0
22.55000000000018,35.6975637463867,51.26840474674749,1320.000401427038,-6.898589293768964e-05,-2.104821430748416e-05,0.0,-5.684341886080801e-13,-2.2737367544323206e-12,0.0,175.72491071428547,70.0,0.0,255.0,0.0
22.60000000000018,35.697560236030505,51.26840362998197,1320.0004012407735,-6.898589288084622e-05,-2.1048214421170997e-05,0.0,1.1368683772161603e-12,0.0,0.0,175.65249999999975,70.0,0.0,255.0,0.0
22.65000000000018,35.697556725607996,51.26840251331113,1320.000401057303,-6.89858928240028e-05,-2.104821430748416e-05,0.0,5.684341886080801e-13,2.2737367544323206e-12,0.0,175.58008928571402,70.0,0.0,255.0,0.0
22.70000000000018,35.6975532151193,51.268401396735044,1320.0004008747637,-6.89858928240028e-05,-2.104821419379732e-05,0.0,0.0,1.1368683772161603e-12,0.0,175.5076785714283,70.0,0.0,255.0,0.0
22.75000000000018,35.69754970456449,51.26840028025382,1320.0004006922245,-6.89858928240028e-05,-2.104821419379732e-05,0.0,-5.684341886080801e-13,-1.1368683772161603e-12,0.0,175.4352678571426,70.0,0.0,255.0,0.0
22.800000000000182,35.69754619394368,51.26839916386758,1320.000400508754,-6.898589288084622e-05,-2.104821430748416e-05,0.0,0.0,-2.2737367544323206e-12,0.0,175.36285714285688,70.0,0.0,255.0,0.0
22.850000000000183,35.69754268325696,51.2683980475764,1320.000400327146,-6.89858928240028e-05,-2.1048214421170997e-05,0.0,0.0,0.0,0.0,175.29044642857116,70.0,0.0,255.0,0.0
22.900000000000183,35.69753917250444,51.26839693138039,1320.0004001446068,-6.898589288084622e-05,-2.104821430748416e-05,0.0,-1.1368683772161603e-12,2.2737367544323206e-12,0.0,175.21803571428546,70.0,0.0,255.0,0.0
22.950000000000184,35.69753566168621,51.26839581527966,1320.0003999648616,-6.898589293768964e-05,-2.104821419379732e-05,0.0,5.684341886080801e-13,0.0,0.0,175.14562499999974,70.0,0.0,255.0,0.0
23.000000000000185,35.697532150802346,51.2683946992743,1320.0003997832537,-6.89858928240028e-05,-2.104821430748416e-05,0.0,1.1368683772161603e-12,-1.1368683772161603e-12,0.0,175.07321428571402,70.0,0.0,255.0,0.0
23.050000000000185,35.69752863985299,51.26839358336443,1320.0003996035084,-6.89858928240028e-05,-2.104821430748416e-05,0.0,0.0,1.1368683772161603e-12,0.0,175.00080357142832,70.0,0.0,255.0,0.0
23.100000000000186,35.69752512883821,51.268392467550136,1320.0003994246945,-6.89858928240028e-05,-2.104821419379732e-05,0.0,0.0,0.0,0.0,174.9283928571426,70.0,0.0,255.0,0.0
23.150000000000187,35.69752161775811,51.26839135183151,1320.000399244018,-6.89858928240028e-05,-2.104821430748416e-05,0.0,-1.1368683772161603e-12,-1.1368683772161603e-12,0.0,174.85598214285687,70.0,0.0,255.0,0.0
23.200000000000188,35.69751810661279,51.268390236208674,1320.0003990661353,-6.898589293768964e-05,-2.104821430748416e-05,0.0,-5.684341886080801e-13,0.0,0.0,174.78357142857115,70.0,0.0,255.0,0.0
23.25000000000019,35.69751459540236,51.268389120681725,1320.0003988873214,-6.898589288084622e-05,-2.104821430748416e-05,0.0,1.1368683772161603e-12,0.0,0.0,174.71116071428546,70.0,0.0,255.0,0.0
23.30000000000019,35.6975110841269,51.26838800525076,1320.0003987085074,-6.89858928240028e-05,-2.104821430748416e-05,0.0,0.0,1.1368683772161603e-12,0.0,174.63874999999973,70.0,0.0,255.0,0.0
23.35000000000019,35.697507572786535,51.26838688991588,1320.0003985306248,-6.898589288084622e-05,-2.104821419379732e-05,0.0,0.0,0.0,0.0,174.566339285714,70.0,0.0,255.0,0.0
23.40000000000019,35.697504061381316,51.268385774677185,1320.0003983546048,-6.89858928240028e-05,-2.104821430748416e-05,0.0,5.684341886080801e-13,-2.2737367544323206e-12,0.0,174.49392857142828,70.0,0.0,255.0,0.0
23.45000000000019,35.6975005499114,51.268384659534775,1320.0003981785849,-6.89858928240028e-05,-2.1048214421170997e-05,0.0,-1.1368683772161603e-12,0.0,0.0,174.4215178571426,70.0,0.0,255.0,0.0
23.500000000000192,35.69749703837683,51.26838354448874,1320.000398002565,-6.898589293768964e-05,-2.104821430748416e-05,0.0,-5.684341886080801e-13,2.2737367544323206e-12,0.0,174.34910714285687,70.0,0.0,255.0,0.0
23.550000000000193,35.69749352677777,51.268382429539216,1320.0003978256136,-6.898589288084622e-05,-2.104821419379732e-05,0.0,1.1368683772161603e-12,1.1368683772161603e-12,0.0,174.27669642857114,70.0,0.0,255.0,0.0
23.600000000000193,35.697490015114276,51.26838131468626,1320.000397650525,-6.89858928240028e-05,-2.104821419379732e-05,0.0,5.684341886080801e-13,-1.1368683772161603e-12,0.0,174.20428571428545,70.0,0.0,255.0,0.0
23.650000000000194,35.69748650338644,51.26838019992999,1320.0003974763677,-6.89858928240028e-05,-2.104821430748416e-05,0.0,0.0,-1.1368683772161603e-12,0.0,174.13187499999972,70.0,0.0,255.0,0.0
23.700000000000195,35.6974829915944,51.2683790852705,1320.0003973022103,-6.89858928240028e-05,-2.104821430748416e-05,0.0,-5.684341886080801e-13,1.1368683772161603e-12,0.0,174.059464285714,70.0,0.0,255.0,0.0
23.750000000000195,35.697479479738206,51.2683779707079,1320.000397128053,-6.898589288084622e-05,-2.104821419379732e-05,0.0,0.0,0.0,0.0,173.9870535714283,70.0,0.0,255.0,0.0
23.800000000000196,35.69747596781801,51.268376856242284,1320.0003969557583,-6.89858928240028e-05,-2.104821430748416e-05,0.0,0.0,-2.2737367544323206e-12,0.0,173.91464285714258,70.0,0.0,255.0,0.0
23.850000000000197,35.69747245583389,51.268375741873754,1320.0003967825323,-6.898589288084622e-05,-2.1048214421170997e-05,0.0,-1.1368683772161603e-12,0.0,0.0,173.84223214285686,70.0,0.0,255.0,0.0
23.900000000000198,35.69746894378592,51.26837462760239,1320.0003966102377,-6.898589293768964e-05,-2.104821430748416e-05,0.0,5.684341886080801e-13,2.2737367544323206e-12,0.0,173.76982142857113,70.0,0.0,255.0,0.0
23.9500000000002,35.697465431674246,51.26837351342834,1320.000396437943,-6.89858928240028e-05,-2.104821419379732e-05,0.0,1.1368683772161603e-12,0.0,0.0,173.69741071428544,70.0,0.0,255.0,0.0
24.0000000000002,35.69746191949893,51.26837239935164,1320.0003962665796,-6.89858928240028e-05,-2.104821430748416e-05,0.0,-5.684341886080801e-13,-1.1368683772161603e-12,0.0,173.62499999999972,70.0,0.0,255.0,0.0
24.0500000000002,35.6974584072601,51.268371285372424,1320.000396097079,-6.898589288084622e-05,-2.104821430748416e-05,0.0,0.0,0.0,0.0,173.552589285714,70.0,0.0,255.0,0.0
24.1000000000002,35.697454894957836,51.26837017149079,1320.0003959257156,-6.89858928240028e-05,-2.104821430748416e-05,0.0,0.0,0.0,0.0,173.48017857142827,70.0,0.0,255.0,0.0
24.1500000000002,35.697451382592256,51.26836905770682,1320.0003957552835,-6.898589288084622e-05,-2.104821430748416e-05,0.0,-5.684341886080801e-13,1.1368683772161603e-12,0.0,173.40776785714257,70.0,0.0,255.0,0.0
24.200000000000202,35.69744787016346,51.26836794402063,1320.0003955857828,-6.898589288084622e-05,-2.104821419379732e-05,0.0,5.684341886080801e-13,0.0,0.0,173.33535714285685,70.0,0.0,255.0,0.0
24.250000000000203,35.69744435767152,51.268366830432306,1320.0003954181448,-6.89858928240028e-05,-2.104821430748416e-05,0.0,0.0,-1.1368683772161603e-12,0.0,173.26294642857113,70.0,0.0,255.0,0.0
24.300000000000203,35.69744084511658,51.26836571694195,1320.000395248644,-6.898589288084622e-05,-2.104821430748416e-05,0.0,0.0,1.1368683772161603e-12,0.0,173.19053571428543,70.0,0.0,255.0,0.0
24.350000000000204,35.6974373324987,51.26836460354965,1320.0003950800747,-6.89858928240028e-05,-2.104821419379732e-05,0.0,5.684341886080801e-13,0.0,0.0,173.1181249999997,70.0,0.0,255.0,0.0
24.400000000000205,35.69743381981802,51.268363490255524,1320.000394913368,-6.89858928240028e-05,-2.104821430748416e-05,0.0,-1.1368683772161603e-12,-1.1368683772161603e-12,0.0,173.04571428571398,70.0,0.0,255.0,0.0
24.450000000000205,35.69743030707461,51.26836237705965,1320.0003947438672,-6.898589293768964e-05,-2.104821430748416e-05,0.0,-5.684341886080801e-13,0.0,0.0,172.9733035714283,70.0,0.0,255.0,0.0
24.500000000000206,35.69742679426859,51.26836126396214,1320.0003945799544,-6.898589288084622e-05,-2.104821430748416e-05,0.0,1.1368683772161603e-12,0.0,0.0,172.90089285714257,70.0,0.0,255.0,0.0
24.550000000000207,35.697423281400056,51.26836015096309,1320.0003944132477,-6.89858928240028e-05,-2.104821430748416e-05,0.0,5.684341886080801e-13,1.1368683772161603e-12,0.0,172.82848214285684,70.0,0.0,255.0,0.0
24.600000000000207,35.697419768469096,51.268359038062584,1320.0003942474723,-6.89858928240028e-05,-2.104821419379732e-05,0.0,0.0,0.0,0.0,172.75607142857115,70.0,0.0,255.0,0.0
24.650000000000208,35.697416255475844,51.26835792526072,1320.0003940816969,-6.89858928240028e-05,-2.104821430748416e-05,0.0,-5.684341886080801e-13,-2.2737367544323206e-12,0.0,172.68366071428542,70.0,0.0,255.0,0.0
24.70000000000021,35.69741274242037,51.268356812557606,1320.0003939168528,-6.898589288084622e-05,-2.1048214421170997e-05,0.0,0.0,0.0,0.0,172.6112499999997,70.0,0.0,255.0,0.0
24.75000000000021,35.69740922930277,51.268355699953325,1320.00039375294,-6.89858928240028e-05,-2.104821430748416e-05,0.0,0.0,2.2737367544323206e-12,0.0,172.53883928571398,70.0,0.0,255.0,0.0
24.80000000000021,35.69740571612319,51.268354587447995,1320.0003935890272,-6.898589288084622e-05,-2.104821419379732e-05,0.0,-1.1368683772161603e-12,0.0,0.0,172.46642857142828,70.0,0.0,255.0,0.0
24.85000000000021,35.69740220288169,51.268353475041685,1320.0003934260458,-6.898589293768964e-05,-2.104821430748416e-05,0.0,5.684341886080801e-13,-1.1368683772161603e-12,0.0,172.39401785714256,70.0,0.0,255.0,0.0
24.90000000000021,35.6973986895784,51.268352362734504,1320.000393262133,-6.89858928240028e-05,-2.104821430748416e-05,0.0,1.1368683772161603e-12,1.1368683772161603e-12,0.0,172.32160714285683,70.0,0.0,255.0,0.0
24.950000000000212,35.697395176213405,51.26835125052654,1320.0003931028768,-6.89858928240028e-05,-2.104821419379732e-05,0.0,-5.684341886080801e-13,0.0,0.0,172.2491964285711,70.0,0.0,255.0,0.0
25.000000000000213,35.69739166278681,51.26835013841791,1320.0003929398954,-6.898589288084622e-05,-2.104821430748416e-05,0.0,0.0,-1.1368683772161603e-12,0.0,172.17678571428542,70.0,0.0,255.0,0.0
25.050000000000214,35.69738814929872,51.26834902640868,1320.0003927787766,-6.89858928240028e-05,-2.104821430748416e-05,0.0,0.0,0.0,0.0,172.1043749999997,70.0,0.0,255.0,0.0
25.100000000000215,35.697384635749245,51.26834791449896,1320.0003926167265,-6.898589288084622e-05,-2.104821430748416e-05,0.0,-5.684341886080801e-13,0.0,0.0,172.03196428571397,70.0,0.0,255.0,0.0
25.150000000000215,35.69738112213847,51.26834680268886,1320.0003924556077,-6.898589288084622e-05,-2.104821430748416e-05,0.0,5.684341886080801e-13,1.1368683772161603e-12,0.0,171.95955357142827,70.0,0.0,255.0,0.0
25.200000000000216,35.697377608466496,51.26834569097844,1320.0003922991455,-6.89858928240028e-05,-2.104821419379732e-05,0.0,0.0,0.0,0.0,171.88714285714255,70.0,0.0,255.0,0.0
25.250000000000217,35.69737409473346,51.268344579367835,1320.0003921370953,-6.898589288084622e-05,-2.104821430748416e-05,0.0,0.0,-1.1368683772161603e-12,0.0,171.81473214285683,70.0,0.0,255.0,0.0
25.300000000000217,35.69737058093943,51.26834346785711,1320.0003919797018,-6.89858928240028e-05,-2.104821430748416e-05,0.0,5.684341886080801e-13,0.0,0.0,171.74232142857113,70.0,0.0,255.0,0.0
25.350000000000218,35.697367067084535,51.26834235644636,1320.000391821377,-6.89858928240028e-05,-2.104821430748416e-05,0.0,-1.1368683772161603e-12,0.0,0.0,171.6699107142854,70.0,0.0,255.0,0.0
25.40000000000022,35.69736355316884,51.268341245135694,1320.0003916621208,-6.898589293768964e-05,-2.104821430748416e-05,0.0,-5.684341886080801e-13,1.1368683772161603e-12,0.0,171.59749999999968,70.0,0.0,255.0,0.0
25.45000000000022,35.697360039192496,51.26834013392519,1320.0003915056586,-6.898589288084622e-05,-2.104821419379732e-05,0.0,1.1368683772161603e-12,0.0,0.0,171.52508928571396,70.0,0.0,255.0,0.0
25.50000000000022,35.69735652515557,51.26833902281497,1320.000391348265,-6.89858928240028e-05,-2.104821430748416e-05,0.0,0.0,-1.1368683772161603e-12,0.0,171.45267857142827,70.0,0.0,255.0,0.0
25.55000000000022,35.69735301105819,51.26833791180509,1320.000391194597,-6.898589288084622e-05,-2.104821430748416e-05,0.0,0.0,1.1368683772161603e-12,0.0,171.38026785714254,70.0,0.0,255.0,0.0
25.60000000000022,35.69734949690043,51.26833680089568,1320.0003910372034,-6.89858928240028e-05,-2.104821419379732e-05,0.0,5.684341886080801e-13,0.0,0.0,171.30785714285682,70.0,0.0,255.0,0.0
25.650000000000222,35.69734598268243,51.26833569008681,1320.0003908826038,-6.89858928240028e-05,-2.104821430748416e-05,0.0,0.0,-2.2737367544323206e-12,0.0,171.2354464285711,70.0,0.0,255.0,0.0
25.700000000000223,35.69734246840426,51.26833457937856,1320.0003907280043,-6.89858928240028e-05,-2.1048214421170997e-05,0.0,-5.684341886080801e-13,0.0,0.0,171.1630357142854,70.0,0.0,255.0,0.0
25.750000000000224,35.69733895406607,51.26833346877106,1320.0003905734047,-6.898589288084622e-05,-2.104821430748416e-05,0.0,-1.1368683772161603e-12,2.2737367544323206e-12,0.0,171.09062499999968,70.0,0.0,255.0,0.0
25.800000000000225,35.69733543966788,51.26833235826439,1320.0003904178739,-6.898589293768964e-05,-2.104821419379732e-05,0.0,5.684341886080801e-13,0.0,0.0,171.01821428571395,70.0,0.0,255.0,0.0
25.850000000000225,35.69733192520988,51.26833124785863,1320.0003902660683,-6.89858928240028e-05,-2.104821430748416e-05,0.0,1.1368683772161603e-12,-1.1368683772161603e-12,0.0,170.94580357142826,70.0,0.0,255.0,0.0
25.900000000000226,35.69732841069214,51.26833013755388,1320.0003901124,-6.89858928240028e-05,-2.104821430748416e-05,0.0,-5.684341886080801e-13,0.0,0.0,170.87339285714253,70.0,0.0,255.0,0.0
25.950000000000227,35.69732489611476,51.26832902735025,1320.0003899596632,-6.898589288084622e-05,-2.104821430748416e-05,0.0,0.0,0.0,0.0,170.8009821428568,70.0,0.0,255.0,0.0
26.000000000000227,35.69732138147784,51.26832791724779,1320.000389808789,-6.89858928240028e-05,-2.104821430748416e-05,0.0,0.0,1.1368683772161603e-12,0.0,170.72857142857112,70.0,0.0,255.0,0.0
26.050000000000228,35.697317866781525,51.26832680724663,1320.000389656052,-6.898589288084622e-05,-2.104821419379732e-05,0.0,-5.684341886080801e-13,0.0,0.0,170.6561607142854,70.0,0.0,255.0,0.0
26.10000000000023,35.69731435202585,51.26832569734685,1320.0003895070404,-6.898589288084622e-05,-2.104821430748416e-05,0.0,5.684341886080801e-13,-1.1368683772161603e-12,0.0,170.58374999999967,70.0,0.0,255.0,0.0
26.15000000000023,35.697310837210985,51.268324587548534,1320.0003893570974,-6.89858928240028e-05,-2.104821430748416e-05,0.0,0.0,1.1368683772161603e-12,0.0,170.51133928571394,70.0,0.0,255.0,0.0
26.20000000000023,35.697307322337,51.268323477851794,1320.0003892071545,-6.898589288084622e-05,-2.104821419379732e-05,0.0,0.0,0.0,0.0,170.43892857142825,70.0,0.0,255.0,0.0
26.25000000000023,35.697303807404005,51.2683223682567,1320.000389058143,-6.89858928240028e-05,-2.104821430748416e-05,0.0,5.684341886080801e-13,-1.1368683772161603e-12,0.0,170.36651785714253,70.0,0.0,255.0,0.0
26.30000000000023,35.697300292412095,51.26832125876335,1320.0003889091313,-6.89858928240028e-05,-2.104821430748416e-05,0.0,-1.1368683772161603e-12,0.0,0.0,170.2941071428568,70.0,0.0,255.0,0.0
26.350000000000232,35.697296777361416,51.268320149371846,1320.0003887601197,-6.898589293768964e-05,-2.104821430748416e-05,0.0,-5.684341886080801e-13,0.0,0.0,170.2216964285711,70.0,0.0,255.0,0.0
26.400000000000233,35.69729326225201,51.26831904008226,1320.0003886148334,-6.898589288084622e-05,-2.104821430748416e-05,0.0,1.1368683772161603e-12,1.1368683772161603e-12,0.0,170.14928571428538,70.0,0.0,255.0,0.0
26.450000000000234,35.697289747084035,51.2683179308947,1320.0003884648904,-6.89858928240028e-05,-2.104821419379732e-05,0.0,0.0,0.0,0.0,170.07687499999966,70.0,0.0,255.0,0.0
26.500000000000234,35.69728623185758,51.26831682180925,1320.000388319604,-6.898589288084622e-05,-2.104821430748416e-05,0.0,0.0,-2.2737367544323206e-12,0.0,170.00446428571394,70.0,0.0,255.0,0.0
26.550000000000235,35.69728271657274,51.268315712825995,1320.0003881733865,-6.89858928240028e-05,-2.1048214421170997e-05,0.0,5.684341886080801e-13,0.0,0.0,169.93205357142824,70.0,0.0,255.0,0.0
26.600000000000236,35.697279201229634,51.268314603945036,1320.0003880262375,-6.89858928240028e-05,-2.104821430748416e-05,0.0,0.0,2.2737367544323206e-12,0.0,169.85964285714252,70.0,0.0,255.0,0.0
26.650000000000237,35.697275685828366,51.26831349516645,1320.0003878818825,-6.89858928240028e-05,-2.104821419379732e-05,0.0,-5.684341886080801e-13,0.0,0.0,169.7872321428568,70.0,0.0,255.0,0.0
26.700000000000237,35.69727217036902,51.26831238649034,1320.0003877375275,-6.898589288084622e-05,-2.104821430748416e-05,0.0,-1.1368683772161603e-12,-1.1368683772161603e-12,0.0,169.7148214285711,70.0,0.0,255.0,0.0
26.750000000000238,35.697268654851726,51.26831127791679,1320.0003875950351,-6.898589293768964e-05,-2.104821430748416e-05,0.0,5.684341886080801e-13,1.1368683772161603e-12,0.0,169.64241071428538,70.0,0.0,255.0,0.0
26.80000000000024,35.69726513927658,51.26831016944589,1320.0003874497488,-6.89858928240028e-05,-2.104821419379732e-05,0.0,1.1368683772161603e-12,1.1368683772161603e-12,0.0,169.56999999999965,70.0,0.0,255.0,0.0
26.85000000000024,35.69726162364371,51.26830906107773,1320.0003873063251,-6.89858928240028e-05,-2.104821419379732e-05,0.0,-5.684341886080801e-13,-1.1368683772161603e-12,0.0,169.49758928571396,70.0,0.0,255.0,0.0
26.90000000000024,35.69725810795318,51.2683079528124,1320.0003871638328,-6.898589288084622e-05,-2.104821430748416e-05,0.0,0.0,-2.2737367544323206e-12,0.0,169.42517857142823,70.0,0.0,255.0,0.0
26.95000000000024,35.69725459220512,51.268306844649985,1320.000387023203,-6.89858928240028e-05,-2.1048214421170997e-05,0.0,0.0,0.0,0.0,169.3527678571425,70.0,0.0,255.0,0.0
27.00000000000024,35.697251076399645,51.268305736590584,1320.0003868807107,-6.898589288084622e-05,-2.104821430748416e-05,0.0,-1.1368683772161603e-12,2.2737367544323206e-12,0.0,169.2803571428568,70.0,0.0,255.0,0.0
27.050000000000242,35.697247560536844,51.26830462863426,1320.000386740081,-6.898589293768964e-05,-2.104821419379732e-05,0.0,5.684341886080801e-13,0.0,0.0,169.2079464285711,70.0,0.0,255.0,0.0
27.100000000000243,35.69724404461682,51.26830352078114,1320.0003865994513,-6.89858928240028e-05,-2.104821430748416e-05,0.0,1.1368683772161603e-12,-1.1368683772161603e-12,0.0,169.13553571428537,70.0,0.0,255.0,0.0
27.150000000000244,35.697240528639725,51.268302413031286,1320.0003864606842,-6.89858928240028e-05,-2.104821430748416e-05,0.0,0.0,0.0,0.0,169.06312499999964,70.0,0.0,255.0,0.0
27.200000000000244,35.697237012605605,51.26830130538481,1320.0003863191232,-6.89858928240028e-05,-2.104821430748416e-05,0.0,0.0,0.0,0.0,168.99071428571392,70.0,0.0,255.0,0.0
27.250000000000245,35.6972334965146,51.26830019784177,1320.0003861822188,-6.89858928240028e-05,-2.104821430748416e-05,0.0,-1.1368683772161603e-12,1.1368683772161603e-12,0.0,168.91830357142823,70.0,0.0,255.0,0.0
27.300000000000246,35.697229980366785,51.268299090402266,1320.0003860425204,-6.898589293768964e-05,-2.104821419379732e-05,0.0,-5.684341886080801e-13,0.0,0.0,168.8458928571425,70.0,0.0,255.0,0.0
27.350000000000247,35.69722646416233,51.2682979830664,1320.0003859046847,-6.898589288084622e-05,-2.104821430748416e-05,0.0,1.1368683772161603e-12,-1.1368683772161603e-12,0.0,168.77348214285678,70.0,0.0,255.0,0.0
27.400000000000247,35.69722294790126,51.26829687583423,1320.000385766849,-6.89858928240028e-05,-2.104821430748416e-05,0.0,0.0,1.1368683772161603e-12,0.0,168.70107142857108,70.0,0.0,255.0,0.0
27.450000000000248,35.69721943158373,51.26829576870587,1320.0003856318071,-6.898589288084622e-05,-2.104821419379732e-05,0.0,0.0,0.0,0.0,168.62866071428536,70.0,0.0,255.0,0.0
27.50000000000025,35.69721591520987,51.2682946616814,1320.0003854949027,-6.89858928240028e-05,-2.104821430748416e-05,0.0,5.684341886080801e-13,-2.2737367544323206e-12,0.0,168.55624999999964,70.0,0.0,255.0,0.0
27.55000000000025,35.69721239877975,51.2682935547609,1320.000385359861,-6.89858928240028e-05,-2.1048214421170997e-05,0.0,0.0,0.0,0.0,168.48383928571394,70.0,0.0,255.0,0.0
27.60000000000025,35.69720888229348,51.26829244794446,1320.0003852229565,-6.89858928240028e-05,-2.104821430748416e-05,0.0,-5.684341886080801e-13,2.2737367544323206e-12,0.0,168.41142857142822,70.0,0.0,255.0,0.0
27.65000000000025,35.69720536575117,51.268291341232185,1320.0003850897774,-6.898589288084622e-05,-2.104821419379732e-05,0.0,-1.1368683772161603e-12,1.1368683772161603e-12,0.0,168.3390178571425,70.0,0.0,255.0,0.0
27.70000000000025,35.69720184915291,51.26829023462414,1320.0003849565983,-6.898589293768964e-05,-2.104821419379732e-05,0.0,5.684341886080801e-13,-1.1368683772161603e-12,0.0,168.26660714285677,70.0,0.0,255.0,0.0
27.750000000000252,35.69719833249885,51.268289128120415,1320.0003848215565,-6.89858928240028e-05,-2.104821430748416e-05,0.0,1.1368683772161603e-12,-2.2737367544323206e-12,0.0,168.19419642857108,70.0,0.0,255.0,0.0
27.800000000000253,35.69719481578907,51.2682880217211,1320.000384687446,-6.89858928240028e-05,-2.1048214421170997e-05,0.0,-5.684341886080801e-13,0.0,0.0,168.12178571428535,70.0,0.0,255.0,0.0
27.850000000000254,35.69719129902369,51.26828691542629,1320.000384557061,-6.898589288084622e-05,-2.104821430748416e-05,0.0,0.0,2.2737367544323206e-12,0.0,168.04937499999963,70.0,0.0,255.0,0.0
27.900000000000254,35.6971877822028,51.268285809236055,1320.000384424813,-6.89858928240028e-05,-2.104821419379732e-05,0.0,0.0,0.0,0.0,167.9769642857139,70.0,0.0,255.0,0.0
27.950000000000255,35.697184265326534,51.268284703150485,1320.0003842934966,-6.898589288084622e-05,-2.104821430748416e-05,0.0,-1.1368683772161603e-12,-1.1368683772161603e-12,0.0,167.9045535714282,70.0,0.0,255.0,0.0
28.000000000000256,35.69718074839498,51.26828359716966,1320.0003841621801,-6.898589293768964e-05,-2.104821430748416e-05,0.0,5.684341886080801e-13,1.1368683772161603e-12,0.0,167.8321428571425,70.0,0.0,255.0,0.0
28.050000000000257,35.69717723140823,51.26828249129369,1320.0003840327263,-6.89858928240028e-05,-2.104821419379732e-05,0.0,1.1368683772161603e-12,0.0,0.0,167.75973214285676,70.0,0.0,255.0,0.0
28.100000000000257,35.69717371436644,51.268281385522634,1320.0003839014098,-6.89858928240028e-05,-2.104821430748416e-05,0.0,0.0,-1.1368683772161603e-12,0.0,167.68732142857107,70.0,0.0,255.0,0.0
28.150000000000258,35.69717019726968,51.2682802798566,1320.0003837728873,-6.89858928240028e-05,-2.104821430748416e-05,0.0,0.0,0.0,0.0,167.61491071428534,70.0,0.0,255.0,0.0
28.20000000000026,35.697166680118066,51.26827917429565,1320.0003836434335,-6.89858928240028e-05,-2.104821430748416e-05,0.0,-1.1368683772161603e-12,0.0,0.0,167.54249999999962,70.0,0.0,255.0,0.0
28.25000000000026,35.69716316291171,51.26827806883988,1320.0003835158423,-6.898589293768964e-05,-2.104821430748416e-05,0.0,-5.684341886080801e-13,1.1368683772161603e-12,0.0,167.47008928571393,70.0,0.0,255.0,0.0
28.30000000000026,35.697159645650714,51.26827696348937,1320.0003833891824,-6.898589288084622e-05,-2.104821419379732e-05,0.0,1.1368683772161603e-12,0.0,0.0,167.3976785714282,70.0,0.0,255.0,0.0
28.35000000000026,35.697156128335216,51.26827585824422,1320.0003832597286,-6.89858928240028e-05,-2.104821430748416e-05,0.0,0.0,-2.2737367544323206e-12,0.0,167.32526785714248,70.0,0.0,255.0,0.0
28.40000000000026,35.69715261096527,51.2682747531045,1320.0003831330687,-6.898589288084622e-05,-2.1048214421170997e-05,0.0,0.0,0.0,0.0,167.25285714285675,70.0,0.0,255.0,0.0
28.450000000000262,35.697149093541036,51.268273648070284,1320.0003830082715,-6.89858928240028e-05,-2.104821430748416e-05,0.0,5.684341886080801e-13,2.2737367544323206e-12,0.0,167.18044642857106,70.0,0.0,255.0,0.0
28.500000000000263,35.6971455760626,51.2682725431417,1320.0003828816116,-6.89858928240028e-05,-2.104821419379732e-05,0.0,0.0,1.1368683772161603e-12,0.0,167.10803571428534,70.0,0.0,255.0,0.0
28.550000000000264,35.69714205853007,51.26827143831878,1320.0003827577457,-6.89858928240028e-05,-2.104821419379732e-05,0.0,-5.684341886080801e-13,-1.1368683772161603e-12,0.0,167.0356249999996,70.0,0.0,255.0,0.0
28.600000000000264,35.69713854094356,51.268270333601635,1320.0003826329485,-6.898589288084622e-05,-2.104821430748416e-05,0.0,-1.1368683772161603e-12,-1.1368683772161603e-12,0.0,166.96321428571392,70.0,0.0,255.0,0.0
28.650000000000265,35.69713502330318,51.26826922899033,1320.0003825090826,-6.898589293768964e-05,-2.104821430748416e-05,0.0,5.684341886080801e-13,1.1368683772161603e-12,0.0,166.8908035714282,70.0,0.0,255.0,0.0
28.700000000000266,35.69713150560903,51.26826812448496,1320.000382386148,-6.89858928240028e-05,-2.104821419379732e-05,0.0,1.1368683772161603e-12,0.0,0.0,166.81839285714247,70.0,0.0,255.0,0.0
28.750000000000266,35.697127987861236,51.268267020085624,1320.0003822632134,-6.89858928240028e-05,-2.104821430748416e-05,0.0,-5.684341886080801e-13,-2.2737367544323206e-12,0.0,166.74598214285675,70.0,0.0,255.0,0.0
28.800000000000267,35.697124470059876,51.268265915792384,1320.0003821412101,-6.898589288084622e-05,-2.1048214421170997e-05,0.0,0.0,0.0,0.0,166.67357142857105,70.0,0.0,255.0,0.0
28.850000000000268,35.6971209522051,51.26826481160533,1320.0003820201382,-6.89858928240028e-05,-2.104821430748416e-05,0.0,0.0,2.2737367544323206e-12,0.0,166.60116071428533,70.0,0.0,255.0,0.0
28.90000000000027,35.697117434297006,51.26826370752455,1320.0003818972036,-6.898589288084622e-05,-2.104821419379732e-05,0.0,-1.1368683772161603e-12,0.0,0.0,166.5287499999996,70.0,0.0,255.0,0.0
28.95000000000027,35.69711391633569,51.26826260355011,1320.0003817761317,-6.898589293768964e-05,-2.104821430748416e-05,0.0,5.684341886080801e-13,-1.1368683772161603e-12,0.0,166.4563392857139,70.0,0.0,255.0,0.0
29.00000000000027,35.69711039832125,51.268261499682104,1320.000381655991,-6.89858928240028e-05,-2.104821430748416e-05,0.0,1.1368683772161603e-12,0.0,0.0,166.38392857142819,70.0,0.0,255.0,0.0
29.05000000000027,35.69710688025383,51.26826039592062,1320.000381537713,-6.89858928240028e-05,-2.104821430748416e-05,0.0,0.0,0.0,0.0,166.31151785714246,70.0,0.0,255.0,0.0
29.10000000000027,35.69710336213351,51.268259292265725,1320.0003814185038,-6.89858928240028e-05,-2.104821430748416e-05,0.0,0.0,1.1368683772161603e-12,0.0,166.23910714285677,70.0,0.0,255.0,0.0
29.150000000000272,35.69709984396042,51.2682581887175,1320.0003813020885,-6.89858928240028e-05,-2.104821419379732e-05,0.0,-1.1368683772161603e-12,0.0,0.0,166.16669642857104,70.0,0.0,255.0,0.0
29.200000000000273,35.69709632573467,51.26825708527606,1320.000381181948,-6.898589293768964e-05,-2.104821430748416e-05,0.0,-5.684341886080801e-13,-1.1368683772161603e-12,0.0,166.09428571428532,70.0,0.0,255.0,0.0
29.250000000000274,35.69709280745636,51.268255981941444,1320.0003810646012,-6.898589288084622e-05,-2.104821430748416e-05,0.0,1.1368683772161603e-12,1.1368683772161603e-12,0.0,166.0218749999996,70.0,0.0,255.0,0.0
29.300000000000274,35.69708928912561,51.268254878713755,1320.000380948186,-6.89858928240028e-05,-2.104821419379732e-05,0.0,0.0,0.0,0.0,165.9494642857139,70.0,0.0,255.0,0.0
29.350000000000275,35.697085770742504,51.26825377559308,1320.000380832702,-6.898589288084622e-05,-2.104821430748416e-05,0.0,0.0,-1.1368683772161603e-12,0.0,165.87705357142818,70.0,0.0,255.0,0.0
29.400000000000276,35.69708225230718,51.26825267257947,1320.0003807153553,-6.89858928240028e-05,-2.104821430748416e-05,0.0,5.684341886080801e-13,0.0,0.0,165.80464285714245,70.0,0.0,255.0,0.0
29.450000000000276,35.69707873381976,51.26825156967305,1320.000380601734,-6.89858928240028e-05,-2.104821430748416e-05,0.0,-1.1368683772161603e-12,0.0,0.0,165.73223214285673,70.0,0.0,255.0,0.0
29.500000000000277,35.69707521528031,51.26825046687385,1320.0003804853186,-6.898589293768964e-05,-2.104821430748416e-05,0.0,-5.684341886080801e-13,1.1368683772161603e-12,0.0,165.65982142857104,70.0,0.0,255.0,0.0
29.550000000000278,35.69707169668897,51.26824936418198,1320.0003803726286,-6.898589288084622e-05,-2.104821419379732e-05,0.0,1.1368683772161603e-12,0.0,0.0,165.5874107142853,70.0,0.0,255.0,0.0
29.60000000000028,35.69706817804585,51.26824826159755,1320.0003802590072,-6.89858928240028e-05,-2.104821430748416e-05,0.0,5.684341886080801e-13,-2.2737367544323206e-12,0.0,165.5149999999996,70.0,0.0,255.0,0.0
29.65000000000028,35.697064659351064,51.26824715912057,1320.0003801453859,-6.89858928240028e-05,-2.1048214421170997e-05,0.0,0.0,0.0,0.0,165.4425892857139,70.0,0.0,255.0,0.0
29.70000000000028,35.69706114060471,51.268246056751174,1320.0003800336272,-6.89858928240028e-05,-2.104821430748416e-05,0.0,-5.684341886080801e-13,2.2737367544323206e-12,0.0,165.37017857142817,70.0,0.0,255.0,0.0
29.75000000000028,35.697057621806906,51.268244954489425,1320.0003799209371,-6.898589288084622e-05,-2.104821419379732e-05,0.0,0.0,0.0,0.0,165.29776785714245,70.0,0.0,255.0,0.0
29.80000000000028,35.69705410295774,51.2682438523354,1320.0003798101097,-6.89858928240028e-05,-2.104821430748416e-05,0.0,0.0,-1.1368683772161603e-12,0.0,165.22535714285675,70.0,0.0,255.0,0.0
29.850000000000282,35.697050584057386,51.26824275028918,1320.0003797002137,-6.898589288084622e-05,-2.104821430748416e-05,0.0,-1.1368683772161603e-12,1.1368683772161603e-12,0.0,165.15294642857103,70.0,0.0,255.0,0.0
29.900000000000283,35.697047065105885,51.26824164835086,1320.0003795903176,-6.898589293768964e-05,-2.104821419379732e-05,0.0,5.684341886080801e-13,0.0,0.0,165.0805357142853,70.0,0.0,255.0,0.0
29.950000000000284,35.69704354610339,51.26824054652049,1320.000379478559,-6.89858928240028e-05,-2.104821430748416e-05,0.0,1.1368683772161603e-12,-1.1368683772161603e-12,0.0,165.00812499999958,70.0,0.0,255.0,0.0
30.000000000000284,35.69704002705,51.268239444798155,1320.0003793705255,-6.89858928240028e-05,-2.104821430748416e-05,0.0,0.0,0.0,0.0,164.93571428571389,70.0,0.0,255.0,0.0
30.050000000000285,35.69703650794581,51.26823834318396,1320.0003792615607,-6.89858928240028e-05,-2.104821430748416e-05,0.0,0.0,0.0,0.0,164.86330357142816,70.0,0.0,255.0,0.0
30.100000000000286,35.697032988790966,51.268237241677966,1320.0003791544586,-6.89858928240028e-05,-2.104821430748416e-05,0.0,-1.1368683772161603e-12,1.1368683772161603e-12,0.0,164.79089285714244,70.0,0.0,255.0,0.0
30.150000000000286,35.69702946958555,51.268236140280244,1320.0003790473565,-6.898589293768964e-05,-2.104821419379732e-05,0.0,-5.684341886080801e-13,0.0,0.0,164.71848214285671,70.0,0.0,255.0,0.0
30.200000000000287,35.697025950329696,51.26823503899089,1320.0003789402544,-6.898589288084622e-05,-2.104821430748416e-05,0.0,1.1368683772161603e-12,-1.1368683772161603e-12,0.0,164.64607142857102,70.0,0.0,255.0,0.0
30.250000000000288,35.6970224310235,51.26823393780995,1320.0003788340837,-6.89858928240028e-05,-2.104821430748416e-05,0.0,0.0,0.0,0.0,164.5736607142853,70.0,0.0,255.0,0.0
30.30000000000029,35.69701891166708,51.268232836737546,1320.0003787288442,-6.898589288084622e-05,-2.104821430748416e-05,0.0,0.0,0.0,0.0,164.50124999999957,70.0,0.0,255.0,0.0
30.35000000000029,35.697015392260525,51.26823173577372,1320.0003786236048,-6.89858928240028e-05,-2.104821430748416e-05,0.0,5.684341886080801e-13,1.1368683772161603e-12,0.0,164.42883928571388,70.0,0.0,255.0,0.0
30.40000000000029,35.69701187280399,51.26823063491856,1320.0003785183653,-6.89858928240028e-05,-2.104821419379732e-05,0.0,-1.1368683772161603e-12,0.0,0.0,164.35642857142815,70.0,0.0,255.0,0.0
30.45000000000029,35.69700835329757,51.26822953417216,1320.0003784149885,-6.898589293768964e-05,-2.104821430748416e-05,0.0,-5.684341886080801e-13,-1.1368683772161603e-12,0.0,164.28401785714243,70.0,0.0,255.0,0.0
30.50000000000029,35.69700483374135,51.26822843353458,1320.000378312543,-6.898589288084622e-05,-2.104821430748416e-05,0.0,1.1368683772161603e-12,1.1368683772161603e-12,0.0,164.21160714285674,70.0,0.0,255.0,0.0
30.550000000000292,35.697001314135484,51.268227333005896,1320.0003782091662,-6.89858928240028e-05,-2.104821419379732e-05,0.0,5.684341886080801e-13,0.0,0.0,164.139196428571,70.0,0.0,255.0,0.0
30.600000000000293,35.69699779448007,51.26822623258619,1320.000378107652,-6.89858928240028e-05,-2.104821430748416e-05,0.0,0.0,-2.2737367544323206e-12,0.0,164.0667857142853,70.0,0.0,255.0,0.0
30.650000000000293,35.69699427477519,51.26822513227553,1320.0003780052066,-6.89858928240028e-05,-2.1048214421170997e-05,0.0,-5.684341886080801e-13,0.0,0.0,163.99437499999956,70.0,0.0,255.0,0.0
30.700000000000294,35.696990755021,51.268224032074016,1320.0003779046237,-6.898589288084622e-05,-2.104821430748416e-05,0.0,0.0,2.2737367544323206e-12,0.0,163.92196428571387,70.0,0.0,255.0,0.0
30.750000000000295,35.69698723521759,51.268222931981704,1320.000377804041,-6.89858928240028e-05,-2.104821419379732e-05,0.0,0.0,0.0,0.0,163.84955357142815,70.0,0.0,255.0,0.0
30.800000000000296,35.696983715365086,51.268221831998666,1320.0003777043894,-6.898589288084622e-05,-2.104821430748416e-05,0.0,-1.1368683772161603e-12,-1.1368683772161603e-12,0.0,163.77714285714242,70.0,0.0,255.0,0.0
30.850000000000296,35.69698019546359,51.26822073212499,1320.0003776038066,-6.898589293768964e-05,-2.104821430748416e-05,0.0,5.684341886080801e-13,0.0,0.0,163.70473214285673,70.0,0.0,255.0,0.0
30.900000000000297,35.696976675513206,51.26821963236075,1320.0003775060177,-6.89858928240028e-05,-2.104821430748416e-05,0.0,1.1368683772161603e-12,0.0,0.0,163.632321428571,70.0,0.0,255.0,0.0
30.950000000000298,35.696973155514065,51.26821853270602,1320.0003774082288,-6.89858928240028e-05,-2.104821430748416e-05,0.0,-5.684341886080801e-13,1.1368683772161603e-12,0.0,163.55991071428528,70.0,0.0,255.0,0.0
31.0000000000003,35.69696963546627,51.26821743316088,1320.0003773085773,-6.898589288084622e-05,-2.104821419379732e-05,0.0,0.0,0.0,0.0,163.48749999999956,70.0,0.0,255.0,0.0
31.0500000000003,35.696966115369925,51.2682163337254,1320.0003772107884,-6.89858928240028e-05,-2.104821430748416e-05,0.0,0.0,-1.1368683772161603e-12,0.0,163.41508928571386,70.0,0.0,255.0,0.0
31.1000000000003,35.69696259522517,51.26821523439966,1320.0003771157935,-6.898589288084622e-05,-2.104821430748416e-05,0.0,-5.684341886080801e-13,1.1368683772161603e-12,0.0,163.34267857142814,70.0,0.0,255.0,0.0
31.1500000000003,35.6969590750321,51.268214135183726,1320.000377018936,-6.898589288084622e-05,-2.104821419379732e-05,0.0,5.684341886080801e-13,0.0,0.0,163.27026785714241,70.0,0.0,255.0,0.0
31.2000000000003,35.69695555479083,51.268213036077675,1320.0003769258037,-6.89858928240028e-05,-2.104821430748416e-05,0.0,0.0,-1.1368683772161603e-12,0.0,163.19785714285672,70.0,0.0,255.0,0.0
31.250000000000302,35.69695203450148,51.26821193708159,1320.0003768289462,-6.898589288084622e-05,-2.104821430748416e-05,0.0,0.0,0.0,0.0,163.125446428571,70.0,0.0,255.0,0.0
31.300000000000303,35.696948514164134,51.268210838195536,1320.000376735814,-6.89858928240028e-05,-2.104821430748416e-05,0.0,5.684341886080801e-13,0.0,0.0,163.05303571428527,70.0,0.0,255.0,0.0
31.350000000000303,35.696944993778956,51.26820973941958,1320.0003766417503,-6.89858928240028e-05,-2.104821430748416e-05,0.0,-1.1368683772161603e-12,1.1368683772161603e-12,0.0,162.98062499999958,70.0,0.0,255.0,0.0
31.400000000000304,35.696941473346016,51.26820864075382,1320.000376548618,-6.898589293768964e-05,-2.104821419379732e-05,0.0,-5.684341886080801e-13,0.0,0.0,162.90821428571385,70.0,0.0,255.0,0.0
31.450000000000305,35.696937952865454,51.26820754219833,1320.0003764554858,-6.898589288084622e-05,-2.104821430748416e-05,0.0,1.1368683772161603e-12,-2.2737367544323206e-12,0.0,162.83580357142813,70.0,0.0,255.0,0.0
31.500000000000306,35.69693443233737,51.26820644375315,1320.0003763642162,-6.89858928240028e-05,-2.1048214421170997e-05,0.0,5.684341886080801e-13,0.0,0.0,162.7633928571424,70.0,0.0,255.0,0.0
31.550000000000306,35.69693091176189,51.26820534541838,1320.000376273878,-6.89858928240028e-05,-2.104821430748416e-05,0.0,0.0,2.2737367544323206e-12,0.0,162.6909821428567,70.0,0.0,255.0,0.0
31.600000000000307,35.69692739113911,51.268204247194085,1320.000376181677,-6.89858928240028e-05,-2.104821419379732e-05,0.0,-5.684341886080801e-13,0.0,0.0,162.618571428571,70.0,0.0,255.0,0.0
31.650000000000308,35.69692387046915,51.26820314908034,1320.0003760913387,-6.898589288084622e-05,-2.104821430748416e-05,0.0,0.0,-1.1368683772161603e-12,0.0,162.54616071428526,70.0,0.0,255.0,0.0
31.70000000000031,35.696920349752126,51.268202051077225,1320.0003760019317,-6.89858928240028e-05,-2.104821430748416e-05,0.0,0.0,1.1368683772161603e-12,0.0,162.47374999999954,70.0,0.0,255.0,0.0
31.75000000000031,35.69691682898817,51.2682009531848,1320.0003759125248,-6.898589288084622e-05,-2.104821419379732e-05,0.0,-1.1368683772161603e-12,1.1368683772161603e-12,0.0,162.40133928571385,70.0,0.0,255.0,0.0
31.80000000000031,35.696913308177365,51.26819985540315,1320.0003758259118,-6.898589293768964e-05,-2.104821419379732e-05,0.0,5.684341886080801e-13,-1.1368683772161603e-12,0.0,162.32892857142812,70.0,0.0,255.0,0.0
31.85000000000031,35.69690978731984,51.26819875773234,1320.0003757365048,-6.89858928240028e-05,-2.104821430748416e-05,0.0,1.1368683772161603e-12,-2.2737367544323206e-12,0.0,162.2565178571424,70.0,0.0,255.0,0.0
31.90000000000031,35.696906266415716,51.26819766017244,1320.0003756508231,-6.89858928240028e-05,-2.1048214421170997e-05,0.0,-5.684341886080801e-13,0.0,0.0,162.1841071428567,70.0,0.0,255.0,0.0
31.950000000000312,35.6969027454651,51.26819656272353,1320.0003755614161,-6.898589288084622e-05,-2.104821430748416e-05,0.0,0.0,1.1368683772161603e-12,0.0,162.11169642857098,70.0,0.0,255.0,0.0
32.00000000000031,35.696899224468105,51.26819546538568,1320.0003754757345,-6.89858928240028e-05,-2.104821430748416e-05,0.0,5.684341886080801e-13,2.710505431213761e-20,0.0,162.03928571428526,70.0,0.0,255.0,0.0
32.05000000000031,35.69689570342484,51.26819436815895,1320.0003753909841,-6.89858928240028e-05,-2.104821430748416e-05,0.0,1.0842021724855044e-19,1.1368683772161603e-12,0.0,161.96687499999956,70.0,0.0,255.0,0.0
32.100000000000314,35.696892182335446,51.26819327104343,1320.0003753043711,-6.89858928240028e-05,-2.104821419379732e-05,0.0,-5.684341886080801e-13,0.0,0.0,161.89446428571384,70.0,0.0,255.0,0.0
32.15000000000032,35.696888661200006,51.26819217403917,1320.0003752196208,-6.898589288084622e-05,-2.104821430748416e-05,0.0,-5.684342970282974e-13,-1.1368683772161603e-12,0.0,161.8220535714281,70.0,0.0,255.0,0.0
32.200000000000315,35.696885140018644,51.26819107714628,1320.0003751376644,-6.898589288084622e-05,-2.104821430748416e-05,0.0,5.684341886080801e-13,1.1368683772161603e-12,0.0,161.74964285714242,70.0,0.0,255.0,0.0
32.25000000000031,35.696881618791494,51.26818998036478,1320.0003750538453,-6.89858928240028e-05,-2.104821419379732e-05,0.0,1.0842021724855044e-19,1.1368683772161603e-12,0.0,161.6772321428567,70.0,0.0,255.0,0.0
32.30000000000032,35.69687809751865,51.268188883694776,1320.0003749709576,-6.898589288084622e-05,-2.104821419379732e-05,0.0,-5.684341886080801e-13,-2.2737367544323206e-12,0.0,161.60482142857097,70.0,0.0,255.0,0.0
32.35000000000032,35.696874576200216,51.26818778713632,1320.00037488807,-6.898589288084622e-05,-2.1048214421170997e-05,0.0,-1.0842021724855044e-19,-1.1368683772161603e-12,0.0,161.53241071428525,70.0,0.0,255.0,0.0
32.40000000000032,35.696871054836336,51.268186690689504,1320.0003748070449,-6.898589288084622e-05,-2.104821430748416e-05,0.0,5.684341886080801e-13,2.2737367544323206e-12,0.0,161.45999999999952,70.0,0.0,255.0,0.0
32.450000000000315,35.69686753342711,51.26818559435438,1320.0003747260198,-6.89858928240028e-05,-2.104821419379732e-05,0.0,1.0842021724855044e-19,0.0,0.0,161.38758928571383,70.0,0.0,255.0,0.0
32.50000000000032,35.696864011972664,51.26818449813102,1320.000374645926,-6.898589288084622e-05,-2.104821430748416e-05,0.0,-5.684341886080801e-13,-1.1368683772161603e-12,0.0,161.3151785714281,70.0,0.0,255.0,0.0
32.550000000000324,35.69686049047309,51.268183402019496,1320.0003745658323,-6.898589288084622e-05,-2.104821430748416e-05,0.0,5.684340801878629e-13,0.0,0.0,161.24276785714238,70.0,0.0,255.0,0.0
32.60000000000032,35.69685696892853,51.26818230601988,1320.00037448667,-6.89858928240028e-05,-2.104821430748416e-05,0.0,5.684341886080801e-13,1.1368683772161603e-12,0.0,161.1703571428567,70.0,0.0,255.0,0.0
32.65000000000032,35.69685344733909,51.26818121013225,1320.0003744084388,-6.89858928240028e-05,-2.104821419379732e-05,0.0,1.0842021724855044e-19,1.1368683772161603e-12,0.0,161.09794642857096,70.0,0.0,255.0,0.0
32.70000000000032,35.69684992570486,51.26818011435665,1320.0003743302077,-6.89858928240028e-05,-2.104821419379732e-05,0.0,-1.1368683772161603e-12,-2.2737367544323206e-12,0.0,161.02553571428524,70.0,0.0,255.0,0.0
32.75000000000033,35.696846404026005,51.268179018693175,1320.000374252908,-6.898589293768964e-05,-2.1048214421170997e-05,0.0,-1.0842021724855044e-19,0.0,0.0,160.95312499999955,70.0,0.0,255.0,0.0
32.800000000000324,35.6968428823026,51.268177923141884,1320.0003741765395,-6.89858928240028e-05,-2.104821419379732e-05,0.0,1.1368683772161603e-12,2.2737367544323206e-12,0.0,160.88071428571382,70.0,0.0,255.0,0.0
32.85000000000032,35.69683936053478,51.268176827702845,1320.0003741011024,-6.89858928240028e-05,-2.104821419379732e-05,0.0,-1.136868268795943e-12,-1.1368683772161603e-12,0.0,160.8083035714281,70.0,0.0,255.0,0.0
32.900000000000325,35.696835838722656,51.26817573237613,1320.000374024734,-6.898589293768964e-05,-2.104821430748416e-05,0.0,0.0,-1.1368683772161603e-12,0.0,160.7358928571424,70.0,0.0,255.0,0.0
32.95000000000033,35.696832316866335,51.2681746371618,1320.000373950228,-6.89858928240028e-05,-2.104821430748416e-05,0.0,5.684340801878629e-13,0.0,0.0,160.66348214285665,70.0,0.0,255.0,0.0
33.00000000000033,35.696828794965946,51.268173542059934,1320.000373874791,-6.898589288084622e-05,-2.104821430748416e-05,0.0,0.0,0.0,0.0,160.59107142857096,70.0,0.0,255.0,0.0
33.050000000000324,35.69682527302161,51.268172447070604,1320.0003738012165,-6.89858928240028e-05,-2.104821430748416e-05,0.0,5.684342970282974e-13,0.0,0.0,160.51866071428526,70.0,0.0,255.0,0.0
33.10000000000033,35.696821751033426,51.26817135219385,1320.000373727642,-6.89858928240028e-05,-2.104821430748416e-05,0.0,-1.1368683772161603e-12,0.0,0.0,160.4462499999995,70.0,0.0,255.0,0.0
33.15000000000033,35.696818229001515,51.26817025742978,1320.0003736540675,-6.898589293768964e-05,-2.104821430748416e-05,0.0,-1.0842021724855044e-19,0.0,0.0,160.3738392857138,70.0,0.0,255.0,0.0
33.20000000000033,35.696814706926006,51.26816916277842,1320.000373583287,-6.89858928240028e-05,-2.104821430748416e-05,0.0,1.1368683772161603e-12,1.1368683772161603e-12,0.0,160.3014285714281,70.0,0.0,255.0,0.0
33.25000000000033,35.69681118480699,51.26816806823986,1320.0003735125065,-6.89858928240028e-05,-2.104821419379732e-05,0.0,-1.136868268795943e-12,1.1368683772161603e-12,0.0,160.2290178571424,70.0,0.0,255.0,0.0
33.30000000000033,35.6968076626446,51.26816697381418,1320.0003734407946,-6.898589293768964e-05,-2.104821419379732e-05,0.0,0.0,-2.2737367544323206e-12,0.0,160.15660714285667,70.0,0.0,255.0,0.0
33.350000000000335,35.69680414043896,51.26816587950142,1320.0003733690828,-6.89858928240028e-05,-2.1048214421170997e-05,0.0,1.136868268795943e-12,0.0,0.0,160.08419642857095,70.0,0.0,255.0,0.0
33.40000000000033,35.69680061819018,51.26816478530167,1320.000373300165,-6.89858928240028e-05,-2.104821419379732e-05,0.0,-1.1368683772161603e-12,2.2737367544323206e-12,0.0,160.01178571428522,70.0,0.0,255.0,0.0
33.45000000000033,35.69679709589837,51.26816369121498,1320.000373231247,-6.898589293768964e-05,-2.104821419379732e-05,0.0,1.0842021724855044e-19,-1.1368683772161603e-12,0.0,159.93937499999953,70.0,0.0,255.0,0.0
33.500000000000334,35.69679357356364,51.268162597241414,1320.0003731613979,-6.89858928240028e-05,-2.104821430748416e-05,0.0,1.1368683772161603e-12,-1.1368683772161603e-12,0.0,159.8669642857138,70.0,0.0,255.0,0.0
33.55000000000034,35.69679005118613,51.268161503381066,1320.0003730943426,-6.89858928240028e-05,-2.104821430748416e-05,0.0,-1.0842021724855044e-19,0.0,0.0,159.79455357142808,70.0,0.0,255.0,0.0
33.600000000000335,35.696786528765934,51.268160409633964,1320.0003730282187,-6.89858928240028e-05,-2.104821430748416e-05,0.0,0.0,1.1368683772161603e-12,0.0,159.7221428571424,70.0,0.0,255.0,0.0
33.65000000000033,35.69678300630318,51.26815931600021,1320.0003729611635,-6.89858928240028e-05,-2.104821419379732e-05,0.0,-5.684340801878629e-13,0.0,0.0,159.64973214285666,70.0,0.0,255.0,0.0
33.70000000000034,35.69677948379799,51.26815822247985,1320.0003728950396,-6.898589288084622e-05,-2.104821430748416e-05,0.0,-5.684341886080801e-13,-2.2737367544323206e-12,0.0,159.57732142857094,70.0,0.0,255.0,0.0
33.75000000000034,35.69677596125046,51.26815712907295,1320.0003728289157,-6.898589288084622e-05,-2.1048214421170997e-05,0.0,5.684340801878629e-13,1.1368683772161603e-12,0.0,159.50491071428522,70.0,0.0,255.0,0.0
33.80000000000034,35.69677243866074,51.26815603577957,1320.0003727637231,-6.89858928240028e-05,-2.104821419379732e-05,0.0,0.0,2.2737367544323206e-12,0.0,159.43249999999952,70.0,0.0,255.0,0.0
33.850000000000335,35.696768916028915,51.26815494259979,1320.0003726985306,-6.898589288084622e-05,-2.104821419379732e-05,0.0,-5.684340801878629e-13,-1.1368683772161603e-12,0.0,159.3600892857138,70.0,0.0,255.0,0.0
33.90000000000034,35.696765393355115,51.26815384953367,1320.0003726352006,-6.898589288084622e-05,-2.104821430748416e-05,0.0,5.684341886080801e-13,-1.1368683772161603e-12,0.0,159.28767857142807,70.0,0.0,255.0,0.0
33.950000000000344,35.69676187063947,51.268152756581266,1320.0003725709394,-6.89858928240028e-05,-2.104821430748416e-05,0.0,-1.0842021724855044e-19,1.1368683772161603e-12,0.0,159.21526785714235,70.0,0.0,255.0,0.0
34.00000000000034,35.696758347882074,51.268151663742664,1320.0003725085407,-6.898589288084622e-05,-2.104821419379732e-05,0.0,0.0,0.0,0.0,159.14285714285666,70.0,0.0,255.0,0.0
34.05000000000034,35.69675482508307,51.2681505710179,1320.0003724470735,-6.89858928240028e-05,-2.104821430748416e-05,0.0,1.0842021724855044e-19,-1.1368683772161603e-12,0.0,159.07044642857093,70.0,0.0,255.0,0.0
34.10000000000034,35.69675130224254,51.26814947840706,1320.0003723856062,-6.898589288084622e-05,-2.104821430748416e-05,0.0,-5.684341886080801e-13,0.0,0.0,158.9980357142852,70.0,0.0,255.0,0.0
34.15000000000035,35.69674777936062,51.2681483859102,1320.0003723250702,-6.898589288084622e-05,-2.104821430748416e-05,0.0,5.684340801878629e-13,0.0,0.0,158.9256249999995,70.0,0.0,255.0,0.0
34.200000000000344,35.696744256437455,51.26814729352739,1320.0003722645342,-6.89858928240028e-05,-2.104821430748416e-05,0.0,0.0,1.1368683772161603e-12,0.0,158.8532142857138,70.0,0.0,255.0,0.0
34.25000000000034,35.69674073347311,51.26814620125867,1320.0003722049296,-6.898589288084622e-05,-2.104821419379732e-05,0.0,1.0842021724855044e-19,0.0,0.0,158.78080357142807,70.0,0.0,255.0,0.0
34.300000000000345,35.69673721046774,51.26814510910416,1320.0003721471876,-6.89858928240028e-05,-2.104821430748416e-05,0.0,0.0,-1.1368683772161603e-12,0.0,158.70839285714237,70.0,0.0,255.0,0.0
34.35000000000035,35.696733687421464,51.26814401706386,1320.0003720866516,-6.898589288084622e-05,-2.104821430748416e-05,0.0,-5.684342970282974e-13,1.1368683772161603e-12,0.0,158.63598214285665,70.0,0.0,255.0,0.0
34.40000000000035,35.696730164334376,51.26814292513786,1320.0003720289096,-6.898589288084622e-05,-2.104821419379732e-05,0.0,5.684341886080801e-13,0.0,0.0,158.56357142857092,70.0,0.0,255.0,0.0
34.450000000000344,35.6967266412066,51.26814183332623,1320.0003719730303,-6.89858928240028e-05,-2.104821430748416e-05,0.0,1.0842021724855044e-19,-1.1368683772161603e-12,0.0,158.49116071428523,70.0,0.0,255.0,0.0
34.50000000000035,35.696723118038285,51.268140741629026,1320.0003719152883,-6.898589288084622e-05,-2.104821430748416e-05,0.0,0.0,0.0,0.0,158.4187499999995,70.0,0.0,255.0,0.0
34.55000000000035,35.69671959482951,51.26813965004631,1320.000371859409,-6.89858928240028e-05,-2.104821430748416e-05,0.0,-1.0842021724855044e-19,0.0,0.0,158.34633928571378,70.0,0.0,255.0,0.0
34.60000000000035,35.696716071580404,51.268138558578144,1320.0003718044609,-6.898589288084622e-05,-2.104821430748416e-05,0.0,-5.684341886080801e-13,1.1368683772161603e-12,0.0,158.27392857142806,70.0,0.0,255.0,0.0
34.65000000000035,35.69671254829108,51.26813746722458,1320.0003717485815,-6.898589288084622e-05,-2.104821419379732e-05,0.0,5.684342970282974e-13,0.0,0.0,158.20151785714236,70.0,0.0,255.0,0.0
34.70000000000035,35.696709024961685,51.268136375985705,1320.0003716945648,-6.89858928240028e-05,-2.104821430748416e-05,0.0,0.0,-2.2737367544323206e-12,0.0,158.12910714285664,70.0,0.0,255.0,0.0
34.750000000000355,35.6967055015923,51.26813528486156,1320.0003716424108,-6.898589288084622e-05,-2.1048214421170997e-05,0.0,-5.684342970282974e-13,1.1368683772161603e-12,0.0,158.05669642857092,70.0,0.0,255.0,0.0
34.80000000000035,35.69670197818307,51.26813419385222,1320.0003715874627,-6.898589288084622e-05,-2.104821419379732e-05,0.0,5.684341886080801e-13,2.2737367544323206e-12,0.0,157.9842857142852,70.0,0.0,255.0,0.0
34.85000000000035,35.696698454734104,51.268133102957734,1320.0003715353087,-6.89858928240028e-05,-2.104821419379732e-05,0.0,5.684342970282974e-13,-2.2737367544323206e-12,0.0,157.9118749999995,70.0,0.0,255.0,0.0
34.900000000000354,35.69669493124552,51.268132012178185,1320.0003714859486,-6.89858928240028e-05,-2.1048214421170997e-05,0.0,-1.1368683772161603e-12,-1.1368683772161603e-12,0.0,157.83946428571377,70.0,0.0,255.0,0.0
34.95000000000036,35.696691407717424,51.2681309215136,1320.0003714328632,-6.898589293768964e-05,-2.104821430748416e-05,0.0,-1.0842021724855044e-19,2.2737367544323206e-12,0.0,157.76705357142805,70.0,0.0,255.0,0.0
35.000000000000355,35.69668788414996,51.26812983096408,1320.0003713825718,-6.89858928240028e-05,-2.104821419379732e-05,0.0,1.1368683772161603e-12,0.0,0.0,157.69464285714236,70.0,0.0,255.0,0.0
35.05000000000035,35.69668436054323,51.268128740529654,1320.000371331349,-6.89858928240028e-05,-2.104821430748416e-05,0.0,1.0842021724855044e-19,-1.1368683772161603e-12,0.0,157.62223214285663,70.0,0.0,255.0,0.0
35.10000000000036,35.69668083689735,51.268127650210396,1320.0003712829202,-6.89858928240028e-05,-2.104821430748416e-05,0.0,0.0,0.0,0.0,157.5498214285709,70.0,0.0,255.0,0.0
35.15000000000036,35.696677313212454,51.268126560006365,1320.0003712354228,-6.89858928240028e-05,-2.104821430748416e-05,0.0,-1.1368684856363775e-12,0.0,0.0,157.47741071428518,70.0,0.0,255.0,0.0
35.20000000000036,35.69667378948865,51.26812546991762,1320.0003711860627,-6.898589293768964e-05,-2.104821430748416e-05,0.0,0.0,1.1368683772161603e-12,0.0,157.4049999999995,70.0,0.0,255.0,0.0
35.250000000000355,35.696670265726056,51.26812437994423,1320.000371137634,-6.89858928240028e-05,-2.104821419379732e-05,0.0,1.1368684856363775e-12,-1.1368683772161603e-12,0.0,157.33258928571377,70.0,0.0,255.0,0.0
35.30000000000036,35.696666741924794,51.268123290086244,1320.0003710910678,-6.89858928240028e-05,-2.1048214421170997e-05,0.0,-1.1368683772161603e-12,-1.1368683772161603e-12,0.0,157.26017857142804,70.0,0.0,255.0,0.0
35.350000000000364,35.696663218084986,51.268122200343704,1320.000371045433,-6.898589293768964e-05,-2.104821430748416e-05,0.0,-1.0842021724855044e-19,2.2737367544323206e-12,0.0,157.18776785714232,70.0,0.0,255.0,0.0
35.40000000000036,35.69665969420674,51.26812111071671,1320.0003709988669,-6.89858928240028e-05,-2.104821419379732e-05,0.0,1.1368683772161603e-12,0.0,0.0,157.11535714285662,70.0,0.0,255.0,0.0
35.45000000000036,35.696656170290204,51.26812002120531,1320.0003709523007,-6.89858928240028e-05,-2.104821430748416e-05,0.0,-5.684340801878629e-13,-1.1368683772161603e-12,0.0,157.04294642857093,70.0,0.0,255.0,0.0
35.50000000000036,35.69665264633545,51.26811893180955,1320.0003709085286,-6.898589288084622e-05,-2.104821430748416e-05,0.0,0.0,0.0,0.0,156.97053571428518,70.0,0.0,255.0,0.0
35.55000000000037,35.69664912234264,51.26811784252949,1320.0003708647564,-6.89858928240028e-05,-2.104821430748416e-05,0.0,-5.684342970282974e-13,0.0,0.0,156.89812499999948,70.0,0.0,255.0,0.0
35.600000000000364,35.69664559831187,51.2681167533652,1320.0003708219156,-6.898589293768964e-05,-2.104821430748416e-05,0.0,0.0,0.0,0.0,156.82571428571376,70.0,0.0,255.0,0.0
35.65000000000036,35.696642074243265,51.26811566431673,1320.000370780006,-6.89858928240028e-05,-2.104821430748416e-05,0.0,1.1368684856363775e-12,0.0,0.0,156.75330357142803,70.0,0.0,255.0,0.0
35.700000000000365,35.69663855013695,51.26811457538414,1320.0003707380965,-6.89858928240028e-05,-2.104821430748416e-05,0.0,-1.1368683772161603e-12,0.0,0.0,156.68089285714234,70.0,0.0,255.0,0.0
35.75000000000037,35.69663502599305,51.268113486567486,1320.0003706943244,-6.898589293768964e-05,-2.104821430748416e-05,0.0,-1.0842021724855044e-19,0.0,0.0,156.60848214285662,70.0,0.0,255.0,0.0
35.80000000000037,35.696631501811645,51.26811239786683,1320.0003706533462,-6.89858928240028e-05,-2.104821430748416e-05,0.0,1.1368683772161603e-12,1.1368683772161603e-12,0.0,156.5360714285709,70.0,0.0,255.0,0.0
35.850000000000364,35.69662797759291,51.26811130928223,1320.0003706142306,-6.89858928240028e-05,-2.104821419379732e-05,0.0,-5.684340801878629e-13,0.0,0.0,156.4636607142852,70.0,0.0,255.0,0.0
35.90000000000037,35.69662445333692,51.26811022081374,1320.0003705741838,-6.898589288084622e-05,-2.104821430748416e-05,0.0,-5.684341886080801e-13,-1.1368683772161603e-12,0.0,156.39124999999947,70.0,0.0,255.0,0.0
35.95000000000037,35.69662092904383,51.26810913246143,1320.000370534137,-6.898589288084622e-05,-2.104821430748416e-05,0.0,5.684340801878629e-13,0.0,0.0,156.31883928571375,70.0,0.0,255.0,0.0
36.00000000000037,35.69661740471374,51.26810804422534,1320.0003704950213,-6.89858928240028e-05,-2.104821430748416e-05,0.0,5.684341886080801e-13,0.0,0.0,156.24642857142805,70.0,0.0,255.0,0.0
36.05000000000037,35.696613880346774,51.268106956105534,1320.0003704577684,-6.89858928240028e-05,-2.104821430748416e-05,0.0,-5.684340801878629e-13,0.0,0.0,156.17401785714233,70.0,0.0,255.0,0.0
36.10000000000037,35.69661035594305,51.268105868102076,1320.0003704223782,-6.898589288084622e-05,-2.104821430748416e-05,0.0,-5.684341886080801e-13,0.0,0.0,156.1016071428566,70.0,0.0,255.0,0.0
36.150000000000375,35.696606831502685,51.26810478021501,1320.0003703832626,-6.898589288084622e-05,-2.104821430748416e-05,0.0,-1.0842021724855044e-19,0.0,0.0,156.02919642857088,70.0,0.0,255.0,0.0
36.20000000000037,35.6966033070258,51.268103692444406,1320.000370346941,-6.898589288084622e-05,-2.104821430748416e-05,0.0,5.684341886080801e-13,0.0,0.0,155.95678571428516,70.0,0.0,255.0,0.0
36.25000000000037,35.69659978251252,51.268102604790315,1320.0003703124821,-6.89858928240028e-05,-2.104821430748416e-05,0.0,1.0842021724855044e-19,0.0,0.0,155.88437499999947,70.0,0.0,255.0,0.0
36.300000000000374,35.696596257962966,51.26810151725279,1320.0003702789545,-6.898589288084622e-05,-2.104821430748416e-05,0.0,-5.684341886080801e-13,1.1368683772161603e-12,0.0,155.81196428571374,70.0,0.0,255.0,0.0
36.35000000000038,35.69659273337726,51.26810042983189,1320.0003702435642,-6.898589288084622e-05,-2.104821419379732e-05,0.0,5.684340801878629e-13,0.0,0.0,155.73955357142802,70.0,0.0,255.0,0.0
36.400000000000375,35.69658920875551,51.26809934252766,1320.0003702091053,-6.89858928240028e-05,-2.104821430748416e-05,0.0,0.0,-1.1368683772161603e-12,0.0,155.66714285714232,70.0,0.0,255.0,0.0
36.45000000000037,35.69658568409784,51.26809825534018,1320.0003701774403,-6.898589288084622e-05,-2.104821430748416e-05,0.0,1.0842021724855044e-19,0.0,0.0,155.5947321428566,70.0,0.0,255.0,0.0
36.50000000000038,35.69658215940438,51.268097168269485,1320.000370144844,-6.89858928240028e-05,-2.104821430748416e-05,0.0,0.0,0.0,0.0,155.52232142857088,70.0,0.0,255.0,0.0
36.55000000000038,35.69657863467526,51.26809608131564,1320.0003701122478,-6.898589288084622e-05,-2.104821430748416e-05,0.0,-1.0842021724855044e-19,0.0,0.0,155.44991071428518,70.0,0.0,255.0,0.0
36.60000000000038,35.69657510991056,51.268094994478695,1320.0003700805828,-6.89858928240028e-05,-2.104821430748416e-05,0.0,5.684341886080801e-13,0.0,0.0,155.37749999999946,70.0,0.0,255.0,0.0
36.650000000000375,35.696571585110455,51.268093907758704,1320.0003700507805,-6.89858928240028e-05,-2.104821430748416e-05,0.0,-1.136868268795943e-12,0.0,0.0,155.30508928571373,70.0,0.0,255.0,0.0
36.70000000000038,35.69656806027502,51.26809282115574,1320.0003700209782,-6.898589293768964e-05,-2.104821430748416e-05,0.0,0.0,0.0,0.0,155.23267857142804,70.0,0.0,255.0,0.0
36.750000000000384,35.69656453540439,51.268091734669824,1320.0003699902445,-6.89858928240028e-05,-2.104821430748416e-05,0.0,5.684340801878629e-13,0.0,0.0,155.1602678571423,70.0,0.0,255.0,0.0
36.80000000000038,35.69656101049869,51.26809064830104,1320.0003699632362,-6.898589288084622e-05,-2.104821430748416e-05,0.0,-5.684341886080801e-13,0.0,0.0,155.0878571428566,70.0,0.0,255.0,0.0
36.85000000000038,35.69655748555804,51.26808956204943,1320.0003699362278,-6.898589288084622e-05,-2.104821430748416e-05,0.0,5.684342970282974e-13,1.1368683772161603e-12,0.0,155.0154464285709,70.0,0.0,255.0,0.0
36.90000000000038,35.69655396058255,51.268088475915036,1320.0003699073568,-6.89858928240028e-05,-2.104821419379732e-05,0.0,0.0,1.1368683772161603e-12,0.0,154.94303571428514,70.0,0.0,255.0,0.0
36.95000000000039,35.69655043557236,51.26808738989795,1320.0003698803484,-6.898589288084622e-05,-2.104821419379732e-05,0.0,-1.0842021724855044e-19,-2.2737367544323206e-12,0.0,154.87062499999945,70.0,0.0,255.0,0.0
37.000000000000384,35.69654691052758,51.26808630399818,1320.00036985334,-6.89858928240028e-05,-2.1048214421170997e-05,0.0,5.684341886080801e-13,-1.1368683772161603e-12,0.0,154.79821428571373,70.0,0.0,255.0,0.0
37.05000000000038,35.69654338544834,51.268085218215795,1320.0003698281944,-6.89858928240028e-05,-2.104821430748416e-05,0.0,-1.136868268795943e-12,1.1368683772161603e-12,0.0,154.72580357142803,70.0,0.0,255.0,0.0
37.100000000000385,35.69653986033474,51.26808413255088,1320.0003698030487,-6.898589293768964e-05,-2.104821430748416e-05,0.0,0.0,0.0,0.0,154.6533928571423,70.0,0.0,255.0,0.0
37.15000000000039,35.69653633518692,51.26808304700344,1320.000369777903,-6.89858928240028e-05,-2.104821430748416e-05,0.0,1.136868268795943e-12,0.0,0.0,154.58098214285658,70.0,0.0,255.0,0.0
37.20000000000039,35.69653281000499,51.26808196157356,1320.0003697536886,-6.89858928240028e-05,-2.104821430748416e-05,0.0,-1.1368683772161603e-12,0.0,0.0,154.50857142857086,70.0,0.0,255.0,0.0
37.250000000000384,35.69652928478908,51.26808087626127,1320.0003697322682,-6.898589293768964e-05,-2.104821430748416e-05,0.0,1.0842021724855044e-19,0.0,0.0,154.43616071428517,70.0,0.0,255.0,0.0
37.30000000000039,35.69652575953931,51.26807979106664,1320.000369708985,-6.89858928240028e-05,-2.104821430748416e-05,0.0,1.1368683772161603e-12,0.0,0.0,154.36374999999944,70.0,0.0,255.0,0.0
37.35000000000039,35.69652223425581,51.26807870598972,1320.0003696875647,-6.89858928240028e-05,-2.104821430748416e-05,0.0,-1.1368684856363775e-12,0.0,0.0,154.29133928571372,70.0,0.0,255.0,0.0
37.40000000000039,35.69651870893866,51.26807762103057,1320.0003696661443,-6.898589293768964e-05,-2.104821430748416e-05,0.0,0.0,0.0,0.0,154.21892857142802,70.0,0.0,255.0,0.0
37.45000000000039,35.69651518358805,51.26807653618922,1320.0003696447238,-6.89858928240028e-05,-2.104821430748416e-05,0.0,1.1368684856363775e-12,1.1368683772161603e-12,0.0,154.1465178571423,70.0,0.0,255.0,0.0
37.50000000000039,35.696511658204045,51.26807545146573,1320.0003696233034,-6.89858928240028e-05,-2.104821419379732e-05,0.0,-5.684341886080801e-13,1.1368683772161603e-12,0.0,154.07410714285658,70.0,0.0,255.0,0.0
37.550000000000395,35.69650813278679,51.26807436686016,1320.0003696037456,-6.898589288084622e-05,-2.104821419379732e-05,0.0,-1.0842021724855044e-19,-1.1368683772161603e-12,0.0,154.00169642857085,70.0,0.0,255.0,0.0
37.60000000000039,35.696504607336394,51.26807328237255,1320.0003695851192,-6.89858928240028e-05,-2.104821430748416e-05,0.0,0.0,-1.1368683772161603e-12,0.0,153.92928571428516,70.0,0.0,255.0,0.0
37.65000000000039,35.696501081852986,51.268072198002976,1320.0003695664927,-6.898589288084622e-05,-2.104821430748416e-05,0.0,-5.684340801878629e-13,0.0,0.0,153.85687499999943,70.0,0.0,255.0,0.0
37.700000000000394,35.696497556336695,51.268071113751446,1320.0003695506603,-6.898589288084622e-05,-2.104821430748416e-05,0.0,5.684341886080801e-13,0.0,0.0,153.7844642857137,70.0,0.0,255.0,0.0
37.7500000000004,35.69649403078764,51.26807002961806,1320.0003695320338,-6.89858928240028e-05,-2.104821430748416e-05,0.0,-5.684342970282974e-13,0.0,0.0,153.712053571428,70.0,0.0,255.0,0.0
37.800000000000395,35.69649050520594,51.26806894560282,1320.000369518064,-6.898589293768964e-05,-2.104821430748416e-05,0.0,0.0,0.0,0.0,153.6396428571423,70.0,0.0,255.0,0.0
37.85000000000039,35.69648697959169,51.26806786170581,1320.0003694994375,-6.89858928240028e-05,-2.104821430748416e-05,0.0,1.1368684856363775e-12,1.1368683772161603e-12,0.0,153.56723214285657,70.0,0.0,255.0,0.0
37.9000000000004,35.696483453945056,51.26806677792706,1320.000369483605,-6.89858928240028e-05,-2.104821419379732e-05,0.0,-1.1368683772161603e-12,0.0,0.0,153.49482142857084,70.0,0.0,255.0,0.0
37.9500000000004,35.696479928266136,51.26806569426665,1320.0003694687039,-6.898589293768964e-05,-2.104821430748416e-05,0.0,-1.0842021724855044e-19,-2.2737367544323206e-12,0.0,153.42241071428515,70.0,0.0,255.0,0.0
38.0000000000004,35.69647640255506,51.2680646107246,1320.000369454734,-6.89858928240028e-05,-2.1048214421170997e-05,0.0,1.1368683772161603e-12,1.1368683772161603e-12,0.0,153.34999999999943,70.0,0.0,255.0,0.0
38.050000000000395,35.69647287681195,51.26806352730097,1320.0003694426268,-6.89858928240028e-05,-2.104821419379732e-05,0.0,1.0842021724855044e-19,2.2737367544323206e-12,0.0,153.2775892857137,70.0,0.0,255.0,0.0
38.1000000000004,35.696469351036924,51.26806244399581,1320.0003694305196,-6.89858928240028e-05,-2.104821419379732e-05,0.0,-5.684341886080801e-13,-1.1368683772161603e-12,0.0,153.205178571428,70.0,0.0,255.0,0.0
38.150000000000404,35.69646582523012,51.26806136080917,1320.0003694174811,-6.898589288084622e-05,-2.104821430748416e-05,0.0,-5.684342970282974e-13,-1.1368683772161603e-12,0.0,153.13276785714228,70.0,0.0,255.0,0.0
38.2000000000004,35.69646229939162,51.2680602777411,1320.0003694063053,-6.898589288084622e-05,-2.104821430748416e-05,0.0,5.684341886080801e-13,0.0,0.0,153.06035714285656,70.0,0.0,255.0,0.0
38.2500000000004,35.696458773521584,51.268059194791654,1320.000369394198,-6.89858928240028e-05,-2.104821430748416e-05,0.0,1.0842021724855044e-19,0.0,0.0,152.98794642857087,70.0,0.0,255.0,0.0
38.3000000000004,35.69645524762013,51.26805811196086,1320.0003693839535,-6.898589288084622e-05,-2.104821430748416e-05,0.0,-5.684341886080801e-13,0.0,0.0,152.91553571428514,70.0,0.0,255.0,0.0
38.350000000000406,35.69645172168737,51.26805702924879,1320.0003693755716,-6.898589288084622e-05,-2.104821430748416e-05,0.0,-1.0842021724855044e-19,0.0,0.0,152.84312499999942,70.0,0.0,255.0,0.0
38.400000000000404,35.69644819572341,51.268055946655494,1320.0003693643957,-6.898589288084622e-05,-2.104821430748416e-05,0.0,5.684341886080801e-13,1.1368683772161603e-12,0.0,152.7707142857137,70.0,0.0,255.0,0.0
38.4500000000004,35.696444669728415,51.26805486418098,1320.0003693578765,-6.89858928240028e-05,-2.104821419379732e-05,0.0,5.684342970282974e-13,1.1368683772161603e-12,0.0,152.698303571428,70.0,0.0,255.0,0.0
38.500000000000405,35.69644114370247,51.26805378182535,1320.000369350426,-6.89858928240028e-05,-2.104821419379732e-05,0.0,-5.684341886080801e-13,-2.2737367544323206e-12,0.0,152.62589285714228,70.0,0.0,255.0,0.0
38.55000000000041,35.696437617645714,51.268052699588615,1320.0003693429753,-6.898589288084622e-05,-2.1048214421170997e-05,0.0,-5.684342970282974e-13,-1.1368683772161603e-12,0.0,152.55348214285655,70.0,0.0,255.0,0.0
38.600000000000406,35.69643409155828,51.26805161747083,1320.0003693355247,-6.898589288084622e-05,-2.104821430748416e-05,0.0,5.684341886080801e-13,2.2737367544323206e-12,0.0,152.48107142857083,70.0,0.0,255.0,0.0
38.650000000000404,35.69643056544027,51.26805053547206,1320.0003693299368,-6.89858928240028e-05,-2.104821419379732e-05,0.0,5.684342970282974e-13,0.0,0.0,152.40866071428513,70.0,0.0,255.0,0.0
38.70000000000041,35.69642703929181,51.26804945359233,1320.0003693234175,-6.89858928240028e-05,-2.104821430748416e-05,0.0,-1.1368683772161603e-12,-1.1368683772161603e-12,0.0,152.3362499999994,70.0,0.0,255.0,0.0
38.75000000000041,35.69642351311304,51.2680483718317,1320.0003693178296,-6.898589293768964e-05,-2.104821430748416e-05,0.0,-1.0842021724855044e-19,0.0,0.0,152.2638392857137,70.0,0.0,255.0,0.0
38.80000000000041,35.696419986904054,51.26804729019022,1320.0003693150356,-6.89858928240028e-05,-2.104821430748416e-05,0.0,1.1368683772161603e-12,0.0,0.0,152.191428571428,70.0,0.0,255.0,0.0
38.850000000000406,35.69641646066499,51.26804620866792,1320.0003693113104,-6.89858928240028e-05,-2.104821430748416e-05,0.0,-1.136868268795943e-12,1.1368683772161603e-12,0.0,152.11901785714227,70.0,0.0,255.0,0.0
38.90000000000041,35.69641293439599,51.26804512726486,1320.0003693085164,-6.898589293768964e-05,-2.104821419379732e-05,0.0,0.0,0.0,0.0,152.04660714285654,70.0,0.0,255.0,0.0
38.950000000000415,35.69640940809714,51.268044045981085,1320.0003693066537,-6.89858928240028e-05,-2.104821430748416e-05,0.0,5.684340801878629e-13,-1.1368683772161603e-12,0.0,151.97419642857082,70.0,0.0,255.0,0.0
39.00000000000041,35.6964058817686,51.26804296481664,1320.0003693038598,-6.898589288084622e-05,-2.104821430748416e-05,0.0,0.0,1.1368683772161603e-12,0.0,151.90178571428513,70.0,0.0,255.0,0.0
39.05000000000041,35.696402355410456,51.26804188377156,1320.0003693029284,-6.89858928240028e-05,-2.104821419379732e-05,0.0,5.684342970282974e-13,1.1368683772161603e-12,0.0,151.8293749999994,70.0,0.0,255.0,0.0
39.10000000000041,35.69639882902287,51.2680408028459,1320.0003693038598,-6.89858928240028e-05,-2.104821419379732e-05,0.0,-1.1368683772161603e-12,-2.2737367544323206e-12,0.0,151.75696428571368,70.0,0.0,255.0,0.0
39.15000000000042,35.696395302605936,51.26803972203972,1320.0003693029284,-6.898589293768964e-05,-2.1048214421170997e-05,0.0,-1.0842021724855044e-19,-1.1368683772161603e-12,0.0,151.68455357142795,70.0,0.0,255.0,0.0
39.200000000000415,35.696391776159786,51.268038641353044,1320.0003693038598,-6.89858928240028e-05,-2.104821430748416e-05,0.0,1.1368683772161603e-12,2.2737367544323206e-12,0.0,151.61214285714226,70.0,0.0,255.0,0.0
39.25000000000041,35.69638824968454,51.268037560785935,1320.000369304791,-6.89858928240028e-05,-2.104821419379732e-05,0.0,-1.136868268795943e-12,0.0,0.0,151.53973214285654,70.0,0.0,255.0,0.0
39.300000000000416,35.69638472318033,51.2680364803384,1320.000369307585,-6.898589293768964e-05,-2.104821430748416e-05,0.0,0.0,-1.1368683772161603e-12,0.0,151.4673214285708,70.0,0.0,255.0,0.0
39.35000000000042,35.69638119664726,51.26803540001054,1320.0003693113104,-6.89858928240028e-05,-2.104821430748416e-05,0.0,1.136868268795943e-12,0.0,0.0,151.39491071428512,70.0,0.0,255.0,0.0
39.40000000000042,35.69637767008549,51.268034319802354,1320.0003693141043,-6.89858928240028e-05,-2.104821430748416e-05,0.0,0.0,1.1368683772161603e-12,0.0,151.3224999999994,70.0,0.0,255.0,0.0
39.450000000000415,35.696374143495106,51.2680332397139,1320.000369315967,-6.89858928240028e-05,-2.104821419379732e-05,0.0,1.0842021724855044e-19,1.1368683772161603e-12,0.0,151.25008928571367,70.0,0.0,255.0,0.0
39.50000000000042,35.69637061687626,51.26803215974525,1320.000369321555,-6.89858928240028e-05,-2.104821419379732e-05,0.0,-1.1368683772161603e-12,-2.2737367544323206e-12,0.0,151.17767857142798,70.0,0.0,255.0,0.0
39.55000000000042,35.696367090229046,51.2680310798964,1320.0003693262115,-6.898589293768964e-05,-2.1048214421170997e-05,0.0,-1.0842021724855044e-19,0.0,0.0,151.10526785714225,70.0,0.0,255.0,0.0
39.60000000000042,35.696363563553604,51.26803000016742,1320.0003693327308,-6.89858928240028e-05,-2.104821419379732e-05,0.0,1.1368683772161603e-12,2.2737367544323206e-12,0.0,151.03285714285653,70.0,0.0,255.0,0.0
39.65000000000042,35.696360036850066,51.26802892055836,1320.00036933925,-6.89858928240028e-05,-2.104821419379732e-05,0.0,-5.684340801878629e-13,-1.1368683772161603e-12,0.0,150.96044642857083,70.0,0.0,255.0,0.0
39.70000000000042,35.69635651011855,51.26802784106925,1320.0003693457693,-6.898589288084622e-05,-2.104821430748416e-05,0.0,-5.684341886080801e-13,-1.1368683772161603e-12,0.0,150.8880357142851,70.0,0.0,255.0,0.0
39.750000000000426,35.69635298335917,51.26802676170013,1320.0003693532199,-6.898589288084622e-05,-2.104821430748416e-05,0.0,5.684340801878629e-13,0.0,0.0,150.8156249999994,70.0,0.0,255.0,0.0
39.80000000000042,35.69634945657205,51.26802568245107,1320.0003693616018,-6.89858928240028e-05,-2.104821430748416e-05,0.0,0.0,0.0,0.0,150.74321428571366,70.0,0.0,255.0,0.0
39.85000000000042,35.69634592975733,51.268024603322075,1320.0003693690524,-6.898589288084622e-05,-2.104821430748416e-05,0.0,-5.684340801878629e-13,0.0,0.0,150.67080357142797,70.0,0.0,255.0,0.0
39.900000000000425,35.696342402915114,51.26802352431321,1320.000369379297,-6.898589288084622e-05,-2.104821430748416e-05,0.0,5.684341886080801e-13,0.0,0.0,150.59839285714224,70.0,0.0,255.0,0.0
39.95000000000043,35.69633887604555,51.26802244542451,1320.0003693904728,-6.89858928240028e-05,-2.104821430748416e-05,0.0,-1.0842021724855044e-19,0.0,0.0,150.52598214285652,70.0,0.0,255.0,0.0
40.000000000000426,35.69633534914873,51.26802136665603,1320.0003694007173,-6.898589288084622e-05,-2.104821430748416e-05,0.0,0.0,1.1368683772161603e-12,0.0,150.4535714285708,70.0,0.0,255.0,0.0
40.05000000000042,35.69633182222481,51.2680202880078,1320.0003694100305,-6.89858928240028e-05,-2.104821419379732e-05,0.0,1.0842021724855044e-19,1.1368683772161603e-12,0.0,150.3811607142851,70.0,0.0,255.0,0.0
40.10000000000043,35.6963282952739,51.26801920947987,1320.0003694240004,-6.898589288084622e-05,-2.104821419379732e-05,0.0,-5.684341886080801e-13,-1.1368683772161603e-12,0.0,150.30874999999938,70.0,0.0,255.0,0.0
40.15000000000043,35.696324768296115,51.26801813107227,1320.0003694351763,-6.898589288084622e-05,-2.104821430748416e-05,0.0,5.684340801878629e-13,0.0,0.0,150.23633928571365,70.0,0.0,255.0,0.0
40.20000000000043,35.6963212412916,51.268017052785055,1320.000369449146,-6.89858928240028e-05,-2.104821419379732e-05,0.0,0.0,0.0,0.0,150.16392857142796,70.0,0.0,255.0,0.0
40.250000000000426,35.69631771426046,51.26801597461825,1320.000369463116,-6.898589288084622e-05,-2.104821430748416e-05,0.0,1.0842021724855044e-19,-1.1368683772161603e-12,0.0,150.09151785714224,70.0,0.0,255.0,0.0
40.30000000000043,35.69631418720281,51.268014896571906,1320.000369478017,-6.89858928240028e-05,-2.104821430748416e-05,0.0,0.0,0.0,0.0,150.0191071428565,70.0,0.0,255.0,0.0
40.350000000000435,35.69631066011881,51.26801381864606,1320.000369491987,-6.898589288084622e-05,-2.104821430748416e-05,0.0,-5.684342970282974e-13,0.0,0.0,149.9466964285708,70.0,0.0,255.0,0.0
40.40000000000043,35.69630713300855,51.26801274084077,1320.000369506888,-6.898589288084622e-05,-2.104821430748416e-05,0.0,5.684341886080801e-13,1.1368683772161603e-12,0.0,149.8742857142851,70.0,0.0,255.0,0.0
40.45000000000043,35.69630360587218,51.268011663156045,1320.000369523652,-6.89858928240028e-05,-2.104821419379732e-05,0.0,1.0842021724855044e-19,0.0,0.0,149.80187499999937,70.0,0.0,255.0,0.0
40.50000000000043,35.696300078709804,51.26801058559196,1320.000369541347,-6.898589288084622e-05,-2.104821430748416e-05,0.0,0.0,-2.2737367544323206e-12,0.0,149.72946428571368,70.0,0.0,255.0,0.0
