t,lat,lon,alt,vx,vy,vz,ax,ay,az,yaw,mode,ledr,ledg,ledb
10.0,35.698092623704575,51.26858161224706,1319.9991195518523,-6.898589290926696e-05,-2.104821433590557e-05,0.0,1.7052830501851115e-12,5.684282254961234e-13,0.0,193.9,70.0,0.0,255.0,0.0
10.05,35.69808902363056,51.268581017520916,1319.9991195788607,-6.89858928240028e-05,-2.104821430748416e-05,0.0,8.526415250925679e-13,1.421082489964226e-12,0.0,193.82758928571428,70.0,0.0,255.0,0.0
10.100000000000001,35.6980854240285,51.26858042302797,1319.999119605869,-6.89858928240028e-05,-2.104821419379732e-05,0.0,-5.684341886080801e-13,0.0,0.0,193.7551785714286,70.0,0.0,255.0,0.0
10.150000000000002,35.6980818248986,51.26857982876749,1319.9991196384653,-6.898589288084622e-05,-2.104821430748416e-05,0.0,0.0,-1.1368683772161603e-12,0.0,193.68276785714286,70.0,0.0,255.0,0.0
10.200000000000003,35.69807822624114,51.26857923473875,1319.9991196738556,-6.89858928240028e-05,-2.104821430748416e-05,0.0,0.0,0.0,0.0,193.61035714285714,70.0,0.0,255.0,0.0
10.250000000000004,35.69807462805635,51.26857864094103,1319.9991197092459,-6.898589288084622e-05,-2.104821430748416e-05,0.0,-5.684341886080801e-13,0.0,0.0,193.53794642857142,70.0,0.0,255.0,0.0
10.300000000000004,35.698071030344444,51.26857804737357,1319.9991197492927,-6.898589288084622e-05,-2.104821430748416e-05,0.0,5.684341886080801e-13,1.1368683772161603e-12,0.0,193.46553571428572,70.0,0.0,255.0,0.0
10.350000000000005,35.69806743310567,51.26857745403565,1319.9991197912022,-6.89858928240028e-05,-2.104821419379732e-05,0.0,0.0,0.0,0.0,193.393125,70.0,0.0,255.0,0.0
10.400000000000006,35.698063836340275,51.26857686092655,1319.9991198359057,-6.898589288084622e-05,-2.104821430748416e-05,0.0,0.0,-1.1368683772161603e-12,0.0,193.32071428571427,70.0,0.0,255.0,0.0
10.450000000000006,35.69806024004849,51.268576268045514,1319.9991198806092,-6.89858928240028e-05,-2.104821430748416e-05,0.0,5.684341886080801e-13,0.0,0.0,193.24830357142858,70.0,0.0,255.0,0.0
10.500000000000007,35.698056644230554,51.268575675391816,1319.9991199299693,-6.89858928240028e-05,-2.104821430748416e-05,0.0,-1.1368683772161603e-12,0.0,0.0,193.17589285714286,70.0,0.0,255.0,0.0
10.550000000000008,35.698053048886685,51.26857508296474,1319.999119981192,-6.898589293768964e-05,-2.104821430748416e-05,0.0,-5.684341886080801e-13,1.1368683772161603e-12,0.0,193.10348214285713,70.0,0.0,255.0,0.0
10.600000000000009,35.69804945401713,51.268574490763505,1319.9991200333461,-6.898589288084622e-05,-2.104821419379732e-05,0.0,1.1368683772161603e-12,0.0,0.0,193.0310714285714,70.0,0.0,255.0,0.0
10.65000000000001,35.69804585962212,51.26857389878743,1319.9991200901568,-6.89858928240028e-05,-2.104821430748416e-05,0.0,5.684341886080801e-13,-1.1368683772161603e-12,0.0,192.9586607142857,70.0,0.0,255.0,0.0
10.70000000000001,35.698042265701865,51.268573307035744,1319.9991201478988,-6.89858928240028e-05,-2.104821430748416e-05,0.0,0.0,1.1368683772161603e-12,0.0,192.88625,70.0,0.0,255.0,0.0
10.75000000000001,35.69803867225664,51.26857271550772,1319.9991202084348,-6.89858928240028e-05,-2.104821419379732e-05,0.0,-5.684341886080801e-13,0.0,0.0,192.81383928571427,70.0,0.0,255.0,0.0
10.800000000000011,35.69803507928665,51.26857212420264,1319.999120272696,-6.898589288084622e-05,-2.104821430748416e-05,0.0,0.0,-2.2737367544323206e-12,0.0,192.74142857142857,70.0,0.0,255.0,0.0
10.850000000000012,35.698031486792104,51.26857153311975,1319.9991203369573,-6.89858928240028e-05,-2.1048214421170997e-05,0.0,0.0,0.0,0.0,192.66901785714285,70.0,0.0,255.0,0.0
10.900000000000013,35.69802789477327,51.2685709422583,1319.9991204040125,-6.898589288084622e-05,-2.104821430748416e-05,0.0,-1.1368683772161603e-12,2.2737367544323206e-12,0.0,192.59660714285712,70.0,0.0,255.0,0.0
10.950000000000014,35.698024303230355,51.26857035161758,1319.9991204738617,-6.898589293768964e-05,-2.104821419379732e-05,0.0,5.684341886080801e-13,0.0,0.0,192.5241964285714,70.0,0.0,255.0,0.0
11.000000000000014,35.69802071216357,51.268569761196844,1319.9991205465049,-6.89858928240028e-05,-2.104821430748416e-05,0.0,1.1368683772161603e-12,-1.1368683772161603e-12,0.0,192.4517857142857,70.0,0.0,255.0,0.0
11.050000000000015,35.69801712157319,51.268569170995335,1319.9991206200793,-6.89858928240028e-05,-2.104821430748416e-05,0.0,-5.684341886080801e-13,0.0,0.0,192.37937499999998,70.0,0.0,255.0,0.0
11.100000000000016,35.69801353145939,51.26856858101234,1319.999120697379,-6.898589288084622e-05,-2.104821430748416e-05,0.0,0.0,0.0,0.0,192.30696428571426,70.0,0.0,255.0,0.0
11.150000000000016,35.698009941822434,51.26856799124711,1319.9991207765415,-6.89858928240028e-05,-2.104821430748416e-05,0.0,0.0,1.1368683772161603e-12,0.0,192.23455357142856,70.0,0.0,255.0,0.0
11.200000000000017,35.69800635266252,51.26856740169892,1319.9991208566353,-6.898589288084622e-05,-2.104821419379732e-05,0.0,-5.684341886080801e-13,0.0,0.0,192.16214285714284,70.0,0.0,255.0,0.0
11.250000000000018,35.698002763979865,51.268566812366984,1319.9991209404543,-6.898589288084622e-05,-2.104821430748416e-05,0.0,5.684341886080801e-13,-1.1368683772161603e-12,0.0,192.08973214285712,70.0,0.0,255.0,0.0
11.300000000000018,35.69799917577473,51.26856622325062,1319.9991210252047,-6.89858928240028e-05,-2.104821430748416e-05,0.0,0.0,1.1368683772161603e-12,0.0,192.01732142857142,70.0,0.0,255.0,0.0
11.35000000000002,35.69799558804729,51.268565634349066,1319.999121112749,-6.898589288084622e-05,-2.104821419379732e-05,0.0,0.0,0.0,0.0,191.9449107142857,70.0,0.0,255.0,0.0
11.40000000000002,35.6979920007978,51.268565045661575,1319.9991212040186,-6.89858928240028e-05,-2.104821430748416e-05,0.0,5.684341886080801e-13,-1.1368683772161603e-12,0.0,191.87249999999997,70.0,0.0,255.0,0.0
11.45000000000002,35.69798841402649,51.2685644571874,1319.9991212980822,-6.89858928240028e-05,-2.104821430748416e-05,0.0,-1.1368683772161603e-12,0.0,0.0,191.80008928571425,70.0,0.0,255.0,0.0
11.500000000000021,35.69798482773352,51.268563868925824,1319.9991213921458,-6.898589293768964e-05,-2.104821430748416e-05,0.0,-5.684341886080801e-13,0.0,0.0,191.72767857142856,70.0,0.0,255.0,0.0
11.550000000000022,35.697981241919166,51.26856328087609,1319.999121488072,-6.898589288084622e-05,-2.104821430748416e-05,0.0,1.1368683772161603e-12,1.1368683772161603e-12,0.0,191.65526785714283,70.0,0.0,255.0,0.0
11.600000000000023,35.69797765658364,51.268562693037445,1319.9991215867922,-6.89858928240028e-05,-2.104821419379732e-05,0.0,0.0,0.0,0.0,191.5828571428571,70.0,0.0,255.0,0.0
11.650000000000023,35.69797407172714,51.26856210540918,1319.9991216892377,-6.898589288084622e-05,-2.104821430748416e-05,0.0,0.0,-2.2737367544323206e-12,0.0,191.5104464285714,70.0,0.0,255.0,0.0
11.700000000000024,35.69797048734988,51.268561517990534,1319.9991217935458,-6.89858928240028e-05,-2.1048214421170997e-05,0.0,5.684341886080801e-13,0.0,0.0,191.4380357142857,70.0,0.0,255.0,0.0
11.750000000000025,35.69796690345209,51.268560930780744,1319.9991218987852,-6.89858928240028e-05,-2.104821430748416e-05,0.0,0.0,2.2737367544323206e-12,0.0,191.36562499999997,70.0,0.0,255.0,0.0
11.800000000000026,35.69796332003398,51.2685603437791,1319.99912200775,-6.89858928240028e-05,-2.104821419379732e-05,0.0,-5.684341886080801e-13,0.0,0.0,191.29321428571424,70.0,0.0,255.0,0.0
11.850000000000026,35.69795973709577,51.268559756984835,1319.999122117646,-6.898589288084622e-05,-2.104821430748416e-05,0.0,-1.1368683772161603e-12,-1.1368683772161603e-12,0.0,191.22080357142855,70.0,0.0,255.0,0.0
11.900000000000027,35.69795615463767,51.26855917039722,1319.9991222294047,-6.898589293768964e-05,-2.104821430748416e-05,0.0,5.684341886080801e-13,1.1368683772161603e-12,0.0,191.14839285714282,70.0,0.0,255.0,0.0
11.950000000000028,35.69795257265988,51.268558584015516,1319.999122343026,-6.89858928240028e-05,-2.104821419379732e-05,0.0,1.1368683772161603e-12,0.0,0.0,191.0759821428571,70.0,0.0,255.0,0.0
12.000000000000028,35.69794899116264,51.26855799783896,1319.9991224603727,-6.89858928240028e-05,-2.104821430748416e-05,0.0,-5.684341886080801e-13,-1.1368683772161603e-12,0.0,191.0035714285714,70.0,0.0,255.0,0.0
12.05000000000003,35.69794541014612,51.26855741186681,1319.9991225805134,-6.898589288084622e-05,-2.104821430748416e-05,0.0,0.0,0.0,0.0,190.93116071428568,70.0,0.0,255.0,0.0
12.10000000000003,35.69794182961057,51.26855682609834,1319.9991226997226,-6.89858928240028e-05,-2.104821430748416e-05,0.0,0.0,0.0,0.0,190.85874999999996,70.0,0.0,255.0,0.0
12.15000000000003,35.69793824955619,51.26855624053279,1319.9991228226572,-6.898589288084622e-05,-2.104821430748416e-05,0.0,-5.684341886080801e-13,1.1368683772161603e-12,0.0,190.78633928571423,70.0,0.0,255.0,0.0
12.200000000000031,35.69793466998318,51.26855565516941,1319.9991229474545,-6.898589288084622e-05,-2.104821419379732e-05,0.0,5.684341886080801e-13,0.0,0.0,190.71392857142854,70.0,0.0,255.0,0.0
12.250000000000032,35.69793109089174,51.26855507000746,1319.9991230741143,-6.89858928240028e-05,-2.104821430748416e-05,0.0,0.0,-1.1368683772161603e-12,0.0,190.64151785714282,70.0,0.0,255.0,0.0
12.300000000000033,35.69792751228209,51.268554485046195,1319.9991232054308,-6.898589288084622e-05,-2.104821430748416e-05,0.0,0.0,0.0,0.0,190.5691071428571,70.0,0.0,255.0,0.0
12.350000000000033,35.69792393415444,51.268553900284886,1319.999123335816,-6.89858928240028e-05,-2.104821430748416e-05,0.0,5.684341886080801e-13,0.0,0.0,190.4966964285714,70.0,0.0,255.0,0.0
12.400000000000034,35.69792035650899,51.26855331572274,1319.9991234727204,-6.89858928240028e-05,-2.104821430748416e-05,0.0,-1.1368683772161603e-12,1.1368683772161603e-12,0.0,190.42428571428567,70.0,0.0,255.0,0.0
12.450000000000035,35.69791677934594,51.26855273135905,1319.9991236068308,-6.898589293768964e-05,-2.104821419379732e-05,0.0,-5.684341886080801e-13,0.0,0.0,190.35187499999995,70.0,0.0,255.0,0.0
12.500000000000036,35.69791320266551,51.268552147193056,1319.9991237437353,-6.898589288084622e-05,-2.104821430748416e-05,0.0,1.1368683772161603e-12,-1.1368683772161603e-12,0.0,190.27946428571423,70.0,0.0,255.0,0.0
12.550000000000036,35.69790962646788,51.268551563223994,1319.999123884365,-6.89858928240028e-05,-2.104821430748416e-05,0.0,0.0,1.1368683772161603e-12,0.0,190.20705357142853,70.0,0.0,255.0,0.0
12.600000000000037,35.697906050753275,51.26855097945115,1319.9991240268573,-6.898589288084622e-05,-2.104821419379732e-05,0.0,0.0,0.0,0.0,190.1346428571428,70.0,0.0,255.0,0.0
12.650000000000038,35.69790247552187,51.26855039587375,1319.9991241712123,-6.89858928240028e-05,-2.104821430748416e-05,0.0,5.684341886080801e-13,-2.2737367544323206e-12,0.0,190.06223214285708,70.0,0.0,255.0,0.0
12.700000000000038,35.69789890077392,51.26854981249106,1319.99912431743,-6.89858928240028e-05,-2.1048214421170997e-05,0.0,0.0,0.0,0.0,189.9898214285714,70.0,0.0,255.0,0.0
12.750000000000039,35.69789532650957,51.2685492293023,1319.999124464579,-6.89858928240028e-05,-2.104821430748416e-05,0.0,-5.684341886080801e-13,2.2737367544323206e-12,0.0,189.91741071428567,70.0,0.0,255.0,0.0
12.80000000000004,35.69789175272904,51.26854864630676,1319.9991246145219,-6.898589288084622e-05,-2.104821419379732e-05,0.0,-1.1368683772161603e-12,1.1368683772161603e-12,0.0,189.84499999999994,70.0,0.0,255.0,0.0
12.85000000000004,35.697888179432525,51.26854806350368,1319.99912476819,-6.898589293768964e-05,-2.104821419379732e-05,0.0,5.684341886080801e-13,-1.1368683772161603e-12,0.0,189.77258928571422,70.0,0.0,255.0,0.0
12.900000000000041,35.69788460662023,51.2685474808923,1319.9991249218583,-6.89858928240028e-05,-2.104821430748416e-05,0.0,1.1368683772161603e-12,-2.2737367544323206e-12,0.0,189.70017857142852,70.0,0.0,255.0,0.0
12.950000000000042,35.697881034292344,51.26854689847186,1319.9991250783205,-6.89858928240028e-05,-2.1048214421170997e-05,0.0,-5.684341886080801e-13,0.0,0.0,189.6277678571428,70.0,0.0,255.0,0.0
13.000000000000043,35.697877462449064,51.26854631624163,1319.999125238508,-6.898589288084622e-05,-2.104821430748416e-05,0.0,0.0,2.2737367544323206e-12,0.0,189.55535714285708,70.0,0.0,255.0,0.0
13.050000000000043,35.697873891090595,51.26854573420086,1319.9991253977641,-6.89858928240028e-05,-2.104821419379732e-05,0.0,0.0,0.0,0.0,189.48294642857138,70.0,0.0,255.0,0.0
13.100000000000044,35.697870320217135,51.26854515234878,1319.9991255598143,-6.898589288084622e-05,-2.104821430748416e-05,0.0,-1.1368683772161603e-12,-1.1368683772161603e-12,0.0,189.41053571428566,70.0,0.0,255.0,0.0
13.150000000000045,35.697866749828854,51.26854457068465,1319.9991257246584,-6.898589293768964e-05,-2.104821430748416e-05,0.0,5.684341886080801e-13,1.1368683772161603e-12,0.0,189.33812499999993,70.0,0.0,255.0,0.0
13.200000000000045,35.697863179925974,51.26854398920773,1319.9991258904338,-6.89858928240028e-05,-2.104821419379732e-05,0.0,1.1368683772161603e-12,0.0,0.0,189.26571428571424,70.0,0.0,255.0,0.0
13.250000000000046,35.69785961050867,51.268543407917235,1319.9991260590032,-6.89858928240028e-05,-2.104821430748416e-05,0.0,0.0,-1.1368683772161603e-12,0.0,189.19330357142852,70.0,0.0,255.0,0.0
13.300000000000047,35.697856041577126,51.268542826812435,1319.9991262294352,-6.89858928240028e-05,-2.104821430748416e-05,0.0,0.0,0.0,0.0,189.1208928571428,70.0,0.0,255.0,0.0
13.350000000000048,35.69785247313157,51.26854224589258,1319.9991264017299,-6.89858928240028e-05,-2.104821430748416e-05,0.0,-1.1368683772161603e-12,0.0,0.0,189.04848214285707,70.0,0.0,255.0,0.0
13.400000000000048,35.69784890517214,51.26854166515691,1319.9991265768185,-6.898589293768964e-05,-2.104821430748416e-05,0.0,-5.684341886080801e-13,1.1368683772161603e-12,0.0,188.97607142857137,70.0,0.0,255.0,0.0
13.450000000000049,35.697845337699064,51.26854108460467,1319.9991267528385,-6.898589288084622e-05,-2.104821419379732e-05,0.0,1.1368683772161603e-12,0.0,0.0,188.90366071428565,70.0,0.0,255.0,0.0
13.50000000000005,35.697841770712536,51.26854050423511,1319.999126930721,-6.89858928240028e-05,-2.104821430748416e-05,0.0,0.0,-2.2737367544323206e-12,0.0,188.83124999999993,70.0,0.0,255.0,0.0
13.55000000000005,35.697838204212715,51.268539924047474,1319.999127109535,-6.898589288084622e-05,-2.1048214421170997e-05,0.0,0.0,0.0,0.0,188.75883928571423,70.0,0.0,255.0,0.0
13.600000000000051,35.69783463819981,51.26853934404102,1319.9991272930056,-6.89858928240028e-05,-2.104821430748416e-05,0.0,5.684341886080801e-13,2.2737367544323206e-12,0.0,188.6864285714285,70.0,0.0,255.0,0.0
13.650000000000052,35.69783107267398,51.26853876421497,1319.9991274783388,-6.89858928240028e-05,-2.104821419379732e-05,0.0,0.0,1.1368683772161603e-12,0.0,188.61401785714278,70.0,0.0,255.0,0.0
13.700000000000053,35.69782750763544,51.268538184568584,1319.999127663672,-6.89858928240028e-05,-2.104821419379732e-05,0.0,-5.684341886080801e-13,-1.1368683772161603e-12,0.0,188.54160714285706,70.0,0.0,255.0,0.0
13.750000000000053,35.69782394308437,51.26853760510111,1319.9991278517991,-6.898589288084622e-05,-2.104821430748416e-05,0.0,-1.1368683772161603e-12,-1.1368683772161603e-12,0.0,188.46919642857137,70.0,0.0,255.0,0.0
13.800000000000054,35.69782037902094,51.268537025811774,1319.9991280408576,-6.898589293768964e-05,-2.104821430748416e-05,0.0,5.684341886080801e-13,1.1368683772161603e-12,0.0,188.39678571428564,70.0,0.0,255.0,0.0
13.850000000000055,35.69781681544535,51.26853644669985,1319.9991282308474,-6.89858928240028e-05,-2.104821419379732e-05,0.0,1.1368683772161603e-12,0.0,0.0,188.32437499999992,70.0,0.0,255.0,0.0
13.900000000000055,35.697813252357776,51.26853586776454,1319.9991284245625,-6.89858928240028e-05,-2.104821430748416e-05,0.0,-5.684341886080801e-13,-2.2737367544323206e-12,0.0,188.25196428571422,70.0,0.0,255.0,0.0
13.950000000000056,35.697809689758394,51.26853528900514,1319.999128619209,-6.898589288084622e-05,-2.1048214421170997e-05,0.0,0.0,0.0,0.0,188.1795535714285,70.0,0.0,255.0,0.0
14.000000000000057,35.69780612764737,51.26853471042085,1319.999128818512,-6.89858928240028e-05,-2.104821430748416e-05,0.0,0.0,2.2737367544323206e-12,0.0,188.10714285714278,70.0,0.0,255.0,0.0
14.050000000000058,35.697802566024926,51.268534132010934,1319.9991290168837,-6.898589288084622e-05,-2.104821419379732e-05,0.0,-1.1368683772161603e-12,0.0,0.0,188.03473214285705,70.0,0.0,255.0,0.0
14.100000000000058,35.697799004891216,51.26853355377463,1319.999129219912,-6.898589293768964e-05,-2.104821430748416e-05,0.0,5.684341886080801e-13,-1.1368683772161603e-12,0.0,187.96232142857136,70.0,0.0,255.0,0.0
14.150000000000059,35.69779544424641,51.268532975711175,1319.9991294210777,-6.89858928240028e-05,-2.104821430748416e-05,0.0,1.1368683772161603e-12,0.0,0.0,187.88991071428563,70.0,0.0,255.0,0.0
14.20000000000006,35.69779188409071,51.26853239781984,1319.9991296259686,-6.89858928240028e-05,-2.104821430748416e-05,0.0,0.0,0.0,0.0,187.8174999999999,70.0,0.0,255.0,0.0
14.25000000000006,35.697788324424266,51.268531820099824,1319.9991298336536,-6.89858928240028e-05,-2.104821430748416e-05,0.0,0.0,1.1368683772161603e-12,0.0,187.74508928571422,70.0,0.0,255.0,0.0
14.300000000000061,35.69778476524728,51.268531242550395,1319.9991300422698,-6.89858928240028e-05,-2.104821419379732e-05,0.0,-1.1368683772161603e-12,0.0,0.0,187.6726785714285,70.0,0.0,255.0,0.0
14.350000000000062,35.69778120655991,51.268530665170786,1319.9991302527487,-6.898589293768964e-05,-2.104821430748416e-05,0.0,-5.684341886080801e-13,-1.1368683772161603e-12,0.0,187.60026785714277,70.0,0.0,255.0,0.0
14.400000000000063,35.69777764836233,51.268530087960244,1319.9991304632276,-6.898589288084622e-05,-2.104821430748416e-05,0.0,1.1368683772161603e-12,1.1368683772161603e-12,0.0,187.52785714285704,70.0,0.0,255.0,0.0
14.450000000000063,35.69777409065475,51.26852951091801,1319.9991306755692,-6.89858928240028e-05,-2.104821419379732e-05,0.0,0.0,0.0,0.0,187.45544642857135,70.0,0.0,255.0,0.0
14.500000000000064,35.697770533437286,51.26852893404331,1319.9991308925673,-6.898589288084622e-05,-2.104821430748416e-05,0.0,0.0,-1.1368683772161603e-12,0.0,187.38303571428563,70.0,0.0,255.0,0.0
14.550000000000065,35.69776697671014,51.268528357335406,1319.9991311104968,-6.89858928240028e-05,-2.104821430748416e-05,0.0,5.684341886080801e-13,0.0,0.0,187.3106249999999,70.0,0.0,255.0,0.0
14.600000000000065,35.69776342047351,51.268527780793534,1319.9991313312203,-6.89858928240028e-05,-2.104821430748416e-05,0.0,-1.1368683772161603e-12,0.0,0.0,187.2382142857142,70.0,0.0,255.0,0.0
14.650000000000066,35.69775986472749,51.26852720441692,1319.9991315510124,-6.898589293768964e-05,-2.104821430748416e-05,0.0,-5.684341886080801e-13,1.1368683772161603e-12,0.0,187.16580357142848,70.0,0.0,255.0,0.0
14.700000000000067,35.69775630947233,51.26852662820481,1319.9991317726672,-6.898589288084622e-05,-2.104821419379732e-05,0.0,1.1368683772161603e-12,0.0,0.0,187.09339285714276,70.0,0.0,255.0,0.0
14.750000000000068,35.69775275470816,51.26852605215645,1319.999131997116,-6.89858928240028e-05,-2.104821430748416e-05,0.0,5.684341886080801e-13,-2.2737367544323206e-12,0.0,187.02098214285704,70.0,0.0,255.0,0.0
14.800000000000068,35.697749200435155,51.26852547627107,1319.9991322243586,-6.89858928240028e-05,-2.1048214421170997e-05,0.0,0.0,0.0,0.0,186.94857142857134,70.0,0.0,255.0,0.0
14.850000000000069,35.69774564665349,51.26852490054792,1319.999132453464,-6.89858928240028e-05,-2.104821430748416e-05,0.0,-5.684341886080801e-13,2.2737367544323206e-12,0.0,186.87616071428562,70.0,0.0,255.0,0.0
14.90000000000007,35.69774209336334,51.26852432498624,1319.9991326807067,-6.898589288084622e-05,-2.104821419379732e-05,0.0,0.0,0.0,0.0,186.8037499999999,70.0,0.0,255.0,0.0
14.95000000000007,35.69773854056482,51.26852374958524,1319.9991329135373,-6.89858928240028e-05,-2.104821430748416e-05,0.0,0.0,-1.1368683772161603e-12,0.0,186.7313392857142,70.0,0.0,255.0,0.0
15.000000000000071,35.69773498825817,51.26852317434419,1319.999133146368,-6.898589288084622e-05,-2.104821430748416e-05,0.0,-1.1368683772161603e-12,1.1368683772161603e-12,0.0,186.65892857142848,70.0,0.0,255.0,0.0
15.050000000000072,35.69773143644349,51.26852259926232,1319.99913338013,-6.898589293768964e-05,-2.104821419379732e-05,0.0,5.684341886080801e-13,0.0,0.0,186.58651785714275,70.0,0.0,255.0,0.0
15.100000000000072,35.697727885120976,51.26852202433885,1319.9991336194798,-6.89858928240028e-05,-2.104821430748416e-05,0.0,1.1368683772161603e-12,-1.1368683772161603e-12,0.0,186.51410714285703,70.0,0.0,255.0,0.0
15.150000000000073,35.6977243342908,51.26852144957304,1319.999133856967,-6.89858928240028e-05,-2.104821430748416e-05,0.0,0.0,0.0,0.0,186.44169642857133,70.0,0.0,255.0,0.0
15.200000000000074,35.6977207839531,51.268520874964125,1319.9991340944543,-6.89858928240028e-05,-2.104821430748416e-05,0.0,0.0,0.0,0.0,186.3692857142856,70.0,0.0,255.0,0.0
15.250000000000075,35.69771723410803,51.26852030051133,1319.9991343384609,-6.89858928240028e-05,-2.104821430748416e-05,0.0,-1.1368683772161603e-12,1.1368683772161603e-12,0.0,186.2968749999999,70.0,0.0,255.0,0.0
15.300000000000075,35.69771368475578,51.26851972621388,1319.9991345824674,-6.898589293768964e-05,-2.104821419379732e-05,0.0,-5.684341886080801e-13,0.0,0.0,186.2244642857142,70.0,0.0,255.0,0.0
15.350000000000076,35.69771013589651,51.26851915207105,1319.9991348274052,-6.898589288084622e-05,-2.104821430748416e-05,0.0,1.1368683772161603e-12,-1.1368683772161603e-12,0.0,186.15205357142847,70.0,0.0,255.0,0.0
15.400000000000077,35.697706587530355,51.26851857808205,1319.9991350732744,-6.89858928240028e-05,-2.104821430748416e-05,0.0,0.0,0.0,0.0,186.07964285714274,70.0,0.0,255.0,0.0
15.450000000000077,35.6977030396575,51.26851800424611,1319.9991353219375,-6.898589288084622e-05,-2.104821430748416e-05,0.0,0.0,0.0,0.0,186.00723214285705,70.0,0.0,255.0,0.0
15.500000000000078,35.697699492278055,51.26851743056249,1319.9991355724633,-6.89858928240028e-05,-2.104821430748416e-05,0.0,5.684341886080801e-13,1.1368683772161603e-12,0.0,185.93482142857133,70.0,0.0,255.0,0.0
15.550000000000079,35.69769594539225,51.268516857030406,1319.9991358220577,-6.89858928240028e-05,-2.104821419379732e-05,0.0,-1.1368683772161603e-12,0.0,0.0,185.8624107142856,70.0,0.0,255.0,0.0
15.60000000000008,35.69769239900016,51.26851628364909,1319.99913607724,-6.898589293768964e-05,-2.104821430748416e-05,0.0,-5.684341886080801e-13,-1.1368683772161603e-12,0.0,185.78999999999988,70.0,0.0,255.0,0.0
15.65000000000008,35.697688853101994,51.26851571041779,1319.9991363305598,-6.898589288084622e-05,-2.104821430748416e-05,0.0,1.1368683772161603e-12,1.1368683772161603e-12,0.0,185.71758928571418,70.0,0.0,255.0,0.0
15.700000000000081,35.6976853076979,51.26851513733574,1319.9991365894675,-6.89858928240028e-05,-2.104821419379732e-05,0.0,5.684341886080801e-13,0.0,0.0,185.64517857142846,70.0,0.0,255.0,0.0
15.750000000000082,35.697681762788015,51.26851456440217,1319.9991368455812,-6.89858928240028e-05,-2.104821430748416e-05,0.0,0.0,-2.2737367544323206e-12,0.0,185.57276785714274,70.0,0.0,255.0,0.0
15.800000000000082,35.69767821837251,51.2685139916163,1319.9991371063516,-6.89858928240028e-05,-2.1048214421170997e-05,0.0,-5.684341886080801e-13,0.0,0.0,185.50035714285704,70.0,0.0,255.0,0.0
15.850000000000083,35.69767467445153,51.26851341897739,1319.9991373680532,-6.898589288084622e-05,-2.104821430748416e-05,0.0,0.0,2.2737367544323206e-12,0.0,185.42794642857132,70.0,0.0,255.0,0.0
15.900000000000084,35.6976711310252,51.26851284648467,1319.9991376306862,-6.89858928240028e-05,-2.104821419379732e-05,0.0,0.0,0.0,0.0,185.3555357142856,70.0,0.0,255.0,0.0
15.950000000000085,35.697667588093715,51.26851227413736,1319.9991378951818,-6.898589288084622e-05,-2.104821430748416e-05,0.0,-1.1368683772161603e-12,-1.1368683772161603e-12,0.0,185.28312499999987,70.0,0.0,255.0,0.0
16.000000000000085,35.697664045657184,51.268511701934685,1319.99913816154,-6.898589293768964e-05,-2.104821430748416e-05,0.0,5.684341886080801e-13,0.0,0.0,185.21071428571418,70.0,0.0,255.0,0.0
16.050000000000086,35.697660503715795,51.268511129875904,1319.9991384288296,-6.89858928240028e-05,-2.104821430748416e-05,0.0,1.1368683772161603e-12,0.0,0.0,185.13830357142845,70.0,0.0,255.0,0.0
16.100000000000087,35.697656962269676,51.268510557960234,1319.9991386989132,-6.89858928240028e-05,-2.104821430748416e-05,0.0,0.0,1.1368683772161603e-12,0.0,185.06589285714273,70.0,0.0,255.0,0.0
16.150000000000087,35.69765342131896,51.268509986186906,1319.999138969928,-6.89858928240028e-05,-2.104821419379732e-05,0.0,0.0,0.0,0.0,184.99348214285703,70.0,0.0,255.0,0.0
16.200000000000088,35.69764988086382,51.268509414555176,1319.9991392418742,-6.89858928240028e-05,-2.104821430748416e-05,0.0,-1.1368683772161603e-12,-1.1368683772161603e-12,0.0,184.9210714285713,70.0,0.0,255.0,0.0
16.25000000000009,35.697646340904384,51.26850884306424,1319.999139515683,-6.898589293768964e-05,-2.104821430748416e-05,0.0,-5.684341886080801e-13,1.1368683772161603e-12,0.0,184.8486607142856,70.0,0.0,255.0,0.0
16.30000000000009,35.69764280144079,51.268508271713344,1319.9991397904232,-6.898589288084622e-05,-2.104821419379732e-05,0.0,1.1368683772161603e-12,0.0,0.0,184.77624999999986,70.0,0.0,255.0,0.0
16.35000000000009,35.69763926247321,51.268507700501736,1319.9991400679573,-6.89858928240028e-05,-2.104821430748416e-05,0.0,0.0,-1.1368683772161603e-12,0.0,184.70383928571417,70.0,0.0,255.0,0.0
16.40000000000009,35.69763572400177,51.268507129428635,1319.9991403482854,-6.898589288084622e-05,-2.104821430748416e-05,0.0,0.0,0.0,0.0,184.63142857142844,70.0,0.0,255.0,0.0
16.45000000000009,35.69763218602661,51.26850655849326,1319.999140626751,-6.89858928240028e-05,-2.104821430748416e-05,0.0,5.684341886080801e-13,0.0,0.0,184.55901785714272,70.0,0.0,255.0,0.0
16.500000000000092,35.69762864854789,51.268505987694844,1319.9991409080103,-6.89858928240028e-05,-2.104821430748416e-05,0.0,-1.1368683772161603e-12,1.1368683772161603e-12,0.0,184.48660714285703,70.0,0.0,255.0,0.0
16.550000000000093,35.69762511156571,51.26850541703264,1319.999141192995,-6.898589293768964e-05,-2.104821419379732e-05,0.0,-5.684341886080801e-13,0.0,0.0,184.4141964285713,70.0,0.0,255.0,0.0
16.600000000000094,35.69762157508025,51.26850484650587,1319.9991414770484,-6.898589288084622e-05,-2.104821430748416e-05,0.0,1.1368683772161603e-12,-2.2737367544323206e-12,0.0,184.34178571428558,70.0,0.0,255.0,0.0
16.650000000000095,35.69761803909163,51.26850427611375,1319.9991417611018,-6.89858928240028e-05,-2.1048214421170997e-05,0.0,5.684341886080801e-13,0.0,0.0,184.26937499999985,70.0,0.0,255.0,0.0
16.700000000000095,35.69761450359999,51.26850370585552,1319.9991420488805,-6.89858928240028e-05,-2.104821430748416e-05,0.0,0.0,2.2737367544323206e-12,0.0,184.19696428571416,70.0,0.0,255.0,0.0
16.750000000000096,35.697610968605495,51.26850313573043,1319.9991423385218,-6.89858928240028e-05,-2.104821419379732e-05,0.0,-5.684341886080801e-13,0.0,0.0,184.12455357142844,70.0,0.0,255.0,0.0
16.800000000000097,35.69760743410824,51.26850256573767,1319.9991426290944,-6.898589288084622e-05,-2.104821430748416e-05,0.0,0.0,-1.1368683772161603e-12,0.0,184.0521428571427,70.0,0.0,255.0,0.0
16.850000000000097,35.697603900108376,51.2685019958765,1319.999142919667,-6.89858928240028e-05,-2.104821430748416e-05,0.0,0.0,1.1368683772161603e-12,0.0,183.97973214285702,70.0,0.0,255.0,0.0
16.900000000000098,35.69760036660606,51.26850142614613,1319.9991432148963,-6.898589288084622e-05,-2.104821419379732e-05,0.0,-1.1368683772161603e-12,0.0,0.0,183.9073214285713,70.0,0.0,255.0,0.0
16.9500000000001,35.69759683360138,51.2685008565458,1319.9991435091943,-6.898589293768964e-05,-2.104821430748416e-05,0.0,5.684341886080801e-13,-1.1368683772161603e-12,0.0,183.83491071428557,70.0,0.0,255.0,0.0
17.0000000000001,35.697593301094514,51.26850028707472,1319.9991438053548,-6.89858928240028e-05,-2.104821430748416e-05,0.0,1.1368683772161603e-12,0.0,0.0,183.76249999999987,70.0,0.0,255.0,0.0
17.0500000000001,35.69758976908559,51.26849971773217,1319.9991441024467,-6.89858928240028e-05,-2.104821430748416e-05,0.0,-5.684341886080801e-13,0.0,0.0,183.69008928571415,70.0,0.0,255.0,0.0
17.1000000000001,35.69758623757472,51.2684991485173,1319.9991444014013,-6.898589288084622e-05,-2.104821430748416e-05,0.0,0.0,1.1368683772161603e-12,0.0,183.61767857142843,70.0,0.0,255.0,0.0
17.1500000000001,35.69758270656204,51.26849857942941,1319.9991447012872,-6.89858928240028e-05,-2.104821419379732e-05,0.0,0.0,0.0,0.0,183.5452678571427,70.0,0.0,255.0,0.0
17.200000000000102,35.6975791760477,51.2684980104677,1319.9991450030357,-6.898589288084622e-05,-2.104821430748416e-05,0.0,-5.684341886080801e-13,-1.1368683772161603e-12,0.0,183.472857142857,70.0,0.0,255.0,0.0
17.250000000000103,35.69757564603179,51.268497441631396,1319.9991453066468,-6.898589288084622e-05,-2.104821430748416e-05,0.0,5.684341886080801e-13,0.0,0.0,183.40044642857129,70.0,0.0,255.0,0.0
17.300000000000104,35.69757211651448,51.26849687291973,1319.9991456111893,-6.89858928240028e-05,-2.104821430748416e-05,0.0,0.0,0.0,0.0,183.32803571428556,70.0,0.0,255.0,0.0
17.350000000000104,35.697568587495894,51.2684963043319,1319.999145916663,-6.898589288084622e-05,-2.104821430748416e-05,0.0,0.0,1.1368683772161603e-12,0.0,183.25562499999984,70.0,0.0,255.0,0.0
17.400000000000105,35.69756505897612,51.26849573586718,1319.9991462258622,-6.89858928240028e-05,-2.104821419379732e-05,0.0,5.684341886080801e-13,0.0,0.0,183.18321428571414,70.0,0.0,255.0,0.0
17.450000000000106,35.697561530955326,51.268495167524776,1319.99914653413,-6.89858928240028e-05,-2.104821430748416e-05,0.0,-1.1368683772161603e-12,-1.1368683772161603e-12,0.0,183.11080357142842,70.0,0.0,255.0,0.0
17.500000000000107,35.69755800343362,51.268494599303914,1319.9991468423977,-6.898589293768964e-05,-2.104821430748416e-05,0.0,-5.684341886080801e-13,1.1368683772161603e-12,0.0,183.0383928571427,70.0,0.0,255.0,0.0
17.550000000000107,35.69755447641112,51.26849403120382,1319.9991471543908,-6.898589288084622e-05,-2.104821419379732e-05,0.0,1.1368683772161603e-12,0.0,0.0,182.965982142857,70.0,0.0,255.0,0.0
17.600000000000108,35.69755094988798,51.268493463223734,1319.9991474673152,-6.89858928240028e-05,-2.104821430748416e-05,0.0,5.684341886080801e-13,-2.2737367544323206e-12,0.0,182.89357142857128,70.0,0.0,255.0,0.0
17.65000000000011,35.69754742386429,51.268492895362854,1319.9991477821022,-6.89858928240028e-05,-2.1048214421170997e-05,0.0,0.0,0.0,0.0,182.82116071428555,70.0,0.0,255.0,0.0
17.70000000000011,35.697543898340214,51.26849232762043,1319.9991480968893,-6.89858928240028e-05,-2.104821430748416e-05,0.0,-5.684341886080801e-13,2.2737367544323206e-12,0.0,182.74874999999986,70.0,0.0,255.0,0.0
17.75000000000011,35.69754037331581,51.268491759995676,1319.9991484144703,-6.898589288084622e-05,-2.104821419379732e-05,0.0,0.0,1.1368683772161603e-12,0.0,182.67633928571414,70.0,0.0,255.0,0.0
17.80000000000011,35.69753684879125,51.26849119248782,1319.9991487320513,-6.89858928240028e-05,-2.104821419379732e-05,0.0,0.0,-1.1368683772161603e-12,0.0,182.6039285714284,70.0,0.0,255.0,0.0
17.85000000000011,35.69753332476663,51.268490625096106,1319.999149051495,-6.898589288084622e-05,-2.104821430748416e-05,0.0,-1.1368683772161603e-12,-2.2737367544323206e-12,0.0,182.5315178571427,70.0,0.0,255.0,0.0
17.900000000000112,35.69752980124209,51.268490057819726,1319.9991493728012,-6.898589293768964e-05,-2.1048214421170997e-05,0.0,5.684341886080801e-13,0.0,0.0,182.459107142857,70.0,0.0,255.0,0.0
17.950000000000113,35.69752627821774,51.26848949065793,1319.9991496931762,-6.89858928240028e-05,-2.104821430748416e-05,0.0,1.1368683772161603e-12,2.2737367544323206e-12,0.0,182.38669642857127,70.0,0.0,255.0,0.0
18.000000000000114,35.69752275569368,51.26848892360994,1319.9991500172764,-6.89858928240028e-05,-2.104821419379732e-05,0.0,-5.684341886080801e-13,0.0,0.0,182.31428571428555,70.0,0.0,255.0,0.0
18.050000000000114,35.69751923367005,51.268488356674965,1319.9991503413767,-6.898589288084622e-05,-2.104821430748416e-05,0.0,0.0,-1.1368683772161603e-12,0.0,182.24187499999985,70.0,0.0,255.0,0.0
18.100000000000115,35.697515712146966,51.26848778985224,1319.9991506673396,-6.89858928240028e-05,-2.104821430748416e-05,0.0,0.0,1.1368683772161603e-12,0.0,182.16946428571413,70.0,0.0,255.0,0.0
18.150000000000116,35.69751219112453,51.26848722314101,1319.999150995165,-6.898589288084622e-05,-2.104821419379732e-05,0.0,-5.684341886080801e-13,0.0,0.0,182.0970535714284,70.0,0.0,255.0,0.0
18.200000000000117,35.697508670602865,51.26848665654045,1319.9991513220593,-6.898589288084622e-05,-2.104821430748416e-05,0.0,5.684341886080801e-13,-1.1368683772161603e-12,0.0,182.02464285714268,70.0,0.0,255.0,0.0
18.250000000000117,35.69750515058207,51.268486090049834,1319.9991516517475,-6.89858928240028e-05,-2.104821430748416e-05,0.0,0.0,0.0,0.0,181.95223214285699,70.0,0.0,255.0,0.0
18.300000000000118,35.69750163106227,51.26848552366836,1319.9991519814357,-6.898589288084622e-05,-2.104821430748416e-05,0.0,0.0,0.0,0.0,181.87982142857126,70.0,0.0,255.0,0.0
18.35000000000012,35.69749811204359,51.26848495739525,1319.9991523148492,-6.89858928240028e-05,-2.104821430748416e-05,0.0,5.684341886080801e-13,1.1368683772161603e-12,0.0,181.80741071428554,70.0,0.0,255.0,0.0
18.40000000000012,35.69749459352614,51.26848439122974,1319.9991526482627,-6.89858928240028e-05,-2.104821419379732e-05,0.0,-1.1368683772161603e-12,0.0,0.0,181.73499999999984,70.0,0.0,255.0,0.0
18.45000000000012,35.69749107550999,51.26848382517105,1319.9991529816762,-6.898589293768964e-05,-2.104821430748416e-05,0.0,-5.684341886080801e-13,-2.2737367544323206e-12,0.0,181.66258928571412,70.0,0.0,255.0,0.0
18.50000000000012,35.69748755799528,51.2684832592184,1319.9991533178836,-6.898589288084622e-05,-2.1048214421170997e-05,0.0,1.1368683772161603e-12,0.0,0.0,181.5901785714284,70.0,0.0,255.0,0.0
18.55000000000012,35.69748404098212,51.26848269337101,1319.9991536550224,-6.89858928240028e-05,-2.104821430748416e-05,0.0,0.0,2.2737367544323206e-12,0.0,181.51776785714267,70.0,0.0,255.0,0.0
18.600000000000122,35.69748052447063,51.26848212762812,1319.9991539930925,-6.898589288084622e-05,-2.104821419379732e-05,0.0,0.0,1.1368683772161603e-12,0.0,181.44535714285698,70.0,0.0,255.0,0.0
18.650000000000123,35.697477008460886,51.26848156198892,1319.9991543302312,-6.89858928240028e-05,-2.104821419379732e-05,0.0,5.684341886080801e-13,-1.1368683772161603e-12,0.0,181.37294642857125,70.0,0.0,255.0,0.0
18.700000000000124,35.69747349295303,51.26848099645266,1319.9991546720266,-6.89858928240028e-05,-2.104821430748416e-05,0.0,0.0,-1.1368683772161603e-12,0.0,181.30053571428553,70.0,0.0,255.0,0.0
18.750000000000124,35.697469977947144,51.26848043101856,1319.999155013822,-6.89858928240028e-05,-2.104821430748416e-05,0.0,-5.684341886080801e-13,1.1368683772161603e-12,0.0,181.22812499999984,70.0,0.0,255.0,0.0
18.800000000000125,35.69746646344334,51.268479865685826,1319.999155354686,-6.898589288084622e-05,-2.104821419379732e-05,0.0,-1.1368683772161603e-12,0.0,0.0,181.1557142857141,70.0,0.0,255.0,0.0
18.850000000000126,35.697462949441714,51.2684793004537,1319.9991557002068,-6.898589293768964e-05,-2.104821430748416e-05,0.0,5.684341886080801e-13,-2.2737367544323206e-12,0.0,181.0833035714284,70.0,0.0,255.0,0.0
18.900000000000126,35.69745943594237,51.26847873532139,1319.999156044796,-6.89858928240028e-05,-2.1048214421170997e-05,0.0,1.1368683772161603e-12,0.0,0.0,181.01089285714266,70.0,0.0,255.0,0.0
18.950000000000127,35.69745592294543,51.26847817028811,1319.9991563893855,-6.89858928240028e-05,-2.104821430748416e-05,0.0,-5.684341886080801e-13,2.2737367544323206e-12,0.0,180.93848214285697,70.0,0.0,255.0,0.0
19.000000000000128,35.69745241045097,51.268477605353105,1319.9991567358375,-6.898589288084622e-05,-2.104821419379732e-05,0.0,0.0,0.0,0.0,180.86607142857125,70.0,0.0,255.0,0.0
19.05000000000013,35.69744889845911,51.268477040515585,1319.999157086946,-6.89858928240028e-05,-2.104821430748416e-05,0.0,0.0,-1.1368683772161603e-12,0.0,180.79366071428552,70.0,0.0,255.0,0.0
19.10000000000013,35.69744538696994,51.268476475774776,1319.9991574343294,-6.898589288084622e-05,-2.104821430748416e-05,0.0,-5.684341886080801e-13,0.0,0.0,180.72124999999983,70.0,0.0,255.0,0.0
19.15000000000013,35.69744187598358,51.26847591112989,1319.9991577873006,-6.898589288084622e-05,-2.104821430748416e-05,0.0,5.684341886080801e-13,0.0,0.0,180.6488392857141,70.0,0.0,255.0,0.0
19.20000000000013,35.6974383655001,51.26847534658015,1319.9991581384093,-6.89858928240028e-05,-2.104821430748416e-05,0.0,0.0,1.1368683772161603e-12,0.0,180.57642857142838,70.0,0.0,255.0,0.0
19.25000000000013,35.69743485551959,51.26847478212478,1319.9991584895179,-6.898589288084622e-05,-2.104821419379732e-05,0.0,0.0,0.0,0.0,180.50401785714268,70.0,0.0,255.0,0.0
19.300000000000132,35.69743134604218,51.268474217763,1319.9991588443518,-6.89858928240028e-05,-2.104821430748416e-05,0.0,5.684341886080801e-13,-1.1368683772161603e-12,0.0,180.43160714285696,70.0,0.0,255.0,0.0
19.350000000000133,35.69742783706795,51.26847365349403,1319.999159200117,-6.89858928240028e-05,-2.104821430748416e-05,0.0,-1.1368683772161603e-12,1.1368683772161603e-12,0.0,180.35919642857124,70.0,0.0,255.0,0.0
19.400000000000134,35.69742432859701,51.26847308931708,1319.9991595568135,-6.898589293768964e-05,-2.104821419379732e-05,0.0,-5.684341886080801e-13,0.0,0.0,180.28678571428551,70.0,0.0,255.0,0.0
19.450000000000134,35.69742082062942,51.2684725252314,1319.9991599116474,-6.898589288084622e-05,-2.104821430748416e-05,0.0,1.1368683772161603e-12,-1.1368683772161603e-12,0.0,180.21437499999982,70.0,0.0,255.0,0.0
19.500000000000135,35.69741731316532,51.26847196123619,1319.999160268344,-6.89858928240028e-05,-2.104821430748416e-05,0.0,0.0,0.0,0.0,180.1419642857141,70.0,0.0,255.0,0.0
19.550000000000136,35.69741380620476,51.268471397330664,1319.9991606287658,-6.898589288084622e-05,-2.104821430748416e-05,0.0,0.0,0.0,0.0,180.06955357142837,70.0,0.0,255.0,0.0
19.600000000000136,35.697410299747844,51.268470833514044,1319.999160990119,-6.89858928240028e-05,-2.104821430748416e-05,0.0,5.684341886080801e-13,1.1368683772161603e-12,0.0,179.99714285714265,70.0,0.0,255.0,0.0
19.650000000000137,35.69740679379469,51.268470269785546,1319.9991613514721,-6.89858928240028e-05,-2.104821419379732e-05,0.0,0.0,0.0,0.0,179.92473214285695,70.0,0.0,255.0,0.0
19.700000000000138,35.69740328834535,51.268469706144415,1319.9991617128253,-6.89858928240028e-05,-2.104821430748416e-05,0.0,-5.684341886080801e-13,-2.2737367544323206e-12,0.0,179.85232142857123,70.0,0.0,255.0,0.0
19.75000000000014,35.69739978339995,51.26846914258984,1319.999162076041,-6.898589288084622e-05,-2.1048214421170997e-05,0.0,-1.1368683772161603e-12,0.0,0.0,179.7799107142855,70.0,0.0,255.0,0.0
19.80000000000014,35.69739627895855,51.26846857912106,1319.9991624383256,-6.898589293768964e-05,-2.104821430748416e-05,0.0,5.684341886080801e-13,2.2737367544323206e-12,0.0,179.7074999999998,70.0,0.0,255.0,0.0
19.85000000000014,35.69739277502124,51.268468015737284,1319.9991628043354,-6.89858928240028e-05,-2.104821419379732e-05,0.0,1.1368683772161603e-12,0.0,0.0,179.6350892857141,70.0,0.0,255.0,0.0
19.90000000000014,35.697389271588136,51.26846745243773,1319.999163173139,-6.89858928240028e-05,-2.104821430748416e-05,0.0,-5.684341886080801e-13,-1.1368683772161603e-12,0.0,179.56267857142836,70.0,0.0,255.0,0.0
19.95000000000014,35.697385768659295,51.268466889221614,1319.9991635391489,-6.898589288084622e-05,-2.104821430748416e-05,0.0,0.0,1.1368683772161603e-12,0.0,179.49026785714267,70.0,0.0,255.0,0.0
20.000000000000142,35.697382266234804,51.26846632608818,1319.9991639070213,-6.89858928240028e-05,-2.104821419379732e-05,0.0,0.0,0.0,0.0,179.41785714285695,70.0,0.0,255.0,0.0
20.050000000000143,35.697378764314784,51.26846576303663,1319.9991642748937,-6.898589288084622e-05,-2.104821430748416e-05,0.0,-1.1368683772161603e-12,-1.1368683772161603e-12,0.0,179.34544642857122,70.0,0.0,255.0,0.0
20.100000000000144,35.69737526289927,51.26846520006617,1319.99916464556,-6.898589293768964e-05,-2.104821430748416e-05,0.0,5.684341886080801e-13,0.0,0.0,179.2730357142855,70.0,0.0,255.0,0.0
20.150000000000144,35.697371761988364,51.268464637176024,1319.9991650180891,-6.89858928240028e-05,-2.104821430748416e-05,0.0,1.1368683772161603e-12,0.0,0.0,179.2006249999998,70.0,0.0,255.0,0.0
20.200000000000145,35.697368261582156,51.26846407436542,1319.9991653887555,-6.89858928240028e-05,-2.104821430748416e-05,0.0,0.0,1.1368683772161603e-12,0.0,179.12821428571408,70.0,0.0,255.0,0.0
20.250000000000146,35.69736476168072,51.26846351163356,1319.9991657631472,-6.89858928240028e-05,-2.104821419379732e-05,0.0,0.0,0.0,0.0,179.05580357142836,70.0,0.0,255.0,0.0
20.300000000000146,35.69736126228415,51.26846294897969,1319.9991661366075,-6.89858928240028e-05,-2.104821430748416e-05,0.0,-1.1368683772161603e-12,-1.1368683772161603e-12,0.0,178.98339285714266,70.0,0.0,255.0,0.0
20.350000000000147,35.697357763392496,51.268462386402994,1319.9991665109992,-6.898589293768964e-05,-2.104821430748416e-05,0.0,-5.684341886080801e-13,0.0,0.0,178.91098214285694,70.0,0.0,255.0,0.0
20.400000000000148,35.69735426500588,51.268461823902726,1319.9991668872535,-6.898589288084622e-05,-2.104821430748416e-05,0.0,1.1368683772161603e-12,0.0,0.0,178.8385714285712,70.0,0.0,255.0,0.0
20.45000000000015,35.69735076712434,51.268461261478066,1319.9991672635078,-6.89858928240028e-05,-2.104821430748416e-05,0.0,0.0,1.1368683772161603e-12,0.0,178.7661607142855,70.0,0.0,255.0,0.0
20.50000000000015,35.69734726974797,51.26846069912825,1319.9991676406935,-6.898589288084622e-05,-2.104821419379732e-05,0.0,0.0,0.0,0.0,178.6937499999998,70.0,0.0,255.0,0.0
20.55000000000015,35.697343772876856,51.2684601368525,1319.9991680188105,-6.89858928240028e-05,-2.104821430748416e-05,0.0,5.684341886080801e-13,-1.1368683772161603e-12,0.0,178.62133928571407,70.0,0.0,255.0,0.0
20.60000000000015,35.697340276511056,51.26845957465002,1319.9991683978587,-6.89858928240028e-05,-2.104821430748416e-05,0.0,0.0,1.1368683772161603e-12,0.0,178.54892857142835,70.0,0.0,255.0,0.0
20.65000000000015,35.69733678065067,51.26845901252003,1319.9991687778383,-6.89858928240028e-05,-2.104821419379732e-05,0.0,-5.684341886080801e-13,0.0,0.0,178.47651785714265,70.0,0.0,255.0,0.0
20.700000000000152,35.69733328529575,51.26845845046177,1319.9991691596806,-6.898589288084622e-05,-2.104821430748416e-05,0.0,-1.1368683772161603e-12,-2.2737367544323206e-12,0.0,178.40410714285693,70.0,0.0,255.0,0.0
20.750000000000153,35.697329790446375,51.26845788847442,1319.9991695415229,-6.898589293768964e-05,-2.1048214421170997e-05,0.0,5.684341886080801e-13,0.0,0.0,178.3316964285712,70.0,0.0,255.0,0.0
20.800000000000153,35.69732629610261,51.26845732655722,1319.9991699252278,-6.89858928240028e-05,-2.104821430748416e-05,0.0,1.1368683772161603e-12,2.2737367544323206e-12,0.0,178.25928571428548,70.0,0.0,255.0,0.0
20.850000000000154,35.69732280226456,51.268456764709384,1319.99917030707,-6.89858928240028e-05,-2.104821419379732e-05,0.0,-5.684341886080801e-13,0.0,0.0,178.1868749999998,70.0,0.0,255.0,0.0
20.900000000000155,35.697319308932244,51.268456202930125,1319.9991706926376,-6.898589288084622e-05,-2.104821430748416e-05,0.0,0.0,-1.1368683772161603e-12,0.0,178.11446428571406,70.0,0.0,255.0,0.0
20.950000000000156,35.697315816105785,51.26845564121865,1319.999171078205,-6.89858928240028e-05,-2.104821430748416e-05,0.0,0.0,0.0,0.0,178.04205357142834,70.0,0.0,255.0,0.0
21.000000000000156,35.69731232378521,51.2684550795742,1319.999171464704,-6.898589288084622e-05,-2.104821430748416e-05,0.0,-1.1368683772161603e-12,0.0,0.0,177.96964285714265,70.0,0.0,255.0,0.0
21.050000000000157,35.697308831970616,51.26845451799597,1319.9991718521342,-6.898589293768964e-05,-2.104821430748416e-05,0.0,5.684341886080801e-13,1.1368683772161603e-12,0.0,177.89723214285692,70.0,0.0,255.0,0.0
21.100000000000158,35.69730534066207,51.268453956483164,1319.999172238633,-6.89858928240028e-05,-2.104821419379732e-05,0.0,1.1368683772161603e-12,0.0,0.0,177.8248214285712,70.0,0.0,255.0,0.0
21.15000000000016,35.69730184985962,51.268453395035046,1319.9991726279259,-6.89858928240028e-05,-2.104821430748416e-05,0.0,0.0,-1.1368683772161603e-12,0.0,177.75241071428547,70.0,0.0,255.0,0.0
21.20000000000016,35.697298359563334,51.26845283365079,1319.9991730172187,-6.89858928240028e-05,-2.104821430748416e-05,0.0,0.0,1.1368683772161603e-12,0.0,177.67999999999978,70.0,0.0,255.0,0.0
21.25000000000016,35.69729486977329,51.268452272329625,1319.9991734065115,-6.89858928240028e-05,-2.104821419379732e-05,0.0,-1.1368683772161603e-12,0.0,0.0,177.60758928571406,70.0,0.0,255.0,0.0
21.30000000000016,35.697291380489546,51.26845171107076,1319.9991737985983,-6.898589293768964e-05,-2.104821430748416e-05,0.0,-5.684341886080801e-13,-1.1368683772161603e-12,0.0,177.53517857142833,70.0,0.0,255.0,0.0
21.35000000000016,35.69728789171218,51.268451149873414,1319.9991741916165,-6.898589288084622e-05,-2.104821430748416e-05,0.0,1.1368683772161603e-12,0.0,0.0,177.46276785714264,70.0,0.0,255.0,0.0
21.400000000000162,35.69728440344124,51.26845058873682,1319.9991745818406,-6.89858928240028e-05,-2.104821430748416e-05,0.0,0.0,0.0,0.0,177.3903571428569,70.0,0.0,255.0,0.0
21.450000000000163,35.697280915676785,51.26845002766016,1319.9991749776527,-6.898589288084622e-05,-2.104821430748416e-05,0.0,0.0,1.1368683772161603e-12,0.0,177.3179464285712,70.0,0.0,255.0,0.0
21.500000000000163,35.697277428418886,51.26844946664267,1319.9991753697395,-6.89858928240028e-05,-2.104821419379732e-05,0.0,5.684341886080801e-13,0.0,0.0,177.2455357142855,70.0,0.0,255.0,0.0
21.550000000000164,35.6972739416676,51.26844890568357,1319.999175763689,-6.89858928240028e-05,-2.104821430748416e-05,0.0,0.0,-2.2737367544323206e-12,0.0,177.17312499999977,70.0,0.0,255.0,0.0
21.600000000000165,35.69727045542299,51.268448344782065,1319.9991761585698,-6.89858928240028e-05,-2.1048214421170997e-05,0.0,-5.684341886080801e-13,0.0,0.0,177.10071428571405,70.0,0.0,255.0,0.0
21.650000000000166,35.69726696968512,51.26844778393737,1319.9991765581071,-6.898589288084622e-05,-2.104821430748416e-05,0.0,-1.1368683772161603e-12,2.2737367544323206e-12,0.0,177.02830357142832,70.0,0.0,255.0,0.0
21.700000000000166,35.697263484454034,51.2684472231487,1319.999176952988,-6.898589293768964e-05,-2.104821419379732e-05,0.0,5.684341886080801e-13,0.0,0.0,176.95589285714263,70.0,0.0,255.0,0.0
21.750000000000167,35.69725999972979,51.268446662415265,1319.999177351594,-6.89858928240028e-05,-2.104821430748416e-05,0.0,1.1368683772161603e-12,-1.1368683772161603e-12,0.0,176.8834821428569,70.0,0.0,255.0,0.0
21.800000000000168,35.69725651551246,51.268446101736295,1319.9991777492687,-6.89858928240028e-05,-2.104821430748416e-05,0.0,-5.684341886080801e-13,1.1368683772161603e-12,0.0,176.81107142857118,70.0,0.0,255.0,0.0
21.85000000000017,35.697253031802084,51.268445541111,1319.999178148806,-6.898589288084622e-05,-2.104821419379732e-05,0.0,0.0,1.1368683772161603e-12,0.0,176.73866071428546,70.0,0.0,255.0,0.0
21.90000000000017,35.69724954859872,51.26844498053858,1319.9991785483435,-6.89858928240028e-05,-2.104821419379732e-05,0.0,0.0,-1.1368683772161603e-12,0.0,176.66624999999976,70.0,0.0,255.0,0.0
21.95000000000017,35.69724606590243,51.26844442001828,1319.9991789497435,-6.898589288084622e-05,-2.104821430748416e-05,0.0,-1.1368683772161603e-12,-2.2737367544323206e-12,0.0,176.59383928571404,70.0,0.0,255.0,0.0
22.00000000000017,35.697242583713276,51.268443859549265,1319.9991793483496,-6.898589293768964e-05,-2.1048214421170997e-05,0.0,5.684341886080801e-13,0.0,0.0,176.52142857142832,70.0,0.0,255.0,0.0
22.05000000000017,35.697239102031276,51.268443299130794,1319.9991797497496,-6.89858928240028e-05,-2.104821430748416e-05,0.0,1.1368683772161603e-12,2.2737367544323206e-12,0.0,176.44901785714262,70.0,0.0,255.0,0.0
22.100000000000172,35.69723562085652,51.26844273876207,1319.9991801530123,-6.89858928240028e-05,-2.104821419379732e-05,0.0,0.0,0.0,0.0,176.3766071428569,70.0,0.0,255.0,0.0
22.150000000000173,35.69723214018903,51.268442178442285,1319.9991805572063,-6.89858928240028e-05,-2.104821430748416e-05,0.0,0.0,-1.1368683772161603e-12,0.0,176.30419642857117,70.0,0.0,255.0,0.0
22.200000000000173,35.69722866002888,51.268441618170684,1319.999180960469,-6.89858928240028e-05,-2.104821430748416e-05,0.0,-1.1368683772161603e-12,0.0,0.0,176.23178571428548,70.0,0.0,255.0,0.0
22.250000000000174,35.6972251803761,51.268441057946475,1319.999181364663,-6.898589293768964e-05,-2.104821430748416e-05,0.0,-5.684341886080801e-13,0.0,0.0,176.15937499999976,70.0,0.0,255.0,0.0
22.300000000000175,35.697221701230745,51.26844049776885,1319.999181771651,-6.898589288084622e-05,-2.104821430748416e-05,0.0,1.1368683772161603e-12,1.1368683772161603e-12,0.0,176.08696428571403,70.0,0.0,255.0,0.0
22.350000000000176,35.69721822259287,51.268439937637034,1319.999182175845,-6.89858928240028e-05,-2.104821419379732e-05,0.0,0.0,0.0,0.0,176.0145535714283,70.0,0.0,255.0,0.0
22.400000000000176,35.697214744462514,51.26843937755026,1319.9991825819016,-6.898589288084622e-05,-2.104821430748416e-05,0.0,0.0,-1.1368683772161603e-12,0.0,175.9421428571426,70.0,0.0,255.0,0.0
22.450000000000177,35.69721126683972,51.26843881750771,1319.9991829870269,-6.89858928240028e-05,-2.104821430748416e-05,0.0,5.684341886080801e-13,1.1368683772161603e-12,0.0,175.8697321428569,70.0,0.0,255.0,0.0
22.500000000000178,35.697207789724544,51.26843825750862,1319.9991833958775,-6.89858928240028e-05,-2.104821419379732e-05,0.0,-1.1368683772161603e-12,0.0,0.0,175.79732142857117,70.0,0.0,255.0,0.0
22.55000000000018,35.69720431311701,51.26843769755221,1319.999183804728,-6.898589293768964e-05,-2.104821430748416e-05,0.0,-5.684341886080801e-13,-2.2737367544323206e-12,0.0,175.72491071428547,70.0,0.0,255.0,0.0
22.60000000000018,35.6972008370172,51.268437137637655,1319.9991842126474,-6.898589288084622e-05,-2.1048214421170997e-05,0.0,1.1368683772161603e-12,0.0,0.0,175.65249999999975,70.0,0.0,255.0,0.0
22.65000000000018,35.697197361425125,51.26843657776421,1319.9991846205667,-6.89858928240028e-05,-2.104821430748416e-05,0.0,5.684341886080801e-13,2.2737367544323206e-12,0.0,175.58008928571402,70.0,0.0,255.0,0.0
22.70000000000018,35.69719388634083,51.26843601793107,1319.99918503128,-6.89858928240028e-05,-2.104821419379732e-05,0.0,0.0,1.1368683772161603e-12,0.0,175.5076785714283,70.0,0.0,255.0,0.0
22.75000000000018,35.69719041176435,51.26843545813745,1319.9991854419932,-6.89858928240028e-05,-2.104821419379732e-05,0.0,-5.684341886080801e-13,-1.1368683772161603e-12,0.0,175.4352678571426,70.0,0.0,255.0,0.0
22.800000000000182,35.697186937695754,51.268434898382566,1319.9991858527064,-6.898589288084622e-05,-2.104821430748416e-05,0.0,0.0,-2.2737367544323206e-12,0.0,175.36285714285688,70.0,0.0,255.0,0.0
22.850000000000183,35.69718346413506,51.26843433866562,1319.999186264351,-6.89858928240028e-05,-2.1048214421170997e-05,0.0,0.0,0.0,0.0,175.29044642857116,70.0,0.0,255.0,0.0
22.900000000000183,35.697179991082315,51.26843377898583,1319.9991866759956,-6.898589288084622e-05,-2.104821430748416e-05,0.0,-1.1368683772161603e-12,2.2737367544323206e-12,0.0,175.21803571428546,70.0,0.0,255.0,0.0
22.950000000000184,35.69717651853754,51.268433219342434,1319.9991870885715,-6.898589293768964e-05,-2.104821419379732e-05,0.0,5.684341886080801e-13,0.0,0.0,175.14562499999974,70.0,0.0,255.0,0.0
23.000000000000185,35.69717304650079,51.26843265973461,1319.9991875011474,-6.89858928240028e-05,-2.104821430748416e-05,0.0,1.1368683772161603e-12,-1.1368683772161603e-12,0.0,175.07321428571402,70.0,0.0,255.0,0.0
23.050000000000185,35.6971695749721,51.268432100161576,1319.999187915586,-6.89858928240028e-05,-2.104821430748416e-05,0.0,0.0,1.1368683772161603e-12,0.0,175.00080357142832,70.0,0.0,255.0,0.0
23.100000000000186,35.6971661039515,51.268431540622565,1319.9991883300245,-6.89858928240028e-05,-2.104821419379732e-05,0.0,0.0,0.0,0.0,174.9283928571426,70.0,0.0,255.0,0.0
23.150000000000187,35.697162633439035,51.26843098111677,1319.999188744463,-6.89858928240028e-05,-2.104821430748416e-05,0.0,-1.1368683772161603e-12,-1.1368683772161603e-12,0.0,174.85598214285687,70.0,0.0,255.0,0.0
23.200000000000188,35.697159163434705,51.268430421643416,1319.999189159833,-6.898589293768964e-05,-2.104821430748416e-05,0.0,-5.684341886080801e-13,0.0,0.0,174.78357142857115,70.0,0.0,255.0,0.0
23.25000000000019,35.6971556939386,51.26842986220171,1319.9991895752028,-6.898589288084622e-05,-2.104821430748416e-05,0.0,1.1368683772161603e-12,0.0,0.0,174.71116071428546,70.0,0.0,255.0,0.0
23.30000000000019,35.6971522249507,51.26842930279087,1319.9991899896413,-6.89858928240028e-05,-2.104821430748416e-05,0.0,0.0,1.1368683772161603e-12,0.0,174.63874999999973,70.0,0.0,255.0,0.0
23.35000000000019,35.697148756471066,51.2684287434101,1319.9991904078051,-6.898589288084622e-05,-2.104821419379732e-05,0.0,0.0,0.0,0.0,174.566339285714,70.0,0.0,255.0,0.0
23.40000000000019,35.69714528849971,51.26842818405863,1319.9991908241063,-6.89858928240028e-05,-2.104821430748416e-05,0.0,5.684341886080801e-13,-2.2737367544323206e-12,0.0,174.49392857142828,70.0,0.0,255.0,0.0
23.45000000000019,35.69714182103669,51.26842762473564,1319.9991912432015,-6.89858928240028e-05,-2.1048214421170997e-05,0.0,-1.1368683772161603e-12,0.0,0.0,174.4215178571426,70.0,0.0,255.0,0.0
23.500000000000192,35.697138354081986,51.26842706544036,1319.999191660434,-6.898589293768964e-05,-2.104821430748416e-05,0.0,-5.684341886080801e-13,2.2737367544323206e-12,0.0,174.34910714285687,70.0,0.0,255.0,0.0
23.550000000000193,35.69713488763568,51.26842650617203,1319.9991920776665,-6.898589288084622e-05,-2.104821419379732e-05,0.0,1.1368683772161603e-12,1.1368683772161603e-12,0.0,174.27669642857114,70.0,0.0,255.0,0.0
23.600000000000193,35.69713142169777,51.26842594692982,1319.9991924967617,-6.89858928240028e-05,-2.104821419379732e-05,0.0,5.684341886080801e-13,-1.1368683772161603e-12,0.0,174.20428571428545,70.0,0.0,255.0,0.0
23.650000000000194,35.6971279562683,51.26842538771296,1319.9991929149255,-6.89858928240028e-05,-2.104821430748416e-05,0.0,0.0,-1.1368683772161603e-12,0.0,174.13187499999972,70.0,0.0,255.0,0.0
23.700000000000195,35.697124491347274,51.26842482852065,1319.999193334952,-6.89858928240028e-05,-2.104821430748416e-05,0.0,-5.684341886080801e-13,1.1368683772161603e-12,0.0,174.059464285714,70.0,0.0,255.0,0.0
23.750000000000195,35.697121026934724,51.26842426935213,1319.9991937549785,-6.898589288084622e-05,-2.104821419379732e-05,0.0,0.0,0.0,0.0,173.9870535714283,70.0,0.0,255.0,0.0
23.800000000000196,35.69711756303067,51.26842371020659,1319.999194175005,-6.89858928240028e-05,-2.104821430748416e-05,0.0,0.0,-2.2737367544323206e-12,0.0,173.91464285714258,70.0,0.0,255.0,0.0
23.850000000000197,35.69711409963517,51.26842315108325,1319.999194596894,-6.898589288084622e-05,-2.1048214421170997e-05,0.0,-1.1368683772161603e-12,0.0,0.0,173.84223214285686,70.0,0.0,255.0,0.0
23.900000000000198,35.69711063674819,51.268422591981306,1319.999195017852,-6.898589293768964e-05,-2.104821430748416e-05,0.0,5.684341886080801e-13,2.2737367544323206e-12,0.0,173.76982142857113,70.0,0.0,255.0,0.0
23.9500000000002,35.6971071743698,51.26842203290002,1319.9991954406723,-6.89858928240028e-05,-2.104821419379732e-05,0.0,1.1368683772161603e-12,0.0,0.0,173.69741071428544,70.0,0.0,255.0,0.0
24.0000000000002,35.69710371250001,51.26842147383853,1319.9991958597675,-6.89858928240028e-05,-2.104821430748416e-05,0.0,-5.684341886080801e-13,-1.1368683772161603e-12,0.0,173.62499999999972,70.0,0.0,255.0,0.0
24.0500000000002,35.69710025113882,51.268420914796096,1319.9991962835193,-6.898589288084622e-05,-2.104821430748416e-05,0.0,0.0,0.0,0.0,173.552589285714,70.0,0.0,255.0,0.0
24.1000000000002,35.697096790286245,51.26842035577193,1319.9991967063397,-6.89858928240028e-05,-2.104821430748416e-05,0.0,0.0,0.0,0.0,173.48017857142827,70.0,0.0,255.0,0.0
24.1500000000002,35.69709332994234,51.26841979676522,1319.9991971300915,-6.898589288084622e-05,-2.104821430748416e-05,0.0,-5.684341886080801e-13,1.1368683772161603e-12,0.0,173.40776785714257,70.0,0.0,255.0,0.0
24.200000000000202,35.6970898701071,51.268419237775205,1319.9991975519806,-6.898589288084622e-05,-2.104821419379732e-05,0.0,5.684341886080801e-13,0.0,0.0,173.33535714285685,70.0,0.0,255.0,0.0
24.250000000000203,35.69708641078055,51.26841867880108,1319.9991979785264,-6.89858928240028e-05,-2.104821430748416e-05,0.0,0.0,-1.1368683772161603e-12,0.0,173.26294642857113,70.0,0.0,255.0,0.0
24.300000000000203,35.697082951962685,51.26841811984206,1319.9991984013468,-6.898589288084622e-05,-2.104821430748416e-05,0.0,0.0,1.1368683772161603e-12,0.0,173.19053571428543,70.0,0.0,255.0,0.0
24.350000000000204,35.69707949365355,51.268417560897355,1319.9991988241673,-6.89858928240028e-05,-2.104821419379732e-05,0.0,5.684341886080801e-13,0.0,0.0,173.1181249999997,70.0,0.0,255.0,0.0
24.400000000000205,35.697076035853144,51.26841700196618,1319.9991992497817,-6.89858928240028e-05,-2.104821430748416e-05,0.0,-1.1368683772161603e-12,-1.1368683772161603e-12,0.0,173.04571428571398,70.0,0.0,255.0,0.0
24.450000000000205,35.69707257856147,51.26841644304774,1319.9991996735334,-6.898589293768964e-05,-2.104821430748416e-05,0.0,-5.684341886080801e-13,0.0,0.0,172.9733035714283,70.0,0.0,255.0,0.0
24.500000000000206,35.69706912177856,51.26841588414127,1319.9992001000792,-6.898589288084622e-05,-2.104821430748416e-05,0.0,1.1368683772161603e-12,0.0,0.0,172.90089285714257,70.0,0.0,255.0,0.0
24.550000000000207,35.69706566550442,51.268415325245954,1319.9992005247623,-6.89858928240028e-05,-2.104821430748416e-05,0.0,5.684341886080801e-13,1.1368683772161603e-12,0.0,172.82848214285684,70.0,0.0,255.0,0.0
24.600000000000207,35.69706220973905,51.26841476636102,1319.9992009522393,-6.89858928240028e-05,-2.104821419379732e-05,0.0,0.0,0.0,0.0,172.75607142857115,70.0,0.0,255.0,0.0
24.650000000000208,35.69705875448249,51.26841420748566,1319.9992013769224,-6.89858928240028e-05,-2.104821430748416e-05,0.0,-5.684341886080801e-13,-2.2737367544323206e-12,0.0,172.68366071428542,70.0,0.0,255.0,0.0
24.70000000000021,35.69705529973472,51.268413648619116,1319.9992018025368,-6.898589288084622e-05,-2.1048214421170997e-05,0.0,0.0,0.0,0.0,172.6112499999997,70.0,0.0,255.0,0.0
24.75000000000021,35.697051845495736,51.26841308976058,1319.999202230014,-6.89858928240028e-05,-2.104821430748416e-05,0.0,0.0,2.2737367544323206e-12,0.0,172.53883928571398,70.0,0.0,255.0,0.0
24.80000000000021,35.6970483917656,51.268412530909266,1319.9992026556283,-6.898589288084622e-05,-2.104821419379732e-05,0.0,-1.1368683772161603e-12,0.0,0.0,172.46642857142828,70.0,0.0,255.0,0.0
24.85000000000021,35.69704493854427,51.268411972064385,1319.9992030840367,-6.898589293768964e-05,-2.104821430748416e-05,0.0,5.684341886080801e-13,-1.1368683772161603e-12,0.0,172.39401785714256,70.0,0.0,255.0,0.0
24.90000000000021,35.697041485831775,51.268411413225145,1319.9992035105824,-6.89858928240028e-05,-2.104821430748416e-05,0.0,1.1368683772161603e-12,1.1368683772161603e-12,0.0,172.32160714285683,70.0,0.0,255.0,0.0
24.950000000000212,35.69703803362812,51.26841085439077,1319.9992039399222,-6.89858928240028e-05,-2.104821419379732e-05,0.0,-5.684341886080801e-13,0.0,0.0,172.2491964285711,70.0,0.0,255.0,0.0
25.000000000000213,35.6970345819333,51.268410295560464,1319.999204366468,-6.898589288084622e-05,-2.104821430748416e-05,0.0,0.0,-1.1368683772161603e-12,0.0,172.17678571428542,70.0,0.0,255.0,0.0
25.050000000000214,35.69703113074732,51.26840973673344,1319.999204793945,-6.89858928240028e-05,-2.104821430748416e-05,0.0,0.0,0.0,0.0,172.1043749999997,70.0,0.0,255.0,0.0
25.100000000000215,35.697027680070185,51.26840917790891,1319.9992052232847,-6.898589288084622e-05,-2.104821430748416e-05,0.0,-5.684341886080801e-13,0.0,0.0,172.03196428571397,70.0,0.0,255.0,0.0
25.150000000000215,35.69702422990189,51.26840861908608,1319.9992056507617,-6.898589288084622e-05,-2.104821430748416e-05,0.0,5.684341886080801e-13,1.1368683772161603e-12,0.0,171.95955357142827,70.0,0.0,255.0,0.0
25.200000000000216,35.69702078024246,51.26840806026418,1319.9992060810328,-6.89858928240028e-05,-2.104821419379732e-05,0.0,0.0,0.0,0.0,171.88714285714255,70.0,0.0,255.0,0.0
25.250000000000217,35.69701733109188,51.268407501442404,1319.9992065085098,-6.898589288084622e-05,-2.104821430748416e-05,0.0,0.0,-1.1368683772161603e-12,0.0,171.81473214285683,70.0,0.0,255.0,0.0
25.300000000000217,35.69701388245014,51.26840694261996,1319.9992069387808,-6.89858928240028e-05,-2.104821430748416e-05,0.0,5.684341886080801e-13,0.0,0.0,171.74232142857113,70.0,0.0,255.0,0.0
25.350000000000218,35.69701043431726,51.26840638379607,1319.9992073671892,-6.89858928240028e-05,-2.104821430748416e-05,0.0,-1.1368683772161603e-12,0.0,0.0,171.6699107142854,70.0,0.0,255.0,0.0
25.40000000000022,35.69700698669322,51.26840582496994,1319.9992077974603,-6.898589293768964e-05,-2.104821430748416e-05,0.0,-5.684341886080801e-13,1.1368683772161603e-12,0.0,171.59749999999968,70.0,0.0,255.0,0.0
25.45000000000022,35.69700353957803,51.26840526614078,1319.9992082268,-6.898589288084622e-05,-2.104821419379732e-05,0.0,1.1368683772161603e-12,0.0,0.0,171.52508928571396,70.0,0.0,255.0,0.0
25.50000000000022,35.69700009297167,51.26840470730783,1319.9992086580023,-6.89858928240028e-05,-2.104821430748416e-05,0.0,0.0,-1.1368683772161603e-12,0.0,171.45267857142827,70.0,0.0,255.0,0.0
25.55000000000022,35.69699664687416,51.26840414847026,1319.9992090854794,-6.898589288084622e-05,-2.104821430748416e-05,0.0,0.0,1.1368683772161603e-12,0.0,171.38026785714254,70.0,0.0,255.0,0.0
25.60000000000022,35.69699320128547,51.268403589627304,1319.9992095157504,-6.89858928240028e-05,-2.104821419379732e-05,0.0,5.684341886080801e-13,0.0,0.0,171.30785714285682,70.0,0.0,255.0,0.0
25.650000000000222,35.69698975620563,51.26840303077817,1319.9992099460214,-6.89858928240028e-05,-2.104821430748416e-05,0.0,0.0,-2.2737367544323206e-12,0.0,171.2354464285711,70.0,0.0,255.0,0.0
25.700000000000223,35.69698631163459,51.26840247192206,1319.9992103753611,-6.89858928240028e-05,-2.1048214421170997e-05,0.0,-5.684341886080801e-13,0.0,0.0,171.1630357142854,70.0,0.0,255.0,0.0
25.750000000000224,35.69698286757237,51.2684019130582,1319.9992108065635,-6.898589288084622e-05,-2.104821430748416e-05,0.0,-1.1368683772161603e-12,2.2737367544323206e-12,0.0,171.09062499999968,70.0,0.0,255.0,0.0
25.800000000000225,35.69697942401894,51.268401354185805,1319.9992112359032,-6.898589293768964e-05,-2.104821419379732e-05,0.0,5.684341886080801e-13,0.0,0.0,171.01821428571395,70.0,0.0,255.0,0.0
25.850000000000225,35.69697598097431,51.26840079530407,1319.9992116680369,-6.89858928240028e-05,-2.104821430748416e-05,0.0,1.1368683772161603e-12,-1.1368683772161603e-12,0.0,170.94580357142826,70.0,0.0,255.0,0.0
25.900000000000226,35.696972538438466,51.26840023641221,1319.999212098308,-6.89858928240028e-05,-2.104821430748416e-05,0.0,-5.684341886080801e-13,0.0,0.0,170.87339285714253,70.0,0.0,255.0,0.0
25.950000000000227,35.696969096411394,51.26839967750946,1319.9992125276476,-6.898589288084622e-05,-2.104821430748416e-05,0.0,0.0,0.0,0.0,170.8009821428568,70.0,0.0,255.0,0.0
26.000000000000227,35.696965654893084,51.26839911859499,1319.9992129597813,-6.89858928240028e-05,-2.104821430748416e-05,0.0,0.0,1.1368683772161603e-12,0.0,170.72857142857112,70.0,0.0,255.0,0.0
26.050000000000228,35.69696221388353,51.26839855966805,1319.999213389121,-6.898589288084622e-05,-2.104821419379732e-05,0.0,-5.684341886080801e-13,0.0,0.0,170.6561607142854,70.0,0.0,255.0,0.0
26.10000000000023,35.6969587733827,51.268398000727835,1319.9992138212547,-6.898589288084622e-05,-2.104821430748416e-05,0.0,5.684341886080801e-13,-1.1368683772161603e-12,0.0,170.58374999999967,70.0,0.0,255.0,0.0
26.15000000000023,35.69695533339061,51.26839744177356,1319.9992142515257,-6.89858928240028e-05,-2.104821430748416e-05,0.0,0.0,1.1368683772161603e-12,0.0,170.51133928571394,70.0,0.0,255.0,0.0
26.20000000000023,35.69695189390721,51.26839688280443,1319.9992146836594,-6.898589288084622e-05,-2.104821419379732e-05,0.0,0.0,0.0,0.0,170.43892857142825,70.0,0.0,255.0,0.0
26.25000000000023,35.6969484549325,51.26839632381966,1319.9992151148617,-6.89858928240028e-05,-2.104821430748416e-05,0.0,5.684341886080801e-13,-1.1368683772161603e-12,0.0,170.36651785714253,70.0,0.0,255.0,0.0
26.30000000000023,35.69694501646647,51.26839576481847,1319.9992155451328,-6.89858928240028e-05,-2.104821430748416e-05,0.0,-1.1368683772161603e-12,0.0,0.0,170.2941071428568,70.0,0.0,255.0,0.0
26.350000000000232,35.69694157850911,51.26839520580007,1319.999215976335,-6.898589293768964e-05,-2.104821430748416e-05,0.0,-5.684341886080801e-13,0.0,0.0,170.2216964285711,70.0,0.0,255.0,0.0
26.400000000000233,35.69693814106037,51.26839464676367,1319.9992164066061,-6.898589288084622e-05,-2.104821430748416e-05,0.0,1.1368683772161603e-12,1.1368683772161603e-12,0.0,170.14928571428538,70.0,0.0,255.0,0.0
26.450000000000234,35.69693470412027,51.26839408770847,1319.9992168387398,-6.89858928240028e-05,-2.104821419379732e-05,0.0,0.0,0.0,0.0,170.07687499999966,70.0,0.0,255.0,0.0
26.500000000000234,35.696931267688754,51.268393528633695,1319.9992172680795,-6.898589288084622e-05,-2.104821430748416e-05,0.0,0.0,-2.2737367544323206e-12,0.0,170.00446428571394,70.0,0.0,255.0,0.0
26.550000000000235,35.696927831765834,51.26839296953856,1319.9992177002132,-6.89858928240028e-05,-2.1048214421170997e-05,0.0,5.684341886080801e-13,0.0,0.0,169.93205357142824,70.0,0.0,255.0,0.0
26.600000000000236,35.69692439635147,51.26839241042227,1319.9992181304842,-6.89858928240028e-05,-2.104821430748416e-05,0.0,0.0,2.2737367544323206e-12,0.0,169.85964285714252,70.0,0.0,255.0,0.0
26.650000000000237,35.69692096144563,51.268391851284036,1319.9992185635492,-6.89858928240028e-05,-2.104821419379732e-05,0.0,-5.684341886080801e-13,0.0,0.0,169.7872321428568,70.0,0.0,255.0,0.0
26.700000000000237,35.696917527048306,51.26839129212307,1319.9992189947516,-6.898589288084622e-05,-2.104821430748416e-05,0.0,-1.1368683772161603e-12,-1.1368683772161603e-12,0.0,169.7148214285711,70.0,0.0,255.0,0.0
26.750000000000238,35.69691409315948,51.268390732938585,1319.9992194240913,-6.898589293768964e-05,-2.104821430748416e-05,0.0,5.684341886080801e-13,1.1368683772161603e-12,0.0,169.64241071428538,70.0,0.0,255.0,0.0
26.80000000000024,35.696910659779114,51.268390173729806,1319.999219856225,-6.89858928240028e-05,-2.104821419379732e-05,0.0,1.1368683772161603e-12,1.1368683772161603e-12,0.0,169.56999999999965,70.0,0.0,255.0,0.0
26.85000000000024,35.69690722690719,51.26838961449592,1319.9992202855647,-6.89858928240028e-05,-2.104821419379732e-05,0.0,-5.684341886080801e-13,-1.1368683772161603e-12,0.0,169.49758928571396,70.0,0.0,255.0,0.0
26.90000000000024,35.69690379454368,51.26838905523617,1319.999220716767,-6.898589288084622e-05,-2.104821430748416e-05,0.0,0.0,-2.2737367544323206e-12,0.0,169.42517857142823,70.0,0.0,255.0,0.0
26.95000000000024,35.69690036268856,51.26838849594974,1319.9992211479694,-6.89858928240028e-05,-2.1048214421170997e-05,0.0,0.0,0.0,0.0,169.3527678571425,70.0,0.0,255.0,0.0
27.00000000000024,35.696896931341804,51.26838793663586,1319.9992215791717,-6.898589288084622e-05,-2.104821430748416e-05,0.0,-1.1368683772161603e-12,2.2737367544323206e-12,0.0,169.2803571428568,70.0,0.0,255.0,0.0
27.050000000000242,35.69689350050336,51.268387377293735,1319.9992220094427,-6.898589293768964e-05,-2.104821419379732e-05,0.0,5.684341886080801e-13,0.0,0.0,169.2079464285711,70.0,0.0,255.0,0.0
27.100000000000243,35.69689007017323,51.268386817922575,1319.9992224387825,-6.89858928240028e-05,-2.104821430748416e-05,0.0,1.1368683772161603e-12,-1.1368683772161603e-12,0.0,169.13553571428537,70.0,0.0,255.0,0.0
27.150000000000244,35.69688664035138,51.2683862585216,1319.9992228699848,-6.89858928240028e-05,-2.104821430748416e-05,0.0,0.0,0.0,0.0,169.06312499999964,70.0,0.0,255.0,0.0
27.200000000000244,35.69688321103775,51.268385699090025,1319.9992232993245,-6.89858928240028e-05,-2.104821430748416e-05,0.0,0.0,0.0,0.0,168.99071428571392,70.0,0.0,255.0,0.0
27.250000000000245,35.696879782232344,51.26838513962705,1319.9992237314582,-6.89858928240028e-05,-2.104821430748416e-05,0.0,-1.1368683772161603e-12,1.1368683772161603e-12,0.0,168.91830357142823,70.0,0.0,255.0,0.0
27.300000000000246,35.6968763539351,51.268384580131894,1319.9992241589352,-6.898589293768964e-05,-2.104821419379732e-05,0.0,-5.684341886080801e-13,0.0,0.0,168.8458928571425,70.0,0.0,255.0,0.0
27.350000000000247,35.696872926146,51.26838402060378,1319.9992245892063,-6.898589288084622e-05,-2.104821430748416e-05,0.0,1.1368683772161603e-12,-1.1368683772161603e-12,0.0,168.77348214285678,70.0,0.0,255.0,0.0
27.400000000000247,35.696869498865006,51.2683834610419,1319.9992250194773,-6.89858928240028e-05,-2.104821430748416e-05,0.0,0.0,1.1368683772161603e-12,0.0,168.70107142857108,70.0,0.0,255.0,0.0
27.450000000000248,35.696866072092085,51.26838290144548,1319.9992254506797,-6.898589288084622e-05,-2.104821419379732e-05,0.0,0.0,0.0,0.0,168.62866071428536,70.0,0.0,255.0,0.0
27.50000000000025,35.696862645827196,51.268382341813734,1319.9992258809507,-6.89858928240028e-05,-2.104821430748416e-05,0.0,5.684341886080801e-13,-2.2737367544323206e-12,0.0,168.55624999999964,70.0,0.0,255.0,0.0
27.55000000000025,35.69685922007032,51.268381782145866,1319.9992263102904,-6.89858928240028e-05,-2.1048214421170997e-05,0.0,0.0,0.0,0.0,168.48383928571394,70.0,0.0,255.0,0.0
27.60000000000025,35.69685579482139,51.26838122244109,1319.9992267377675,-6.89858928240028e-05,-2.104821430748416e-05,0.0,-5.684341886080801e-13,2.2737367544323206e-12,0.0,168.41142857142822,70.0,0.0,255.0,0.0
27.65000000000025,35.6968523700804,51.26838066269864,1319.9992271680385,-6.898589288084622e-05,-2.104821419379732e-05,0.0,-1.1368683772161603e-12,1.1368683772161603e-12,0.0,168.3390178571425,70.0,0.0,255.0,0.0
27.70000000000025,35.69684894584728,51.268380102917696,1319.9992275964469,-6.898589293768964e-05,-2.104821419379732e-05,0.0,5.684341886080801e-13,-1.1368683772161603e-12,0.0,168.26660714285677,70.0,0.0,255.0,0.0
27.750000000000252,35.696845522122004,51.26837954309751,1319.9992280248553,-6.89858928240028e-05,-2.104821430748416e-05,0.0,1.1368683772161603e-12,-2.2737367544323206e-12,0.0,168.19419642857108,70.0,0.0,255.0,0.0
27.800000000000253,35.69684209890453,51.26837898323725,1319.9992284532636,-6.89858928240028e-05,-2.1048214421170997e-05,0.0,-5.684341886080801e-13,0.0,0.0,168.12178571428535,70.0,0.0,255.0,0.0
27.850000000000254,35.69683867619482,51.268378423336166,1319.9992288807407,-6.898589288084622e-05,-2.104821430748416e-05,0.0,0.0,2.2737367544323206e-12,0.0,168.04937499999963,70.0,0.0,255.0,0.0
27.900000000000254,35.69683525399284,51.26837786339346,1319.999229309149,-6.89858928240028e-05,-2.104821419379732e-05,0.0,0.0,0.0,0.0,167.9769642857139,70.0,0.0,255.0,0.0
27.950000000000255,35.69683183229852,51.268377303408336,1319.9992297384888,-6.898589288084622e-05,-2.104821430748416e-05,0.0,-1.1368683772161603e-12,-1.1368683772161603e-12,0.0,167.9045535714282,70.0,0.0,255.0,0.0
28.000000000000256,35.69682841111183,51.26837674338002,1319.9992301650345,-6.898589293768964e-05,-2.104821430748416e-05,0.0,5.684341886080801e-13,1.1368683772161603e-12,0.0,167.8321428571425,70.0,0.0,255.0,0.0
28.050000000000257,35.69682499043274,51.26837618330771,1319.9992305925116,-6.89858928240028e-05,-2.104821419379732e-05,0.0,1.1368683772161603e-12,0.0,0.0,167.75973214285676,70.0,0.0,255.0,0.0
28.100000000000257,35.69682157026119,51.268375623190636,1319.9992310190573,-6.89858928240028e-05,-2.104821430748416e-05,0.0,0.0,-1.1368683772161603e-12,0.0,167.68732142857107,70.0,0.0,255.0,0.0
28.150000000000258,35.696818150597124,51.268375063028,1319.9992314474657,-6.89858928240028e-05,-2.104821430748416e-05,0.0,0.0,0.0,0.0,167.61491071428534,70.0,0.0,255.0,0.0
28.20000000000026,35.69681473144051,51.26837450281903,1319.9992318730801,-6.89858928240028e-05,-2.104821430748416e-05,0.0,-1.1368683772161603e-12,0.0,0.0,167.54249999999962,70.0,0.0,255.0,0.0
28.25000000000026,35.69681131279129,51.26837394256293,1319.9992322996259,-6.898589293768964e-05,-2.104821430748416e-05,0.0,-5.684341886080801e-13,1.1368683772161603e-12,0.0,167.47008928571393,70.0,0.0,255.0,0.0
28.30000000000026,35.696807894649424,51.26837338225891,1319.9992327261716,-6.898589288084622e-05,-2.104821419379732e-05,0.0,1.1368683772161603e-12,0.0,0.0,167.3976785714282,70.0,0.0,255.0,0.0
28.35000000000026,35.69680447701487,51.2683728219062,1319.9992331508547,-6.89858928240028e-05,-2.104821430748416e-05,0.0,0.0,-2.2737367544323206e-12,0.0,167.32526785714248,70.0,0.0,255.0,0.0
28.40000000000026,35.69680105988755,51.268372261504,1319.9992335755378,-6.898589288084622e-05,-2.1048214421170997e-05,0.0,0.0,0.0,0.0,167.25285714285675,70.0,0.0,255.0,0.0
28.450000000000262,35.696797643267416,51.26837170105151,1319.9992340039462,-6.89858928240028e-05,-2.104821430748416e-05,0.0,5.684341886080801e-13,2.2737367544323206e-12,0.0,167.18044642857106,70.0,0.0,255.0,0.0
28.500000000000263,35.696794227154456,51.268371140547984,1319.9992344267666,-6.89858928240028e-05,-2.104821419379732e-05,0.0,0.0,1.1368683772161603e-12,0.0,167.10803571428534,70.0,0.0,255.0,0.0
28.550000000000264,35.69679081154858,51.268370579992606,1319.9992348533124,-6.89858928240028e-05,-2.104821419379732e-05,0.0,-5.684341886080801e-13,-1.1368683772161603e-12,0.0,167.0356249999996,70.0,0.0,255.0,0.0
28.600000000000264,35.69678739644975,51.268370019384605,1319.9992352761328,-6.898589288084622e-05,-2.104821430748416e-05,0.0,-1.1368683772161603e-12,-1.1368683772161603e-12,0.0,166.96321428571392,70.0,0.0,255.0,0.0
28.650000000000265,35.696783981857884,51.26836945872318,1319.9992357017472,-6.898589293768964e-05,-2.104821430748416e-05,0.0,5.684341886080801e-13,1.1368683772161603e-12,0.0,166.8908035714282,70.0,0.0,255.0,0.0
28.700000000000266,35.69678056777295,51.26836889800755,1319.9992361245677,-6.89858928240028e-05,-2.104821419379732e-05,0.0,1.1368683772161603e-12,0.0,0.0,166.81839285714247,70.0,0.0,255.0,0.0
28.750000000000266,35.69677715419491,51.26836833723694,1319.9992365483195,-6.89858928240028e-05,-2.104821430748416e-05,0.0,-5.684341886080801e-13,-2.2737367544323206e-12,0.0,166.74598214285675,70.0,0.0,255.0,0.0
28.800000000000267,35.69677374112366,51.26836777641056,1319.99923697114,-6.898589288084622e-05,-2.1048214421170997e-05,0.0,0.0,0.0,0.0,166.67357142857105,70.0,0.0,255.0,0.0
28.850000000000268,35.69677032855918,51.26836721552762,1319.9992373939604,-6.89858928240028e-05,-2.104821430748416e-05,0.0,0.0,2.2737367544323206e-12,0.0,166.60116071428533,70.0,0.0,255.0,0.0
28.90000000000027,35.69676691650142,51.26836665458735,1319.9992378158495,-6.898589288084622e-05,-2.104821419379732e-05,0.0,-1.1368683772161603e-12,0.0,0.0,166.5287499999996,70.0,0.0,255.0,0.0
28.95000000000027,35.696763504950276,51.268366093588945,1319.99923823867,-6.898589293768964e-05,-2.104821430748416e-05,0.0,5.684341886080801e-13,-1.1368683772161603e-12,0.0,166.4563392857139,70.0,0.0,255.0,0.0
29.00000000000027,35.69676009390571,51.26836553253162,1319.999238660559,-6.89858928240028e-05,-2.104821430748416e-05,0.0,1.1368683772161603e-12,0.0,0.0,166.38392857142819,70.0,0.0,255.0,0.0
29.05000000000027,35.696756683367674,51.26836497141462,1319.9992390815169,-6.89858928240028e-05,-2.104821430748416e-05,0.0,0.0,0.0,0.0,166.31151785714246,70.0,0.0,255.0,0.0
29.10000000000027,35.69675327333608,51.268364410237126,1319.9992395015433,-6.89858928240028e-05,-2.104821430748416e-05,0.0,0.0,1.1368683772161603e-12,0.0,166.23910714285677,70.0,0.0,255.0,0.0
29.150000000000272,35.69674986381089,51.26836384899836,1319.9992399225011,-6.89858928240028e-05,-2.104821419379732e-05,0.0,-1.1368683772161603e-12,0.0,0.0,166.16669642857104,70.0,0.0,255.0,0.0
29.200000000000273,35.696746454792034,51.26836328769756,1319.9992403415963,-6.898589293768964e-05,-2.104821430748416e-05,0.0,-5.684341886080801e-13,-1.1368683772161603e-12,0.0,166.09428571428532,70.0,0.0,255.0,0.0
29.250000000000274,35.696743046279444,51.26836272633392,1319.9992407616228,-6.898589288084622e-05,-2.104821430748416e-05,0.0,1.1368683772161603e-12,1.1368683772161603e-12,0.0,166.0218749999996,70.0,0.0,255.0,0.0
29.300000000000274,35.696739638273044,51.26836216490666,1319.9992411816493,-6.89858928240028e-05,-2.104821419379732e-05,0.0,0.0,0.0,0.0,165.9494642857139,70.0,0.0,255.0,0.0
29.350000000000275,35.696736230772785,51.268361603415,1319.9992416007444,-6.898589288084622e-05,-2.104821430748416e-05,0.0,0.0,-1.1368683772161603e-12,0.0,165.87705357142818,70.0,0.0,255.0,0.0
29.400000000000276,35.696732823778596,51.26836104185815,1319.999242017977,-6.89858928240028e-05,-2.104821430748416e-05,0.0,5.684341886080801e-13,0.0,0.0,165.80464285714245,70.0,0.0,255.0,0.0
29.450000000000276,35.696729417290406,51.26836048023533,1319.999242437072,-6.89858928240028e-05,-2.104821430748416e-05,0.0,-1.1368683772161603e-12,0.0,0.0,165.73223214285673,70.0,0.0,255.0,0.0
29.500000000000277,35.69672601130815,51.268359918545755,1319.9992428533733,-6.898589293768964e-05,-2.104821430748416e-05,0.0,-5.684341886080801e-13,1.1368683772161603e-12,0.0,165.65982142857104,70.0,0.0,255.0,0.0
29.550000000000278,35.69672260583176,51.268359356788636,1319.9992432715371,-6.898589288084622e-05,-2.104821419379732e-05,0.0,1.1368683772161603e-12,0.0,0.0,165.5874107142853,70.0,0.0,255.0,0.0
29.60000000000028,35.69671920086115,51.26835879496321,1319.999243686907,-6.89858928240028e-05,-2.104821430748416e-05,0.0,5.684341886080801e-13,-2.2737367544323206e-12,0.0,165.5149999999996,70.0,0.0,255.0,0.0
29.65000000000028,35.69671579639628,51.26835823306867,1319.9992441041395,-6.89858928240028e-05,-2.1048214421170997e-05,0.0,0.0,0.0,0.0,165.4425892857139,70.0,0.0,255.0,0.0
29.70000000000028,35.69671239243705,51.26835767110423,1319.9992445195094,-6.89858928240028e-05,-2.104821430748416e-05,0.0,-5.684341886080801e-13,2.2737367544323206e-12,0.0,165.37017857142817,70.0,0.0,255.0,0.0
29.75000000000028,35.6967089889834,51.26835710906914,1319.9992449358106,-6.898589288084622e-05,-2.104821419379732e-05,0.0,0.0,0.0,0.0,165.29776785714245,70.0,0.0,255.0,0.0
29.80000000000028,35.69670558603524,51.26835654696258,1319.9992453511804,-6.89858928240028e-05,-2.104821430748416e-05,0.0,0.0,-1.1368683772161603e-12,0.0,165.22535714285675,70.0,0.0,255.0,0.0
29.850000000000282,35.69670218359254,51.26835598478378,1319.9992457646877,-6.898589288084622e-05,-2.104821430748416e-05,0.0,-1.1368683772161603e-12,1.1368683772161603e-12,0.0,165.15294642857103,70.0,0.0,255.0,0.0
29.900000000000283,35.696698781655186,51.26835542253196,1319.9992461781949,-6.898589293768964e-05,-2.104821419379732e-05,0.0,5.684341886080801e-13,0.0,0.0,165.0805357142853,70.0,0.0,255.0,0.0
29.950000000000284,35.69669538022311,51.268354860206344,1319.999246591702,-6.89858928240028e-05,-2.104821430748416e-05,0.0,1.1368683772161603e-12,-1.1368683772161603e-12,0.0,165.00812499999958,70.0,0.0,255.0,0.0
30.000000000000284,35.69669197929625,51.26835429780613,1319.9992470033467,-6.89858928240028e-05,-2.104821430748416e-05,0.0,0.0,0.0,0.0,164.93571428571389,70.0,0.0,255.0,0.0
30.050000000000285,35.69668857887449,51.26835373533055,1319.99924741406,-6.89858928240028e-05,-2.104821430748416e-05,0.0,0.0,0.0,0.0,164.86330357142816,70.0,0.0,255.0,0.0
30.100000000000286,35.69668517895781,51.268353172778816,1319.9992478275672,-6.89858928240028e-05,-2.104821430748416e-05,0.0,-1.1368683772161603e-12,1.1368683772161603e-12,0.0,164.79089285714244,70.0,0.0,255.0,0.0
30.150000000000286,35.69668177954606,51.26835261015015,1319.999248240143,-6.898589293768964e-05,-2.104821419379732e-05,0.0,-5.684341886080801e-13,0.0,0.0,164.71848214285671,70.0,0.0,255.0,0.0
30.200000000000287,35.696678380639234,51.26835204744377,1319.9992486508563,-6.898589288084622e-05,-2.104821430748416e-05,0.0,1.1368683772161603e-12,-1.1368683772161603e-12,0.0,164.64607142857102,70.0,0.0,255.0,0.0
30.250000000000288,35.6966749822372,51.26835148465888,1319.999249059707,-6.89858928240028e-05,-2.104821430748416e-05,0.0,0.0,0.0,0.0,164.5736607142853,70.0,0.0,255.0,0.0
30.30000000000029,35.69667158433991,51.26835092179472,1319.9992494694889,-6.898589288084622e-05,-2.104821430748416e-05,0.0,0.0,0.0,0.0,164.50124999999957,70.0,0.0,255.0,0.0
30.35000000000029,35.69666818694725,51.26835035885048,1319.9992498783395,-6.89858928240028e-05,-2.104821430748416e-05,0.0,5.684341886080801e-13,1.1368683772161603e-12,0.0,164.42883928571388,70.0,0.0,255.0,0.0
30.40000000000029,35.69666479005917,51.26834979582541,1319.99925028719,-6.89858928240028e-05,-2.104821419379732e-05,0.0,-1.1368683772161603e-12,0.0,0.0,164.35642857142815,70.0,0.0,255.0,0.0
30.45000000000029,35.696661393675555,51.26834923271871,1319.9992506960407,-6.898589293768964e-05,-2.104821430748416e-05,0.0,-5.684341886080801e-13,-1.1368683772161603e-12,0.0,164.28401785714243,70.0,0.0,255.0,0.0
30.50000000000029,35.69665799779634,51.26834866952961,1319.9992511030287,-6.898589288084622e-05,-2.104821430748416e-05,0.0,1.1368683772161603e-12,1.1368683772161603e-12,0.0,164.21160714285674,70.0,0.0,255.0,0.0
30.550000000000292,35.69665460242144,51.26834810625731,1319.999251508154,-6.89858928240028e-05,-2.104821419379732e-05,0.0,5.684341886080801e-13,0.0,0.0,164.139196428571,70.0,0.0,255.0,0.0
30.600000000000293,35.69665120755076,51.26834754290103,1319.999251915142,-6.89858928240028e-05,-2.104821430748416e-05,0.0,0.0,-2.2737367544323206e-12,0.0,164.0667857142853,70.0,0.0,255.0,0.0
30.650000000000293,35.69664781318423,51.26834697946001,1319.9992523211986,-6.89858928240028e-05,-2.1048214421170997e-05,0.0,-5.684341886080801e-13,0.0,0.0,163.99437499999956,70.0,0.0,255.0,0.0
30.700000000000294,35.69664441932173,51.26834641593346,1319.9992527253926,-6.898589288084622e-05,-2.104821430748416e-05,0.0,0.0,2.2737367544323206e-12,0.0,163.92196428571387,70.0,0.0,255.0,0.0
30.750000000000295,35.6966410259632,51.26834585232059,1319.9992531286553,-6.89858928240028e-05,-2.104821419379732e-05,0.0,0.0,0.0,0.0,163.84955357142815,70.0,0.0,255.0,0.0
30.800000000000296,35.696637633108544,51.26834528862062,1319.999253531918,-6.898589288084622e-05,-2.104821430748416e-05,0.0,-1.1368683772161603e-12,-1.1368683772161603e-12,0.0,163.77714285714242,70.0,0.0,255.0,0.0
30.850000000000296,35.69663424075766,51.26834472483279,1319.999253936112,-6.898589293768964e-05,-2.104821430748416e-05,0.0,5.684341886080801e-13,0.0,0.0,163.70473214285673,70.0,0.0,255.0,0.0
30.900000000000297,35.69663084891048,51.26834416095628,1319.9992543393746,-6.89858928240028e-05,-2.104821430748416e-05,0.0,1.1368683772161603e-12,0.0,0.0,163.632321428571,70.0,0.0,255.0,0.0
30.950000000000298,35.69662745756689,51.26834359699036,1319.9992547407746,-6.89858928240028e-05,-2.104821430748416e-05,0.0,-5.684341886080801e-13,1.1368683772161603e-12,0.0,163.55991071428528,70.0,0.0,255.0,0.0
31.0000000000003,35.69662406672679,51.26834303293421,1319.9992551412433,-6.898589288084622e-05,-2.104821419379732e-05,0.0,0.0,0.0,0.0,163.48749999999956,70.0,0.0,255.0,0.0
31.0500000000003,35.69662067639012,51.26834246878707,1319.9992555407807,-6.89858928240028e-05,-2.104821430748416e-05,0.0,0.0,-1.1368683772161603e-12,0.0,163.41508928571386,70.0,0.0,255.0,0.0
31.1000000000003,35.69661728655677,51.26834190454815,1319.9992559393868,-6.898589288084622e-05,-2.104821430748416e-05,0.0,-5.684341886080801e-13,1.1368683772161603e-12,0.0,163.34267857142814,70.0,0.0,255.0,0.0
31.1500000000003,35.69661389722665,51.268341340216686,1319.9992563389242,-6.898589288084622e-05,-2.104821419379732e-05,0.0,5.684341886080801e-13,0.0,0.0,163.27026785714241,70.0,0.0,255.0,0.0
31.2000000000003,35.696610508399644,51.26834077579187,1319.9992567384616,-6.89858928240028e-05,-2.104821430748416e-05,0.0,0.0,-1.1368683772161603e-12,0.0,163.19785714285672,70.0,0.0,255.0,0.0
31.250000000000302,35.69660712007567,51.26834021127295,1319.9992571361363,-6.898589288084622e-05,-2.104821430748416e-05,0.0,0.0,0.0,0.0,163.125446428571,70.0,0.0,255.0,0.0
31.300000000000303,35.69660373225463,51.268339646659136,1319.9992575319484,-6.89858928240028e-05,-2.104821430748416e-05,0.0,5.684341886080801e-13,0.0,0.0,163.05303571428527,70.0,0.0,255.0,0.0
31.350000000000303,35.696600344936435,51.26833908194965,1319.9992579296231,-6.89858928240028e-05,-2.104821430748416e-05,0.0,-1.1368683772161603e-12,1.1368683772161603e-12,0.0,162.98062499999958,70.0,0.0,255.0,0.0
31.400000000000304,35.69659695812096,51.26833851714369,1319.9992583254352,-6.898589293768964e-05,-2.104821419379732e-05,0.0,-5.684341886080801e-13,0.0,0.0,162.90821428571385,70.0,0.0,255.0,0.0
31.450000000000305,35.69659357180814,51.268337952240536,1319.9992587184533,-6.898589288084622e-05,-2.104821430748416e-05,0.0,1.1368683772161603e-12,-2.2737367544323206e-12,0.0,162.83580357142813,70.0,0.0,255.0,0.0
31.500000000000306,35.69659018599785,51.26833738723934,1319.9992591124028,-6.89858928240028e-05,-2.1048214421170997e-05,0.0,5.684341886080801e-13,0.0,0.0,162.7633928571424,70.0,0.0,255.0,0.0
31.550000000000306,35.69658680068999,51.26833682213938,1319.9992595072836,-6.89858928240028e-05,-2.104821430748416e-05,0.0,0.0,2.2737367544323206e-12,0.0,162.6909821428567,70.0,0.0,255.0,0.0
31.600000000000307,35.69658341588447,51.26833625693984,1319.9992599003017,-6.89858928240028e-05,-2.104821419379732e-05,0.0,-5.684341886080801e-13,0.0,0.0,162.618571428571,70.0,0.0,255.0,0.0
31.650000000000308,35.69658003158116,51.26833569163996,1319.9992602923885,-6.898589288084622e-05,-2.104821430748416e-05,0.0,0.0,-1.1368683772161603e-12,0.0,162.54616071428526,70.0,0.0,255.0,0.0
31.70000000000031,35.69657664777999,51.26833512623895,1319.99926068075,-6.89858928240028e-05,-2.104821430748416e-05,0.0,0.0,1.1368683772161603e-12,0.0,162.47374999999954,70.0,0.0,255.0,0.0
31.75000000000031,35.69657326448085,51.26833456073606,1319.9992610728368,-6.898589288084622e-05,-2.104821419379732e-05,0.0,-1.1368683772161603e-12,1.1368683772161603e-12,0.0,162.40133928571385,70.0,0.0,255.0,0.0
31.80000000000031,35.69656988168362,51.26833399513048,1319.9992614621297,-6.898589293768964e-05,-2.104821419379732e-05,0.0,5.684341886080801e-13,-1.1368683772161603e-12,0.0,162.32892857142812,70.0,0.0,255.0,0.0
31.85000000000031,35.69656649938819,51.268333429421446,1319.9992618504912,-6.89858928240028e-05,-2.104821430748416e-05,0.0,1.1368683772161603e-12,-2.2737367544323206e-12,0.0,162.2565178571424,70.0,0.0,255.0,0.0
31.90000000000031,35.69656311759448,51.26833286360817,1319.9992622388527,-6.89858928240028e-05,-2.1048214421170997e-05,0.0,-5.684341886080801e-13,0.0,0.0,162.1841071428567,70.0,0.0,255.0,0.0
31.950000000000312,35.696559736302355,51.268332297689895,1319.9992626253515,-6.898589288084622e-05,-2.104821430748416e-05,0.0,0.0,1.1368683772161603e-12,0.0,162.11169642857098,70.0,0.0,255.0,0.0
32.00000000000031,35.6965563555117,51.26833173166584,1319.9992630127817,-6.89858928240028e-05,-2.104821430748416e-05,0.0,5.684341886080801e-13,2.710505431213761e-20,0.0,162.03928571428526,70.0,0.0,255.0,0.0
32.05000000000031,35.696552975222446,51.2683311655352,1319.9992633992806,-6.89858928240028e-05,-2.104821430748416e-05,0.0,1.0842021724855044e-19,1.1368683772161603e-12,0.0,161.96687499999956,70.0,0.0,255.0,0.0
32.100000000000314,35.69654959543445,51.26833059929724,1319.9992637820542,-6.89858928240028e-05,-2.104821419379732e-05,0.0,-5.684341886080801e-13,0.0,0.0,161.89446428571384,70.0,0.0,255.0,0.0
32.15000000000032,35.69654621614761,51.26833003295115,1319.9992641666904,-6.898589288084622e-05,-2.104821430748416e-05,0.0,-5.684342970282974e-13,-1.1368683772161603e-12,0.0,161.8220535714281,70.0,0.0,255.0,0.0
32.200000000000315,35.69654283736182,51.26832946649617,1319.9992645485327,-6.898589288084622e-05,-2.104821430748416e-05,0.0,5.684341886080801e-13,1.1368683772161603e-12,0.0,161.74964285714242,70.0,0.0,255.0,0.0
32.25000000000031,35.696539459076945,51.26832889993152,1319.9992649313062,-6.89858928240028e-05,-2.104821419379732e-05,0.0,1.0842021724855044e-19,1.1368683772161603e-12,0.0,161.6772321428567,70.0,0.0,255.0,0.0
32.30000000000032,35.6965360812929,51.26832833325642,1319.9992653140798,-6.898589288084622e-05,-2.104821419379732e-05,0.0,-5.684341886080801e-13,-2.2737367544323206e-12,0.0,161.60482142857097,70.0,0.0,255.0,0.0
32.35000000000032,35.69653270400955,51.268327766470115,1319.9992656921968,-6.898589288084622e-05,-2.1048214421170997e-05,0.0,-1.0842021724855044e-19,-1.1368683772161603e-12,0.0,161.53241071428525,70.0,0.0,255.0,0.0
32.40000000000032,35.696529327226784,51.2683271995718,1319.9992660731077,-6.898589288084622e-05,-2.104821430748416e-05,0.0,5.684341886080801e-13,2.2737367544323206e-12,0.0,161.45999999999952,70.0,0.0,255.0,0.0
32.450000000000315,35.696525950944505,51.26832663256072,1319.9992664530873,-6.89858928240028e-05,-2.104821419379732e-05,0.0,1.0842021724855044e-19,0.0,0.0,161.38758928571383,70.0,0.0,255.0,0.0
32.50000000000032,35.696522575162575,51.268326065436085,1319.9992668312043,-6.898589288084622e-05,-2.104821430748416e-05,0.0,-5.684341886080801e-13,-1.1368683772161603e-12,0.0,161.3151785714281,70.0,0.0,255.0,0.0
32.550000000000324,35.69651919988088,51.26832549819713,1319.9992672065273,-6.898589288084622e-05,-2.104821430748416e-05,0.0,5.684340801878629e-13,0.0,0.0,161.24276785714238,70.0,0.0,255.0,0.0
32.60000000000032,35.69651582509932,51.26832493084308,1319.9992675846443,-6.89858928240028e-05,-2.104821430748416e-05,0.0,5.684341886080801e-13,1.1368683772161603e-12,0.0,161.1703571428567,70.0,0.0,255.0,0.0
32.65000000000032,35.69651245081775,51.268324363373154,1319.999267959036,-6.89858928240028e-05,-2.104821419379732e-05,0.0,1.0842021724855044e-19,1.1368683772161603e-12,0.0,161.09794642857096,70.0,0.0,255.0,0.0
32.70000000000032,35.69650907703607,51.268323795786586,1319.999268334359,-6.89858928240028e-05,-2.104821419379732e-05,0.0,-1.1368683772161603e-12,-2.2737367544323206e-12,0.0,161.02553571428524,70.0,0.0,255.0,0.0
32.75000000000033,35.69650570375414,51.268323228082586,1319.999268706888,-6.898589293768964e-05,-2.1048214421170997e-05,0.0,-1.0842021724855044e-19,0.0,0.0,160.95312499999955,70.0,0.0,255.0,0.0
32.800000000000324,35.69650233097185,51.268322660260395,1319.9992690784857,-6.89858928240028e-05,-2.104821419379732e-05,0.0,1.1368683772161603e-12,2.2737367544323206e-12,0.0,160.88071428571382,70.0,0.0,255.0,0.0
32.85000000000032,35.69649895868908,51.268322092319245,1319.999269451946,-6.89858928240028e-05,-2.104821419379732e-05,0.0,-1.136868268795943e-12,-1.1368683772161603e-12,0.0,160.8083035714281,70.0,0.0,255.0,0.0
32.900000000000325,35.6964955869057,51.26832152425834,1319.9992698235437,-6.898589293768964e-05,-2.104821430748416e-05,0.0,0.0,-1.1368683772161603e-12,0.0,160.7358928571424,70.0,0.0,255.0,0.0
32.95000000000033,35.69649221562159,51.26832095607691,1319.9992701923475,-6.89858928240028e-05,-2.104821430748416e-05,0.0,5.684340801878629e-13,0.0,0.0,160.66348214285665,70.0,0.0,255.0,0.0
33.00000000000033,35.69648884483663,51.26832038777422,1319.9992705620825,-6.898589288084622e-05,-2.104821430748416e-05,0.0,0.0,0.0,0.0,160.59107142857096,70.0,0.0,255.0,0.0
33.050000000000324,35.6964854745507,51.26831981934944,1319.999270929955,-6.89858928240028e-05,-2.104821430748416e-05,0.0,5.684342970282974e-13,0.0,0.0,160.51866071428526,70.0,0.0,255.0,0.0
33.10000000000033,35.69648210476365,51.26831925080184,1319.999271296896,-6.89858928240028e-05,-2.104821430748416e-05,0.0,-1.1368683772161603e-12,0.0,0.0,160.4462499999995,70.0,0.0,255.0,0.0
33.15000000000033,35.69647873547538,51.26831868213061,1319.9992716619745,-6.898589293768964e-05,-2.104821430748416e-05,0.0,-1.0842021724855044e-19,0.0,0.0,160.3738392857138,70.0,0.0,255.0,0.0
33.20000000000033,35.69647536668573,51.26831811333501,1319.9992720279843,-6.89858928240028e-05,-2.104821430748416e-05,0.0,1.1368683772161603e-12,1.1368683772161603e-12,0.0,160.3014285714281,70.0,0.0,255.0,0.0
33.25000000000033,35.69647199839463,51.26831754441426,1319.9992723921314,-6.89858928240028e-05,-2.104821419379732e-05,0.0,-1.136868268795943e-12,1.1368683772161603e-12,0.0,160.2290178571424,70.0,0.0,255.0,0.0
33.30000000000033,35.69646863060187,51.26831697536759,1319.9992727534845,-6.898589293768964e-05,-2.104821419379732e-05,0.0,0.0,-2.2737367544323206e-12,0.0,160.15660714285667,70.0,0.0,255.0,0.0
33.350000000000335,35.696465263307374,51.2683164061942,1319.9992731167004,-6.89858928240028e-05,-2.1048214421170997e-05,0.0,1.136868268795943e-12,0.0,0.0,160.08419642857095,70.0,0.0,255.0,0.0
33.40000000000033,35.696461896511,51.26831583689335,1319.9992734789848,-6.89858928240028e-05,-2.104821419379732e-05,0.0,-1.1368683772161603e-12,2.2737367544323206e-12,0.0,160.01178571428522,70.0,0.0,255.0,0.0
33.45000000000033,35.69645853021262,51.26831526746426,1319.9992738394067,-6.898589293768964e-05,-2.104821419379732e-05,0.0,1.0842021724855044e-19,-1.1368683772161603e-12,0.0,159.93937499999953,70.0,0.0,255.0,0.0
33.500000000000334,35.696455164412086,51.26831469790616,1319.9992741979659,-6.89858928240028e-05,-2.104821430748416e-05,0.0,1.1368683772161603e-12,-1.1368683772161603e-12,0.0,159.8669642857138,70.0,0.0,255.0,0.0
33.55000000000034,35.69645179910928,51.26831412821827,1319.9992745574564,-6.89858928240028e-05,-2.104821430748416e-05,0.0,-1.0842021724855044e-19,0.0,0.0,159.79455357142808,70.0,0.0,255.0,0.0
33.600000000000335,35.69644843430406,51.26831355839981,1319.9992749150842,-6.89858928240028e-05,-2.104821430748416e-05,0.0,0.0,1.1368683772161603e-12,0.0,159.7221428571424,70.0,0.0,255.0,0.0
33.65000000000033,35.6964450699963,51.26831298845005,1319.9992752689868,-6.89858928240028e-05,-2.104821419379732e-05,0.0,-5.684340801878629e-13,0.0,0.0,159.64973214285666,70.0,0.0,255.0,0.0
33.70000000000034,35.69644170618585,51.26831241836819,1319.999275624752,-6.898589288084622e-05,-2.104821430748416e-05,0.0,-5.684341886080801e-13,-2.2737367544323206e-12,0.0,159.57732142857094,70.0,0.0,255.0,0.0
33.75000000000034,35.69643834287259,51.268311848153445,1319.999275979586,-6.898589288084622e-05,-2.1048214421170997e-05,0.0,5.684340801878629e-13,1.1368683772161603e-12,0.0,159.50491071428522,70.0,0.0,255.0,0.0
33.80000000000034,35.69643498005637,51.268311277805076,1319.9992763316259,-6.89858928240028e-05,-2.104821419379732e-05,0.0,0.0,2.2737367544323206e-12,0.0,159.43249999999952,70.0,0.0,255.0,0.0
33.850000000000335,35.696431617737055,51.2683107073223,1319.9992766836658,-6.898589288084622e-05,-2.104821419379732e-05,0.0,-5.684340801878629e-13,-1.1368683772161603e-12,0.0,159.3600892857138,70.0,0.0,255.0,0.0
33.90000000000034,35.6964282559145,51.268310136704336,1319.9992770357057,-6.898589288084622e-05,-2.104821430748416e-05,0.0,5.684341886080801e-13,-1.1368683772161603e-12,0.0,159.28767857142807,70.0,0.0,255.0,0.0
33.950000000000344,35.69642489458859,51.26830956595043,1319.999277383089,-6.89858928240028e-05,-2.104821430748416e-05,0.0,-1.0842021724855044e-19,1.1368683772161603e-12,0.0,159.21526785714235,70.0,0.0,255.0,0.0
34.00000000000034,35.69642153375915,51.26830899505981,1319.999277732335,-6.898589288084622e-05,-2.104821419379732e-05,0.0,0.0,0.0,0.0,159.14285714285666,70.0,0.0,255.0,0.0
34.05000000000034,35.69641817342607,51.2683084240317,1319.9992780806497,-6.89858928240028e-05,-2.104821430748416e-05,0.0,1.0842021724855044e-19,-1.1368683772161603e-12,0.0,159.07044642857093,70.0,0.0,255.0,0.0
34.10000000000034,35.696414813589186,51.26830785286534,1319.999278428033,-6.898589288084622e-05,-2.104821430748416e-05,0.0,-5.684341886080801e-13,0.0,0.0,158.9980357142852,70.0,0.0,255.0,0.0
34.15000000000035,35.696411454248356,51.26830728155996,1319.9992787735537,-6.898589288084622e-05,-2.104821430748416e-05,0.0,5.684340801878629e-13,0.0,0.0,158.9256249999995,70.0,0.0,255.0,0.0
34.200000000000344,35.696408095403456,51.26830671011479,1319.9992791162804,-6.89858928240028e-05,-2.104821430748416e-05,0.0,0.0,1.1368683772161603e-12,0.0,158.8532142857138,70.0,0.0,255.0,0.0
34.25000000000034,35.696404737054316,51.26830613852905,1319.9992794599384,-6.898589288084622e-05,-2.104821419379732e-05,0.0,1.0842021724855044e-19,0.0,0.0,158.78080357142807,70.0,0.0,255.0,0.0
34.300000000000345,35.6964013792008,51.268305566802,1319.9992798035964,-6.89858928240028e-05,-2.104821430748416e-05,0.0,0.0,-1.1368683772161603e-12,0.0,158.70839285714237,70.0,0.0,255.0,0.0
34.35000000000035,35.69639802184278,51.26830499493284,1319.9992801435292,-6.898589288084622e-05,-2.104821430748416e-05,0.0,-5.684342970282974e-13,1.1368683772161603e-12,0.0,158.63598214285665,70.0,0.0,255.0,0.0
34.40000000000035,35.69639466498008,51.26830442292083,1319.9992804825306,-6.898589288084622e-05,-2.104821419379732e-05,0.0,5.684341886080801e-13,0.0,0.0,158.56357142857092,70.0,0.0,255.0,0.0
34.450000000000344,35.696391308612576,51.268303850765186,1319.999280821532,-6.89858928240028e-05,-2.104821430748416e-05,0.0,1.0842021724855044e-19,-1.1368683772161603e-12,0.0,158.49116071428523,70.0,0.0,255.0,0.0
34.50000000000035,35.69638795274011,51.26830327846514,1319.9992811605334,-6.898589288084622e-05,-2.104821430748416e-05,0.0,0.0,0.0,0.0,158.4187499999995,70.0,0.0,255.0,0.0
34.55000000000035,35.696384597362524,51.26830270601993,1319.9992814948782,-6.89858928240028e-05,-2.104821430748416e-05,0.0,-1.0842021724855044e-19,0.0,0.0,158.34633928571378,70.0,0.0,255.0,0.0
34.60000000000035,35.69638124247969,51.2683021334288,1319.999281832017,-6.898589288084622e-05,-2.104821430748416e-05,0.0,-5.684341886080801e-13,1.1368683772161603e-12,0.0,158.27392857142806,70.0,0.0,255.0,0.0
34.65000000000035,35.69637788809143,51.26830156069095,1319.9992821654305,-6.898589288084622e-05,-2.104821419379732e-05,0.0,5.684342970282974e-13,0.0,0.0,158.20151785714236,70.0,0.0,255.0,0.0
34.70000000000035,35.69637453419761,51.26830098780566,1319.999282498844,-6.89858928240028e-05,-2.104821430748416e-05,0.0,0.0,-2.2737367544323206e-12,0.0,158.12910714285664,70.0,0.0,255.0,0.0
34.750000000000355,35.69637118079808,51.268300414772135,1319.9992828313261,-6.898589288084622e-05,-2.1048214421170997e-05,0.0,-5.684342970282974e-13,1.1368683772161603e-12,0.0,158.05669642857092,70.0,0.0,255.0,0.0
34.80000000000035,35.69636782789269,51.26829984158961,1319.999283160083,-6.898589288084622e-05,-2.104821419379732e-05,0.0,5.684341886080801e-13,2.2737367544323206e-12,0.0,157.9842857142852,70.0,0.0,255.0,0.0
34.85000000000035,35.69636447548126,51.26829926825733,1319.9992834897712,-6.89858928240028e-05,-2.104821419379732e-05,0.0,5.684342970282974e-13,-2.2737367544323206e-12,0.0,157.9118749999995,70.0,0.0,255.0,0.0
34.900000000000354,35.69636112356366,51.26829869477453,1319.999283818528,-6.89858928240028e-05,-2.1048214421170997e-05,0.0,-1.1368683772161603e-12,-1.1368683772161603e-12,0.0,157.83946428571377,70.0,0.0,255.0,0.0
34.95000000000036,35.69635777213972,51.26829812114043,1319.9992841463536,-6.898589293768964e-05,-2.104821430748416e-05,0.0,-1.0842021724855044e-19,2.2737367544323206e-12,0.0,157.76705357142805,70.0,0.0,255.0,0.0
35.000000000000355,35.69635442120929,51.26829754735429,1319.9992844713852,-6.89858928240028e-05,-2.104821419379732e-05,0.0,1.1368683772161603e-12,0.0,0.0,157.69464285714236,70.0,0.0,255.0,0.0
35.05000000000035,35.69635107077223,51.268296973415325,1319.999284797348,-6.89858928240028e-05,-2.104821430748416e-05,0.0,1.0842021724855044e-19,-1.1368683772161603e-12,0.0,157.62223214285663,70.0,0.0,255.0,0.0
35.10000000000036,35.69634772082835,51.26829639932277,1319.9992851195857,-6.89858928240028e-05,-2.104821430748416e-05,0.0,0.0,0.0,0.0,157.5498214285709,70.0,0.0,255.0,0.0
35.15000000000036,35.696344371377506,51.26829582507588,1319.999285440892,-6.89858928240028e-05,-2.104821430748416e-05,0.0,-1.1368684856363775e-12,0.0,0.0,157.47741071428518,70.0,0.0,255.0,0.0
35.20000000000036,35.69634102241955,51.26829525067387,1319.9992857621983,-6.898589293768964e-05,-2.104821430748416e-05,0.0,0.0,1.1368683772161603e-12,0.0,157.4049999999995,70.0,0.0,255.0,0.0
35.250000000000355,35.6963376739543,51.268294676115985,1319.9992860825732,-6.89858928240028e-05,-2.104821419379732e-05,0.0,1.1368684856363775e-12,-1.1368683772161603e-12,0.0,157.33258928571377,70.0,0.0,255.0,0.0
35.30000000000036,35.69633432598162,51.268294101401466,1319.9992864001542,-6.89858928240028e-05,-2.1048214421170997e-05,0.0,-1.1368683772161603e-12,-1.1368683772161603e-12,0.0,157.26017857142804,70.0,0.0,255.0,0.0
35.350000000000364,35.696330978501315,51.26829352652953,1319.9992867186666,-6.898589293768964e-05,-2.104821430748416e-05,0.0,-1.0842021724855044e-19,2.2737367544323206e-12,0.0,157.18776785714232,70.0,0.0,255.0,0.0
35.40000000000036,35.696327631513256,51.26829295149946,1319.9992870334536,-6.89858928240028e-05,-2.104821419379732e-05,0.0,1.1368683772161603e-12,0.0,0.0,157.11535714285662,70.0,0.0,255.0,0.0
35.45000000000036,35.69632428501726,51.26829237631045,1319.9992873482406,-6.89858928240028e-05,-2.104821430748416e-05,0.0,-5.684340801878629e-13,-1.1368683772161603e-12,0.0,157.04294642857093,70.0,0.0,255.0,0.0
35.50000000000036,35.69632093901317,51.268291800961755,1319.999287661165,-6.898589288084622e-05,-2.104821430748416e-05,0.0,0.0,0.0,0.0,156.97053571428518,70.0,0.0,255.0,0.0
35.55000000000037,35.69631759350082,51.2682912254526,1319.9992879740894,-6.89858928240028e-05,-2.104821430748416e-05,0.0,-5.684342970282974e-13,0.0,0.0,156.89812499999948,70.0,0.0,255.0,0.0
35.600000000000364,35.69631424848003,51.268290649782244,1319.9992882851511,-6.898589293768964e-05,-2.104821430748416e-05,0.0,0.0,0.0,0.0,156.82571428571376,70.0,0.0,255.0,0.0
35.65000000000036,35.69631090395066,51.26829007394991,1319.9992885952815,-6.89858928240028e-05,-2.104821430748416e-05,0.0,1.1368684856363775e-12,0.0,0.0,156.75330357142803,70.0,0.0,255.0,0.0
35.700000000000365,35.69630755991254,51.26828949795485,1319.999288902618,-6.89858928240028e-05,-2.104821430748416e-05,0.0,-1.1368683772161603e-12,0.0,0.0,156.68089285714234,70.0,0.0,255.0,0.0
35.75000000000037,35.696304216365476,51.268288921796284,1319.9992892080918,-6.898589293768964e-05,-2.104821430748416e-05,0.0,-1.0842021724855044e-19,0.0,0.0,156.60848214285662,70.0,0.0,255.0,0.0
35.80000000000037,35.69630087330931,51.26828834547347,1319.999289514497,-6.89858928240028e-05,-2.104821430748416e-05,0.0,1.1368683772161603e-12,1.1368683772161603e-12,0.0,156.5360714285709,70.0,0.0,255.0,0.0
35.850000000000364,35.69629753074389,51.268287768985644,1319.9992898199707,-6.89858928240028e-05,-2.104821419379732e-05,0.0,-5.684340801878629e-13,0.0,0.0,156.4636607142852,70.0,0.0,255.0,0.0
35.90000000000037,35.69629418866901,51.268287192332025,1319.9992901217192,-6.898589288084622e-05,-2.104821430748416e-05,0.0,-5.684341886080801e-13,-1.1368683772161603e-12,0.0,156.39124999999947,70.0,0.0,255.0,0.0
35.95000000000037,35.69629084708455,51.2682866155119,1319.999290421605,-6.898589288084622e-05,-2.104821430748416e-05,0.0,5.684340801878629e-13,0.0,0.0,156.31883928571375,70.0,0.0,255.0,0.0
36.00000000000037,35.69628750599029,51.26828603852445,1319.9992907224223,-6.89858928240028e-05,-2.104821430748416e-05,0.0,5.684341886080801e-13,0.0,0.0,156.24642857142805,70.0,0.0,255.0,0.0
36.05000000000037,35.69628416538608,51.26828546136895,1319.9992910232395,-6.89858928240028e-05,-2.104821430748416e-05,0.0,-5.684340801878629e-13,0.0,0.0,156.17401785714233,70.0,0.0,255.0,0.0
36.10000000000037,35.69628082527175,51.26828488404465,1319.9992913203314,-6.898589288084622e-05,-2.104821430748416e-05,0.0,-5.684341886080801e-13,0.0,0.0,156.1016071428566,70.0,0.0,255.0,0.0
36.150000000000375,35.6962774856471,51.26828430655076,1319.9992916155607,-6.898589288084622e-05,-2.104821430748416e-05,0.0,-1.0842021724855044e-19,0.0,0.0,156.02919642857088,70.0,0.0,255.0,0.0
36.20000000000037,35.69627414651199,51.268283728886544,1319.99929191079,-6.898589288084622e-05,-2.104821430748416e-05,0.0,5.684341886080801e-13,0.0,0.0,155.95678571428516,70.0,0.0,255.0,0.0
36.25000000000037,35.696270807866206,51.26828315105125,1319.9992922041565,-6.89858928240028e-05,-2.104821430748416e-05,0.0,1.0842021724855044e-19,0.0,0.0,155.88437499999947,70.0,0.0,255.0,0.0
36.300000000000374,35.69626746970962,51.26828257304409,1319.9992924956605,-6.898589288084622e-05,-2.104821430748416e-05,0.0,-5.684341886080801e-13,1.1368683772161603e-12,0.0,155.81196428571374,70.0,0.0,255.0,0.0
36.35000000000038,35.69626413204202,51.26828199486433,1319.9992927862331,-6.898589288084622e-05,-2.104821419379732e-05,0.0,5.684340801878629e-13,0.0,0.0,155.73955357142802,70.0,0.0,255.0,0.0
36.400000000000375,35.69626079486323,51.268281416511215,1319.9992930758744,-6.89858928240028e-05,-2.104821430748416e-05,0.0,0.0,-1.1368683772161603e-12,0.0,155.66714285714232,70.0,0.0,255.0,0.0
36.45000000000037,35.696257458173065,51.26828083798398,1319.9992933636531,-6.898589288084622e-05,-2.104821430748416e-05,0.0,1.0842021724855044e-19,0.0,0.0,155.5947321428566,70.0,0.0,255.0,0.0
36.50000000000038,35.69625412197136,51.26828025928186,1319.9992936505005,-6.89858928240028e-05,-2.104821430748416e-05,0.0,0.0,0.0,0.0,155.52232142857088,70.0,0.0,255.0,0.0
36.55000000000038,35.696250786257934,51.268279680404106,1319.9992939345539,-6.898589288084622e-05,-2.104821430748416e-05,0.0,-1.0842021724855044e-19,0.0,0.0,155.44991071428518,70.0,0.0,255.0,0.0
36.60000000000038,35.6962474510326,51.26827910134997,1319.999294217676,-6.89858928240028e-05,-2.104821430748416e-05,0.0,5.684341886080801e-13,0.0,0.0,155.37749999999946,70.0,0.0,255.0,0.0
36.650000000000375,35.69624411629519,51.26827852211868,1319.9992945017293,-6.89858928240028e-05,-2.104821430748416e-05,0.0,-1.136868268795943e-12,0.0,0.0,155.30508928571373,70.0,0.0,255.0,0.0
36.70000000000038,35.696240782045486,51.26827794270949,1319.9992947820574,-6.898589293768964e-05,-2.104821430748416e-05,0.0,0.0,0.0,0.0,155.23267857142804,70.0,0.0,255.0,0.0
36.750000000000384,35.69623744828334,51.26827736312165,1319.9992950614542,-6.89858928240028e-05,-2.104821430748416e-05,0.0,5.684340801878629e-13,0.0,0.0,155.1602678571423,70.0,0.0,255.0,0.0
36.80000000000038,35.69623411500855,51.26827678335439,1319.999295338057,-6.898589288084622e-05,-2.104821430748416e-05,0.0,-5.684341886080801e-13,0.0,0.0,155.0878571428566,70.0,0.0,255.0,0.0
36.85000000000038,35.69623078222094,51.26827620340697,1319.9992956165224,-6.898589288084622e-05,-2.104821430748416e-05,0.0,5.684342970282974e-13,1.1368683772161603e-12,0.0,155.0154464285709,70.0,0.0,255.0,0.0
36.90000000000038,35.69622744992031,51.26827562327862,1319.9992958894,-6.89858928240028e-05,-2.104821419379732e-05,0.0,0.0,1.1368683772161603e-12,0.0,154.94303571428514,70.0,0.0,255.0,0.0
36.95000000000039,35.696224118106485,51.26827504296861,1319.9992961632088,-6.898589288084622e-05,-2.104821419379732e-05,0.0,-1.0842021724855044e-19,-2.2737367544323206e-12,0.0,154.87062499999945,70.0,0.0,255.0,0.0
37.000000000000384,35.696220786779286,51.26827446247615,1319.9992964360863,-6.89858928240028e-05,-2.1048214421170997e-05,0.0,5.684341886080801e-13,-1.1368683772161603e-12,0.0,154.79821428571373,70.0,0.0,255.0,0.0
37.05000000000038,35.6962174559385,51.26827388180051,1319.9992967061698,-6.89858928240028e-05,-2.104821430748416e-05,0.0,-1.136868268795943e-12,1.1368683772161603e-12,0.0,154.72580357142803,70.0,0.0,255.0,0.0
37.100000000000385,35.69621412558395,51.26827330094094,1319.999296975322,-6.898589293768964e-05,-2.104821430748416e-05,0.0,0.0,0.0,0.0,154.6533928571423,70.0,0.0,255.0,0.0
37.15000000000039,35.69621079571545,51.26827271989667,1319.9992972426116,-6.89858928240028e-05,-2.104821430748416e-05,0.0,1.136868268795943e-12,0.0,0.0,154.58098214285658,70.0,0.0,255.0,0.0
37.20000000000039,35.6962074663328,51.26827213866697,1319.9992975080386,-6.89858928240028e-05,-2.104821430748416e-05,0.0,-1.1368683772161603e-12,0.0,0.0,154.50857142857086,70.0,0.0,255.0,0.0
37.250000000000384,35.696204137435814,51.26827155725107,1319.9992977734655,-6.898589293768964e-05,-2.104821430748416e-05,0.0,1.0842021724855044e-19,0.0,0.0,154.43616071428517,70.0,0.0,255.0,0.0
37.30000000000039,35.696200809024305,51.26827097564821,1319.9992980360985,-6.89858928240028e-05,-2.104821430748416e-05,0.0,1.1368683772161603e-12,0.0,0.0,154.36374999999944,70.0,0.0,255.0,0.0
37.35000000000039,35.69619748109809,51.26827039385766,1319.9992982978001,-6.89858928240028e-05,-2.104821430748416e-05,0.0,-1.1368684856363775e-12,0.0,0.0,154.29133928571372,70.0,0.0,255.0,0.0
37.40000000000039,35.69619415365693,51.26826981187866,1319.9992985585704,-6.898589293768964e-05,-2.104821430748416e-05,0.0,0.0,0.0,0.0,154.21892857142802,70.0,0.0,255.0,0.0
37.45000000000039,35.69619082670068,51.268269229710455,1319.9992988165468,-6.89858928240028e-05,-2.104821430748416e-05,0.0,1.1368684856363775e-12,1.1368683772161603e-12,0.0,154.1465178571423,70.0,0.0,255.0,0.0
37.50000000000039,35.696187500229115,51.268268647352286,1319.9992990726605,-6.89858928240028e-05,-2.104821419379732e-05,0.0,-5.684341886080801e-13,1.1368683772161603e-12,0.0,154.07410714285658,70.0,0.0,255.0,0.0
37.550000000000395,35.696184174242056,51.268268064803436,1319.9992993269116,-6.898589288084622e-05,-2.104821419379732e-05,0.0,-1.0842021724855044e-19,-1.1368683772161603e-12,0.0,154.00169642857085,70.0,0.0,255.0,0.0
37.60000000000039,35.696180848739296,51.268267482063116,1319.9992995830253,-6.89858928240028e-05,-2.104821430748416e-05,0.0,0.0,-1.1368683772161603e-12,0.0,153.92928571428516,70.0,0.0,255.0,0.0
37.65000000000039,35.69617752372064,51.268266899130595,1319.999299833551,-6.898589288084622e-05,-2.104821430748416e-05,0.0,-5.684340801878629e-13,0.0,0.0,153.85687499999943,70.0,0.0,255.0,0.0
37.700000000000394,35.69617419918589,51.2682663160051,1319.9993000850081,-6.898589288084622e-05,-2.104821430748416e-05,0.0,5.684341886080801e-13,0.0,0.0,153.7844642857137,70.0,0.0,255.0,0.0
37.7500000000004,35.696170875134854,51.26826573268592,1319.9993003336713,-6.89858928240028e-05,-2.104821430748416e-05,0.0,-5.684342970282974e-13,0.0,0.0,153.712053571428,70.0,0.0,255.0,0.0
37.800000000000395,35.696167551567314,51.26826514917228,1319.999300581403,-6.898589293768964e-05,-2.104821430748416e-05,0.0,0.0,0.0,0.0,153.6396428571423,70.0,0.0,255.0,0.0
37.85000000000039,35.69616422848308,51.26826456546343,1319.9993008282036,-6.89858928240028e-05,-2.104821430748416e-05,0.0,1.1368684856363775e-12,1.1368683772161603e-12,0.0,153.56723214285657,70.0,0.0,255.0,0.0
37.9000000000004,35.69616090588195,51.26826398155864,1319.9993010712788,-6.89858928240028e-05,-2.104821419379732e-05,0.0,-1.1368683772161603e-12,0.0,0.0,153.49482142857084,70.0,0.0,255.0,0.0
37.9500000000004,35.69615758376373,51.26826339745715,1319.9993013134226,-6.898589293768964e-05,-2.104821430748416e-05,0.0,-1.0842021724855044e-19,-2.2737367544323206e-12,0.0,153.42241071428515,70.0,0.0,255.0,0.0
38.0000000000004,35.69615426212819,51.2682628131582,1319.9993015546352,-6.89858928240028e-05,-2.1048214421170997e-05,0.0,1.1368683772161603e-12,1.1368683772161603e-12,0.0,153.34999999999943,70.0,0.0,255.0,0.0
38.050000000000395,35.69615094097517,51.26826222866105,1319.9993017930537,-6.89858928240028e-05,-2.104821419379732e-05,0.0,1.0842021724855044e-19,2.2737367544323206e-12,0.0,153.2775892857137,70.0,0.0,255.0,0.0
38.1000000000004,35.696147620304416,51.268261643964976,1319.9993020342663,-6.89858928240028e-05,-2.104821419379732e-05,0.0,-5.684341886080801e-13,-1.1368683772161603e-12,0.0,153.205178571428,70.0,0.0,255.0,0.0
38.150000000000404,35.69614430011577,51.26826105906921,1319.999302269891,-6.898589288084622e-05,-2.104821430748416e-05,0.0,-5.684342970282974e-13,-1.1368683772161603e-12,0.0,153.13276785714228,70.0,0.0,255.0,0.0
38.2000000000004,35.696140980408984,51.26826047397299,1319.9993025036529,-6.898589288084622e-05,-2.104821430748416e-05,0.0,5.684341886080801e-13,0.0,0.0,153.06035714285656,70.0,0.0,255.0,0.0
38.2500000000004,35.69613766118387,51.268259888675615,1319.9993027374148,-6.89858928240028e-05,-2.104821430748416e-05,0.0,1.0842021724855044e-19,0.0,0.0,152.98794642857087,70.0,0.0,255.0,0.0
38.3000000000004,35.69613434244023,51.268259303176286,1319.9993029683828,-6.898589288084622e-05,-2.104821430748416e-05,0.0,-5.684341886080801e-13,0.0,0.0,152.91553571428514,70.0,0.0,255.0,0.0
38.350000000000406,35.69613102417784,51.26825871747429,1319.9993031974882,-6.898589288084622e-05,-2.104821430748416e-05,0.0,-1.0842021724855044e-19,0.0,0.0,152.84312499999942,70.0,0.0,255.0,0.0
38.400000000000404,35.69612770639649,51.268258131568885,1319.9993034256622,-6.898589288084622e-05,-2.104821430748416e-05,0.0,5.684341886080801e-13,1.1368683772161603e-12,0.0,152.7707142857137,70.0,0.0,255.0,0.0
38.4500000000004,35.696124389095985,51.2682575454593,1319.9993036538363,-6.89858928240028e-05,-2.104821419379732e-05,0.0,5.684342970282974e-13,1.1368683772161603e-12,0.0,152.698303571428,70.0,0.0,255.0,0.0
38.500000000000405,35.69612107227611,51.26825695914481,1319.999303878285,-6.89858928240028e-05,-2.104821419379732e-05,0.0,-5.684341886080801e-13,-2.2737367544323206e-12,0.0,152.62589285714228,70.0,0.0,255.0,0.0
38.55000000000041,35.69611775593663,51.26825637262467,1319.9993041018024,-6.898589288084622e-05,-2.1048214421170997e-05,0.0,-5.684342970282974e-13,-1.1368683772161603e-12,0.0,152.55348214285655,70.0,0.0,255.0,0.0
38.600000000000406,35.696114440077366,51.26825578589811,1319.9993043225259,-6.898589288084622e-05,-2.104821430748416e-05,0.0,5.684341886080801e-13,2.2737367544323206e-12,0.0,152.48107142857083,70.0,0.0,255.0,0.0
38.650000000000404,35.69611112469808,51.26825519896443,1319.9993045413867,-6.89858928240028e-05,-2.104821419379732e-05,0.0,5.684342970282974e-13,0.0,0.0,152.40866071428513,70.0,0.0,255.0,0.0
38.70000000000041,35.69610780979857,51.268254611822854,1319.9993047593161,-6.89858928240028e-05,-2.104821430748416e-05,0.0,-1.1368683772161603e-12,-1.1368683772161603e-12,0.0,152.3362499999994,70.0,0.0,255.0,0.0
38.75000000000041,35.69610449537863,51.26825402447266,1319.9993049772456,-6.898589293768964e-05,-2.104821430748416e-05,0.0,-1.0842021724855044e-19,0.0,0.0,152.2638392857137,70.0,0.0,255.0,0.0
38.80000000000041,35.69610118143801,51.268253436913085,1319.9993051923811,-6.89858928240028e-05,-2.104821430748416e-05,0.0,1.1368683772161603e-12,0.0,0.0,152.191428571428,70.0,0.0,255.0,0.0
38.850000000000406,35.696097867976526,51.2682528491434,1319.9993054037914,-6.89858928240028e-05,-2.104821430748416e-05,0.0,-1.136868268795943e-12,1.1368683772161603e-12,0.0,152.11901785714227,70.0,0.0,255.0,0.0
38.90000000000041,35.69609455499396,51.26825226116285,1319.999305616133,-6.898589293768964e-05,-2.104821419379732e-05,0.0,0.0,0.0,0.0,152.04660714285654,70.0,0.0,255.0,0.0
38.950000000000415,35.69609124249009,51.26825167297072,1319.9993058247492,-6.89858928240028e-05,-2.104821430748416e-05,0.0,5.684340801878629e-13,-1.1368683772161603e-12,0.0,151.97419642857082,70.0,0.0,255.0,0.0
39.00000000000041,35.6960879304647,51.26825108456623,1319.9993060333654,-6.898589288084622e-05,-2.104821430748416e-05,0.0,0.0,1.1368683772161603e-12,0.0,151.90178571428513,70.0,0.0,255.0,0.0
39.05000000000041,35.69608461891755,51.26825049594867,1319.9993062391877,-6.89858928240028e-05,-2.104821419379732e-05,0.0,5.684342970282974e-13,1.1368683772161603e-12,0.0,151.8293749999994,70.0,0.0,255.0,0.0
39.10000000000041,35.69608130784844,51.26824990711729,1319.9993064440787,-6.89858928240028e-05,-2.104821419379732e-05,0.0,-1.1368683772161603e-12,-2.2737367544323206e-12,0.0,151.75696428571368,70.0,0.0,255.0,0.0
39.15000000000042,35.69607799725715,51.26824931807134,1319.9993066452444,-6.898589293768964e-05,-2.1048214421170997e-05,0.0,-1.0842021724855044e-19,-1.1368683772161603e-12,0.0,151.68455357142795,70.0,0.0,255.0,0.0
39.200000000000415,35.69607468714343,51.26824872881009,1319.99930684641,-6.89858928240028e-05,-2.104821430748416e-05,0.0,1.1368683772161603e-12,2.2737367544323206e-12,0.0,151.61214285714226,70.0,0.0,255.0,0.0
39.25000000000041,35.69607137750711,51.26824813933281,1319.999307045713,-6.89858928240028e-05,-2.104821419379732e-05,0.0,-1.136868268795943e-12,0.0,0.0,151.53973214285654,70.0,0.0,255.0,0.0
39.300000000000416,35.69606806834792,51.26824754963874,1319.9993072431535,-6.898589293768964e-05,-2.104821430748416e-05,0.0,0.0,-1.1368683772161603e-12,0.0,151.4673214285708,70.0,0.0,255.0,0.0
39.35000000000042,35.69606475966565,51.26824695972716,1319.9993074396625,-6.89858928240028e-05,-2.104821430748416e-05,0.0,1.136868268795943e-12,0.0,0.0,151.39491071428512,70.0,0.0,255.0,0.0
39.40000000000042,35.696061451460096,51.26824636959729,1319.9993076333776,-6.89858928240028e-05,-2.104821430748416e-05,0.0,0.0,1.1368683772161603e-12,0.0,151.3224999999994,70.0,0.0,255.0,0.0
39.450000000000415,35.69605814373101,51.268245779248446,1319.9993078233674,-6.89858928240028e-05,-2.104821419379732e-05,0.0,1.0842021724855044e-19,1.1368683772161603e-12,0.0,151.25008928571367,70.0,0.0,255.0,0.0
39.50000000000042,35.696054836478176,51.26824518867988,1319.9993080142885,-6.89858928240028e-05,-2.104821419379732e-05,0.0,-1.1368683772161603e-12,-2.2737367544323206e-12,0.0,151.17767857142798,70.0,0.0,255.0,0.0
39.55000000000042,35.69605152970135,51.26824459789082,1319.999308203347,-6.898589293768964e-05,-2.1048214421170997e-05,0.0,-1.0842021724855044e-19,0.0,0.0,151.10526785714225,70.0,0.0,255.0,0.0
39.60000000000042,35.69604822340032,51.26824400688055,1319.9993083905429,-6.89858928240028e-05,-2.104821419379732e-05,0.0,1.1368683772161603e-12,2.2737367544323206e-12,0.0,151.03285714285653,70.0,0.0,255.0,0.0
39.65000000000042,35.69604491757485,51.26824341564834,1319.9993085749447,-6.89858928240028e-05,-2.104821419379732e-05,0.0,-5.684340801878629e-13,-1.1368683772161603e-12,0.0,150.96044642857083,70.0,0.0,255.0,0.0
39.70000000000042,35.69604161222473,51.26824282419345,1319.999308757484,-6.898589288084622e-05,-2.104821430748416e-05,0.0,-5.684341886080801e-13,-1.1368683772161603e-12,0.0,150.8880357142851,70.0,0.0,255.0,0.0
39.750000000000426,35.69603830734972,51.26824223251513,1319.9993089381605,-6.898589288084622e-05,-2.104821430748416e-05,0.0,5.684340801878629e-13,0.0,0.0,150.8156249999994,70.0,0.0,255.0,0.0
39.80000000000042,35.696035002949564,51.26824164061267,1319.9993091188371,-6.89858928240028e-05,-2.104821430748416e-05,0.0,0.0,0.0,0.0,150.74321428571366,70.0,0.0,255.0,0.0
39.85000000000042,35.69603169902406,51.26824104848531,1319.9993092967197,-6.898589288084622e-05,-2.104821430748416e-05,0.0,-5.684340801878629e-13,0.0,0.0,150.67080357142797,70.0,0.0,255.0,0.0
39.900000000000425,35.696028395572974,51.26824045613231,1319.9993094699457,-6.898589288084622e-05,-2.104821430748416e-05,0.0,5.684341886080801e-13,0.0,0.0,150.59839285714224,70.0,0.0,255.0,0.0
39.95000000000043,35.69602509259606,51.26823986355297,1319.9993096450344,-6.89858928240028e-05,-2.104821430748416e-05,0.0,-1.0842021724855044e-19,0.0,0.0,150.52598214285652,70.0,0.0,255.0,0.0
40.000000000000426,35.696021790093084,51.26823927074653,1319.9993098182604,-6.898589288084622e-05,-2.104821430748416e-05,0.0,0.0,1.1368683772161603e-12,0.0,150.4535714285708,70.0,0.0,255.0,0.0
40.05000000000042,35.696018488063835,51.26823867771225,1319.9993099868298,-6.89858928240028e-05,-2.104821419379732e-05,0.0,1.0842021724855044e-19,1.1368683772161603e-12,0.0,150.3811607142851,70.0,0.0,255.0,0.0
40.10000000000043,35.696015186508056,51.268238084449415,1319.9993101563305,-6.898589288084622e-05,-2.104821419379732e-05,0.0,-5.684341886080801e-13,-1.1368683772161603e-12,0.0,150.30874999999938,70.0,0.0,255.0,0.0
40.15000000000043,35.69601188542551,51.26823749095728,1319.9993103221059,-6.898589288084622e-05,-2.104821430748416e-05,0.0,5.684340801878629e-13,0.0,0.0,150.23633928571365,70.0,0.0,255.0,0.0
40.20000000000043,35.69600858481597,51.268236897235134,1319.9993104888126,-6.89858928240028e-05,-2.104821419379732e-05,0.0,0.0,0.0,0.0,150.16392857142796,70.0,0.0,255.0,0.0
40.250000000000426,35.696005284679195,51.2682363032822,1319.9993106499314,-6.898589288084622e-05,-2.104821430748416e-05,0.0,1.0842021724855044e-19,-1.1368683772161603e-12,0.0,150.09151785714224,70.0,0.0,255.0,0.0
40.30000000000043,35.696001985014945,51.26823570909778,1319.9993108110502,-6.89858928240028e-05,-2.104821430748416e-05,0.0,0.0,0.0,0.0,150.0191071428565,70.0,0.0,255.0,0.0
40.350000000000435,35.695998685822985,51.26823511468114,1319.9993109684438,-6.898589288084622e-05,-2.104821430748416e-05,0.0,-5.684342970282974e-13,0.0,0.0,149.9466964285708,70.0,0.0,255.0,0.0
40.40000000000043,35.69599538710307,51.26823452003152,1319.9993111267686,-6.898589288084622e-05,-2.104821430748416e-05,0.0,5.684341886080801e-13,1.1368683772161603e-12,0.0,149.8742857142851,70.0,0.0,255.0,0.0
40.45000000000043,35.69599208885496,51.26823392514824,1319.9993112813681,-6.89858928240028e-05,-2.104821419379732e-05,0.0,1.0842021724855044e-19,0.0,0.0,149.80187499999937,70.0,0.0,255.0,0.0
40.50000000000043,35.69598879107843,51.268233330030526,1319.9993114350364,-6.898589288084622e-05,-2.104821430748416e-05,0.0,0.0,-2.2737367544323206e-12,0.0,149.72946428571368,70.0,0.0,255.0,0.0
