t,lat,lon,alt,vx,vy,vz,ax,ay,az,yaw,mode,ledr,ledg,ledb
10.0,35.69818009474565,51.26860814679706,1319.9994308510795,-6.898589290926696e-05,-2.104821433590557e-05,0.0,1.7052830501851115e-12,5.684282254961234e-13,0.0,193.9,70.0,0.0,255.0,0.0
10.05,35.69817652195645,51.26860741652642,1319.9994308054447,-6.89858928240028e-05,-2.104821430748416e-05,0.0,8.526415250925679e-13,1.421082489964226e-12,0.0,193.82758928571428,70.0,0.0,255.0,0.0
10.100000000000001,35.698172949499444,51.26860668644683,1319.99943075981,-6.89858928240028e-05,-2.104821419379732e-05,0.0,-5.684341886080801e-13,0.0,0.0,193.7551785714286,70.0,0.0,255.0,0.0
10.150000000000002,35.69816937737481,51.268605956557764,1319.999430719763,-6.898589288084622e-05,-2.104821430748416e-05,0.0,0.0,-1.1368683772161603e-12,0.0,193.68276785714286,70.0,0.0,255.0,0.0
10.200000000000003,35.69816580558277,51.268605226858725,1319.9994306797162,-6.89858928240028e-05,-2.104821430748416e-05,0.0,0.0,0.0,0.0,193.61035714285714,70.0,0.0,255.0,0.0
10.250000000000004,35.69816223412352,51.268604497349195,1319.9994306433946,-6.898589288084622e-05,-2.104821430748416e-05,0.0,-5.684341886080801e-13,0.0,0.0,193.53794642857142,70.0,0.0,255.0,0.0
10.300000000000004,35.69815866299723,51.268603768028655,1319.9994306052104,-6.898589288084622e-05,-2.104821430748416e-05,0.0,5.684341886080801e-13,1.1368683772161603e-12,0.0,193.46553571428572,70.0,0.0,255.0,0.0
10.350000000000005,35.698155092204104,51.26860303889658,1319.9994305735454,-6.89858928240028e-05,-2.104821419379732e-05,0.0,0.0,0.0,0.0,193.393125,70.0,0.0,255.0,0.0
10.400000000000006,35.69815152174433,51.26860230995247,1319.999430540949,-6.898589288084622e-05,-2.104821430748416e-05,0.0,0.0,-1.1368683772161603e-12,0.0,193.32071428571427,70.0,0.0,255.0,0.0
10.450000000000006,35.698147951618125,51.26860158119578,1319.9994305074215,-6.89858928240028e-05,-2.104821430748416e-05,0.0,5.684341886080801e-13,0.0,0.0,193.24830357142858,70.0,0.0,255.0,0.0
10.500000000000007,35.69814438182567,51.26860085262603,1319.9994304804131,-6.89858928240028e-05,-2.104821430748416e-05,0.0,-1.1368683772161603e-12,0.0,0.0,193.17589285714286,70.0,0.0,255.0,0.0
10.550000000000008,35.69814081236716,51.26860012424268,1319.9994304524735,-6.898589293768964e-05,-2.104821430748416e-05,0.0,-5.684341886080801e-13,1.1368683772161603e-12,0.0,193.10348214285713,70.0,0.0,255.0,0.0
10.600000000000009,35.69813724324277,51.26859939604521,1319.9994304273278,-6.898589288084622e-05,-2.104821419379732e-05,0.0,1.1368683772161603e-12,0.0,0.0,193.0310714285714,70.0,0.0,255.0,0.0
10.65000000000001,35.69813367445272,51.26859866803311,1319.9994304040447,-6.89858928240028e-05,-2.104821430748416e-05,0.0,5.684341886080801e-13,-1.1368683772161603e-12,0.0,192.9586607142857,70.0,0.0,255.0,0.0
10.70000000000001,35.69813010599715,51.268597940205865,1319.9994303826243,-6.89858928240028e-05,-2.104821430748416e-05,0.0,0.0,1.1368683772161603e-12,0.0,192.88625,70.0,0.0,255.0,0.0
10.75000000000001,35.69812653787632,51.26859721256295,1319.9994303630665,-6.89858928240028e-05,-2.104821419379732e-05,0.0,-5.684341886080801e-13,0.0,0.0,192.81383928571427,70.0,0.0,255.0,0.0
10.800000000000011,35.69812297009037,51.268596485103856,1319.9994303463027,-6.898589288084622e-05,-2.104821430748416e-05,0.0,0.0,-2.2737367544323206e-12,0.0,192.74142857142857,70.0,0.0,255.0,0.0
10.850000000000012,35.6981194026395,51.26859575782805,1319.9994303314015,-6.89858928240028e-05,-2.1048214421170997e-05,0.0,0.0,0.0,0.0,192.66901785714285,70.0,0.0,255.0,0.0
10.900000000000013,35.698115835523915,51.268595030735014,1319.999430315569,-6.898589288084622e-05,-2.104821430748416e-05,0.0,-1.1368683772161603e-12,2.2737367544323206e-12,0.0,192.59660714285712,70.0,0.0,255.0,0.0
10.950000000000014,35.698112268743785,51.268594303824244,1319.9994303015992,-6.898589293768964e-05,-2.104821419379732e-05,0.0,5.684341886080801e-13,0.0,0.0,192.5241964285714,70.0,0.0,255.0,0.0
11.000000000000014,35.69810870229929,51.26859357709521,1319.999430292286,-6.89858928240028e-05,-2.104821430748416e-05,0.0,1.1368683772161603e-12,-1.1368683772161603e-12,0.0,192.4517857142857,70.0,0.0,255.0,0.0
11.050000000000015,35.698105136190655,51.26859285054739,1319.999430283904,-6.89858928240028e-05,-2.104821430748416e-05,0.0,-5.684341886080801e-13,0.0,0.0,192.37937499999998,70.0,0.0,255.0,0.0
11.100000000000016,35.698101570418025,51.268592124180266,1319.9994302773848,-6.898589288084622e-05,-2.104821430748416e-05,0.0,0.0,0.0,0.0,192.30696428571426,70.0,0.0,255.0,0.0
11.150000000000016,35.69809800498162,51.26859139799331,1319.9994302699342,-6.89858928240028e-05,-2.104821430748416e-05,0.0,0.0,1.1368683772161603e-12,0.0,192.23455357142856,70.0,0.0,255.0,0.0
11.200000000000017,35.6980944398816,51.26859067198602,1319.9994302652776,-6.898589288084622e-05,-2.104821419379732e-05,0.0,-5.684341886080801e-13,0.0,0.0,192.16214285714284,70.0,0.0,255.0,0.0
11.250000000000018,35.698090875118154,51.268589946157846,1319.999430263415,-6.898589288084622e-05,-2.104821430748416e-05,0.0,5.684341886080801e-13,-1.1368683772161603e-12,0.0,192.08973214285712,70.0,0.0,255.0,0.0
11.300000000000018,35.698087310691484,51.26858922050829,1319.9994302643463,-6.89858928240028e-05,-2.104821430748416e-05,0.0,0.0,1.1368683772161603e-12,0.0,192.01732142857142,70.0,0.0,255.0,0.0
11.35000000000002,35.69808374660173,51.26858849503683,1319.9994302643463,-6.898589288084622e-05,-2.104821419379732e-05,0.0,0.0,0.0,0.0,191.9449107142857,70.0,0.0,255.0,0.0
11.40000000000002,35.69808018284914,51.26858776974293,1319.999430269003,-6.89858928240028e-05,-2.104821430748416e-05,0.0,5.684341886080801e-13,-1.1368683772161603e-12,0.0,191.87249999999997,70.0,0.0,255.0,0.0
11.45000000000002,35.69807661943386,51.26858704462607,1319.9994302727282,-6.89858928240028e-05,-2.104821430748416e-05,0.0,-1.1368683772161603e-12,0.0,0.0,191.80008928571425,70.0,0.0,255.0,0.0
11.500000000000021,35.69807305635605,51.26858631968574,1319.99943028111,-6.898589293768964e-05,-2.104821430748416e-05,0.0,-5.684341886080801e-13,0.0,0.0,191.72767857142856,70.0,0.0,255.0,0.0
11.550000000000022,35.69806949361594,51.2685855949214,1319.9994302885607,-6.898589288084622e-05,-2.104821430748416e-05,0.0,1.1368683772161603e-12,1.1368683772161603e-12,0.0,191.65526785714283,70.0,0.0,255.0,0.0
11.600000000000023,35.698065931213705,51.268584870332525,1319.9994302969426,-6.89858928240028e-05,-2.104821419379732e-05,0.0,0.0,0.0,0.0,191.5828571428571,70.0,0.0,255.0,0.0
11.650000000000023,35.69806236914947,51.26858414591862,1319.9994303109124,-6.898589288084622e-05,-2.104821430748416e-05,0.0,0.0,-2.2737367544323206e-12,0.0,191.5104464285714,70.0,0.0,255.0,0.0
11.700000000000024,35.698058807423465,51.26858342167914,1319.9994303258136,-6.89858928240028e-05,-2.1048214421170997e-05,0.0,5.684341886080801e-13,0.0,0.0,191.4380357142857,70.0,0.0,255.0,0.0
11.750000000000025,35.69805524603588,51.26858269761356,1319.999430338852,-6.89858928240028e-05,-2.104821430748416e-05,0.0,0.0,2.2737367544323206e-12,0.0,191.36562499999997,70.0,0.0,255.0,0.0
11.800000000000026,35.69805168498685,51.26858197372135,1319.9994303565472,-6.89858928240028e-05,-2.104821419379732e-05,0.0,-5.684341886080801e-13,0.0,0.0,191.29321428571424,70.0,0.0,255.0,0.0
11.850000000000026,35.69804812427658,51.268581250002,1319.999430376105,-6.898589288084622e-05,-2.104821430748416e-05,0.0,-1.1368683772161603e-12,-1.1368683772161603e-12,0.0,191.22080357142855,70.0,0.0,255.0,0.0
11.900000000000027,35.698044563905256,51.268580526454976,1319.9994303947315,-6.898589293768964e-05,-2.104821430748416e-05,0.0,5.684341886080801e-13,1.1368683772161603e-12,0.0,191.14839285714282,70.0,0.0,255.0,0.0
11.950000000000028,35.69804100387304,51.26857980307976,1319.9994304170832,-6.89858928240028e-05,-2.104821419379732e-05,0.0,1.1368683772161603e-12,0.0,0.0,191.0759821428571,70.0,0.0,255.0,0.0
12.000000000000028,35.69803744418012,51.26857907987583,1319.999430439435,-6.89858928240028e-05,-2.104821430748416e-05,0.0,-5.684341886080801e-13,-1.1368683772161603e-12,0.0,191.0035714285714,70.0,0.0,255.0,0.0
12.05000000000003,35.69803388482665,51.268578356842646,1319.999430465512,-6.898589288084622e-05,-2.104821430748416e-05,0.0,0.0,0.0,0.0,190.93116071428568,70.0,0.0,255.0,0.0
12.10000000000003,35.698030325812816,51.26857763397969,1319.999430491589,-6.89858928240028e-05,-2.104821430748416e-05,0.0,0.0,0.0,0.0,190.85874999999996,70.0,0.0,255.0,0.0
12.15000000000003,35.69802676713882,51.26857691128642,1319.9994305195287,-6.898589288084622e-05,-2.104821430748416e-05,0.0,-5.684341886080801e-13,1.1368683772161603e-12,0.0,190.78633928571423,70.0,0.0,255.0,0.0
12.200000000000031,35.6980232088048,51.26857618876233,1319.9994305502623,-6.898589288084622e-05,-2.104821419379732e-05,0.0,5.684341886080801e-13,0.0,0.0,190.71392857142854,70.0,0.0,255.0,0.0
12.250000000000032,35.698019650810956,51.26857546640689,1319.9994305828586,-6.89858928240028e-05,-2.104821430748416e-05,0.0,0.0,-1.1368683772161603e-12,0.0,190.64151785714282,70.0,0.0,255.0,0.0
12.300000000000033,35.69801609315744,51.26857474421956,1319.9994306163862,-6.898589288084622e-05,-2.104821430748416e-05,0.0,0.0,0.0,0.0,190.5691071428571,70.0,0.0,255.0,0.0
12.350000000000033,35.69801253584443,51.26857402219984,1319.9994306517765,-6.89858928240028e-05,-2.104821430748416e-05,0.0,5.684341886080801e-13,0.0,0.0,190.4966964285714,70.0,0.0,255.0,0.0
12.400000000000034,35.69800897887211,51.26857330034717,1319.9994306890294,-6.89858928240028e-05,-2.104821430748416e-05,0.0,-1.1368683772161603e-12,1.1368683772161603e-12,0.0,190.42428571428567,70.0,0.0,255.0,0.0
12.450000000000035,35.69800542224064,51.268572578661036,1319.9994307272136,-6.898589293768964e-05,-2.104821419379732e-05,0.0,-5.684341886080801e-13,0.0,0.0,190.35187499999995,70.0,0.0,255.0,0.0
12.500000000000036,35.69800186595021,51.268571857140905,1319.9994307672605,-6.898589288084622e-05,-2.104821430748416e-05,0.0,1.1368683772161603e-12,-1.1368683772161603e-12,0.0,190.27946428571423,70.0,0.0,255.0,0.0
12.550000000000036,35.697998310000976,51.26857113578626,1319.99943080917,-6.89858928240028e-05,-2.104821430748416e-05,0.0,0.0,1.1368683772161603e-12,0.0,190.20705357142853,70.0,0.0,255.0,0.0
12.600000000000037,35.697994754393115,51.26857041459657,1319.9994308529422,-6.898589288084622e-05,-2.104821419379732e-05,0.0,0.0,0.0,0.0,190.1346428571428,70.0,0.0,255.0,0.0
12.650000000000038,35.69799119912677,51.268569693571294,1319.9994308976457,-6.89858928240028e-05,-2.104821430748416e-05,0.0,5.684341886080801e-13,-2.2737367544323206e-12,0.0,190.06223214285708,70.0,0.0,255.0,0.0
12.700000000000038,35.697987644202165,51.26856897270991,1319.9994309432805,-6.89858928240028e-05,-2.1048214421170997e-05,0.0,0.0,0.0,0.0,189.9898214285714,70.0,0.0,255.0,0.0
12.750000000000039,35.69798408961941,51.26856825201189,1319.9994309926406,-6.89858928240028e-05,-2.104821430748416e-05,0.0,-5.684341886080801e-13,2.2737367544323206e-12,0.0,189.91741071428567,70.0,0.0,255.0,0.0
12.80000000000004,35.69798053537872,51.2685675314767,1319.9994310410693,-6.898589288084622e-05,-2.104821419379732e-05,0.0,-1.1368683772161603e-12,1.1368683772161603e-12,0.0,189.84499999999994,70.0,0.0,255.0,0.0
12.85000000000004,35.697976981480224,51.26856681110381,1319.9994310932234,-6.898589293768964e-05,-2.104821419379732e-05,0.0,5.684341886080801e-13,-1.1368683772161603e-12,0.0,189.77258928571422,70.0,0.0,255.0,0.0
12.900000000000041,35.69797342792412,51.268566090892705,1319.9994311453775,-6.89858928240028e-05,-2.104821430748416e-05,0.0,1.1368683772161603e-12,-2.2737367544323206e-12,0.0,189.70017857142852,70.0,0.0,255.0,0.0
12.950000000000042,35.69796987471056,51.26856537084283,1319.9994312012568,-6.89858928240028e-05,-2.1048214421170997e-05,0.0,-5.684341886080801e-13,0.0,0.0,189.6277678571428,70.0,0.0,255.0,0.0
13.000000000000043,35.697966321839694,51.268564650953664,1319.9994312562048,-6.898589288084622e-05,-2.104821430748416e-05,0.0,0.0,2.2737367544323206e-12,0.0,189.55535714285708,70.0,0.0,255.0,0.0
13.050000000000043,35.69796276931174,51.26856393122468,1319.9994313139468,-6.89858928240028e-05,-2.104821419379732e-05,0.0,0.0,0.0,0.0,189.48294642857138,70.0,0.0,255.0,0.0
13.100000000000044,35.697959217126815,51.26856321165535,1319.9994313726202,-6.898589288084622e-05,-2.104821430748416e-05,0.0,-1.1368683772161603e-12,-1.1368683772161603e-12,0.0,189.41053571428566,70.0,0.0,255.0,0.0
13.150000000000045,35.69795566528507,51.26856249224513,1319.9994314350188,-6.898589293768964e-05,-2.104821430748416e-05,0.0,5.684341886080801e-13,1.1368683772161603e-12,0.0,189.33812499999993,70.0,0.0,255.0,0.0
13.200000000000045,35.69795211378673,51.2685617729935,1319.9994314955547,-6.89858928240028e-05,-2.104821419379732e-05,0.0,1.1368683772161603e-12,0.0,0.0,189.26571428571424,70.0,0.0,255.0,0.0
13.250000000000046,35.697948562631915,51.268561053899916,1319.9994315607473,-6.89858928240028e-05,-2.104821430748416e-05,0.0,0.0,-1.1368683772161603e-12,0.0,189.19330357142852,70.0,0.0,255.0,0.0
13.300000000000047,35.69794501182078,51.268560334963844,1319.9994316250086,-6.89858928240028e-05,-2.104821430748416e-05,0.0,0.0,0.0,0.0,189.1208928571428,70.0,0.0,255.0,0.0
13.350000000000048,35.69794146135352,51.26855961618478,1319.9994316939265,-6.89858928240028e-05,-2.104821430748416e-05,0.0,-1.1368683772161603e-12,0.0,0.0,189.04848214285707,70.0,0.0,255.0,0.0
13.400000000000048,35.69793791123027,51.26855889756216,1319.9994317609817,-6.898589293768964e-05,-2.104821430748416e-05,0.0,-5.684341886080801e-13,1.1368683772161603e-12,0.0,188.97607142857137,70.0,0.0,255.0,0.0
13.450000000000049,35.69793436145121,51.26855817909546,1319.9994318298995,-6.898589288084622e-05,-2.104821419379732e-05,0.0,1.1368683772161603e-12,0.0,0.0,188.90366071428565,70.0,0.0,255.0,0.0
13.50000000000005,35.69793081201649,51.268557460784145,1319.9994319016114,-6.89858928240028e-05,-2.104821430748416e-05,0.0,0.0,-2.2737367544323206e-12,0.0,188.83124999999993,70.0,0.0,255.0,0.0
13.55000000000005,35.697927262926264,51.26855674262769,1319.9994319751859,-6.898589288084622e-05,-2.1048214421170997e-05,0.0,0.0,0.0,0.0,188.75883928571423,70.0,0.0,255.0,0.0
13.600000000000051,35.6979237141807,51.26855602462556,1319.9994320496917,-6.89858928240028e-05,-2.104821430748416e-05,0.0,5.684341886080801e-13,2.2737367544323206e-12,0.0,188.6864285714285,70.0,0.0,255.0,0.0
13.650000000000052,35.69792016577996,51.26855530677721,1319.9994321260601,-6.89858928240028e-05,-2.104821419379732e-05,0.0,0.0,1.1368683772161603e-12,0.0,188.61401785714278,70.0,0.0,255.0,0.0
13.700000000000053,35.6979166177242,51.2685545890821,1319.99943220336,-6.89858928240028e-05,-2.104821419379732e-05,0.0,-5.684341886080801e-13,-1.1368683772161603e-12,0.0,188.54160714285706,70.0,0.0,255.0,0.0
13.750000000000053,35.69791307001358,51.26855387153973,1319.9994322825223,-6.898589288084622e-05,-2.104821430748416e-05,0.0,-1.1368683772161603e-12,-1.1368683772161603e-12,0.0,188.46919642857137,70.0,0.0,255.0,0.0
13.800000000000054,35.69790952264825,51.26855315414953,1319.999432362616,-6.898589293768964e-05,-2.104821430748416e-05,0.0,5.684341886080801e-13,1.1368683772161603e-12,0.0,188.39678571428564,70.0,0.0,255.0,0.0
13.850000000000055,35.69790597562836,51.26855243691097,1319.9994324445724,-6.89858928240028e-05,-2.104821419379732e-05,0.0,1.1368683772161603e-12,0.0,0.0,188.32437499999992,70.0,0.0,255.0,0.0
13.900000000000055,35.69790242895409,51.268551719823535,1319.9994325274602,-6.89858928240028e-05,-2.104821430748416e-05,0.0,-5.684341886080801e-13,-2.2737367544323206e-12,0.0,188.25196428571422,70.0,0.0,255.0,0.0
13.950000000000056,35.69789888262557,51.268551002886674,1319.9994326131418,-6.898589288084622e-05,-2.1048214421170997e-05,0.0,0.0,0.0,0.0,188.1795535714285,70.0,0.0,255.0,0.0
14.000000000000057,35.69789533664296,51.268550286099845,1319.9994327006862,-6.89858928240028e-05,-2.104821430748416e-05,0.0,0.0,2.2737367544323206e-12,0.0,188.10714285714278,70.0,0.0,255.0,0.0
14.050000000000058,35.69789179100643,51.26854956946253,1319.9994327872992,-6.898589288084622e-05,-2.104821419379732e-05,0.0,-1.1368683772161603e-12,0.0,0.0,188.03473214285705,70.0,0.0,255.0,0.0
14.100000000000058,35.697888245716136,51.26854885297417,1319.9994328776374,-6.898589293768964e-05,-2.104821430748416e-05,0.0,5.684341886080801e-13,-1.1368683772161603e-12,0.0,187.96232142857136,70.0,0.0,255.0,0.0
14.150000000000059,35.69788470077219,51.26854813663425,1319.9994329679757,-6.89858928240028e-05,-2.104821430748416e-05,0.0,1.1368683772161603e-12,0.0,0.0,187.88991071428563,70.0,0.0,255.0,0.0
14.20000000000006,35.697881156174816,51.26854742044223,1319.999433061108,-6.89858928240028e-05,-2.104821430748416e-05,0.0,0.0,0.0,0.0,187.8174999999999,70.0,0.0,255.0,0.0
14.25000000000006,35.69787761192409,51.26854670439756,1319.9994331542403,-6.89858928240028e-05,-2.104821430748416e-05,0.0,0.0,1.1368683772161603e-12,0.0,187.74508928571422,70.0,0.0,255.0,0.0
14.300000000000061,35.69787406802022,51.26854598849971,1319.9994332483038,-6.89858928240028e-05,-2.104821419379732e-05,0.0,-1.1368683772161603e-12,0.0,0.0,187.6726785714285,70.0,0.0,255.0,0.0
14.350000000000062,35.697870524463326,51.26854527274814,1319.9994333460927,-6.898589293768964e-05,-2.104821430748416e-05,0.0,-5.684341886080801e-13,-1.1368683772161603e-12,0.0,187.60026785714277,70.0,0.0,255.0,0.0
14.400000000000063,35.697866981253554,51.26854455714233,1319.9994334438816,-6.898589288084622e-05,-2.104821430748416e-05,0.0,1.1368683772161603e-12,1.1368683772161603e-12,0.0,187.52785714285704,70.0,0.0,255.0,0.0
14.450000000000063,35.6978634383911,51.26854384168172,1319.9994335416704,-6.89858928240028e-05,-2.104821419379732e-05,0.0,0.0,0.0,0.0,187.45544642857135,70.0,0.0,255.0,0.0
14.500000000000064,35.69785989587605,51.26854312636578,1319.999433644116,-6.898589288084622e-05,-2.104821430748416e-05,0.0,0.0,-1.1368683772161603e-12,0.0,187.38303571428563,70.0,0.0,255.0,0.0
14.550000000000065,35.69785635370861,51.268542411193955,1319.99943374563,-6.89858928240028e-05,-2.104821430748416e-05,0.0,5.684341886080801e-13,0.0,0.0,187.3106249999999,70.0,0.0,255.0,0.0
14.600000000000065,35.6978528118889,51.26854169616574,1319.9994338499382,-6.89858928240028e-05,-2.104821430748416e-05,0.0,-1.1368683772161603e-12,0.0,0.0,187.2382142857142,70.0,0.0,255.0,0.0
14.650000000000066,35.697849270417045,51.26854098128057,1319.9994339551777,-6.898589293768964e-05,-2.104821430748416e-05,0.0,-5.684341886080801e-13,1.1368683772161603e-12,0.0,187.16580357142848,70.0,0.0,255.0,0.0
14.700000000000067,35.69784572929325,51.26854026653791,1319.9994340613484,-6.898589288084622e-05,-2.104821419379732e-05,0.0,1.1368683772161603e-12,0.0,0.0,187.09339285714276,70.0,0.0,255.0,0.0
14.750000000000068,35.69784218851762,51.268539551937245,1319.9994341684505,-6.89858928240028e-05,-2.104821430748416e-05,0.0,5.684341886080801e-13,-2.2737367544323206e-12,0.0,187.02098214285704,70.0,0.0,255.0,0.0
14.800000000000068,35.6978386480903,51.26853883747799,1319.999434276484,-6.89858928240028e-05,-2.1048214421170997e-05,0.0,0.0,0.0,0.0,186.94857142857134,70.0,0.0,255.0,0.0
14.850000000000069,35.697835108011446,51.268538123159644,1319.999434389174,-6.89858928240028e-05,-2.104821430748416e-05,0.0,-5.684341886080801e-13,2.2737367544323206e-12,0.0,186.87616071428562,70.0,0.0,255.0,0.0
14.90000000000007,35.69783156828121,51.26853740898166,1319.9994345009327,-6.898589288084622e-05,-2.104821419379732e-05,0.0,0.0,0.0,0.0,186.8037499999999,70.0,0.0,255.0,0.0
14.95000000000007,35.69782802889973,51.26853669494347,1319.9994346136227,-6.89858928240028e-05,-2.104821430748416e-05,0.0,0.0,-1.1368683772161603e-12,0.0,186.7313392857142,70.0,0.0,255.0,0.0
15.000000000000071,35.69782448986716,51.268535981044565,1319.9994347281754,-6.898589288084622e-05,-2.104821430748416e-05,0.0,-1.1368683772161603e-12,1.1368683772161603e-12,0.0,186.65892857142848,70.0,0.0,255.0,0.0
15.050000000000072,35.697820951183616,51.2685352672844,1319.9994348436594,-6.898589293768964e-05,-2.104821419379732e-05,0.0,5.684341886080801e-13,0.0,0.0,186.58651785714275,70.0,0.0,255.0,0.0
15.100000000000072,35.69781741284926,51.26853455366242,1319.9994349638,-6.89858928240028e-05,-2.104821430748416e-05,0.0,1.1368683772161603e-12,-1.1368683772161603e-12,0.0,186.51410714285703,70.0,0.0,255.0,0.0
15.150000000000073,35.69781387486424,51.268533840178094,1319.9994350811467,-6.89858928240028e-05,-2.104821430748416e-05,0.0,0.0,0.0,0.0,186.44169642857133,70.0,0.0,255.0,0.0
15.200000000000074,35.69781033722869,51.268533126830874,1319.999435200356,-6.89858928240028e-05,-2.104821430748416e-05,0.0,0.0,0.0,0.0,186.3692857142856,70.0,0.0,255.0,0.0
15.250000000000075,35.69780679994274,51.26853241362023,1319.9994353232905,-6.89858928240028e-05,-2.104821430748416e-05,0.0,-1.1368683772161603e-12,1.1368683772161603e-12,0.0,186.2968749999999,70.0,0.0,255.0,0.0
15.300000000000075,35.69780326300654,51.2685317005456,1319.9994354443625,-6.898589293768964e-05,-2.104821419379732e-05,0.0,-5.684341886080801e-13,0.0,0.0,186.2244642857142,70.0,0.0,255.0,0.0
15.350000000000076,35.69779972642025,51.26853098760646,1319.9994355691597,-6.898589288084622e-05,-2.104821430748416e-05,0.0,1.1368683772161603e-12,-1.1368683772161603e-12,0.0,186.15205357142847,70.0,0.0,255.0,0.0
15.400000000000077,35.69779619018397,51.26853027480228,1319.9994356948882,-6.89858928240028e-05,-2.104821430748416e-05,0.0,0.0,0.0,0.0,186.07964285714274,70.0,0.0,255.0,0.0
15.450000000000077,35.697792654297885,51.268529562132485,1319.999435821548,-6.898589288084622e-05,-2.104821430748416e-05,0.0,0.0,0.0,0.0,186.00723214285705,70.0,0.0,255.0,0.0
15.500000000000078,35.69778911876208,51.26852884959655,1319.9994359500706,-6.89858928240028e-05,-2.104821430748416e-05,0.0,5.684341886080801e-13,1.1368683772161603e-12,0.0,185.93482142857133,70.0,0.0,255.0,0.0
15.550000000000079,35.69778558357674,51.26852813719394,1319.9994360785931,-6.89858928240028e-05,-2.104821419379732e-05,0.0,-1.1368683772161603e-12,0.0,0.0,185.8624107142856,70.0,0.0,255.0,0.0
15.60000000000008,35.697782048741956,51.26852742492409,1319.9994362089783,-6.898589293768964e-05,-2.104821430748416e-05,0.0,-5.684341886080801e-13,-1.1368683772161603e-12,0.0,185.78999999999988,70.0,0.0,255.0,0.0
15.65000000000008,35.69777851425792,51.26852671278646,1319.999436341226,-6.898589288084622e-05,-2.104821430748416e-05,0.0,1.1368683772161603e-12,1.1368683772161603e-12,0.0,185.71758928571418,70.0,0.0,255.0,0.0
15.700000000000081,35.69777498012473,51.26852600078053,1319.9994364771992,-6.89858928240028e-05,-2.104821419379732e-05,0.0,5.684341886080801e-13,0.0,0.0,185.64517857142846,70.0,0.0,255.0,0.0
15.750000000000082,35.69777144634253,51.268525288905735,1319.9994366085157,-6.89858928240028e-05,-2.104821430748416e-05,0.0,0.0,-2.2737367544323206e-12,0.0,185.57276785714274,70.0,0.0,255.0,0.0
15.800000000000082,35.69776791291146,51.268524577161536,1319.99943674542,-6.89858928240028e-05,-2.1048214421170997e-05,0.0,-5.684341886080801e-13,0.0,0.0,185.50035714285704,70.0,0.0,255.0,0.0
15.850000000000083,35.697764379831646,51.26852386554739,1319.9994368832558,-6.898589288084622e-05,-2.104821430748416e-05,0.0,0.0,2.2737367544323206e-12,0.0,185.42794642857132,70.0,0.0,255.0,0.0
15.900000000000084,35.69776084710323,51.26852315406276,1319.9994370201603,-6.89858928240028e-05,-2.104821419379732e-05,0.0,0.0,0.0,0.0,185.3555357142856,70.0,0.0,255.0,0.0
15.950000000000085,35.69775731472633,51.268522442707095,1319.9994371598586,-6.898589288084622e-05,-2.104821430748416e-05,0.0,-1.1368683772161603e-12,-1.1368683772161603e-12,0.0,185.28312499999987,70.0,0.0,255.0,0.0
16.000000000000085,35.697753782701106,51.26852173147983,1319.9994373004884,-6.898589293768964e-05,-2.104821430748416e-05,0.0,5.684341886080801e-13,0.0,0.0,185.21071428571418,70.0,0.0,255.0,0.0
16.050000000000086,35.69775025102766,51.26852102038046,1319.999437443912,-6.89858928240028e-05,-2.104821430748416e-05,0.0,1.1368683772161603e-12,0.0,0.0,185.13830357142845,70.0,0.0,255.0,0.0
16.100000000000087,35.69774671970614,51.268520309408416,1319.999437588267,-6.89858928240028e-05,-2.104821430748416e-05,0.0,0.0,1.1368683772161603e-12,0.0,185.06589285714273,70.0,0.0,255.0,0.0
16.150000000000087,35.69774318873669,51.26851959856315,1319.9994377316907,-6.89858928240028e-05,-2.104821419379732e-05,0.0,0.0,0.0,0.0,184.99348214285703,70.0,0.0,255.0,0.0
16.200000000000088,35.69773965811941,51.26851888784414,1319.9994378779083,-6.89858928240028e-05,-2.104821430748416e-05,0.0,-1.1368683772161603e-12,-1.1368683772161603e-12,0.0,184.9210714285713,70.0,0.0,255.0,0.0
16.25000000000009,35.69773612785445,51.268518177250805,1319.9994380250573,-6.898589293768964e-05,-2.104821430748416e-05,0.0,-5.684341886080801e-13,1.1368683772161603e-12,0.0,184.8486607142856,70.0,0.0,255.0,0.0
16.30000000000009,35.69773259794193,51.26851746678262,1319.999438171275,-6.898589288084622e-05,-2.104821419379732e-05,0.0,1.1368683772161603e-12,0.0,0.0,184.77624999999986,70.0,0.0,255.0,0.0
16.35000000000009,35.69772906838199,51.268516756439034,1319.9994383230805,-6.89858928240028e-05,-2.104821430748416e-05,0.0,0.0,-1.1368683772161603e-12,0.0,184.70383928571417,70.0,0.0,255.0,0.0
16.40000000000009,35.69772553917475,51.2685160462195,1319.9994384739548,-6.898589288084622e-05,-2.104821430748416e-05,0.0,0.0,0.0,0.0,184.63142857142844,70.0,0.0,255.0,0.0
16.45000000000009,35.69772201032033,51.26851533612348,1319.999438624829,-6.89858928240028e-05,-2.104821430748416e-05,0.0,5.684341886080801e-13,0.0,0.0,184.55901785714272,70.0,0.0,255.0,0.0
16.500000000000092,35.69771848181888,51.26851462615042,1319.9994387784973,-6.89858928240028e-05,-2.104821430748416e-05,0.0,-1.1368683772161603e-12,1.1368683772161603e-12,0.0,184.48660714285703,70.0,0.0,255.0,0.0
16.550000000000093,35.697714953670506,51.26851391629977,1319.9994389330968,-6.898589293768964e-05,-2.104821419379732e-05,0.0,-5.684341886080801e-13,0.0,0.0,184.4141964285713,70.0,0.0,255.0,0.0
16.600000000000094,35.69771142587533,51.268513206570994,1319.9994390886277,-6.898589288084622e-05,-2.104821430748416e-05,0.0,1.1368683772161603e-12,-2.2737367544323206e-12,0.0,184.34178571428558,70.0,0.0,255.0,0.0
16.650000000000095,35.697707898433514,51.268512496963524,1319.99943924509,-6.89858928240028e-05,-2.1048214421170997e-05,0.0,5.684341886080801e-13,0.0,0.0,184.26937499999985,70.0,0.0,255.0,0.0
16.700000000000095,35.69770437134513,51.26851178747683,1319.999439404346,-6.89858928240028e-05,-2.104821430748416e-05,0.0,0.0,2.2737367544323206e-12,0.0,184.19696428571416,70.0,0.0,255.0,0.0
16.750000000000096,35.697700844610345,51.26851107811038,1319.9994395636022,-6.89858928240028e-05,-2.104821419379732e-05,0.0,-5.684341886080801e-13,0.0,0.0,184.12455357142844,70.0,0.0,255.0,0.0
16.800000000000097,35.69769731822927,51.26851036886358,1319.9994397228584,-6.898589288084622e-05,-2.104821430748416e-05,0.0,0.0,-1.1368683772161603e-12,0.0,184.0521428571427,70.0,0.0,255.0,0.0
16.850000000000097,35.69769379220201,51.268509659735926,1319.9994398839772,-6.89858928240028e-05,-2.104821430748416e-05,0.0,0.0,1.1368683772161603e-12,0.0,183.97973214285702,70.0,0.0,255.0,0.0
16.900000000000098,35.69769026652872,51.26850895072685,1319.9994400469586,-6.898589288084622e-05,-2.104821419379732e-05,0.0,-1.1368683772161603e-12,0.0,0.0,183.9073214285713,70.0,0.0,255.0,0.0
16.9500000000001,35.69768674120948,51.2685082418358,1319.9994402108714,-6.898589293768964e-05,-2.104821430748416e-05,0.0,5.684341886080801e-13,-1.1368683772161603e-12,0.0,183.83491071428557,70.0,0.0,255.0,0.0
17.0000000000001,35.69768321624446,51.26850753306222,1319.9994403757155,-6.89858928240028e-05,-2.104821430748416e-05,0.0,1.1368683772161603e-12,0.0,0.0,183.76249999999987,70.0,0.0,255.0,0.0
17.0500000000001,35.69767969163374,51.2685068244056,1319.999440541491,-6.89858928240028e-05,-2.104821430748416e-05,0.0,-5.684341886080801e-13,0.0,0.0,183.69008928571415,70.0,0.0,255.0,0.0
17.1000000000001,35.69767616737746,51.26850611586534,1319.9994407100603,-6.898589288084622e-05,-2.104821430748416e-05,0.0,0.0,1.1368683772161603e-12,0.0,183.61767857142843,70.0,0.0,255.0,0.0
17.1500000000001,35.69767264347574,51.268505407440934,1319.9994408786297,-6.89858928240028e-05,-2.104821419379732e-05,0.0,0.0,0.0,0.0,183.5452678571427,70.0,0.0,255.0,0.0
17.200000000000102,35.697669119928705,51.2685046991318,1319.999441047199,-6.898589288084622e-05,-2.104821430748416e-05,0.0,-5.684341886080801e-13,-1.1368683772161603e-12,0.0,183.472857142857,70.0,0.0,255.0,0.0
17.250000000000103,35.69766559673645,51.26850399093742,1319.9994412194937,-6.898589288084622e-05,-2.104821430748416e-05,0.0,5.684341886080801e-13,0.0,0.0,183.40044642857129,70.0,0.0,255.0,0.0
17.300000000000104,35.69766207389912,51.26850328285722,1319.999441390857,-6.89858928240028e-05,-2.104821430748416e-05,0.0,0.0,0.0,0.0,183.32803571428556,70.0,0.0,255.0,0.0
17.350000000000104,35.697658551416815,51.26850257489064,1319.9994415631518,-6.898589288084622e-05,-2.104821430748416e-05,0.0,0.0,1.1368683772161603e-12,0.0,183.25562499999984,70.0,0.0,255.0,0.0
17.400000000000105,35.697655029289656,51.26850186703716,1319.999441737309,-6.89858928240028e-05,-2.104821419379732e-05,0.0,5.684341886080801e-13,0.0,0.0,183.18321428571414,70.0,0.0,255.0,0.0
17.450000000000106,35.69765150751776,51.26850115929622,1319.9994419123977,-6.89858928240028e-05,-2.104821430748416e-05,0.0,-1.1368683772161603e-12,-1.1368683772161603e-12,0.0,183.11080357142842,70.0,0.0,255.0,0.0
17.500000000000107,35.697647986101245,51.26850045166726,1319.999442089349,-6.898589293768964e-05,-2.104821430748416e-05,0.0,-5.684341886080801e-13,1.1368683772161603e-12,0.0,183.0383928571427,70.0,0.0,255.0,0.0
17.550000000000107,35.69764446504021,51.268499744149736,1319.9994422663003,-6.898589288084622e-05,-2.104821419379732e-05,0.0,1.1368683772161603e-12,0.0,0.0,182.965982142857,70.0,0.0,255.0,0.0
17.600000000000108,35.69764094433481,51.26849903674311,1319.9994424460456,-6.89858928240028e-05,-2.104821430748416e-05,0.0,5.684341886080801e-13,-2.2737367544323206e-12,0.0,182.89357142857128,70.0,0.0,255.0,0.0
17.65000000000011,35.697637423985114,51.2684983294468,1319.9994426239282,-6.89858928240028e-05,-2.1048214421170997e-05,0.0,0.0,0.0,0.0,182.82116071428555,70.0,0.0,255.0,0.0
17.70000000000011,35.69763390399126,51.26849762226026,1319.999442805536,-6.89858928240028e-05,-2.104821430748416e-05,0.0,-5.684341886080801e-13,2.2737367544323206e-12,0.0,182.74874999999986,70.0,0.0,255.0,0.0
17.75000000000011,35.697630384353346,51.268496915182965,1319.9994429880753,-6.898589288084622e-05,-2.104821419379732e-05,0.0,0.0,1.1368683772161603e-12,0.0,182.67633928571414,70.0,0.0,255.0,0.0
17.80000000000011,35.697626865071506,51.26849620821435,1319.9994431706145,-6.89858928240028e-05,-2.104821419379732e-05,0.0,0.0,-1.1368683772161603e-12,0.0,182.6039285714284,70.0,0.0,255.0,0.0
17.85000000000011,35.69762334614583,51.26849550135387,1319.999443354085,-6.898589288084622e-05,-2.104821430748416e-05,0.0,-1.1368683772161603e-12,-2.2737367544323206e-12,0.0,182.5315178571427,70.0,0.0,255.0,0.0
17.900000000000112,35.697619827576446,51.26849479460095,1319.999443538487,-6.898589293768964e-05,-2.1048214421170997e-05,0.0,5.684341886080801e-13,0.0,0.0,182.459107142857,70.0,0.0,255.0,0.0
17.950000000000113,35.69761630936346,51.26849408795505,1319.9994437247515,-6.89858928240028e-05,-2.104821430748416e-05,0.0,1.1368683772161603e-12,2.2737367544323206e-12,0.0,182.38669642857127,70.0,0.0,255.0,0.0
18.000000000000114,35.69761279150697,51.26849338141564,1319.999443911016,-6.89858928240028e-05,-2.104821419379732e-05,0.0,-5.684341886080801e-13,0.0,0.0,182.31428571428555,70.0,0.0,255.0,0.0
18.050000000000114,35.69760927400711,51.268492674982134,1319.9994441000745,-6.898589288084622e-05,-2.104821430748416e-05,0.0,0.0,-1.1368683772161603e-12,0.0,182.24187499999985,70.0,0.0,255.0,0.0
18.100000000000115,35.69760575686395,51.26849196865399,1319.9994442872703,-6.89858928240028e-05,-2.104821430748416e-05,0.0,0.0,1.1368683772161603e-12,0.0,182.16946428571413,70.0,0.0,255.0,0.0
18.150000000000116,35.69760224007764,51.26849126243067,1319.9994444791228,-6.898589288084622e-05,-2.104821419379732e-05,0.0,-5.684341886080801e-13,0.0,0.0,182.0970535714284,70.0,0.0,255.0,0.0
18.200000000000117,35.69759872364826,51.26849055631161,1319.9994446691126,-6.898589288084622e-05,-2.104821430748416e-05,0.0,5.684341886080801e-13,-1.1368683772161603e-12,0.0,182.02464285714268,70.0,0.0,255.0,0.0
18.250000000000117,35.69759520757594,51.26848985029625,1319.9994448618963,-6.89858928240028e-05,-2.104821430748416e-05,0.0,0.0,0.0,0.0,181.95223214285699,70.0,0.0,255.0,0.0
18.300000000000118,35.69759169186076,51.26848914438404,1319.99944505468,-6.898589288084622e-05,-2.104821430748416e-05,0.0,0.0,0.0,0.0,181.87982142857126,70.0,0.0,255.0,0.0
18.35000000000012,35.69758817650285,51.26848843857444,1319.9994452502578,-6.89858928240028e-05,-2.104821430748416e-05,0.0,5.684341886080801e-13,1.1368683772161603e-12,0.0,181.80741071428554,70.0,0.0,255.0,0.0
18.40000000000012,35.69758466150231,51.26848773286688,1319.9994454449043,-6.89858928240028e-05,-2.104821419379732e-05,0.0,-1.1368683772161603e-12,0.0,0.0,181.73499999999984,70.0,0.0,255.0,0.0
18.45000000000012,35.69758114685923,51.268487027260825,1319.999445640482,-6.898589293768964e-05,-2.104821430748416e-05,0.0,-5.684341886080801e-13,-2.2737367544323206e-12,0.0,181.66258928571412,70.0,0.0,255.0,0.0
18.50000000000012,35.69757763257371,51.26848632175569,1319.999445839785,-6.898589288084622e-05,-2.1048214421170997e-05,0.0,1.1368683772161603e-12,0.0,0.0,181.5901785714284,70.0,0.0,255.0,0.0
18.55000000000012,35.69757411864589,51.26848561635095,1319.999446036294,-6.89858928240028e-05,-2.104821430748416e-05,0.0,0.0,2.2737367544323206e-12,0.0,181.51776785714267,70.0,0.0,255.0,0.0
18.600000000000122,35.69757060507585,51.26848491104604,1319.9994462365285,-6.898589288084622e-05,-2.104821419379732e-05,0.0,0.0,1.1368683772161603e-12,0.0,181.44535714285698,70.0,0.0,255.0,0.0
18.650000000000123,35.69756709186369,51.26848420584041,1319.9994464358315,-6.89858928240028e-05,-2.104821419379732e-05,0.0,5.684341886080801e-13,-1.1368683772161603e-12,0.0,181.37294642857125,70.0,0.0,255.0,0.0
18.700000000000124,35.69756357900953,51.268483500733495,1319.9994466369972,-6.89858928240028e-05,-2.104821430748416e-05,0.0,0.0,-1.1368683772161603e-12,0.0,181.30053571428553,70.0,0.0,255.0,0.0
18.750000000000124,35.69756006651344,51.26848279572474,1319.9994468381628,-6.89858928240028e-05,-2.104821430748416e-05,0.0,-5.684341886080801e-13,1.1368683772161603e-12,0.0,181.22812499999984,70.0,0.0,255.0,0.0
18.800000000000125,35.69755655437555,51.268482090813606,1319.9994470430538,-6.898589288084622e-05,-2.104821419379732e-05,0.0,-1.1368683772161603e-12,0.0,0.0,181.1557142857141,70.0,0.0,255.0,0.0
18.850000000000126,35.69755304259594,51.268481385999536,1319.9994472479448,-6.898589293768964e-05,-2.104821430748416e-05,0.0,5.684341886080801e-13,-2.2737367544323206e-12,0.0,181.0833035714284,70.0,0.0,255.0,0.0
18.900000000000126,35.69754953117472,51.268480681281964,1319.9994474519044,-6.89858928240028e-05,-2.1048214421170997e-05,0.0,1.1368683772161603e-12,0.0,0.0,181.01089285714266,70.0,0.0,255.0,0.0
18.950000000000127,35.69754602011201,51.268479976660316,1319.9994476549327,-6.89858928240028e-05,-2.104821430748416e-05,0.0,-5.684341886080801e-13,2.2737367544323206e-12,0.0,180.93848214285697,70.0,0.0,255.0,0.0
19.000000000000128,35.69754250940785,51.26847927213409,1319.9994478626177,-6.898589288084622e-05,-2.104821419379732e-05,0.0,0.0,0.0,0.0,180.86607142857125,70.0,0.0,255.0,0.0
19.05000000000013,35.6975389990624,51.26847856770268,1319.9994480721653,-6.89858928240028e-05,-2.104821430748416e-05,0.0,0.0,-1.1368683772161603e-12,0.0,180.79366071428552,70.0,0.0,255.0,0.0
19.10000000000013,35.69753548907573,51.26847786336555,1319.9994482817128,-6.898589288084622e-05,-2.104821430748416e-05,0.0,-5.684341886080801e-13,0.0,0.0,180.72124999999983,70.0,0.0,255.0,0.0
19.15000000000013,35.697531979447945,51.26847715912215,1319.9994484921917,-6.898589288084622e-05,-2.104821430748416e-05,0.0,5.684341886080801e-13,0.0,0.0,180.6488392857141,70.0,0.0,255.0,0.0
19.20000000000013,35.69752847017913,51.26847645497191,1319.9994487017393,-6.89858928240028e-05,-2.104821430748416e-05,0.0,0.0,1.1368683772161603e-12,0.0,180.57642857142838,70.0,0.0,255.0,0.0
19.25000000000013,35.69752496126938,51.268475750914284,1319.999448911287,-6.898589288084622e-05,-2.104821419379732e-05,0.0,0.0,0.0,0.0,180.50401785714268,70.0,0.0,255.0,0.0
19.300000000000132,35.6975214527188,51.26847504694872,1319.9994491245598,-6.89858928240028e-05,-2.104821430748416e-05,0.0,5.684341886080801e-13,-1.1368683772161603e-12,0.0,180.43160714285696,70.0,0.0,255.0,0.0
19.350000000000133,35.69751794452749,51.268474343074644,1319.999449338764,-6.89858928240028e-05,-2.104821430748416e-05,0.0,-1.1368683772161603e-12,1.1368683772161603e-12,0.0,180.35919642857124,70.0,0.0,255.0,0.0
19.400000000000134,35.69751443669553,51.268473639291514,1319.9994495529681,-6.898589293768964e-05,-2.104821419379732e-05,0.0,-5.684341886080801e-13,0.0,0.0,180.28678571428551,70.0,0.0,255.0,0.0
19.450000000000134,35.697510929223014,51.26847293559878,1319.9994497653097,-6.898589288084622e-05,-2.104821430748416e-05,0.0,1.1368683772161603e-12,-1.1368683772161603e-12,0.0,180.21437499999982,70.0,0.0,255.0,0.0
19.500000000000135,35.69750742211005,51.26847223199586,1319.9994499813765,-6.89858928240028e-05,-2.104821430748416e-05,0.0,0.0,0.0,0.0,180.1419642857141,70.0,0.0,255.0,0.0
19.550000000000136,35.697503915356705,51.26847152848222,1319.999450199306,-6.898589288084622e-05,-2.104821430748416e-05,0.0,0.0,0.0,0.0,180.06955357142837,70.0,0.0,255.0,0.0
19.600000000000136,35.6975004089631,51.26847082505727,1319.9994504181668,-6.89858928240028e-05,-2.104821430748416e-05,0.0,5.684341886080801e-13,1.1368683772161603e-12,0.0,179.99714285714265,70.0,0.0,255.0,0.0
19.650000000000137,35.69749690292931,51.26847012172049,1319.999450637959,-6.89858928240028e-05,-2.104821419379732e-05,0.0,0.0,0.0,0.0,179.92473214285695,70.0,0.0,255.0,0.0
19.700000000000138,35.69749339725543,51.26846941847131,1319.999450854957,-6.89858928240028e-05,-2.104821430748416e-05,0.0,-5.684341886080801e-13,-2.2737367544323206e-12,0.0,179.85232142857123,70.0,0.0,255.0,0.0
19.75000000000014,35.697489891941544,51.268468715309176,1319.9994510775432,-6.898589288084622e-05,-2.1048214421170997e-05,0.0,-1.1368683772161603e-12,0.0,0.0,179.7799107142855,70.0,0.0,255.0,0.0
19.80000000000014,35.697486386987755,51.26846801223351,1319.999451296404,-6.898589293768964e-05,-2.104821430748416e-05,0.0,5.684341886080801e-13,2.2737367544323206e-12,0.0,179.7074999999998,70.0,0.0,255.0,0.0
19.85000000000014,35.69748288239412,51.268467309243775,1319.9994515199214,-6.89858928240028e-05,-2.104821419379732e-05,0.0,1.1368683772161603e-12,0.0,0.0,179.6350892857141,70.0,0.0,255.0,0.0
19.90000000000014,35.69747937816077,51.26846660633941,1319.9994517425075,-6.89858928240028e-05,-2.104821430748416e-05,0.0,-5.684341886080801e-13,-1.1368683772161603e-12,0.0,179.56267857142836,70.0,0.0,255.0,0.0
19.95000000000014,35.69747587428777,51.26846590351985,1319.9994519669563,-6.898589288084622e-05,-2.104821430748416e-05,0.0,0.0,1.1368683772161603e-12,0.0,179.49026785714267,70.0,0.0,255.0,0.0
20.000000000000142,35.6974723707752,51.26846520078454,1319.9994521895424,-6.89858928240028e-05,-2.104821419379732e-05,0.0,0.0,0.0,0.0,179.41785714285695,70.0,0.0,255.0,0.0
20.050000000000143,35.69746886762317,51.268464498132936,1319.9994524149224,-6.898589288084622e-05,-2.104821430748416e-05,0.0,-1.1368683772161603e-12,-1.1368683772161603e-12,0.0,179.34544642857122,70.0,0.0,255.0,0.0
20.100000000000144,35.69746536483175,51.26846379556444,1319.9994526421651,-6.898589293768964e-05,-2.104821430748416e-05,0.0,5.684341886080801e-13,0.0,0.0,179.2730357142855,70.0,0.0,255.0,0.0
20.150000000000144,35.69746186240102,51.26846309307853,1319.9994528684765,-6.89858928240028e-05,-2.104821430748416e-05,0.0,1.1368683772161603e-12,0.0,0.0,179.2006249999998,70.0,0.0,255.0,0.0
20.200000000000145,35.69745836033108,51.26846239067463,1319.9994530957192,-6.89858928240028e-05,-2.104821430748416e-05,0.0,0.0,1.1368683772161603e-12,0.0,179.12821428571408,70.0,0.0,255.0,0.0
20.250000000000146,35.69745485862199,51.26846168835219,1319.999453325756,-6.89858928240028e-05,-2.104821419379732e-05,0.0,0.0,0.0,0.0,179.05580357142836,70.0,0.0,255.0,0.0
20.300000000000146,35.69745135727387,51.268460986110654,1319.9994535548612,-6.89858928240028e-05,-2.104821430748416e-05,0.0,-1.1368683772161603e-12,-1.1368683772161603e-12,0.0,178.98339285714266,70.0,0.0,255.0,0.0
20.350000000000147,35.69744785628678,51.268460283949445,1319.9994537858292,-6.898589293768964e-05,-2.104821430748416e-05,0.0,-5.684341886080801e-13,0.0,0.0,178.91098214285694,70.0,0.0,255.0,0.0
20.400000000000148,35.6974443556608,51.26845958186802,1319.999454015866,-6.898589288084622e-05,-2.104821430748416e-05,0.0,1.1368683772161603e-12,0.0,0.0,178.8385714285712,70.0,0.0,255.0,0.0
20.45000000000015,35.69744085539604,51.268458879865804,1319.999454246834,-6.89858928240028e-05,-2.104821430748416e-05,0.0,0.0,1.1368683772161603e-12,0.0,178.7661607142855,70.0,0.0,255.0,0.0
20.50000000000015,35.69743735549253,51.26845817794226,1319.9994544815272,-6.898589288084622e-05,-2.104821419379732e-05,0.0,0.0,0.0,0.0,178.6937499999998,70.0,0.0,255.0,0.0
20.55000000000015,35.69743385595039,51.2684574760968,1319.9994547134265,-6.89858928240028e-05,-2.104821430748416e-05,0.0,5.684341886080801e-13,-1.1368683772161603e-12,0.0,178.62133928571407,70.0,0.0,255.0,0.0
20.60000000000015,35.697430356769694,51.26845677432889,1319.9994549471885,-6.89858928240028e-05,-2.104821430748416e-05,0.0,0.0,1.1368683772161603e-12,0.0,178.54892857142835,70.0,0.0,255.0,0.0
20.65000000000015,35.697426857950525,51.26845607263795,1319.9994551818818,-6.89858928240028e-05,-2.104821419379732e-05,0.0,-5.684341886080801e-13,0.0,0.0,178.47651785714265,70.0,0.0,255.0,0.0
20.700000000000152,35.69742335949295,51.26845537102346,1319.9994554184377,-6.898589288084622e-05,-2.104821430748416e-05,0.0,-1.1368683772161603e-12,-2.2737367544323206e-12,0.0,178.40410714285693,70.0,0.0,255.0,0.0
20.750000000000153,35.69741986139706,51.2684546694848,1319.9994556540623,-6.898589293768964e-05,-2.1048214421170997e-05,0.0,5.684341886080801e-13,0.0,0.0,178.3316964285712,70.0,0.0,255.0,0.0
20.800000000000153,35.69741636366291,51.268453968021426,1319.9994558915496,-6.89858928240028e-05,-2.104821430748416e-05,0.0,1.1368683772161603e-12,2.2737367544323206e-12,0.0,178.25928571428548,70.0,0.0,255.0,0.0
20.850000000000154,35.697412866290605,51.26845326663281,1319.9994561299682,-6.89858928240028e-05,-2.104821419379732e-05,0.0,-5.684341886080801e-13,0.0,0.0,178.1868749999998,70.0,0.0,255.0,0.0
20.900000000000155,35.6974093692802,51.26845256531837,1319.9994563683867,-6.898589288084622e-05,-2.104821430748416e-05,0.0,0.0,-1.1368683772161603e-12,0.0,178.11446428571406,70.0,0.0,255.0,0.0
20.950000000000156,35.697405872631805,51.26845186407753,1319.9994566077366,-6.89858928240028e-05,-2.104821430748416e-05,0.0,0.0,0.0,0.0,178.04205357142834,70.0,0.0,255.0,0.0
21.000000000000156,35.69740237634545,51.26845116290977,1319.9994568470865,-6.898589288084622e-05,-2.104821430748416e-05,0.0,-1.1368683772161603e-12,0.0,0.0,177.96964285714265,70.0,0.0,255.0,0.0
21.050000000000157,35.69739888042124,51.26845046181449,1319.999457088299,-6.898589293768964e-05,-2.104821430748416e-05,0.0,5.684341886080801e-13,1.1368683772161603e-12,0.0,177.89723214285692,70.0,0.0,255.0,0.0
21.100000000000158,35.69739538485924,51.268449760791135,1319.999457330443,-6.89858928240028e-05,-2.104821419379732e-05,0.0,1.1368683772161603e-12,0.0,0.0,177.8248214285712,70.0,0.0,255.0,0.0
21.15000000000016,35.69739188965953,51.26844905983916,1319.9994575725868,-6.89858928240028e-05,-2.104821430748416e-05,0.0,0.0,-1.1368683772161603e-12,0.0,177.75241071428547,70.0,0.0,255.0,0.0
21.20000000000016,35.69738839482217,51.268448358958004,1319.9994578147307,-6.89858928240028e-05,-2.104821430748416e-05,0.0,0.0,1.1368683772161603e-12,0.0,177.67999999999978,70.0,0.0,255.0,0.0
21.25000000000016,35.697384900347245,51.268447658147096,1319.999458057806,-6.89858928240028e-05,-2.104821419379732e-05,0.0,-1.1368683772161603e-12,0.0,0.0,177.60758928571406,70.0,0.0,255.0,0.0
21.30000000000016,35.69738140623483,51.268446957405864,1319.999458303675,-6.898589293768964e-05,-2.104821430748416e-05,0.0,-5.684341886080801e-13,-1.1368683772161603e-12,0.0,177.53517857142833,70.0,0.0,255.0,0.0
21.35000000000016,35.69737791248498,51.26844625673375,1319.999458548613,-6.898589288084622e-05,-2.104821430748416e-05,0.0,1.1368683772161603e-12,0.0,0.0,177.46276785714264,70.0,0.0,255.0,0.0
21.400000000000162,35.6973744190978,51.26844555613023,1319.9994587935507,-6.89858928240028e-05,-2.104821430748416e-05,0.0,0.0,0.0,0.0,177.3903571428569,70.0,0.0,255.0,0.0
21.450000000000163,35.69737092607332,51.26844485559469,1319.9994590403512,-6.898589288084622e-05,-2.104821430748416e-05,0.0,0.0,1.1368683772161603e-12,0.0,177.3179464285712,70.0,0.0,255.0,0.0
21.500000000000163,35.69736743341161,51.26844415512659,1319.9994592862204,-6.89858928240028e-05,-2.104821419379732e-05,0.0,5.684341886080801e-13,0.0,0.0,177.2455357142855,70.0,0.0,255.0,0.0
21.550000000000164,35.697363941112776,51.26844345472538,1319.9994595348835,-6.89858928240028e-05,-2.104821430748416e-05,0.0,0.0,-2.2737367544323206e-12,0.0,177.17312499999977,70.0,0.0,255.0,0.0
21.600000000000165,35.697360449176855,51.26844275439047,1319.9994597826153,-6.89858928240028e-05,-2.1048214421170997e-05,0.0,-5.684341886080801e-13,0.0,0.0,177.10071428571405,70.0,0.0,255.0,0.0
21.650000000000166,35.69735695760395,51.26844205412133,1319.999460033141,-6.898589288084622e-05,-2.104821430748416e-05,0.0,-1.1368683772161603e-12,2.2737367544323206e-12,0.0,177.02830357142832,70.0,0.0,255.0,0.0
21.700000000000166,35.69735346639409,51.26844135391737,1319.9994602818042,-6.898589293768964e-05,-2.104821419379732e-05,0.0,5.684341886080801e-13,0.0,0.0,176.95589285714263,70.0,0.0,255.0,0.0
21.750000000000167,35.697349975547354,51.268440653778036,1319.99946053233,-6.89858928240028e-05,-2.104821430748416e-05,0.0,1.1368683772161603e-12,-1.1368683772161603e-12,0.0,176.8834821428569,70.0,0.0,255.0,0.0
21.800000000000168,35.697346485063825,51.26843995370277,1319.9994607828557,-6.89858928240028e-05,-2.104821430748416e-05,0.0,-5.684341886080801e-13,1.1368683772161603e-12,0.0,176.81107142857118,70.0,0.0,255.0,0.0
21.85000000000017,35.69734299494353,51.268439253691014,1319.9994610343128,-6.898589288084622e-05,-2.104821419379732e-05,0.0,0.0,1.1368683772161603e-12,0.0,176.73866071428546,70.0,0.0,255.0,0.0
21.90000000000017,35.69733950518658,51.268438553742186,1319.99946128577,-6.89858928240028e-05,-2.104821419379732e-05,0.0,0.0,-1.1368683772161603e-12,0.0,176.66624999999976,70.0,0.0,255.0,0.0
21.95000000000017,35.69733601579301,51.26843785385576,1319.9994615409523,-6.898589288084622e-05,-2.104821430748416e-05,0.0,-1.1368683772161603e-12,-2.2737367544323206e-12,0.0,176.59383928571404,70.0,0.0,255.0,0.0
22.00000000000017,35.69733252676291,51.26843715403111,1319.999461791478,-6.898589293768964e-05,-2.1048214421170997e-05,0.0,5.684341886080801e-13,0.0,0.0,176.52142857142832,70.0,0.0,255.0,0.0
22.05000000000017,35.69732903809631,51.26843645426773,1319.9994620457292,-6.89858928240028e-05,-2.104821430748416e-05,0.0,1.1368683772161603e-12,2.2737367544323206e-12,0.0,176.44901785714262,70.0,0.0,255.0,0.0
22.100000000000172,35.69732554979329,51.26843575456505,1319.9994623009115,-6.89858928240028e-05,-2.104821419379732e-05,0.0,0.0,0.0,0.0,176.3766071428569,70.0,0.0,255.0,0.0
22.150000000000173,35.69732206185392,51.26843505492247,1319.9994625570253,-6.89858928240028e-05,-2.104821430748416e-05,0.0,0.0,-1.1368683772161603e-12,0.0,176.30419642857117,70.0,0.0,255.0,0.0
22.200000000000173,35.697318574278235,51.26843435533946,1319.9994628122076,-6.89858928240028e-05,-2.104821430748416e-05,0.0,-1.1368683772161603e-12,0.0,0.0,176.23178571428548,70.0,0.0,255.0,0.0
22.250000000000174,35.697315087066336,51.26843365581546,1319.9994630692527,-6.898589293768964e-05,-2.104821430748416e-05,0.0,-5.684341886080801e-13,0.0,0.0,176.15937499999976,70.0,0.0,255.0,0.0
22.300000000000175,35.69731160021825,51.268432956349876,1319.999463327229,-6.898589288084622e-05,-2.104821430748416e-05,0.0,1.1368683772161603e-12,1.1368683772161603e-12,0.0,176.08696428571403,70.0,0.0,255.0,0.0
22.350000000000176,35.69730811373406,51.268432256942155,1319.999463584274,-6.89858928240028e-05,-2.104821419379732e-05,0.0,0.0,0.0,0.0,176.0145535714283,70.0,0.0,255.0,0.0
22.400000000000176,35.69730462761381,51.26843155759177,1319.9994638431817,-6.898589288084622e-05,-2.104821430748416e-05,0.0,0.0,-1.1368683772161603e-12,0.0,175.9421428571426,70.0,0.0,255.0,0.0
22.450000000000177,35.697301141857565,51.268430858298096,1319.9994641002268,-6.89858928240028e-05,-2.104821430748416e-05,0.0,5.684341886080801e-13,1.1368683772161603e-12,0.0,175.8697321428569,70.0,0.0,255.0,0.0
22.500000000000178,35.69729765646539,51.268430159060614,1319.999464360997,-6.89858928240028e-05,-2.104821419379732e-05,0.0,-1.1368683772161603e-12,0.0,0.0,175.79732142857117,70.0,0.0,255.0,0.0
22.55000000000018,35.69729417143731,51.268429459878746,1319.9994646199048,-6.898589293768964e-05,-2.104821430748416e-05,0.0,-5.684341886080801e-13,-2.2737367544323206e-12,0.0,175.72491071428547,70.0,0.0,255.0,0.0
22.60000000000018,35.69729068677343,51.268428760751924,1319.9994648797438,-6.898589288084622e-05,-2.1048214421170997e-05,0.0,1.1368683772161603e-12,0.0,0.0,175.65249999999975,70.0,0.0,255.0,0.0
22.65000000000018,35.69728720247377,51.2684280616796,1319.999465140514,-6.89858928240028e-05,-2.104821430748416e-05,0.0,5.684341886080801e-13,2.2737367544323206e-12,0.0,175.58008928571402,70.0,0.0,255.0,0.0
22.70000000000018,35.69728371853841,51.268427362661185,1319.9994654040784,-6.89858928240028e-05,-2.104821419379732e-05,0.0,0.0,1.1368683772161603e-12,0.0,175.5076785714283,70.0,0.0,255.0,0.0
22.75000000000018,35.69728023496738,51.26842666369613,1319.99946566578,-6.89858928240028e-05,-2.104821419379732e-05,0.0,-5.684341886080801e-13,-1.1368683772161603e-12,0.0,175.4352678571426,70.0,0.0,255.0,0.0
22.800000000000182,35.697276751760754,51.26842596478387,1319.9994659274817,-6.898589288084622e-05,-2.104821430748416e-05,0.0,0.0,-2.2737367544323206e-12,0.0,175.36285714285688,70.0,0.0,255.0,0.0
22.850000000000183,35.69727326891858,51.26842526592383,1319.9994661901146,-6.89858928240028e-05,-2.1048214421170997e-05,0.0,0.0,0.0,0.0,175.29044642857116,70.0,0.0,255.0,0.0
22.900000000000183,35.697269786440934,51.26842456711546,1319.9994664527476,-6.898589288084622e-05,-2.104821430748416e-05,0.0,-1.1368683772161603e-12,2.2737367544323206e-12,0.0,175.21803571428546,70.0,0.0,255.0,0.0
22.950000000000184,35.69726630432782,51.268423868358184,1319.9994667181745,-6.898589293768964e-05,-2.104821419379732e-05,0.0,5.684341886080801e-13,0.0,0.0,175.14562499999974,70.0,0.0,255.0,0.0
23.000000000000185,35.697262822579326,51.26842316965144,1319.9994669836015,-6.89858928240028e-05,-2.104821430748416e-05,0.0,1.1368683772161603e-12,-1.1368683772161603e-12,0.0,175.07321428571402,70.0,0.0,255.0,0.0
23.050000000000185,35.697259341195505,51.268422470994665,1319.9994672471657,-6.89858928240028e-05,-2.104821430748416e-05,0.0,0.0,1.1368683772161603e-12,0.0,175.00080357142832,70.0,0.0,255.0,0.0
23.100000000000186,35.69725586017639,51.26842177238729,1319.9994675144553,-6.89858928240028e-05,-2.104821419379732e-05,0.0,0.0,0.0,0.0,174.9283928571426,70.0,0.0,255.0,0.0
23.150000000000187,35.69725237952205,51.268421073828755,1319.999467778951,-6.89858928240028e-05,-2.104821430748416e-05,0.0,-1.1368683772161603e-12,-1.1368683772161603e-12,0.0,174.85598214285687,70.0,0.0,255.0,0.0
23.200000000000188,35.697248899232505,51.2684203753185,1319.9994680462405,-6.898589293768964e-05,-2.104821430748416e-05,0.0,-5.684341886080801e-13,0.0,0.0,174.78357142857115,70.0,0.0,255.0,0.0
23.25000000000019,35.69724541930784,51.26841967685594,1319.9994683144614,-6.898589288084622e-05,-2.104821430748416e-05,0.0,1.1368683772161603e-12,0.0,0.0,174.71116071428546,70.0,0.0,255.0,0.0
23.30000000000019,35.6972419397481,51.268418978440536,1319.9994685798883,-6.89858928240028e-05,-2.104821430748416e-05,0.0,0.0,1.1368683772161603e-12,0.0,174.63874999999973,70.0,0.0,255.0,0.0
23.35000000000019,35.69723846055332,51.2684182800717,1319.9994688481092,-6.898589288084622e-05,-2.104821419379732e-05,0.0,0.0,0.0,0.0,174.566339285714,70.0,0.0,255.0,0.0
23.40000000000019,35.69723498172354,51.26841758174888,1319.9994691172615,-6.89858928240028e-05,-2.104821430748416e-05,0.0,5.684341886080801e-13,-2.2737367544323206e-12,0.0,174.49392857142828,70.0,0.0,255.0,0.0
23.45000000000019,35.69723150325882,51.2684168834715,1319.9994693864137,-6.89858928240028e-05,-2.1048214421170997e-05,0.0,-1.1368683772161603e-12,0.0,0.0,174.4215178571426,70.0,0.0,255.0,0.0
23.500000000000192,35.6972280251592,51.268416185239005,1319.9994696564972,-6.898589293768964e-05,-2.104821430748416e-05,0.0,-5.684341886080801e-13,2.2737367544323206e-12,0.0,174.34910714285687,70.0,0.0,255.0,0.0
23.550000000000193,35.69722454742474,51.26841548705083,1319.9994699256495,-6.898589288084622e-05,-2.104821419379732e-05,0.0,1.1368683772161603e-12,1.1368683772161603e-12,0.0,174.27669642857114,70.0,0.0,255.0,0.0
23.600000000000193,35.69722107005547,51.268414788906384,1319.999470195733,-6.89858928240028e-05,-2.104821419379732e-05,0.0,5.684341886080801e-13,-1.1368683772161603e-12,0.0,174.20428571428545,70.0,0.0,255.0,0.0
23.650000000000194,35.697217593051434,51.26841409080513,1319.9994704658166,-6.89858928240028e-05,-2.104821430748416e-05,0.0,0.0,-1.1368683772161603e-12,0.0,174.13187499999972,70.0,0.0,255.0,0.0
23.700000000000195,35.6972141164127,51.2684133927465,1319.9994707377627,-6.89858928240028e-05,-2.104821430748416e-05,0.0,-5.684341886080801e-13,1.1368683772161603e-12,0.0,174.059464285714,70.0,0.0,255.0,0.0
23.750000000000195,35.697210640139275,51.268412694729925,1319.999471009709,-6.898589288084622e-05,-2.104821419379732e-05,0.0,0.0,0.0,0.0,173.9870535714283,70.0,0.0,255.0,0.0
23.800000000000196,35.69720716423124,51.26841199675482,1319.9994712825865,-6.89858928240028e-05,-2.104821430748416e-05,0.0,0.0,-2.2737367544323206e-12,0.0,173.91464285714258,70.0,0.0,255.0,0.0
23.850000000000197,35.69720368868862,51.268411298820645,1319.99947155267,-6.898589288084622e-05,-2.1048214421170997e-05,0.0,-1.1368683772161603e-12,0.0,0.0,173.84223214285686,70.0,0.0,255.0,0.0
23.900000000000198,35.697200213511444,51.268410600926806,1319.9994718264788,-6.898589293768964e-05,-2.104821430748416e-05,0.0,5.684341886080801e-13,2.2737367544323206e-12,0.0,173.76982142857113,70.0,0.0,255.0,0.0
23.9500000000002,35.69719673869976,51.26840990307278,1319.9994721002877,-6.89858928240028e-05,-2.104821419379732e-05,0.0,1.1368683772161603e-12,0.0,0.0,173.69741071428544,70.0,0.0,255.0,0.0
24.0000000000002,35.697193264253634,51.26840920525795,1319.9994723731652,-6.89858928240028e-05,-2.104821430748416e-05,0.0,-5.684341886080801e-13,-1.1368683772161603e-12,0.0,173.62499999999972,70.0,0.0,255.0,0.0
24.0500000000002,35.69718979017307,51.26840850748179,1319.999472646974,-6.898589288084622e-05,-2.104821430748416e-05,0.0,0.0,0.0,0.0,173.552589285714,70.0,0.0,255.0,0.0
24.1000000000002,35.69718631645812,51.268407809743714,1319.9994729226455,-6.89858928240028e-05,-2.104821430748416e-05,0.0,0.0,0.0,0.0,173.48017857142827,70.0,0.0,255.0,0.0
24.1500000000002,35.697182843108834,51.26840711204315,1319.999473195523,-6.898589288084622e-05,-2.104821430748416e-05,0.0,-5.684341886080801e-13,1.1368683772161603e-12,0.0,173.40776785714257,70.0,0.0,255.0,0.0
24.200000000000202,35.69717937012525,51.26840641437955,1319.9994734721258,-6.898589288084622e-05,-2.104821419379732e-05,0.0,5.684341886080801e-13,0.0,0.0,173.33535714285685,70.0,0.0,255.0,0.0
24.250000000000203,35.6971758975074,51.26840571675233,1319.9994737487286,-6.89858928240028e-05,-2.104821430748416e-05,0.0,0.0,-1.1368683772161603e-12,0.0,173.26294642857113,70.0,0.0,255.0,0.0
24.300000000000203,35.69717242525531,51.26840501916094,1319.9994740253314,-6.898589288084622e-05,-2.104821430748416e-05,0.0,0.0,1.1368683772161603e-12,0.0,173.19053571428543,70.0,0.0,255.0,0.0
24.350000000000204,35.69716895336903,51.268404321604784,1319.999474301003,-6.89858928240028e-05,-2.104821419379732e-05,0.0,5.684341886080801e-13,0.0,0.0,173.1181249999997,70.0,0.0,255.0,0.0
24.400000000000205,35.6971654818486,51.268403624083334,1319.9994745766744,-6.89858928240028e-05,-2.104821430748416e-05,0.0,-1.1368683772161603e-12,-1.1368683772161603e-12,0.0,173.04571428571398,70.0,0.0,255.0,0.0
24.450000000000205,35.69716201069404,51.26840292659599,1319.9994748523459,-6.898589293768964e-05,-2.104821430748416e-05,0.0,-5.684341886080801e-13,0.0,0.0,172.9733035714283,70.0,0.0,255.0,0.0
24.500000000000206,35.697158539905395,51.26840222914221,1319.9994751308113,-6.898589288084622e-05,-2.104821430748416e-05,0.0,1.1368683772161603e-12,0.0,0.0,172.90089285714257,70.0,0.0,255.0,0.0
24.550000000000207,35.69715506948271,51.26840153172142,1319.9994754074141,-6.89858928240028e-05,-2.104821430748416e-05,0.0,5.684341886080801e-13,1.1368683772161603e-12,0.0,172.82848214285684,70.0,0.0,255.0,0.0
24.600000000000207,35.69715159942599,51.26840083433305,1319.999475686811,-6.89858928240028e-05,-2.104821419379732e-05,0.0,0.0,0.0,0.0,172.75607142857115,70.0,0.0,255.0,0.0
24.650000000000208,35.697148129735304,51.26840013697654,1319.999475964345,-6.89858928240028e-05,-2.104821430748416e-05,0.0,-5.684341886080801e-13,-2.2737367544323206e-12,0.0,172.68366071428542,70.0,0.0,255.0,0.0
24.70000000000021,35.69714466041065,51.2683994396513,1319.9994762418792,-6.898589288084622e-05,-2.1048214421170997e-05,0.0,0.0,0.0,0.0,172.6112499999997,70.0,0.0,255.0,0.0
24.75000000000021,35.69714119145207,51.26839874235677,1319.9994765231386,-6.89858928240028e-05,-2.104821430748416e-05,0.0,0.0,2.2737367544323206e-12,0.0,172.53883928571398,70.0,0.0,255.0,0.0
24.80000000000021,35.69713772285962,51.26839804509242,1319.9994767997414,-6.898589288084622e-05,-2.104821419379732e-05,0.0,-1.1368683772161603e-12,0.0,0.0,172.46642857142828,70.0,0.0,255.0,0.0
24.85000000000021,35.6971342546333,51.26839734785763,1319.9994770810008,-6.898589293768964e-05,-2.104821430748416e-05,0.0,5.684341886080801e-13,-1.1368683772161603e-12,0.0,172.39401785714256,70.0,0.0,255.0,0.0
24.90000000000021,35.69713078677315,51.26839665065186,1319.9994773594663,-6.89858928240028e-05,-2.104821430748416e-05,0.0,1.1368683772161603e-12,1.1368683772161603e-12,0.0,172.32160714285683,70.0,0.0,255.0,0.0
24.950000000000212,35.69712731927921,51.26839595347454,1319.999477641657,-6.89858928240028e-05,-2.104821419379732e-05,0.0,-5.684341886080801e-13,0.0,0.0,172.2491964285711,70.0,0.0,255.0,0.0
25.000000000000213,35.6971238521515,51.26839525632511,1319.9994779210538,-6.898589288084622e-05,-2.104821430748416e-05,0.0,0.0,-1.1368683772161603e-12,0.0,172.17678571428542,70.0,0.0,255.0,0.0
25.050000000000214,35.69712038539004,51.26839455920298,1319.9994782023132,-6.89858928240028e-05,-2.104821430748416e-05,0.0,0.0,0.0,0.0,172.1043749999997,70.0,0.0,255.0,0.0
25.100000000000215,35.69711691899487,51.26839386210761,1319.9994784826413,-6.898589288084622e-05,-2.104821430748416e-05,0.0,-5.684341886080801e-13,0.0,0.0,172.03196428571397,70.0,0.0,255.0,0.0
25.150000000000215,35.697113452966015,51.26839316503842,1319.9994787639007,-6.898589288084622e-05,-2.104821430748416e-05,0.0,5.684341886080801e-13,1.1368683772161603e-12,0.0,171.95955357142827,70.0,0.0,255.0,0.0
25.200000000000216,35.697109987303506,51.268392467994836,1319.9994790470228,-6.89858928240028e-05,-2.104821419379732e-05,0.0,0.0,0.0,0.0,171.88714285714255,70.0,0.0,255.0,0.0
25.250000000000217,35.69710652200736,51.26839177097631,1319.9994793292135,-6.898589288084622e-05,-2.104821430748416e-05,0.0,0.0,-1.1368683772161603e-12,0.0,171.81473214285683,70.0,0.0,255.0,0.0
25.300000000000217,35.6971030570776,51.268391073982244,1319.9994796095416,-6.89858928240028e-05,-2.104821430748416e-05,0.0,5.684341886080801e-13,0.0,0.0,171.74232142857113,70.0,0.0,255.0,0.0
25.350000000000218,35.69709959251427,51.268390377012096,1319.999479893595,-6.89858928240028e-05,-2.104821430748416e-05,0.0,-1.1368683772161603e-12,0.0,0.0,171.6699107142854,70.0,0.0,255.0,0.0
25.40000000000022,35.69709612831737,51.26838968006528,1319.9994801748544,-6.898589293768964e-05,-2.104821430748416e-05,0.0,-5.684341886080801e-13,1.1368683772161603e-12,0.0,171.59749999999968,70.0,0.0,255.0,0.0
25.45000000000022,35.697092664486945,51.268388983141236,1319.9994804570451,-6.898589288084622e-05,-2.104821419379732e-05,0.0,1.1368683772161603e-12,0.0,0.0,171.52508928571396,70.0,0.0,255.0,0.0
25.50000000000022,35.697089201023005,51.268388286239414,1319.9994807420298,-6.89858928240028e-05,-2.104821430748416e-05,0.0,0.0,-1.1368683772161603e-12,0.0,171.45267857142827,70.0,0.0,255.0,0.0
25.55000000000022,35.69708573792558,51.268387589359214,1319.999481025152,-6.898589288084622e-05,-2.104821430748416e-05,0.0,0.0,1.1368683772161603e-12,0.0,171.38026785714254,70.0,0.0,255.0,0.0
25.60000000000022,35.697082275194674,51.268386892500104,1319.999481308274,-6.89858928240028e-05,-2.104821419379732e-05,0.0,5.684341886080801e-13,0.0,0.0,171.30785714285682,70.0,0.0,255.0,0.0
25.650000000000222,35.69707881283034,51.26838619566148,1319.999481591396,-6.89858928240028e-05,-2.104821430748416e-05,0.0,0.0,-2.2737367544323206e-12,0.0,171.2354464285711,70.0,0.0,255.0,0.0
25.700000000000223,35.69707535083259,51.26838549884279,1319.9994818754494,-6.89858928240028e-05,-2.1048214421170997e-05,0.0,-5.684341886080801e-13,0.0,0.0,171.1630357142854,70.0,0.0,255.0,0.0
25.750000000000224,35.69707188920143,51.26838480204346,1319.9994821604341,-6.898589288084622e-05,-2.104821430748416e-05,0.0,-1.1368683772161603e-12,2.2737367544323206e-12,0.0,171.09062499999968,70.0,0.0,255.0,0.0
25.800000000000225,35.69706842793688,51.26838410526295,1319.9994824435562,-6.898589293768964e-05,-2.104821419379732e-05,0.0,5.684341886080801e-13,0.0,0.0,171.01821428571395,70.0,0.0,255.0,0.0
25.850000000000225,35.697064967038955,51.268383408500654,1319.999482728541,-6.89858928240028e-05,-2.104821430748416e-05,0.0,1.1368683772161603e-12,-1.1368683772161603e-12,0.0,170.94580357142826,70.0,0.0,255.0,0.0
25.900000000000226,35.6970615065077,51.26838271175602,1319.9994830135256,-6.89858928240028e-05,-2.104821430748416e-05,0.0,-5.684341886080801e-13,0.0,0.0,170.87339285714253,70.0,0.0,255.0,0.0
25.950000000000227,35.697058046343116,51.26838201502849,1319.999483297579,-6.898589288084622e-05,-2.104821430748416e-05,0.0,0.0,0.0,0.0,170.8009821428568,70.0,0.0,255.0,0.0
26.000000000000227,35.69705458654521,51.26838131831749,1319.999483583495,-6.89858928240028e-05,-2.104821430748416e-05,0.0,0.0,1.1368683772161603e-12,0.0,170.72857142857112,70.0,0.0,255.0,0.0
26.050000000000228,35.69705112711402,51.26838062162243,1319.9994838675484,-6.898589288084622e-05,-2.104821419379732e-05,0.0,-5.684341886080801e-13,0.0,0.0,170.6561607142854,70.0,0.0,255.0,0.0
26.10000000000023,35.69704766804955,51.26837992494277,1319.9994841543958,-6.898589288084622e-05,-2.104821430748416e-05,0.0,5.684341886080801e-13,-1.1368683772161603e-12,0.0,170.58374999999967,70.0,0.0,255.0,0.0
26.15000000000023,35.69704420935182,51.26837922827793,1319.9994844403118,-6.89858928240028e-05,-2.104821430748416e-05,0.0,0.0,1.1368683772161603e-12,0.0,170.51133928571394,70.0,0.0,255.0,0.0
26.20000000000023,35.697040751020836,51.26837853162735,1319.9994847271591,-6.898589288084622e-05,-2.104821419379732e-05,0.0,0.0,0.0,0.0,170.43892857142825,70.0,0.0,255.0,0.0
26.25000000000023,35.697037293056624,51.26837783499043,1319.9994850130752,-6.89858928240028e-05,-2.104821430748416e-05,0.0,5.684341886080801e-13,-1.1368683772161603e-12,0.0,170.36651785714253,70.0,0.0,255.0,0.0
26.30000000000023,35.69703383545918,51.26837713836665,1319.9994852989912,-6.89858928240028e-05,-2.104821430748416e-05,0.0,-1.1368683772161603e-12,0.0,0.0,170.2941071428568,70.0,0.0,255.0,0.0
26.350000000000232,35.697030378228554,51.26837644175542,1319.9994855849072,-6.898589293768964e-05,-2.104821430748416e-05,0.0,-5.684341886080801e-13,0.0,0.0,170.2216964285711,70.0,0.0,255.0,0.0
26.400000000000233,35.69702692136471,51.26837574515616,1319.9994858717546,-6.898589288084622e-05,-2.104821430748416e-05,0.0,1.1368683772161603e-12,1.1368683772161603e-12,0.0,170.14928571428538,70.0,0.0,255.0,0.0
26.450000000000234,35.69702346486771,51.26837504856832,1319.9994861576706,-6.89858928240028e-05,-2.104821419379732e-05,0.0,0.0,0.0,0.0,170.07687499999966,70.0,0.0,255.0,0.0
26.500000000000234,35.697020008737525,51.26837435199132,1319.999486444518,-6.898589288084622e-05,-2.104821430748416e-05,0.0,0.0,-2.2737367544323206e-12,0.0,170.00446428571394,70.0,0.0,255.0,0.0
26.550000000000235,35.69701655297419,51.2683736554246,1319.999486730434,-6.89858928240028e-05,-2.1048214421170997e-05,0.0,5.684341886080801e-13,0.0,0.0,169.93205357142824,70.0,0.0,255.0,0.0
26.600000000000236,35.6970130975777,51.26837295886758,1319.9994870182127,-6.89858928240028e-05,-2.104821430748416e-05,0.0,0.0,2.2737367544323206e-12,0.0,169.85964285714252,70.0,0.0,255.0,0.0
26.650000000000237,35.697009642548075,51.26837226231971,1319.99948730506,-6.89858928240028e-05,-2.104821419379732e-05,0.0,-5.684341886080801e-13,0.0,0.0,169.7872321428568,70.0,0.0,255.0,0.0
26.700000000000237,35.697006187885314,51.268371565780384,1319.9994875928387,-6.898589288084622e-05,-2.104821430748416e-05,0.0,-1.1368683772161603e-12,-1.1368683772161603e-12,0.0,169.7148214285711,70.0,0.0,255.0,0.0
26.750000000000238,35.69700273358943,51.268370869249075,1319.9994878787547,-6.898589293768964e-05,-2.104821430748416e-05,0.0,5.684341886080801e-13,1.1368683772161603e-12,0.0,169.64241071428538,70.0,0.0,255.0,0.0
26.80000000000024,35.69699927966044,51.26837017272521,1319.999488165602,-6.89858928240028e-05,-2.104821419379732e-05,0.0,1.1368683772161603e-12,1.1368683772161603e-12,0.0,169.56999999999965,70.0,0.0,255.0,0.0
26.85000000000024,35.69699582609835,51.26836947620821,1319.999488454312,-6.89858928240028e-05,-2.104821419379732e-05,0.0,-5.684341886080801e-13,-1.1368683772161603e-12,0.0,169.49758928571396,70.0,0.0,255.0,0.0
26.90000000000024,35.69699237290315,51.26836877969749,1319.9994887402281,-6.898589288084622e-05,-2.104821430748416e-05,0.0,0.0,-2.2737367544323206e-12,0.0,169.42517857142823,70.0,0.0,255.0,0.0
26.95000000000024,35.69698892007486,51.268368083192506,1319.9994890308008,-6.89858928240028e-05,-2.1048214421170997e-05,0.0,0.0,0.0,0.0,169.3527678571425,70.0,0.0,255.0,0.0
27.00000000000024,35.696985467613494,51.26836738669268,1319.9994893185794,-6.898589288084622e-05,-2.104821430748416e-05,0.0,-1.1368683772161603e-12,2.2737367544323206e-12,0.0,169.2803571428568,70.0,0.0,255.0,0.0
27.050000000000242,35.696982015519026,51.268366690197446,1319.999489606358,-6.898589293768964e-05,-2.104821419379732e-05,0.0,5.684341886080801e-13,0.0,0.0,169.2079464285711,70.0,0.0,255.0,0.0
27.100000000000243,35.696978563791504,51.26836599370623,1319.9994898913428,-6.89858928240028e-05,-2.104821430748416e-05,0.0,1.1368683772161603e-12,-1.1368683772161603e-12,0.0,169.13553571428537,70.0,0.0,255.0,0.0
27.150000000000244,35.696975112430906,51.26836529721847,1319.9994901791215,-6.89858928240028e-05,-2.104821430748416e-05,0.0,0.0,0.0,0.0,169.06312499999964,70.0,0.0,255.0,0.0
27.200000000000244,35.69697166143723,51.26836460073361,1319.9994904687628,-6.89858928240028e-05,-2.104821430748416e-05,0.0,0.0,0.0,0.0,168.99071428571392,70.0,0.0,255.0,0.0
27.250000000000245,35.69696821081049,51.26836390425106,1319.9994907574728,-6.89858928240028e-05,-2.104821430748416e-05,0.0,-1.1368683772161603e-12,1.1368683772161603e-12,0.0,168.91830357142823,70.0,0.0,255.0,0.0
27.300000000000246,35.69696476055067,51.26836320777025,1319.9994910433888,-6.898589293768964e-05,-2.104821419379732e-05,0.0,-5.684341886080801e-13,0.0,0.0,168.8458928571425,70.0,0.0,255.0,0.0
27.350000000000247,35.696961310657805,51.26836251129064,1319.9994913320988,-6.898589288084622e-05,-2.104821430748416e-05,0.0,1.1368683772161603e-12,-1.1368683772161603e-12,0.0,168.77348214285678,70.0,0.0,255.0,0.0
27.400000000000247,35.69695786113188,51.26836181481161,1319.9994916198775,-6.89858928240028e-05,-2.104821430748416e-05,0.0,0.0,1.1368683772161603e-12,0.0,168.70107142857108,70.0,0.0,255.0,0.0
27.450000000000248,35.696954411972875,51.26836111833264,1319.9994919095188,-6.898589288084622e-05,-2.104821419379732e-05,0.0,0.0,0.0,0.0,168.62866071428536,70.0,0.0,255.0,0.0
27.50000000000025,35.69695096318081,51.26836042185316,1319.9994921972975,-6.89858928240028e-05,-2.104821430748416e-05,0.0,5.684341886080801e-13,-2.2737367544323206e-12,0.0,168.55624999999964,70.0,0.0,255.0,0.0
27.55000000000025,35.69694751475569,51.268359725372555,1319.9994924878702,-6.89858928240028e-05,-2.1048214421170997e-05,0.0,0.0,0.0,0.0,168.48383928571394,70.0,0.0,255.0,0.0
27.60000000000025,35.69694406669751,51.2683590288903,1319.9994927719235,-6.89858928240028e-05,-2.104821430748416e-05,0.0,-5.684341886080801e-13,2.2737367544323206e-12,0.0,168.41142857142822,70.0,0.0,255.0,0.0
27.65000000000025,35.69694061900626,51.26835833240583,1319.9994930624962,-6.898589288084622e-05,-2.104821419379732e-05,0.0,-1.1368683772161603e-12,1.1368683772161603e-12,0.0,168.3390178571425,70.0,0.0,255.0,0.0
27.70000000000025,35.69693717168193,51.26835763591855,1319.9994933502749,-6.898589293768964e-05,-2.104821419379732e-05,0.0,5.684341886080801e-13,-1.1368683772161603e-12,0.0,168.26660714285677,70.0,0.0,255.0,0.0
27.750000000000252,35.69693372472453,51.2683569394279,1319.9994936399162,-6.89858928240028e-05,-2.104821430748416e-05,0.0,1.1368683772161603e-12,-2.2737367544323206e-12,0.0,168.19419642857108,70.0,0.0,255.0,0.0
27.800000000000253,35.69693027813407,51.268356242933315,1319.999493924901,-6.89858928240028e-05,-2.1048214421170997e-05,0.0,-5.684341886080801e-13,0.0,0.0,168.12178571428535,70.0,0.0,255.0,0.0
27.850000000000254,35.69692683191051,51.26835554643423,1319.9994942154735,-6.898589288084622e-05,-2.104821430748416e-05,0.0,0.0,2.2737367544323206e-12,0.0,168.04937499999963,70.0,0.0,255.0,0.0
27.900000000000254,35.696923386053875,51.26835484993007,1319.9994945013896,-6.89858928240028e-05,-2.104821419379732e-05,0.0,0.0,0.0,0.0,167.9769642857139,70.0,0.0,255.0,0.0
27.950000000000255,35.69691994056416,51.26835415342027,1319.9994947900996,-6.898589288084622e-05,-2.104821430748416e-05,0.0,-1.1368683772161603e-12,-1.1368683772161603e-12,0.0,167.9045535714282,70.0,0.0,255.0,0.0
28.000000000000256,35.69691649544133,51.26835345690425,1319.9994950778782,-6.898589293768964e-05,-2.104821430748416e-05,0.0,5.684341886080801e-13,1.1368683772161603e-12,0.0,167.8321428571425,70.0,0.0,255.0,0.0
28.050000000000257,35.696913050685396,51.268352760381454,1319.999495365657,-6.89858928240028e-05,-2.104821419379732e-05,0.0,1.1368683772161603e-12,0.0,0.0,167.75973214285676,70.0,0.0,255.0,0.0
28.100000000000257,35.696909606296366,51.26835206385132,1319.9994956534356,-6.89858928240028e-05,-2.104821430748416e-05,0.0,0.0,-1.1368683772161603e-12,0.0,167.68732142857107,70.0,0.0,255.0,0.0
28.150000000000258,35.69690616227421,51.26835136731326,1319.9994959421456,-6.89858928240028e-05,-2.104821430748416e-05,0.0,0.0,0.0,0.0,167.61491071428534,70.0,0.0,255.0,0.0
28.20000000000026,35.69690271861893,51.268350670766715,1319.9994962299243,-6.89858928240028e-05,-2.104821430748416e-05,0.0,-1.1368683772161603e-12,0.0,0.0,167.54249999999962,70.0,0.0,255.0,0.0
28.25000000000026,35.696899275330495,51.26834997421113,1319.999496517703,-6.898589293768964e-05,-2.104821430748416e-05,0.0,-5.684341886080801e-13,1.1368683772161603e-12,0.0,167.47008928571393,70.0,0.0,255.0,0.0
28.30000000000026,35.696895832408934,51.26834927764592,1319.9994968054816,-6.898589288084622e-05,-2.104821419379732e-05,0.0,1.1368683772161603e-12,0.0,0.0,167.3976785714282,70.0,0.0,255.0,0.0
28.35000000000026,35.69689238985421,51.26834858107052,1319.9994970932603,-6.89858928240028e-05,-2.104821430748416e-05,0.0,0.0,-2.2737367544323206e-12,0.0,167.32526785714248,70.0,0.0,255.0,0.0
28.40000000000026,35.69688894766632,51.268347884484356,1319.999497381039,-6.898589288084622e-05,-2.1048214421170997e-05,0.0,0.0,0.0,0.0,167.25285714285675,70.0,0.0,255.0,0.0
28.450000000000262,35.69688550584525,51.26834718788687,1319.9994976688176,-6.89858928240028e-05,-2.104821430748416e-05,0.0,5.684341886080801e-13,2.2737367544323206e-12,0.0,167.18044642857106,70.0,0.0,255.0,0.0
28.500000000000263,35.696882064391,51.268346491277505,1319.9994979547337,-6.89858928240028e-05,-2.104821419379732e-05,0.0,0.0,1.1368683772161603e-12,0.0,167.10803571428534,70.0,0.0,255.0,0.0
28.550000000000264,35.69687862330355,51.26834579465566,1319.9994982453063,-6.89858928240028e-05,-2.104821419379732e-05,0.0,-5.684341886080801e-13,-1.1368683772161603e-12,0.0,167.0356249999996,70.0,0.0,255.0,0.0
28.600000000000264,35.696875182582865,51.2683450980208,1319.9994985293597,-6.898589288084622e-05,-2.104821430748416e-05,0.0,-1.1368683772161603e-12,-1.1368683772161603e-12,0.0,166.96321428571392,70.0,0.0,255.0,0.0
28.650000000000265,35.696871742228964,51.26834440137232,1319.9994988180697,-6.898589293768964e-05,-2.104821430748416e-05,0.0,5.684341886080801e-13,1.1368683772161603e-12,0.0,166.8908035714282,70.0,0.0,255.0,0.0
28.700000000000266,35.69686830224182,51.268343704709686,1319.999499104917,-6.89858928240028e-05,-2.104821419379732e-05,0.0,1.1368683772161603e-12,0.0,0.0,166.81839285714247,70.0,0.0,255.0,0.0
28.750000000000266,35.69686486262142,51.26834300803232,1319.9994993917644,-6.89858928240028e-05,-2.104821430748416e-05,0.0,-5.684341886080801e-13,-2.2737367544323206e-12,0.0,166.74598214285675,70.0,0.0,255.0,0.0
28.800000000000267,35.69686142336773,51.26834231133964,1319.9994996786118,-6.898589288084622e-05,-2.1048214421170997e-05,0.0,0.0,0.0,0.0,166.67357142857105,70.0,0.0,255.0,0.0
28.850000000000268,35.69685798448076,51.26834161463109,1319.999499965459,-6.89858928240028e-05,-2.104821430748416e-05,0.0,0.0,2.2737367544323206e-12,0.0,166.60116071428533,70.0,0.0,255.0,0.0
28.90000000000027,35.69685454596049,51.268340917906116,1319.9995002523065,-6.898589288084622e-05,-2.104821419379732e-05,0.0,-1.1368683772161603e-12,0.0,0.0,166.5287499999996,70.0,0.0,255.0,0.0
28.95000000000027,35.69685110780689,51.268340221164124,1319.9995005372912,-6.898589293768964e-05,-2.104821430748416e-05,0.0,5.684341886080801e-13,-1.1368683772161603e-12,0.0,166.4563392857139,70.0,0.0,255.0,0.0
29.00000000000027,35.69684767001995,51.268339524404546,1319.9995008241385,-6.89858928240028e-05,-2.104821430748416e-05,0.0,1.1368683772161603e-12,0.0,0.0,166.38392857142819,70.0,0.0,255.0,0.0
29.05000000000027,35.696844232599645,51.26833882762684,1319.9995011119172,-6.89858928240028e-05,-2.104821430748416e-05,0.0,0.0,0.0,0.0,166.31151785714246,70.0,0.0,255.0,0.0
29.10000000000027,35.69684079554597,51.26833813083041,1319.999501396902,-6.89858928240028e-05,-2.104821430748416e-05,0.0,0.0,1.1368683772161603e-12,0.0,166.23910714285677,70.0,0.0,255.0,0.0
29.150000000000272,35.6968373588589,51.268337434014704,1319.999501682818,-6.89858928240028e-05,-2.104821419379732e-05,0.0,-1.1368683772161603e-12,0.0,0.0,166.16669642857104,70.0,0.0,255.0,0.0
29.200000000000273,35.696833922538396,51.26833673717916,1319.9995019678026,-6.898589293768964e-05,-2.104821430748416e-05,0.0,-5.684341886080801e-13,-1.1368683772161603e-12,0.0,166.09428571428532,70.0,0.0,255.0,0.0
29.250000000000274,35.69683048658446,51.26833604032319,1319.9995022527874,-6.898589288084622e-05,-2.104821430748416e-05,0.0,1.1368683772161603e-12,1.1368683772161603e-12,0.0,166.0218749999996,70.0,0.0,255.0,0.0
29.300000000000274,35.696827050997065,51.26833534344624,1319.9995025396347,-6.89858928240028e-05,-2.104821419379732e-05,0.0,0.0,0.0,0.0,165.9494642857139,70.0,0.0,255.0,0.0
29.350000000000275,35.69682361577619,51.26833464654775,1319.9995028246194,-6.898589288084622e-05,-2.104821430748416e-05,0.0,0.0,-1.1368683772161603e-12,0.0,165.87705357142818,70.0,0.0,255.0,0.0
29.400000000000276,35.696820180921804,51.26833394962711,1319.9995031086728,-6.89858928240028e-05,-2.104821430748416e-05,0.0,5.684341886080801e-13,0.0,0.0,165.80464285714245,70.0,0.0,255.0,0.0
29.450000000000276,35.6968167464339,51.26833325268381,1319.9995033936575,-6.89858928240028e-05,-2.104821430748416e-05,0.0,-1.1368683772161603e-12,0.0,0.0,165.73223214285673,70.0,0.0,255.0,0.0
29.500000000000277,35.696813312312436,51.268332555717244,1319.9995036767796,-6.898589293768964e-05,-2.104821430748416e-05,0.0,-5.684341886080801e-13,1.1368683772161603e-12,0.0,165.65982142857104,70.0,0.0,255.0,0.0
29.550000000000278,35.696809878557396,51.26833185872685,1319.999503963627,-6.898589288084622e-05,-2.104821419379732e-05,0.0,1.1368683772161603e-12,0.0,0.0,165.5874107142853,70.0,0.0,255.0,0.0
29.60000000000028,35.696806445168754,51.26833116171209,1319.999504246749,-6.89858928240028e-05,-2.104821430748416e-05,0.0,5.684341886080801e-13,-2.2737367544323206e-12,0.0,165.5149999999996,70.0,0.0,255.0,0.0
29.65000000000028,35.696803012146496,51.268330464672346,1319.9995045308024,-6.89858928240028e-05,-2.1048214421170997e-05,0.0,0.0,0.0,0.0,165.4425892857139,70.0,0.0,255.0,0.0
29.70000000000028,35.69679957949057,51.268329767607085,1319.9995048148558,-6.89858928240028e-05,-2.104821430748416e-05,0.0,-5.684341886080801e-13,2.2737367544323206e-12,0.0,165.37017857142817,70.0,0.0,255.0,0.0
29.75000000000028,35.696796147200985,51.26832907051574,1319.9995050989091,-6.898589288084622e-05,-2.104821419379732e-05,0.0,0.0,0.0,0.0,165.29776785714245,70.0,0.0,255.0,0.0
29.80000000000028,35.69679271527767,51.26832837339772,1319.9995053810999,-6.89858928240028e-05,-2.104821430748416e-05,0.0,0.0,-1.1368683772161603e-12,0.0,165.22535714285675,70.0,0.0,255.0,0.0
29.850000000000282,35.69678928372064,51.26832767625248,1319.9995056651533,-6.898589288084622e-05,-2.104821430748416e-05,0.0,-1.1368683772161603e-12,1.1368683772161603e-12,0.0,165.15294642857103,70.0,0.0,255.0,0.0
29.900000000000283,35.69678585252984,51.26832697907944,1319.9995059492067,-6.898589293768964e-05,-2.104821419379732e-05,0.0,5.684341886080801e-13,0.0,0.0,165.0805357142853,70.0,0.0,255.0,0.0
29.950000000000284,35.69678242170526,51.268326281878046,1319.9995062295347,-6.89858928240028e-05,-2.104821430748416e-05,0.0,1.1368683772161603e-12,-1.1368683772161603e-12,0.0,165.00812499999958,70.0,0.0,255.0,0.0
30.000000000000284,35.69677899124686,51.2683255846477,1319.9995065117255,-6.89858928240028e-05,-2.104821430748416e-05,0.0,0.0,0.0,0.0,164.93571428571389,70.0,0.0,255.0,0.0
30.050000000000285,35.69677556115459,51.268324887387884,1319.999506792985,-6.89858928240028e-05,-2.104821430748416e-05,0.0,0.0,0.0,0.0,164.86330357142816,70.0,0.0,255.0,0.0
30.100000000000286,35.69677213142845,51.268324190097985,1319.9995070770383,-6.89858928240028e-05,-2.104821430748416e-05,0.0,-1.1368683772161603e-12,1.1368683772161603e-12,0.0,164.79089285714244,70.0,0.0,255.0,0.0
30.150000000000286,35.696768702068404,51.26832349277746,1319.9995073573664,-6.898589293768964e-05,-2.104821419379732e-05,0.0,-5.684341886080801e-13,0.0,0.0,164.71848214285671,70.0,0.0,255.0,0.0
30.200000000000287,35.69676527307441,51.268322795425746,1319.9995076395571,-6.898589288084622e-05,-2.104821430748416e-05,0.0,1.1368683772161603e-12,-1.1368683772161603e-12,0.0,164.64607142857102,70.0,0.0,255.0,0.0
30.250000000000288,35.696761844446435,51.26832209804225,1319.9995079198852,-6.89858928240028e-05,-2.104821430748416e-05,0.0,0.0,0.0,0.0,164.5736607142853,70.0,0.0,255.0,0.0
30.30000000000029,35.69675841618446,51.26832140062643,1319.9995082011446,-6.898589288084622e-05,-2.104821430748416e-05,0.0,0.0,0.0,0.0,164.50124999999957,70.0,0.0,255.0,0.0
30.35000000000029,35.69675498828841,51.2683207031777,1319.9995084814727,-6.89858928240028e-05,-2.104821430748416e-05,0.0,5.684341886080801e-13,1.1368683772161603e-12,0.0,164.42883928571388,70.0,0.0,255.0,0.0
30.40000000000029,35.696751560758315,51.26832000569551,1319.9995087627321,-6.89858928240028e-05,-2.104821419379732e-05,0.0,-1.1368683772161603e-12,0.0,0.0,164.35642857142815,70.0,0.0,255.0,0.0
30.45000000000029,35.6967481335941,51.268319308179294,1319.9995090430602,-6.898589293768964e-05,-2.104821430748416e-05,0.0,-5.684341886080801e-13,-1.1368683772161603e-12,0.0,164.28401785714243,70.0,0.0,255.0,0.0
30.50000000000029,35.69674470679575,51.26831861062846,1319.999509322457,-6.898589288084622e-05,-2.104821430748416e-05,0.0,1.1368683772161603e-12,1.1368683772161603e-12,0.0,164.21160714285674,70.0,0.0,255.0,0.0
30.550000000000292,35.696741280363206,51.268317913042466,1319.9995095999911,-6.89858928240028e-05,-2.104821419379732e-05,0.0,5.684341886080801e-13,0.0,0.0,164.139196428571,70.0,0.0,255.0,0.0
30.600000000000293,35.69673785429644,51.268317215420744,1319.9995098812506,-6.89858928240028e-05,-2.104821430748416e-05,0.0,0.0,-2.2737367544323206e-12,0.0,164.0667857142853,70.0,0.0,255.0,0.0
30.650000000000293,35.69673442859541,51.2683165177627,1319.9995101587847,-6.89858928240028e-05,-2.1048214421170997e-05,0.0,-5.684341886080801e-13,0.0,0.0,163.99437499999956,70.0,0.0,255.0,0.0
30.700000000000294,35.6967310032601,51.26831582006781,1319.9995104381815,-6.898589288084622e-05,-2.104821430748416e-05,0.0,0.0,2.2737367544323206e-12,0.0,163.92196428571387,70.0,0.0,255.0,0.0
30.750000000000295,35.69672757829045,51.26831512233548,1319.999510716647,-6.89858928240028e-05,-2.104821419379732e-05,0.0,0.0,0.0,0.0,163.84955357142815,70.0,0.0,255.0,0.0
30.800000000000296,35.69672415368643,51.26831442456514,1319.9995109932497,-6.898589288084622e-05,-2.104821430748416e-05,0.0,-1.1368683772161603e-12,-1.1368683772161603e-12,0.0,163.77714285714242,70.0,0.0,255.0,0.0
30.850000000000296,35.696720729447996,51.26831372675624,1319.9995112707838,-6.898589293768964e-05,-2.104821430748416e-05,0.0,5.684341886080801e-13,0.0,0.0,163.70473214285673,70.0,0.0,255.0,0.0
30.900000000000297,35.69671730557511,51.26831302890821,1319.9995115492493,-6.89858928240028e-05,-2.104821430748416e-05,0.0,1.1368683772161603e-12,0.0,0.0,163.632321428571,70.0,0.0,255.0,0.0
30.950000000000298,35.69671388206775,51.268312331020475,1319.9995118239895,-6.89858928240028e-05,-2.104821430748416e-05,0.0,-5.684341886080801e-13,1.1368683772161603e-12,0.0,163.55991071428528,70.0,0.0,255.0,0.0
31.0000000000003,35.696710458925814,51.268311633092466,1319.9995121015236,-6.898589288084622e-05,-2.104821419379732e-05,0.0,0.0,0.0,0.0,163.48749999999956,70.0,0.0,255.0,0.0
31.0500000000003,35.69670703614934,51.268310935123644,1319.9995123753324,-6.89858928240028e-05,-2.104821430748416e-05,0.0,0.0,-1.1368683772161603e-12,0.0,163.41508928571386,70.0,0.0,255.0,0.0
31.1000000000003,35.696703613738244,51.26831023711341,1319.9995126519352,-6.898589288084622e-05,-2.104821430748416e-05,0.0,-5.684341886080801e-13,1.1368683772161603e-12,0.0,163.34267857142814,70.0,0.0,255.0,0.0
31.1500000000003,35.696700191692486,51.26830953906123,1319.9995129276067,-6.898589288084622e-05,-2.104821419379732e-05,0.0,5.684341886080801e-13,0.0,0.0,163.27026785714241,70.0,0.0,255.0,0.0
31.2000000000003,35.69669677001202,51.26830884096649,1319.9995132032782,-6.89858928240028e-05,-2.104821430748416e-05,0.0,0.0,-1.1368683772161603e-12,0.0,163.19785714285672,70.0,0.0,255.0,0.0
31.250000000000302,35.696693348696805,51.26830814282867,1319.9995134780183,-6.898589288084622e-05,-2.104821430748416e-05,0.0,0.0,0.0,0.0,163.125446428571,70.0,0.0,255.0,0.0
31.300000000000303,35.69668992774679,51.26830744464719,1319.9995137518272,-6.89858928240028e-05,-2.104821430748416e-05,0.0,5.684341886080801e-13,0.0,0.0,163.05303571428527,70.0,0.0,255.0,0.0
31.350000000000303,35.696686507161964,51.26830674642147,1319.9995140247047,-6.89858928240028e-05,-2.104821430748416e-05,0.0,-1.1368683772161603e-12,1.1368683772161603e-12,0.0,162.98062499999958,70.0,0.0,255.0,0.0
31.400000000000304,35.69668308694222,51.26830604815096,1319.9995142994449,-6.898589293768964e-05,-2.104821419379732e-05,0.0,-5.684341886080801e-13,0.0,0.0,162.90821428571385,70.0,0.0,255.0,0.0
31.450000000000305,35.69667966708757,51.26830534983511,1319.9995145723224,-6.898589288084622e-05,-2.104821430748416e-05,0.0,1.1368683772161603e-12,-2.2737367544323206e-12,0.0,162.83580357142813,70.0,0.0,255.0,0.0
31.500000000000306,35.696676247597935,51.26830465147331,1319.9995148433372,-6.89858928240028e-05,-2.1048214421170997e-05,0.0,5.684341886080801e-13,0.0,0.0,162.7633928571424,70.0,0.0,255.0,0.0
31.550000000000306,35.69667282847329,51.26830395306502,1319.9995151162148,-6.89858928240028e-05,-2.104821430748416e-05,0.0,0.0,2.2737367544323206e-12,0.0,162.6909821428567,70.0,0.0,255.0,0.0
31.600000000000307,35.69666940971356,51.26830325460969,1319.9995153890923,-6.89858928240028e-05,-2.104821419379732e-05,0.0,-5.684341886080801e-13,0.0,0.0,162.618571428571,70.0,0.0,255.0,0.0
31.650000000000308,35.6966659913187,51.26830255610673,1319.9995156601071,-6.898589288084622e-05,-2.104821430748416e-05,0.0,0.0,-1.1368683772161603e-12,0.0,162.54616071428526,70.0,0.0,255.0,0.0
31.70000000000031,35.69666257328867,51.26830185755559,1319.999515931122,-6.89858928240028e-05,-2.104821430748416e-05,0.0,0.0,1.1368683772161603e-12,0.0,162.47374999999954,70.0,0.0,255.0,0.0
31.75000000000031,35.696659155623436,51.268301158955694,1319.9995162021369,-6.898589288084622e-05,-2.104821419379732e-05,0.0,-1.1368683772161603e-12,1.1368683772161603e-12,0.0,162.40133928571385,70.0,0.0,255.0,0.0
31.80000000000031,35.69665573832291,51.268300460306484,1319.9995164722204,-6.898589293768964e-05,-2.104821419379732e-05,0.0,5.684341886080801e-13,-1.1368683772161603e-12,0.0,162.32892857142812,70.0,0.0,255.0,0.0
31.85000000000031,35.69665232138707,51.26829976160738,1319.999516742304,-6.89858928240028e-05,-2.104821430748416e-05,0.0,1.1368683772161603e-12,-2.2737367544323206e-12,0.0,162.2565178571424,70.0,0.0,255.0,0.0
31.90000000000031,35.696648904815866,51.26829906285784,1319.9995170105249,-6.89858928240028e-05,-2.1048214421170997e-05,0.0,-5.684341886080801e-13,0.0,0.0,162.1841071428567,70.0,0.0,255.0,0.0
31.950000000000312,35.696645488609235,51.26829836405729,1319.9995172787458,-6.898589288084622e-05,-2.104821430748416e-05,0.0,0.0,1.1368683772161603e-12,0.0,162.11169642857098,70.0,0.0,255.0,0.0
32.00000000000031,35.696642072767105,51.268297665205154,1319.9995175469667,-6.89858928240028e-05,-2.104821430748416e-05,0.0,5.684341886080801e-13,2.710505431213761e-20,0.0,162.03928571428526,70.0,0.0,255.0,0.0
32.05000000000031,35.696638657289455,51.26829696630089,1319.999517816119,-6.89858928240028e-05,-2.104821430748416e-05,0.0,1.0842021724855044e-19,1.1368683772161603e-12,0.0,161.96687499999956,70.0,0.0,255.0,0.0
32.100000000000314,35.69663524217623,51.268296267343906,1319.9995180815458,-6.89858928240028e-05,-2.104821419379732e-05,0.0,-5.684341886080801e-13,0.0,0.0,161.89446428571384,70.0,0.0,255.0,0.0
32.15000000000032,35.696631827427346,51.268295568333656,1319.9995183488354,-6.898589288084622e-05,-2.104821430748416e-05,0.0,-5.684342970282974e-13,-1.1368683772161603e-12,0.0,161.8220535714281,70.0,0.0,255.0,0.0
32.200000000000315,35.69662841304278,51.26829486926958,1319.999518616125,-6.898589288084622e-05,-2.104821430748416e-05,0.0,5.684341886080801e-13,1.1368683772161603e-12,0.0,161.74964285714242,70.0,0.0,255.0,0.0
32.25000000000031,35.69662499902245,51.268294170151094,1319.9995188824832,-6.89858928240028e-05,-2.104821419379732e-05,0.0,1.0842021724855044e-19,1.1368683772161603e-12,0.0,161.6772321428567,70.0,0.0,255.0,0.0
32.30000000000032,35.696621585366316,51.26829347097765,1319.9995191469789,-6.898589288084622e-05,-2.104821419379732e-05,0.0,-5.684341886080801e-13,-2.2737367544323206e-12,0.0,161.60482142857097,70.0,0.0,255.0,0.0
32.35000000000032,35.69661817207431,51.26829277174868,1319.9995194105431,-6.898589288084622e-05,-2.1048214421170997e-05,0.0,-1.0842021724855044e-19,-1.1368683772161603e-12,0.0,161.53241071428525,70.0,0.0,255.0,0.0
32.40000000000032,35.696614759146385,51.26829207246362,1319.9995196769014,-6.898589288084622e-05,-2.104821430748416e-05,0.0,5.684341886080801e-13,2.2737367544323206e-12,0.0,161.45999999999952,70.0,0.0,255.0,0.0
32.450000000000315,35.69661134658248,51.268291373121905,1319.999519941397,-6.89858928240028e-05,-2.104821419379732e-05,0.0,1.0842021724855044e-19,0.0,0.0,161.38758928571383,70.0,0.0,255.0,0.0
32.50000000000032,35.696607934382534,51.26829067372296,1319.9995202049613,-6.898589288084622e-05,-2.104821430748416e-05,0.0,-5.684341886080801e-13,-1.1368683772161603e-12,0.0,161.3151785714281,70.0,0.0,255.0,0.0
32.550000000000324,35.69660452254649,51.26828997426624,1319.9995204675943,-6.898589288084622e-05,-2.104821430748416e-05,0.0,5.684340801878629e-13,0.0,0.0,161.24276785714238,70.0,0.0,255.0,0.0
32.60000000000032,35.69660111107429,51.26828927475117,1319.9995207302272,-6.89858928240028e-05,-2.104821430748416e-05,0.0,5.684341886080801e-13,1.1368683772161603e-12,0.0,161.1703571428567,70.0,0.0,255.0,0.0
32.65000000000032,35.69659769996587,51.268288575177195,1319.9995209919289,-6.89858928240028e-05,-2.104821419379732e-05,0.0,1.0842021724855044e-19,1.1368683772161603e-12,0.0,161.09794642857096,70.0,0.0,255.0,0.0
32.70000000000032,35.69659428922117,51.26828787554374,1319.9995212536305,-6.89858928240028e-05,-2.104821419379732e-05,0.0,-1.1368683772161603e-12,-2.2737367544323206e-12,0.0,161.02553571428524,70.0,0.0,255.0,0.0
32.75000000000033,35.69659087884013,51.26828717585024,1319.9995215144008,-6.898589293768964e-05,-2.1048214421170997e-05,0.0,-1.0842021724855044e-19,0.0,0.0,160.95312499999955,70.0,0.0,255.0,0.0
32.800000000000324,35.69658746882267,51.26828647609614,1319.9995217742398,-6.89858928240028e-05,-2.104821419379732e-05,0.0,1.1368683772161603e-12,2.2737367544323206e-12,0.0,160.88071428571382,70.0,0.0,255.0,0.0
32.85000000000032,35.69658405916876,51.268285776280884,1319.9995220359415,-6.89858928240028e-05,-2.104821419379732e-05,0.0,-1.136868268795943e-12,-1.1368683772161603e-12,0.0,160.8083035714281,70.0,0.0,255.0,0.0
32.900000000000325,35.69658064987831,51.268285076403906,1319.9995222939178,-6.898589293768964e-05,-2.104821430748416e-05,0.0,0.0,-1.1368683772161603e-12,0.0,160.7358928571424,70.0,0.0,255.0,0.0
32.95000000000033,35.696577240951264,51.26828437646462,1319.9995225546882,-6.89858928240028e-05,-2.104821430748416e-05,0.0,5.684340801878629e-13,0.0,0.0,160.66348214285665,70.0,0.0,255.0,0.0
33.00000000000033,35.69657383238758,51.268283676462495,1319.9995228098705,-6.898589288084622e-05,-2.104821430748416e-05,0.0,0.0,0.0,0.0,160.59107142857096,70.0,0.0,255.0,0.0
33.050000000000324,35.69657042418716,51.268282976396954,1319.9995230687782,-6.89858928240028e-05,-2.104821430748416e-05,0.0,5.684342970282974e-13,0.0,0.0,160.51866071428526,70.0,0.0,255.0,0.0
33.10000000000033,35.69656701634995,51.26828227626743,1319.9995233258232,-6.89858928240028e-05,-2.104821430748416e-05,0.0,-1.1368683772161603e-12,0.0,0.0,160.4462499999995,70.0,0.0,255.0,0.0
33.15000000000033,35.696563608875884,51.268281576073356,1319.999523581937,-6.898589293768964e-05,-2.104821430748416e-05,0.0,-1.0842021724855044e-19,0.0,0.0,160.3738392857138,70.0,0.0,255.0,0.0
33.20000000000033,35.69656020176489,51.268280875814185,1319.9995238371193,-6.89858928240028e-05,-2.104821430748416e-05,0.0,1.1368683772161603e-12,1.1368683772161603e-12,0.0,160.3014285714281,70.0,0.0,255.0,0.0
33.25000000000033,35.69655679501692,51.26828017548934,1319.9995240941644,-6.89858928240028e-05,-2.104821419379732e-05,0.0,-1.136868268795943e-12,1.1368683772161603e-12,0.0,160.2290178571424,70.0,0.0,255.0,0.0
33.30000000000033,35.696553388631884,51.26827947509827,1319.9995243465528,-6.898589293768964e-05,-2.104821419379732e-05,0.0,0.0,-2.2737367544323206e-12,0.0,160.15660714285667,70.0,0.0,255.0,0.0
33.350000000000335,35.69654998260972,51.26827877464041,1319.9995246017352,-6.89858928240028e-05,-2.1048214421170997e-05,0.0,1.136868268795943e-12,0.0,0.0,160.08419642857095,70.0,0.0,255.0,0.0
33.40000000000033,35.696546576950375,51.26827807411519,1319.999524855055,-6.89858928240028e-05,-2.104821419379732e-05,0.0,-1.1368683772161603e-12,2.2737367544323206e-12,0.0,160.01178571428522,70.0,0.0,255.0,0.0
33.45000000000033,35.696543171653744,51.26827737352207,1319.999525109306,-6.898589293768964e-05,-2.104821419379732e-05,0.0,1.0842021724855044e-19,-1.1368683772161603e-12,0.0,159.93937499999953,70.0,0.0,255.0,0.0
33.500000000000334,35.69653976671979,51.26827667286045,1319.999525360763,-6.89858928240028e-05,-2.104821430748416e-05,0.0,1.1368683772161603e-12,-1.1368683772161603e-12,0.0,159.8669642857138,70.0,0.0,255.0,0.0
33.55000000000034,35.69653636214843,51.268275972129814,1319.9995256122202,-6.89858928240028e-05,-2.104821430748416e-05,0.0,-1.0842021724855044e-19,0.0,0.0,159.79455357142808,70.0,0.0,255.0,0.0
33.600000000000335,35.69653295793959,51.26827527132956,1319.99952586554,-6.89858928240028e-05,-2.104821430748416e-05,0.0,0.0,1.1368683772161603e-12,0.0,159.7221428571424,70.0,0.0,255.0,0.0
33.65000000000033,35.69652955409321,51.26827457045915,1319.999526114203,-6.89858928240028e-05,-2.104821419379732e-05,0.0,-5.684340801878629e-13,0.0,0.0,159.64973214285666,70.0,0.0,255.0,0.0
33.70000000000034,35.6965261506092,51.26827386951802,1319.9995263647288,-6.898589288084622e-05,-2.104821430748416e-05,0.0,-5.684341886080801e-13,-2.2737367544323206e-12,0.0,159.57732142857094,70.0,0.0,255.0,0.0
33.75000000000034,35.696522747487485,51.268273168505594,1319.999526613392,-6.898589288084622e-05,-2.1048214421170997e-05,0.0,5.684340801878629e-13,1.1368683772161603e-12,0.0,159.50491071428522,70.0,0.0,255.0,0.0
33.80000000000034,35.69651934472802,51.268272467421326,1319.9995268601924,-6.89858928240028e-05,-2.104821419379732e-05,0.0,0.0,2.2737367544323206e-12,0.0,159.43249999999952,70.0,0.0,255.0,0.0
33.850000000000335,35.696515942330706,51.268271766264654,1319.9995271107182,-6.898589288084622e-05,-2.104821419379732e-05,0.0,-5.684340801878629e-13,-1.1368683772161603e-12,0.0,159.3600892857138,70.0,0.0,255.0,0.0
33.90000000000034,35.696512540295465,51.268271065035,1319.9995273565874,-6.898589288084622e-05,-2.104821430748416e-05,0.0,5.684341886080801e-13,-1.1368683772161603e-12,0.0,159.28767857142807,70.0,0.0,255.0,0.0
33.950000000000344,35.69650913862224,51.26827036373182,1319.9995276033878,-6.89858928240028e-05,-2.104821430748416e-05,0.0,-1.0842021724855044e-19,1.1368683772161603e-12,0.0,159.21526785714235,70.0,0.0,255.0,0.0
34.00000000000034,35.696505737310936,51.26826966235457,1319.999527849257,-6.898589288084622e-05,-2.104821419379732e-05,0.0,0.0,0.0,0.0,159.14285714285666,70.0,0.0,255.0,0.0
34.05000000000034,35.6965023363615,51.26826896090264,1319.9995280941948,-6.89858928240028e-05,-2.104821430748416e-05,0.0,1.0842021724855044e-19,-1.1368683772161603e-12,0.0,159.07044642857093,70.0,0.0,255.0,0.0
34.10000000000034,35.69649893577384,51.26826825937551,1319.999528340064,-6.898589288084622e-05,-2.104821430748416e-05,0.0,-5.684341886080801e-13,0.0,0.0,158.9980357142852,70.0,0.0,255.0,0.0
34.15000000000035,35.696495535547854,51.26826755777261,1319.9995285840705,-6.898589288084622e-05,-2.104821430748416e-05,0.0,5.684340801878629e-13,0.0,0.0,158.9256249999995,70.0,0.0,255.0,0.0
34.200000000000344,35.69649213568351,51.268266856093376,1319.9995288271457,-6.89858928240028e-05,-2.104821430748416e-05,0.0,0.0,1.1368683772161603e-12,0.0,158.8532142857138,70.0,0.0,255.0,0.0
34.25000000000034,35.69648873618071,51.26826615433724,1319.999529070221,-6.898589288084622e-05,-2.104821419379732e-05,0.0,1.0842021724855044e-19,0.0,0.0,158.78080357142807,70.0,0.0,255.0,0.0
34.300000000000345,35.696485337039356,51.26826545250368,1319.9995293123648,-6.89858928240028e-05,-2.104821430748416e-05,0.0,0.0,-1.1368683772161603e-12,0.0,158.70839285714237,70.0,0.0,255.0,0.0
34.35000000000035,35.69648193825939,51.26826475059208,1319.9995295535773,-6.898589288084622e-05,-2.104821430748416e-05,0.0,-5.684342970282974e-13,1.1368683772161603e-12,0.0,158.63598214285665,70.0,0.0,255.0,0.0
34.40000000000035,35.69647853984073,51.268264048601914,1319.9995297929272,-6.898589288084622e-05,-2.104821419379732e-05,0.0,5.684341886080801e-13,0.0,0.0,158.56357142857092,70.0,0.0,255.0,0.0
34.450000000000344,35.696475141783296,51.26826334653261,1319.999530032277,-6.89858928240028e-05,-2.104821430748416e-05,0.0,1.0842021724855044e-19,-1.1368683772161603e-12,0.0,158.49116071428523,70.0,0.0,255.0,0.0
34.50000000000035,35.696471744087,51.268262644383626,1319.999530271627,-6.898589288084622e-05,-2.104821430748416e-05,0.0,0.0,0.0,0.0,158.4187499999995,70.0,0.0,255.0,0.0
34.55000000000035,35.69646834675175,51.26826194215438,1319.9995305100456,-6.89858928240028e-05,-2.104821430748416e-05,0.0,-1.0842021724855044e-19,0.0,0.0,158.34633928571378,70.0,0.0,255.0,0.0
34.60000000000035,35.696464949777464,51.26826123984433,1319.9995307493955,-6.898589288084622e-05,-2.104821430748416e-05,0.0,-5.684341886080801e-13,1.1368683772161603e-12,0.0,158.27392857142806,70.0,0.0,255.0,0.0
34.65000000000035,35.69646155316408,51.268260537452896,1319.99953098502,-6.898589288084622e-05,-2.104821419379732e-05,0.0,5.684342970282974e-13,0.0,0.0,158.20151785714236,70.0,0.0,255.0,0.0
34.70000000000035,35.6964581569115,51.26825983497955,1319.999531221576,-6.89858928240028e-05,-2.104821430748416e-05,0.0,0.0,-2.2737367544323206e-12,0.0,158.12910714285664,70.0,0.0,255.0,0.0
34.750000000000355,35.69645476101963,51.268259132423715,1319.9995314572006,-6.898589288084622e-05,-2.1048214421170997e-05,0.0,-5.684342970282974e-13,1.1368683772161603e-12,0.0,158.05669642857092,70.0,0.0,255.0,0.0
34.80000000000035,35.6964513654884,51.26825842978482,1319.9995316909626,-6.898589288084622e-05,-2.104821419379732e-05,0.0,5.684341886080801e-13,2.2737367544323206e-12,0.0,157.9842857142852,70.0,0.0,255.0,0.0
34.85000000000035,35.69644797031773,51.268257727062334,1319.9995319247246,-6.89858928240028e-05,-2.104821419379732e-05,0.0,5.684342970282974e-13,-2.2737367544323206e-12,0.0,157.9118749999995,70.0,0.0,255.0,0.0
34.900000000000354,35.69644457550751,51.26825702425568,1319.9995321594179,-6.89858928240028e-05,-2.1048214421170997e-05,0.0,-1.1368683772161603e-12,-1.1368683772161603e-12,0.0,157.83946428571377,70.0,0.0,255.0,0.0
34.95000000000036,35.696441181057665,51.2682563213643,1319.9995323922485,-6.898589293768964e-05,-2.104821430748416e-05,0.0,-1.0842021724855044e-19,2.2737367544323206e-12,0.0,157.76705357142805,70.0,0.0,255.0,0.0
35.000000000000355,35.69643778696811,51.26825561838765,1319.9995326232165,-6.89858928240028e-05,-2.104821419379732e-05,0.0,1.1368683772161603e-12,0.0,0.0,157.69464285714236,70.0,0.0,255.0,0.0
35.05000000000035,35.69643439323876,51.26825491532515,1319.9995328541845,-6.89858928240028e-05,-2.104821430748416e-05,0.0,1.0842021724855044e-19,-1.1368683772161603e-12,0.0,157.62223214285663,70.0,0.0,255.0,0.0
35.10000000000036,35.69643099986953,51.26825421217625,1319.9995330832899,-6.89858928240028e-05,-2.104821430748416e-05,0.0,0.0,0.0,0.0,157.5498214285709,70.0,0.0,255.0,0.0
35.15000000000036,35.696427606860304,51.26825350894041,1319.9995333151892,-6.89858928240028e-05,-2.104821430748416e-05,0.0,-1.1368684856363775e-12,0.0,0.0,157.47741071428518,70.0,0.0,255.0,0.0
35.20000000000036,35.69642421421102,51.26825280561705,1319.9995335433632,-6.898589293768964e-05,-2.104821430748416e-05,0.0,0.0,1.1368683772161603e-12,0.0,157.4049999999995,70.0,0.0,255.0,0.0
35.250000000000355,35.696420821921556,51.26825210220562,1319.999533770606,-6.89858928240028e-05,-2.104821419379732e-05,0.0,1.1368684856363775e-12,-1.1368683772161603e-12,0.0,157.33258928571377,70.0,0.0,255.0,0.0
35.30000000000036,35.69641742999186,51.268251398705566,1319.9995339978486,-6.89858928240028e-05,-2.1048214421170997e-05,0.0,-1.1368683772161603e-12,-1.1368683772161603e-12,0.0,157.26017857142804,70.0,0.0,255.0,0.0
35.350000000000364,35.69641403842183,51.26825069511632,1319.9995342260227,-6.898589293768964e-05,-2.104821430748416e-05,0.0,-1.0842021724855044e-19,2.2737367544323206e-12,0.0,157.18776785714232,70.0,0.0,255.0,0.0
35.40000000000036,35.69641064721135,51.268249991437344,1319.9995344504714,-6.89858928240028e-05,-2.104821419379732e-05,0.0,1.1368683772161603e-12,0.0,0.0,157.11535714285662,70.0,0.0,255.0,0.0
35.45000000000036,35.69640725636037,51.268249287668056,1319.9995346749201,-6.89858928240028e-05,-2.104821430748416e-05,0.0,-5.684340801878629e-13,-1.1368683772161603e-12,0.0,157.04294642857093,70.0,0.0,255.0,0.0
35.50000000000036,35.696403865868746,51.26824858380792,1319.9995348993689,-6.898589288084622e-05,-2.104821430748416e-05,0.0,0.0,0.0,0.0,156.97053571428518,70.0,0.0,255.0,0.0
35.55000000000037,35.696400475736425,51.268247879856375,1319.999535121955,-6.89858928240028e-05,-2.104821430748416e-05,0.0,-5.684342970282974e-13,0.0,0.0,156.89812499999948,70.0,0.0,255.0,0.0
35.600000000000364,35.69639708596327,51.26824717581286,1319.999535344541,-6.898589293768964e-05,-2.104821430748416e-05,0.0,0.0,0.0,0.0,156.82571428571376,70.0,0.0,255.0,0.0
35.65000000000036,35.69639369654923,51.26824647167682,1319.9995355661958,-6.89858928240028e-05,-2.104821430748416e-05,0.0,1.1368684856363775e-12,0.0,0.0,156.75330357142803,70.0,0.0,255.0,0.0
35.700000000000365,35.69639030749419,51.26824576744769,1319.9995357869193,-6.89858928240028e-05,-2.104821430748416e-05,0.0,-1.1368683772161603e-12,0.0,0.0,156.68089285714234,70.0,0.0,255.0,0.0
35.75000000000037,35.696386918798055,51.26824506312493,1319.9995360067114,-6.898589293768964e-05,-2.104821430748416e-05,0.0,-1.0842021724855044e-19,0.0,0.0,156.60848214285662,70.0,0.0,255.0,0.0
35.80000000000037,35.69638353046073,51.268244358707975,1319.999536224641,-6.89858928240028e-05,-2.104821430748416e-05,0.0,1.1368683772161603e-12,1.1368683772161603e-12,0.0,156.5360714285709,70.0,0.0,255.0,0.0
35.850000000000364,35.69638014248211,51.26824365419628,1319.9995364435017,-6.89858928240028e-05,-2.104821419379732e-05,0.0,-5.684340801878629e-13,0.0,0.0,156.4636607142852,70.0,0.0,255.0,0.0
35.90000000000037,35.69637675486209,51.268242949589265,1319.9995366614312,-6.898589288084622e-05,-2.104821430748416e-05,0.0,-5.684341886080801e-13,-1.1368683772161603e-12,0.0,156.39124999999947,70.0,0.0,255.0,0.0
35.95000000000037,35.69637336760061,51.26824224488641,1319.999536877498,-6.898589288084622e-05,-2.104821430748416e-05,0.0,5.684340801878629e-13,0.0,0.0,156.31883928571375,70.0,0.0,255.0,0.0
36.00000000000037,35.69636998069754,51.26824154008712,1319.9995370926335,-6.89858928240028e-05,-2.104821430748416e-05,0.0,5.684341886080801e-13,0.0,0.0,156.24642857142805,70.0,0.0,255.0,0.0
36.05000000000037,35.69636659415278,51.268240835190866,1319.9995373068377,-6.89858928240028e-05,-2.104821430748416e-05,0.0,-5.684340801878629e-13,0.0,0.0,156.17401785714233,70.0,0.0,255.0,0.0
36.10000000000037,35.696363207966236,51.268240130197086,1319.9995375219733,-6.898589288084622e-05,-2.104821430748416e-05,0.0,-5.684341886080801e-13,0.0,0.0,156.1016071428566,70.0,0.0,255.0,0.0
36.150000000000375,35.6963598221378,51.26823942510522,1319.9995377333835,-6.898589288084622e-05,-2.104821430748416e-05,0.0,-1.0842021724855044e-19,0.0,0.0,156.02919642857088,70.0,0.0,255.0,0.0
36.20000000000037,35.69635643666739,51.26823871991472,1319.9995379466563,-6.898589288084622e-05,-2.104821430748416e-05,0.0,5.684341886080801e-13,0.0,0.0,155.95678571428516,70.0,0.0,255.0,0.0
36.25000000000037,35.69635305155488,51.26823801462505,1319.9995381571352,-6.89858928240028e-05,-2.104821430748416e-05,0.0,1.0842021724855044e-19,0.0,0.0,155.88437499999947,70.0,0.0,255.0,0.0
36.300000000000374,35.69634966680018,51.2682373092356,1319.9995383685455,-6.898589288084622e-05,-2.104821430748416e-05,0.0,-5.684341886080801e-13,1.1368683772161603e-12,0.0,155.81196428571374,70.0,0.0,255.0,0.0
36.35000000000038,35.69634628240319,51.268236603745876,1319.999538578093,-6.898589288084622e-05,-2.104821419379732e-05,0.0,5.684340801878629e-13,0.0,0.0,155.73955357142802,70.0,0.0,255.0,0.0
36.400000000000375,35.69634289836381,51.2682358981553,1319.999538785778,-6.89858928240028e-05,-2.104821430748416e-05,0.0,0.0,-1.1368683772161603e-12,0.0,155.66714285714232,70.0,0.0,255.0,0.0
36.45000000000037,35.69633951468192,51.2682351924633,1319.9995389943942,-6.898589288084622e-05,-2.104821430748416e-05,0.0,1.0842021724855044e-19,0.0,0.0,155.5947321428566,70.0,0.0,255.0,0.0
36.50000000000038,35.696336131357405,51.26823448666935,1319.9995392020792,-6.89858928240028e-05,-2.104821430748416e-05,0.0,0.0,0.0,0.0,155.52232142857088,70.0,0.0,255.0,0.0
36.55000000000038,35.69633274839021,51.26823378077288,1319.9995394060388,-6.898589288084622e-05,-2.104821430748416e-05,0.0,-1.0842021724855044e-19,0.0,0.0,155.44991071428518,70.0,0.0,255.0,0.0
36.60000000000038,35.696329365780166,51.26823307477335,1319.999539611861,-6.89858928240028e-05,-2.104821430748416e-05,0.0,5.684341886080801e-13,0.0,0.0,155.37749999999946,70.0,0.0,255.0,0.0
36.650000000000375,35.69632598352723,51.2682323686702,1319.9995398158208,-6.89858928240028e-05,-2.104821430748416e-05,0.0,-1.136868268795943e-12,0.0,0.0,155.30508928571373,70.0,0.0,255.0,0.0
36.70000000000038,35.69632260163124,51.26823166246287,1319.9995400197804,-6.898589293768964e-05,-2.104821430748416e-05,0.0,0.0,0.0,0.0,155.23267857142804,70.0,0.0,255.0,0.0
36.750000000000384,35.69631922009212,51.26823095615081,1319.999540220946,-6.89858928240028e-05,-2.104821430748416e-05,0.0,5.684340801878629e-13,0.0,0.0,155.1602678571423,70.0,0.0,255.0,0.0
36.80000000000038,35.69631583890975,51.26823024973347,1319.999540423043,-6.898589288084622e-05,-2.104821430748416e-05,0.0,-5.684341886080801e-13,0.0,0.0,155.0878571428566,70.0,0.0,255.0,0.0
36.85000000000038,35.696312458084016,51.26822954321031,1319.99954062514,-6.898589288084622e-05,-2.104821430748416e-05,0.0,5.684342970282974e-13,1.1368683772161603e-12,0.0,155.0154464285709,70.0,0.0,255.0,0.0
36.90000000000038,35.69630907761482,51.268228836580754,1319.9995408225805,-6.89858928240028e-05,-2.104821419379732e-05,0.0,0.0,1.1368683772161603e-12,0.0,154.94303571428514,70.0,0.0,255.0,0.0
36.95000000000039,35.696305697502055,51.268228129844275,1319.9995410218835,-6.898589288084622e-05,-2.104821419379732e-05,0.0,-1.0842021724855044e-19,-2.2737367544323206e-12,0.0,154.87062499999945,70.0,0.0,255.0,0.0
37.000000000000384,35.6963023177456,51.26822742300029,1319.9995412174612,-6.89858928240028e-05,-2.1048214421170997e-05,0.0,5.684341886080801e-13,-1.1368683772161603e-12,0.0,154.79821428571373,70.0,0.0,255.0,0.0
37.05000000000038,35.69629893834535,51.26822671604826,1319.9995414149016,-6.89858928240028e-05,-2.104821430748416e-05,0.0,-1.136868268795943e-12,1.1368683772161603e-12,0.0,154.72580357142803,70.0,0.0,255.0,0.0
37.100000000000385,35.696295559301184,51.26822600898766,1319.9995416114107,-6.898589293768964e-05,-2.104821430748416e-05,0.0,0.0,0.0,0.0,154.6533928571423,70.0,0.0,255.0,0.0
37.15000000000039,35.696292180613,51.2682253018179,1319.999541806057,-6.89858928240028e-05,-2.104821430748416e-05,0.0,1.136868268795943e-12,0.0,0.0,154.58098214285658,70.0,0.0,255.0,0.0
37.20000000000039,35.69628880228068,51.268224594538445,1319.9995419988409,-6.89858928240028e-05,-2.104821430748416e-05,0.0,-1.1368683772161603e-12,0.0,0.0,154.50857142857086,70.0,0.0,255.0,0.0
37.250000000000384,35.696285424304115,51.26822388714875,1319.9995421916246,-6.898589293768964e-05,-2.104821430748416e-05,0.0,1.0842021724855044e-19,0.0,0.0,154.43616071428517,70.0,0.0,255.0,0.0
37.30000000000039,35.69628204668318,51.26822317964824,1319.999542383477,-6.89858928240028e-05,-2.104821430748416e-05,0.0,1.1368683772161603e-12,0.0,0.0,154.36374999999944,70.0,0.0,255.0,0.0
37.35000000000039,35.696278669417794,51.26822247203639,1319.999542573467,-6.89858928240028e-05,-2.104821430748416e-05,0.0,-1.1368684856363775e-12,0.0,0.0,154.29133928571372,70.0,0.0,255.0,0.0
37.40000000000039,35.69627529250778,51.26822176431264,1319.9995427634567,-6.898589293768964e-05,-2.104821430748416e-05,0.0,0.0,0.0,0.0,154.21892857142802,70.0,0.0,255.0,0.0
37.45000000000039,35.69627191595308,51.26822105647644,1319.9995429534465,-6.89858928240028e-05,-2.104821430748416e-05,0.0,1.1368684856363775e-12,1.1368683772161603e-12,0.0,154.1465178571423,70.0,0.0,255.0,0.0
37.50000000000039,35.69626853975357,51.26822034852724,1319.9995431387797,-6.89858928240028e-05,-2.104821419379732e-05,0.0,-5.684341886080801e-13,1.1368683772161603e-12,0.0,154.07410714285658,70.0,0.0,255.0,0.0
37.550000000000395,35.6962651639091,51.268219640464494,1319.9995433259755,-6.898589288084622e-05,-2.104821419379732e-05,0.0,-1.0842021724855044e-19,-1.1368683772161603e-12,0.0,154.00169642857085,70.0,0.0,255.0,0.0
37.60000000000039,35.69626178841959,51.268218932287645,1319.99954351224,-6.89858928240028e-05,-2.104821430748416e-05,0.0,0.0,-1.1368683772161603e-12,0.0,153.92928571428516,70.0,0.0,255.0,0.0
37.65000000000039,35.69625841328489,51.26821822399615,1319.999543696642,-6.898589288084622e-05,-2.104821430748416e-05,0.0,-5.684340801878629e-13,0.0,0.0,153.85687499999943,70.0,0.0,255.0,0.0
37.700000000000394,35.696255038504916,51.268217515589434,1319.9995438810438,-6.898589288084622e-05,-2.104821430748416e-05,0.0,5.684341886080801e-13,0.0,0.0,153.7844642857137,70.0,0.0,255.0,0.0
37.7500000000004,35.69625166407952,51.268216807066985,1319.999544063583,-6.89858928240028e-05,-2.104821430748416e-05,0.0,-5.684342970282974e-13,0.0,0.0,153.712053571428,70.0,0.0,255.0,0.0
37.800000000000395,35.69624829000859,51.268216098428226,1319.9995442461222,-6.898589293768964e-05,-2.104821430748416e-05,0.0,0.0,0.0,0.0,153.6396428571423,70.0,0.0,255.0,0.0
37.85000000000039,35.696244916291995,51.268215389672626,1319.9995444258675,-6.89858928240028e-05,-2.104821430748416e-05,0.0,1.1368684856363775e-12,1.1368683772161603e-12,0.0,153.56723214285657,70.0,0.0,255.0,0.0
37.9000000000004,35.69624154292965,51.26821468079963,1319.9995446046814,-6.89858928240028e-05,-2.104821419379732e-05,0.0,-1.1368683772161603e-12,0.0,0.0,153.49482142857084,70.0,0.0,255.0,0.0
37.9500000000004,35.6962381699214,51.26821397180869,1319.999544782564,-6.898589293768964e-05,-2.104821430748416e-05,0.0,-1.0842021724855044e-19,-2.2737367544323206e-12,0.0,153.42241071428515,70.0,0.0,255.0,0.0
38.0000000000004,35.69623479726713,51.26821326269925,1319.9995449604467,-6.89858928240028e-05,-2.1048214421170997e-05,0.0,1.1368683772161603e-12,1.1368683772161603e-12,0.0,153.34999999999943,70.0,0.0,255.0,0.0
38.050000000000395,35.69623142496675,51.26821255347076,1319.9995451364666,-6.89858928240028e-05,-2.104821419379732e-05,0.0,1.0842021724855044e-19,2.2737367544323206e-12,0.0,153.2775892857137,70.0,0.0,255.0,0.0
38.1000000000004,35.69622805302007,51.268211844122696,1319.9995453143492,-6.89858928240028e-05,-2.104821419379732e-05,0.0,-5.684341886080801e-13,-1.1368683772161603e-12,0.0,153.205178571428,70.0,0.0,255.0,0.0
38.150000000000404,35.69622468142705,51.268211134654486,1319.9995454875752,-6.898589288084622e-05,-2.104821430748416e-05,0.0,-5.684342970282974e-13,-1.1368683772161603e-12,0.0,153.13276785714228,70.0,0.0,255.0,0.0
38.2000000000004,35.696221310187475,51.26821042506559,1319.9995456608012,-6.898589288084622e-05,-2.104821430748416e-05,0.0,5.684341886080801e-13,0.0,0.0,153.06035714285656,70.0,0.0,255.0,0.0
38.2500000000004,35.696217939301285,51.26820971535547,1319.999545833096,-6.89858928240028e-05,-2.104821430748416e-05,0.0,1.0842021724855044e-19,0.0,0.0,152.98794642857087,70.0,0.0,255.0,0.0
38.3000000000004,35.69621456876835,51.26820900552356,1319.9995460025966,-6.898589288084622e-05,-2.104821430748416e-05,0.0,-5.684341886080801e-13,0.0,0.0,152.91553571428514,70.0,0.0,255.0,0.0
38.350000000000406,35.696211198588514,51.26820829556931,1319.99954617396,-6.898589288084622e-05,-2.104821430748416e-05,0.0,-1.0842021724855044e-19,0.0,0.0,152.84312499999942,70.0,0.0,255.0,0.0
38.400000000000404,35.69620782876167,51.268207585492206,1319.9995463425294,-6.898589288084622e-05,-2.104821430748416e-05,0.0,5.684341886080801e-13,1.1368683772161603e-12,0.0,152.7707142857137,70.0,0.0,255.0,0.0
38.4500000000004,35.696204459287706,51.26820687529167,1319.9995465110987,-6.89858928240028e-05,-2.104821419379732e-05,0.0,5.684342970282974e-13,1.1368683772161603e-12,0.0,152.698303571428,70.0,0.0,255.0,0.0
38.500000000000405,35.696201090166454,51.26820616496716,1319.9995466768742,-6.89858928240028e-05,-2.104821419379732e-05,0.0,-5.684341886080801e-13,-2.2737367544323206e-12,0.0,152.62589285714228,70.0,0.0,255.0,0.0
38.55000000000041,35.696197721397816,51.268205454518146,1319.9995468445122,-6.898589288084622e-05,-2.1048214421170997e-05,0.0,-5.684342970282974e-13,-1.1368683772161603e-12,0.0,152.55348214285655,70.0,0.0,255.0,0.0
38.600000000000406,35.696194352981664,51.268204743944054,1319.999547008425,-6.898589288084622e-05,-2.104821430748416e-05,0.0,5.684341886080801e-13,2.2737367544323206e-12,0.0,152.48107142857083,70.0,0.0,255.0,0.0
38.650000000000404,35.69619098491785,51.268204033244366,1319.9995471714064,-6.89858928240028e-05,-2.104821419379732e-05,0.0,5.684342970282974e-13,0.0,0.0,152.40866071428513,70.0,0.0,255.0,0.0
38.70000000000041,35.696187617206256,51.26820332241853,1319.9995473325253,-6.89858928240028e-05,-2.104821430748416e-05,0.0,-1.1368683772161603e-12,-1.1368683772161603e-12,0.0,152.3362499999994,70.0,0.0,255.0,0.0
38.75000000000041,35.696184249846766,51.26820261146598,1319.9995474945754,-6.898589293768964e-05,-2.104821430748416e-05,0.0,-1.0842021724855044e-19,0.0,0.0,152.2638392857137,70.0,0.0,255.0,0.0
38.80000000000041,35.696180882839215,51.2682019003862,1319.9995476547629,-6.89858928240028e-05,-2.104821430748416e-05,0.0,1.1368683772161603e-12,0.0,0.0,152.191428571428,70.0,0.0,255.0,0.0
38.850000000000406,35.69617751618349,51.268201189178626,1319.999547814019,-6.89858928240028e-05,-2.104821430748416e-05,0.0,-1.136868268795943e-12,1.1368683772161603e-12,0.0,152.11901785714227,70.0,0.0,255.0,0.0
38.90000000000041,35.696174149879475,51.268200477842726,1319.9995479714125,-6.898589293768964e-05,-2.104821419379732e-05,0.0,0.0,0.0,0.0,152.04660714285654,70.0,0.0,255.0,0.0
38.950000000000415,35.696170783927016,51.26819976637794,1319.9995481278747,-6.89858928240028e-05,-2.104821430748416e-05,0.0,5.684340801878629e-13,-1.1368683772161603e-12,0.0,151.97419642857082,70.0,0.0,255.0,0.0
39.00000000000041,35.69616741832599,51.26819905478373,1319.9995482834056,-6.898589288084622e-05,-2.104821430748416e-05,0.0,0.0,1.1368683772161603e-12,0.0,151.90178571428513,70.0,0.0,255.0,0.0
39.05000000000041,35.69616405307625,51.268198343059545,1319.9995484370738,-6.89858928240028e-05,-2.104821419379732e-05,0.0,5.684342970282974e-13,1.1368683772161603e-12,0.0,151.8293749999994,70.0,0.0,255.0,0.0
39.10000000000041,35.696160688177685,51.268197631204856,1319.9995485916734,-6.89858928240028e-05,-2.104821419379732e-05,0.0,-1.1368683772161603e-12,-2.2737367544323206e-12,0.0,151.75696428571368,70.0,0.0,255.0,0.0
39.15000000000042,35.69615732363013,51.26819691921911,1319.999548743479,-6.898589293768964e-05,-2.1048214421170997e-05,0.0,-1.0842021724855044e-19,-1.1368683772161603e-12,0.0,151.68455357142795,70.0,0.0,255.0,0.0
39.200000000000415,35.696153959433474,51.26819620710176,1319.999548893422,-6.89858928240028e-05,-2.104821430748416e-05,0.0,1.1368683772161603e-12,2.2737367544323206e-12,0.0,151.61214285714226,70.0,0.0,255.0,0.0
39.25000000000041,35.69615059558757,51.26819549485228,1319.9995490433648,-6.89858928240028e-05,-2.104821419379732e-05,0.0,-1.136868268795943e-12,0.0,0.0,151.53973214285654,70.0,0.0,255.0,0.0
39.300000000000416,35.696147232092294,51.2681947824701,1319.9995491923764,-6.898589293768964e-05,-2.104821430748416e-05,0.0,0.0,-1.1368683772161603e-12,0.0,151.4673214285708,70.0,0.0,255.0,0.0
39.35000000000042,35.69614386894749,51.26819406995469,1319.9995493404567,-6.89858928240028e-05,-2.104821430748416e-05,0.0,1.136868268795943e-12,0.0,0.0,151.39491071428512,70.0,0.0,255.0,0.0
39.40000000000042,35.69614050615303,51.26819335730551,1319.9995494876057,-6.89858928240028e-05,-2.104821430748416e-05,0.0,0.0,1.1368683772161603e-12,0.0,151.3224999999994,70.0,0.0,255.0,0.0
39.450000000000415,35.69613714370878,51.26819264452202,1319.9995496310294,-6.89858928240028e-05,-2.104821419379732e-05,0.0,1.0842021724855044e-19,1.1368683772161603e-12,0.0,151.25008928571367,70.0,0.0,255.0,0.0
39.50000000000042,35.696133781614606,51.26819193160368,1319.9995497753844,-6.89858928240028e-05,-2.104821419379732e-05,0.0,-1.1368683772161603e-12,-2.2737367544323206e-12,0.0,151.17767857142798,70.0,0.0,255.0,0.0
39.55000000000042,35.69613041987034,51.26819121854993,1319.9995499178767,-6.898589293768964e-05,-2.1048214421170997e-05,0.0,-1.0842021724855044e-19,0.0,0.0,151.10526785714225,70.0,0.0,255.0,0.0
39.60000000000042,35.696127058475874,51.26819050536023,1319.9995500585064,-6.89858928240028e-05,-2.104821419379732e-05,0.0,1.1368683772161603e-12,2.2737367544323206e-12,0.0,151.03285714285653,70.0,0.0,255.0,0.0
39.65000000000042,35.69612369743105,51.26818979203406,1319.9995502000675,-6.89858928240028e-05,-2.104821419379732e-05,0.0,-5.684340801878629e-13,-1.1368683772161603e-12,0.0,150.96044642857083,70.0,0.0,255.0,0.0
39.70000000000042,35.69612033673574,51.268189078570856,1319.9995503388345,-6.898589288084622e-05,-2.104821430748416e-05,0.0,-5.684341886080801e-13,-1.1368683772161603e-12,0.0,150.8880357142851,70.0,0.0,255.0,0.0
39.750000000000426,35.69611697638979,51.26818836497009,1319.9995504776016,-6.898589288084622e-05,-2.104821430748416e-05,0.0,5.684340801878629e-13,0.0,0.0,150.8156249999994,70.0,0.0,255.0,0.0
39.80000000000042,35.69611361639306,51.26818765123122,1319.9995506126434,-6.89858928240028e-05,-2.104821430748416e-05,0.0,0.0,0.0,0.0,150.74321428571366,70.0,0.0,255.0,0.0
39.85000000000042,35.69611025674541,51.2681869373537,1319.9995507495478,-6.898589288084622e-05,-2.104821430748416e-05,0.0,-5.684340801878629e-13,0.0,0.0,150.67080357142797,70.0,0.0,255.0,0.0
39.900000000000425,35.69610689744671,51.26818622333698,1319.9995508817956,-6.898589288084622e-05,-2.104821430748416e-05,0.0,5.684341886080801e-13,0.0,0.0,150.59839285714224,70.0,0.0,255.0,0.0
39.95000000000043,35.69610353849679,51.26818550918054,1319.9995510168374,-6.89858928240028e-05,-2.104821430748416e-05,0.0,-1.0842021724855044e-19,0.0,0.0,150.52598214285652,70.0,0.0,255.0,0.0
40.000000000000426,35.696100179895524,51.26818479488382,1319.9995511500165,-6.898589288084622e-05,-2.104821430748416e-05,0.0,0.0,1.1368683772161603e-12,0.0,150.4535714285708,70.0,0.0,255.0,0.0
40.05000000000042,35.69609682164277,51.26818408044631,1319.999551278539,-6.89858928240028e-05,-2.104821419379732e-05,0.0,1.0842021724855044e-19,1.1368683772161603e-12,0.0,150.3811607142851,70.0,0.0,255.0,0.0
40.10000000000043,35.69609346373836,51.268183365867436,1319.9995514089242,-6.898589288084622e-05,-2.104821419379732e-05,0.0,-5.684341886080801e-13,-1.1368683772161603e-12,0.0,150.30874999999938,70.0,0.0,255.0,0.0
40.15000000000043,35.696090106182176,51.26818265114668,1319.9995515346527,-6.898589288084622e-05,-2.104821430748416e-05,0.0,5.684340801878629e-13,0.0,0.0,150.23633928571365,70.0,0.0,255.0,0.0
40.20000000000043,35.69608674897406,51.2681819362835,1319.9995516641065,-6.89858928240028e-05,-2.104821419379732e-05,0.0,0.0,0.0,0.0,150.16392857142796,70.0,0.0,255.0,0.0
40.250000000000426,35.69608339211384,51.26818122127733,1319.999551789835,-6.898589288084622e-05,-2.104821430748416e-05,0.0,1.0842021724855044e-19,-1.1368683772161603e-12,0.0,150.09151785714224,70.0,0.0,255.0,0.0
40.30000000000043,35.69608003560141,51.26818050612767,1319.9995519127697,-6.89858928240028e-05,-2.104821430748416e-05,0.0,0.0,0.0,0.0,150.0191071428565,70.0,0.0,255.0,0.0
40.350000000000435,35.69607667943661,51.26817979083397,1319.9995520357043,-6.898589288084622e-05,-2.104821430748416e-05,0.0,-5.684342970282974e-13,0.0,0.0,149.9466964285708,70.0,0.0,255.0,0.0
40.40000000000043,35.696073323619274,51.26817907539567,1319.9995521567762,-6.898589288084622e-05,-2.104821430748416e-05,0.0,5.684341886080801e-13,1.1368683772161603e-12,0.0,149.8742857142851,70.0,0.0,255.0,0.0
40.45000000000043,35.69606996814927,51.268178359812254,1319.9995522778481,-6.89858928240028e-05,-2.104821419379732e-05,0.0,1.0842021724855044e-19,0.0,0.0,149.80187499999937,70.0,0.0,255.0,0.0
40.50000000000043,35.69606661302643,51.26817764408318,1319.9995523970574,-6.898589288084622e-05,-2.104821430748416e-05,0.0,0.0,-2.2737367544323206e-12,0.0,149.72946428571368,70.0,0.0,255.0,0.0
